time,seconds_elapsed,z,y,x
1667825050911998200,0.022998291015625,0.898636354419589,-1.0688818619221447,-0.41927075640521944
1667825050922006300,0.03300634765625,0.6716004536807537,-1.2528230095610022,-0.39600181675963103
1667825050932013300,0.043013427734375,0.5878372978448867,-1.3726114185020326,-0.4360736418418586
1667825050942021400,0.053021484375,0.593029021269083,-1.3438047184735535,-0.533175441069901
1667825050952029200,0.063029296875,0.5410574264913797,-1.206032324552536,-0.6606940789368003
1667825050962036500,0.073036376953125,0.5048036253273487,-1.0832798051089048,-0.790380635427311
1667825050972044300,0.083044189453125,0.5190560225635766,-1.0435782015785575,-0.8956938712269067
1667825050982051300,0.09305126953125,0.5647562819868326,-1.0442498172298074,-0.8605037537716329
1667825050992059100,0.10305908203125,0.5118512057512998,-1.0430930484101175,-0.7797311580538749
1667825051002067200,0.113067138671875,0.42581192167699333,-0.9912649537563324,-0.7154651682399212
1667825051012074200,0.12307421875,0.39210137525498867,-0.9157564160466194,-0.7425252437967806
1667825051022082300,0.133082275390625,0.2911193735927343,-0.9279425284028052,-0.7419608879122883
1667825051032089300,0.14308935546875,0.3152250563234091,-1.1295075955376028,-0.3623659795416519
1667825051042097400,0.153097412109375,0.38067280326783653,-1.1994663901656866,-0.3042849254403263
1667825051052105200,0.163105224609375,0.4127180468261242,-0.9222329185843468,-0.4287064375421032
1667825051062112300,0.1731123046875,0.5569301184058189,-0.2887134814947843,-0.5808693219957873
1667825051072120000,0.1831201171875,0.5407458763241768,0.12390665791481732,-0.9072608287714421
1667825051082127400,0.19312744140625,0.22180676791369913,-0.13004150740802287,-1.16831429605484
1667825051092135200,0.20313525390625,-0.04058978454172611,-0.5082335997760296,-1.168434561433643
1667825051102143200,0.213143310546875,-0.2672697114497423,-0.7087552953377365,-0.9076457364358007
1667825051112150300,0.223150390625,-0.2776870605677366,-0.6076964290469885,-0.5166399743977934
1667825051122158300,0.233158447265625,-0.059581485259532926,-0.4414467131823301,-0.012341814374551176
1667825051132165000,0.2431650390625,0.46912908535599707,-0.4098711329624057,0.34624994385801255
1667825051142173200,0.253173095703125,0.8298322827845811,-0.7927046213954687,0.24747177238296716
1667825051152180200,0.26318017578125,1.1771359004139899,-1.3153437631428242,0.42221017085798085
1667825051162188300,0.273188232421875,1.7308809590429066,-1.6422174639448524,0.48848381069991736
1667825051172196400,0.2831962890625,2.064451819396019,-2.0876763353779912,0.2960152558755129
1667825051182203400,0.293203369140625,1.8074404671102762,-2.6590330385431646,0.17214849157966672
1667825051192211500,0.30321142578125,0.9322767582148312,-2.9356299657866356,0.4003446682695299
1667825051202218200,0.31321826171875,-0.304844532084465,-1.9042279396921395,0.2849664769861847
1667825051212226300,0.323226318359375,-1.8303624930143356,-0.8420227790549397,-0.0784520438157022
1667825051222234400,0.333234375,-0.572905686172843,-0.777849289830029,0.11655695273913443
1667825051232241400,0.343241455078125,-0.011914894199371338,-1.2290206936910748,0.25991624341439457
1667825051242249200,0.353249267578125,0.78145608215034,-2.101574220088124,0.1692975225953385
1667825051252256500,0.363256591796875,0.7206330723971128,-2.5489012234807014,-0.21400288922972976
1667825051262264300,0.373264404296875,0.5149649538576603,-2.4167931389316917,-0.7949466281685977
1667825051272272400,0.3832724609375,0.2468003393948078,-1.9849866530150173,-1.1479543757237494
1667825051282279200,0.393279052734375,-0.0101040453851223,-1.3393462777599692,-0.8557430421758443
1667825051292287200,0.403287353515625,-0.17615736189484596,-0.6227022749990224,-0.3670120517818257
1667825051302294300,0.413294189453125,-0.042860067561268804,0.1511409940600395,0.01163849754394032
1667825051312302300,0.42330224609375,0.3206219469308853,0.7747612606868147,-0.05932466095425188
1667825051322310700,0.433310546875,0.6002396833002567,0.9972674090415239,-0.2552511742128059
1667825051332317700,0.443317626953125,0.6306874285340309,0.9117831285014748,-0.24884349912758916
1667825051342325800,0.45332568359375,0.661504591602087,0.8914762535318732,-0.010015494885412044
1667825051352332500,0.46333251953125,0.6876391498118638,0.8865382126078009,0.08741287398245184
1667825051362340600,0.473340576171875,0.5144330389380455,0.7034826156318187,0.0874790162875317
1667825051372348700,0.4833486328125,0.3459358364075422,0.4160527442067861,0.16808716042488814
1667825051382355700,0.493355712890625,0.39981706419885155,0.1908449356779456,0.34115368016492575
1667825051392363500,0.503363525390625,0.46741526717543597,0.07252893737703561,0.6113673361120745
1667825051402370800,0.513370849609375,0.3797428289413452,-0.006327449455857276,0.6476778724320232
1667825051412378600,0.523378662109375,0.49195291158258914,-0.07098755315393208,0.5864004334421828
1667825051422385700,0.5333857421875,0.935115781033039,-0.1340963357567787,0.650530777645111
1667825051432393500,0.5433935546875,1.1405249563753603,-0.11418693567216395,0.6206237151592969
1667825051442401500,0.553401611328125,1.41725515460968,-0.033575229604542255,0.6084135278077796
1667825051452408600,0.56340869140625,1.7570640325695275,0.15152210233211516,0.5184861867863685
1667825051462416600,0.573416748046875,2.1688538586348294,0.3596969429954886,0.41382388917617496
1667825051472423700,0.583423583984375,2.4585955141335725,0.4073120961293578,0.4421778770010918
1667825051482431700,0.593431640625,2.569819508346915,0.33896979678720235,0.5521589950138702
1667825051492439600,0.603439453125,2.762114935094118,0.20463526836037635,0.6025289632812142
1667825051502446600,0.613446533203125,2.8924148011773823,0.19526304438114164,0.5279797721229493
1667825051512454400,0.623454345703125,2.7076111914902925,0.38036001099161804,0.4560230816759169
1667825051522461700,0.633461669921875,2.3037165025889874,0.5982886222977191,0.1767443680025637
1667825051532469500,0.643469482421875,1.6302584383428096,0.692674513630569,-0.09312427389919757
1667825051542477600,0.6534775390625,0.9109738579452037,0.5637570052837952,-0.4000942737050354
1667825051552484600,0.663484619140625,-0.26927579057514667,0.257362869137153,-0.7701461681067943
1667825051562492700,0.67349267578125,-1.5576087971955537,-0.18990327091366052,-0.8027367705881595
1667825051572499500,0.68349951171875,-1.7523785051018,-0.2819425260551274,-0.9026078883990645
1667825051582507500,0.693507568359375,-0.6919371392667293,0.8713976343601941,-1.3593945017933844
1667825051592515600,0.703515625,-0.2890297078371048,2.15121912548393,-1.9111060087680816
1667825051602522600,0.713522705078125,-1.07153909843266,2.8538687974229453,-1.8041466862618922
1667825051612530700,0.72353076171875,-1.4993950931578874,2.941088523453474,-1.208846505190432
1667825051622537700,0.733537841796875,-1.6342998226881027,2.3218369734302162,-0.8738660703003406
1667825051632545800,0.7435458984375,-1.6339584619045258,1.6541250516206025,-0.92398911460191
1667825051642552600,0.753552490234375,-1.5498615440696477,1.3490525559991597,-1.0828738546565175
1667825051652560600,0.763560546875,-1.2892238179802893,1.1383695319071412,-0.9625468087941408
1667825051662568400,0.773568359375,-0.8482476449191569,0.8787561804294586,-0.6347384574905037
1667825051672575700,0.78357568359375,-0.3268430134028196,0.7860355188950896,-0.2658789877437055
1667825051682583600,0.79358349609375,0.026042203751206396,0.7091799504905939,0.1729213025830686
1667825051692590600,0.803590576171875,0.18934651381373405,0.5082452902138233,0.4590495898902416
1667825051702598700,0.8135986328125,0.13614800758957862,0.27427345273196696,0.4362979521170258
1667825051712606700,0.823606689453125,0.016770517536997796,0.0873389684960246,0.24704408502280711
1667825051722613500,0.833613525390625,0.08863046961128711,0.023862813885509968,0.13368220199793576
1667825051732621600,0.84362158203125,0.09670271690785884,0.03271569016575813,0.04197977759540081
1667825051742628600,0.853628662109375,0.13316226977705956,0.03428834630995989,0.003808160111308098
1667825051752636700,0.86363671875,0.2742109088897705,-0.04065700455904007,-0.034188977588713164
1667825051762644500,0.87364453125,0.4004296431392431,-0.20606559342443942,-0.1227224165663123
1667825051772651800,0.88365185546875,0.5228577529340982,-0.41030104881227014,-0.23109482074081897
1667825051782659600,0.89365966796875,0.6689280196011066,-0.5460059888094664,-0.41714200074821706
1667825051792666600,0.90366650390625,0.8177811949849129,-0.6063073127761482,-0.4558505015879869
1667825051802674400,0.91367431640625,0.954208019515872,-0.7247042673587799,-0.4402797152295708
1667825051812682800,0.923682861328125,1.0757564238667487,-0.782992790198326,-0.37307197287529703
1667825051822689500,0.933689453125,1.2486276036977768,-0.7932979111135006,-0.30947862162590023
1667825051832697600,0.943697509765625,1.4235557160586119,-0.765489866733551,-0.2639996037378907
1667825051842704600,0.95370458984375,1.5379320368230343,-0.6726689596951008,-0.22133710457533598
1667825051852712700,0.963712646484375,1.6608184117794036,-0.5887415532082318,-0.13545958693400026
1667825051862719500,0.973719482421875,1.792380845144391,-0.4873676296189427,-0.03203866768702864
1667825051872727600,0.9837275390625,1.8201871359586714,-0.32081133202314377,0.08409019583314657
1667825051882735600,0.993735595703125,1.8181763806581497,-0.21012334438264368,0.17350567834228275
1667825051892742700,1.00374267578125,1.8415934966027736,-0.12671645463854073,0.34797552554160355
1667825051902750700,1.013750732421875,1.8371137208402155,-0.1091200076714158,0.5320549126073718
1667825051912757800,1.0237578125,1.8091244746744632,-0.14104776232987642,0.6975915117666125
1667825051922765800,1.033765869140625,1.7683254312962293,-0.23062165027111767,0.8060175458244979
1667825051932773600,1.043773681640625,1.7488281191438435,-0.3144032185465097,0.9457065870217979
1667825051942780400,1.053780517578125,1.6470581819742918,-0.30163609143197534,1.079515045747906
1667825051952788500,1.06378857421875,1.5284136823713779,-0.1638169357597828,1.2199047825604676
1667825051962795500,1.07379541015625,1.5064742377638816,-0.03687953184694052,1.370350487832725
1667825051972803600,1.083803466796875,1.4182254609465599,0.007193126374483108,1.4878648143619297
1667825051982811600,1.093811767578125,1.263930971291661,0.029142800115048884,1.6469145357199013
1667825051992818700,1.103818603515625,1.2444459340989589,0.05097556947767734,1.8092860949769616
1667825052002826800,1.11382666015625,1.2505465890616179,0.04871317750364542,1.9872431997701525
1667825052012833500,1.12383349609375,1.2445657610863445,0.07671352958530187,2.173339771877229
1667825052022841600,1.133841552734375,1.200342003956437,0.10304507167190313,2.3312933685615658
1667825052032849700,1.143849609375,1.1436036331683397,0.14774433735907078,2.4666391198575495
1667825052042856700,1.153856689453125,1.073967202362418,0.23208792343139648,2.5630390544265507
1667825052052864500,1.163864501953125,0.9722907886952161,0.3428323174342513,2.6287311315208672
1667825052062871800,1.173871826171875,0.8544277948588133,0.5180605817854405,2.647323603788018
1667825052072879600,1.183879638671875,0.6892413243114948,0.6549456714779138,2.7223689079001545
1667825052082886700,1.19388671875,0.4618722460955381,0.6587395108029246,2.8139877456724642
1667825052092894500,1.20389453125,0.09449263964295387,0.6183712600573897,2.889304852463305
1667825052102902500,1.213902587890625,-0.21590134326219557,0.6440706417202949,2.7954139781057834
1667825052112909600,1.22390966796875,-0.4767079961776733,0.7702502130031585,2.633647252874076
1667825052122917600,1.233917724609375,-0.777972331687808,0.8991203385442494,2.5302602358967063
1667825052132924700,1.243924560546875,-1.1059282747685908,0.9434852577105164,2.5589962087765334
1667825052142932700,1.2539326171875,-1.4986866526275873,0.8858876397445797,2.5654154281690715
1667825052152940500,1.2639404296875,-2.0497709676146507,0.9246127994582056,2.572052089704573
1667825052162947600,1.273947509765625,-2.743108621329069,1.1450982556402682,2.4243816943645475
1667825052172955400,1.283955322265625,-3.2771254816591737,1.6335574798882007,1.9805331807374953
1667825052182962700,1.293962646484375,-3.499617893749475,2.2639631688714026,1.3950813167244196
1667825052192970500,1.303970458984375,-3.5814983045786617,2.698331614230573,0.8287205221503973
1667825052202978600,1.313978515625,-3.5952515201210975,2.814599740090966,0.3338698432996869
1667825052212985600,1.323985595703125,-3.688705464366078,2.747597164919972,-0.09716098206937313
1667825052222993700,1.33399365234375,-3.7284056065917013,2.51395382874012,-0.40977381006777286
1667825052233000400,1.34400048828125,-3.6323476173281666,2.010935041002929,-0.45708822668939825
1667825052243008500,1.354008544921875,-3.53332785564959,1.2391712085664273,-0.26483137838691473
1667825052253016800,1.364016845703125,-3.281009629616141,0.4075952969849109,-0.1292275606766343
1667825052263023600,1.374023681640625,-2.833343019005656,-0.28660920269191265,-0.17289222261905668
1667825052273031700,1.38403173828125,-2.3609955561250446,-0.779529498001933,-0.3220364899039268
1667825052283038700,1.394038818359375,-1.960641316309571,-1.0991682791143655,-0.7727671642601489
1667825052293046800,1.404046875,-1.672289653864503,-1.2794821761667727,-1.376538528817892
1667825052303054600,1.4140546875,-1.420614401909709,-1.3637766624003649,-1.8149179633840917
1667825052313061600,1.4240615234375,-1.3250181849390268,-1.421367850625515,-2.126250396183133
1667825052323073000,1.434072998046875,-1.3314794899076223,-1.4775205304801464,-2.386222936362028
1667825052333080300,1.444080322265625,-1.2779390383780003,-1.507225348392129,-2.362675472036004
1667825052343088000,1.454088134765625,-1.0655348895817995,-1.6096221852883696,-1.959987236315012
1667825052353095200,1.46409521484375,-0.8201262968063354,-1.8152137314602732,-1.4821543277606368
1667825052363103200,1.474103271484375,-0.6774667153656482,-2.0241870290249584,-1.175897590790689
1667825052373111300,1.484111328125,-0.565561168628931,-2.221819432885945,-0.9979828638345003
1667825052383118000,1.4941181640625,-0.39902912869155405,-2.4365678067207335,-0.9836807822376489
1667825052393126100,1.504126220703125,-0.3207926273226738,-2.5370377672076225,-0.9701663438871503
1667825052403133200,1.51413330078125,-0.18719313517212866,-2.510532914380729,-0.8048460178270935
1667825052413141200,1.524141357421875,-0.14870470682382583,-2.4287100789576765,-0.7426619488537312
1667825052423149300,1.5341494140625,-0.10994622936248778,-2.135586672066152,-0.7541250076323747
1667825052433156400,1.54415625,-0.11465806031525135,-1.7318150250226259,-0.7114771215170621
1667825052443164400,1.554164306640625,-0.11209551635086536,-1.5042065850928426,-0.6291898834526538
1667825052453171200,1.564171142578125,-0.04543371744155884,-1.3894734137147664,-0.5317836944505572
1667825052463179300,1.57417919921875,-0.06511983016431332,-1.2825190596446394,-0.536392649550736
1667825052473187300,1.584187255859375,-0.046126960402727124,-1.1686641324058173,-0.4598018695622682
1667825052483194400,1.5941943359375,0.07084288398623466,-1.1437237524166703,-0.23043927944153547
1667825052493202200,1.6042021484375,0.1334124451458454,-1.1403069297105073,-0.18497925851494074
1667825052503209500,1.61420947265625,0.21988018376529214,-1.0007821391642093,-0.25527269192487
1667825052513217300,1.62421728515625,0.4174608574390411,-0.7764294861599802,-0.3388949779853225
1667825052523225300,1.634225341796875,0.5706657982915639,-0.6160170981466769,-0.47296705608367917
1667825052533232000,1.644232177734375,0.74437985868752,-0.5936702417820692,-0.49797290252447124
1667825052543240200,1.654240234375,0.8999965368568896,-0.6807841693505644,-0.5071542801067233
1667825052553247200,1.664247314453125,1.0167682283252477,-0.6764315270990133,-0.4717351762011647
1667825052563255300,1.67425537109375,1.230336744725704,-0.49462768374979493,-0.5956218142412603
1667825052573263000,1.68426318359375,1.4493267016530036,-0.22206951050311324,-0.8517408938623964
1667825052583270400,1.6942705078125,1.6224147391051054,-0.06401245344430208,-1.0106238803513348
1667825052593278200,1.7042783203125,1.7990531625151633,-0.0467816249191761,-1.0869006259545684
1667825052603285200,1.71428515625,1.8992571655422448,-0.048372693502902984,-1.162478721769154
1667825052613293000,1.72429296875,1.9473451968848705,0.09739625212997198,-1.2830081583358346
1667825052623301400,1.73430126953125,2.07673963856101,0.29898236205279827,-1.4096798970498143
1667825052633308200,1.74430810546875,2.3011796775877476,0.4536138285771012,-1.5161263015978037
1667825052643316200,1.754316162109375,2.49616156693995,0.4983385209664702,-1.5844225698411463
1667825052653323300,1.7643232421875,2.6588340088397264,0.5292746342390775,-1.6688304533213376
1667825052663331300,1.774331298828125,2.766822089871764,0.64922247152552,-1.7238842320233583
1667825052673338000,1.784338134765625,2.8763568158239123,0.7319780577540397,-1.6512207084812223
1667825052683346200,1.79434619140625,2.8764357262790203,0.6929648748792707,-1.5725032917276023
1667825052693354200,1.804354248046875,2.721708105903864,0.684395637845993,-1.5800402631036936
1667825052703361300,1.814361328125,2.529718384104967,0.8200095385588705,-1.6571461530074476
1667825052713369000,1.824369140625,2.311534482863545,1.0856756142042576,-1.8054142219796776
1667825052723376400,1.83437646484375,2.082796454381943,1.445614403131604,-2.0196645831644533
1667825052733384200,1.84438427734375,1.875121672195196,1.8027423724219203,-2.2814975103877484
1667825052743392300,1.854392333984375,1.6698182953149079,2.085726808745414,-2.4728648625046015
1667825052753399000,1.86439892578125,1.4311691136717795,2.2255255939275025,-2.4929642322033643
1667825052763407000,1.874406982421875,1.2303566184699535,2.139203839650005,-2.3248453614659605
1667825052773414100,1.8844140625,1.0219482613116502,2.0040121098719537,-1.9753728753648696
1667825052783422200,1.894422119140625,0.8334960659891366,1.9660953439317643,-1.7093574017599225
1667825052793430300,1.90443017578125,0.7417395733118057,1.9648105648182332,-1.6055129964038728
1667825052803437300,1.914437255859375,0.7141086390644311,1.9470073432326316,-1.4490265496626495
1667825052813445400,1.9244453125,0.7165250525563955,1.8596100686781107,-1.195513560886681
1667825052823452200,1.9344521484375,0.6652431936085224,1.6888018127262592,-0.9390279860407114
1667825052833460200,1.944460205078125,0.6221329506784677,1.5005957011193036,-0.6940795581229031
1667825052843468300,1.95446826171875,0.6583019961684942,1.3367957164943218,-0.43838425687178967
1667825052853475300,1.964475341796875,0.636091917926073,1.1627142840906977,-0.2392394026212394
1667825052863483100,1.974483154296875,0.6282464651226997,0.9993407081842421,-0.03578092295527458
1667825052873490400,1.984490478515625,0.6193044492542743,0.842286982949078,0.22738719839453697
1667825052883498200,1.994498291015625,0.5454126990914344,0.6741235424175858,0.4676034832239151
1667825052893506300,2.00450634765625,0.49131402915716166,0.4815253333315253,0.6507222085639834
1667825052903513000,2.01451318359375,0.3939642465174198,0.32285569733232256,0.7782692688077688
1667825052913521400,2.024521484375,0.21438567800223826,0.1952005005389452,0.8782277726411819
1667825052923528200,2.034528076171875,0.04821604163646698,0.10441899037361145,0.9209323573797941
1667825052933536300,2.044536376953125,-0.1077232926160097,0.06287205123752355,0.9580766776427626
1667825052943543300,2.054543212890625,-0.2464385203450918,0.06012596739977598,1.007140860541165
1667825052953551400,2.06455126953125,-0.4177753302156925,0.036270752298831935,1.0491302827477456
1667825052963559200,2.07455908203125,-0.5573147338092327,-0.032170331242680546,1.147247542628646
1667825052973566200,2.084566162109375,-0.6627402708768845,-0.12912117769271134,1.199416705805063
1667825052983574300,2.09457421875,-0.7267746438920497,-0.14770575891435145,1.201475976422429
1667825052993581300,2.104581298828125,-0.7413800923496484,-0.12302490664422511,1.2302674788817762
1667825053003589000,2.114589111328125,-0.7538882762670517,-0.08210136010348797,1.2907999812558293
1667825053013597200,2.12459716796875,-0.6519996811538934,-0.08177198201864957,1.3495000075057149
1667825053023604200,2.134604248046875,-0.5351695374965667,-0.08934504762142896,1.3740835368812083
1667825053033612300,2.1446123046875,-0.4991431153476238,-0.13915595723390578,1.4230413367956876
1667825053043619000,2.154619140625,-0.4846645081400871,-0.23886428569853305,1.5066981096476315
1667825053053627100,2.164627197265625,-0.5859107136964797,-0.3109302817389369,1.5942930987313388
1667825053063635500,2.174635498046875,-0.6392863300532102,-0.3712514794498682,1.7018930572286248
1667825053073642200,2.184642333984375,-0.6023936464637517,-0.40260231100320815,1.734353019067645
1667825053083650300,2.194650390625,-0.5965975274056196,-0.32938071518689394,1.7205214775919913
1667825053093657300,2.2046572265625,-0.6999275534987449,-0.24835662892609833,1.7881053597822785
1667825053103665400,2.21466552734375,-0.9171230282247066,-0.1769941049799323,1.8631196842342614
1667825053113673200,2.224673095703125,-1.103742162901163,-0.031141280455887314,1.8026900577127933
1667825053123680300,2.23468017578125,-1.2394336588948964,0.2139195217952132,1.6554902024939655
1667825053133688300,2.244688232421875,-1.3397393687307835,0.3964081325381994,1.5096043524831533
1667825053143695400,2.2546953125,-1.4141495898097753,0.4496037161529064,1.4730010072290896
1667825053153703200,2.264703125,-1.4774275914996862,0.4100660710126161,1.532548297958076
1667825053163711200,2.274711181640625,-1.4867834488660097,0.282149300673604,1.6985744341999292
1667825053173718300,2.28471826171875,-1.5874825419336556,0.1378065884515643,1.899724783053994
1667825053183726300,2.294726318359375,-1.9288807349115609,0.1463221956014633,2.018915810623765
1667825053193733000,2.304733154296875,-2.3262995057970284,0.47905017538964745,1.9195079264104364
1667825053203741400,2.314741455078125,-2.660252058944106,1.0099348751738666,1.4925444966107606
1667825053213749200,2.324749267578125,-2.8738381110012527,1.4378195114716887,0.9090528267547487
1667825053223756300,2.33475634765625,-3.03304083096385,1.5887708281785249,0.5142480377599596
1667825053233764000,2.34476416015625,-3.1612124528467653,1.3986939542636274,0.34276626646071673
1667825053243771400,2.354771484375,-3.180864663299918,1.002082700368762,0.2683437704220414
1667825053253779200,2.364779296875,-2.974969750267267,0.5182958518460392,0.33571488664448257
1667825053263787300,2.374787353515625,-2.573808870244026,-0.03680412852317094,0.3556476676046848
1667825053273794000,2.3847939453125,-2.1484522911190984,-0.5861018523544073,0.26144787342846393
1667825053283802400,2.39480224609375,-1.7609984494090078,-1.0082900305762887,0.030908348482847212
1667825053293809200,2.40480908203125,-1.4969500380933285,-1.2419883118137716,-0.3051902767822146
1667825053303817200,2.414817138671875,-1.22116851888597,-1.4111723275646566,-0.8150719360262155
1667825053313825000,2.424824951171875,-1.1290309179365634,-1.611174675427377,-1.4614026316329836
1667825053323831800,2.434831787109375,-1.0495791955590248,-1.7438275343775749,-1.9112702594190836
1667825053333839600,2.444839599609375,-1.059163016462326,-1.8397627740442752,-2.0550728734150527
1667825053343847000,2.454846923828125,-1.1717805108606814,-1.932937024565041,-2.0087001215577125
1667825053353854700,2.464854736328125,-1.1774234851837158,-1.9737819529116152,-1.8513456598103046
1667825053363861800,2.47486181640625,-1.0754372749149799,-2.009112501750886,-1.5489818386256693
1667825053373869600,2.48486962890625,-0.9111229110270738,-2.043326321519911,-1.1665206906363368
1667825053383877600,2.494877685546875,-0.7826379854112863,-2.0370283904194832,-0.8469082130089401
1667825053393884700,2.504884765625,-0.6323790348827839,-2.050051830382645,-0.6684297146901488
1667825053403892700,2.514892822265625,-0.38649347224533553,-1.9353753576278685,-0.4277408439129591
1667825053413899800,2.524899658203125,-0.31766192808151245,-1.8161501355275511,-0.31865824564248324
1667825053423907800,2.534907958984375,-0.3018646394908428,-1.7375287264943122,-0.225471720162034
1667825053433916000,2.544916015625,-0.23533728061616419,-1.5740376616880296,-0.05714432124048471
1667825053443922700,2.554922607421875,-0.21349837377369402,-1.34892162309587,0.12441051578372717
1667825053453930800,2.5649306640625,-0.2228191598266363,-1.1381684563770889,0.29167320808321234
1667825053463938800,2.574938720703125,-0.14378537060022353,-0.9984560343042015,0.40447278105020523
1667825053473945900,2.58494580078125,-0.08582593358457088,-0.8988277853384613,0.5013365337386727
1667825053483953700,2.59495361328125,-0.061849430191516876,-0.7472761646509171,0.507928771610558
1667825053493961000,2.6049609375,-0.014939794978499411,-0.5032359376192093,0.3896200798332691
1667825053503968800,2.61496875,0.038304303953051566,-0.2227373267620802,0.23334552227705715
1667825053513975600,2.6249755859375,0.11813421199321746,-0.035547990982234476,0.10261194095164537
1667825053523983600,2.634983642578125,0.146518594956398,0.07742138559371232,-0.0487292518556118
1667825053533992000,2.644991943359375,0.1455459505319595,0.1616974593877792,-0.14400953474491834
1667825053543998700,2.654998779296875,0.1992950763761997,0.21855624168515203,-0.27137276285439726
1667825053554006800,2.6650068359375,0.2877390835046768,0.2718625921979546,-0.4194610913455486
1667825053564013800,2.675013916015625,0.4586041842103004,0.34928777718394993,-0.5778752912789583
1667825053574022000,2.68502197265625,0.6697264765024185,0.49449353597611184,-0.6591501374304294
1667825053584029700,2.69502978515625,0.9419693001896142,0.6160238201484084,-0.810206960338354
1667825053594036700,2.70503662109375,1.1928887653410434,0.7462250481627881,-1.0406462397798895
1667825053604044800,2.715044921875,1.3450263692229985,0.8826846059195697,-1.3025000636607407
1667825053614051800,2.7250517578125,1.5116612850129603,0.9754784788206219,-1.5286477833881973
1667825053624059600,2.7350595703125,1.7483225077092646,1.0437043121762573,-1.6208458823531866
1667825053634067700,2.745067626953125,1.9778180765599012,1.0992946819730103,-1.6906600078135727
1667825053644074800,2.75507470703125,2.252887648105621,1.0999313724413513,-1.7009662977725266
1667825053654082800,2.765082763671875,2.5495827760040757,1.027640627734363,-1.65503427542001
1667825053664089600,2.775089599609375,2.7716683608591555,0.9887132234469056,-1.6303586838468909
1667825053674097700,2.78509765625,2.9826936225175857,0.961964624992013,-1.6335346835345028
1667825053684105700,2.795105712890625,3.2074498878866433,0.8981571926005184,-1.6539029333025217
1667825053694112800,2.80511279296875,3.342037806552648,0.7327019881144166,-1.665467114368081
1667825053704120600,2.81512060546875,3.3469612344294783,0.5704968714654445,-1.5870051336802542
1667825053714128000,2.8251279296875,3.202493142262101,0.5511411597408354,-1.4892477931529282
1667825053724135700,2.8351357421875,2.9786288572967052,0.7138050530079751,-1.472081700427085
1667825053734143700,2.845143798828125,2.747829220110178,0.9491557776276022,-1.506363470865786
1667825053744150500,2.855150634765625,2.572993462207913,1.0743827974259852,-1.5460621517866848
1667825053754158800,2.865158935546875,2.3989807111263275,1.1310940610114484,-1.6005436835587024
1667825053764165600,2.87516552734375,2.117089769127965,1.218006036267057,-1.6414201760873197
1667825053774173700,2.885173583984375,1.7924696924716232,1.347419986361265,-1.7072846871390939
1667825053784181800,2.895181640625,1.5304484030693768,1.457340935152024,-1.677729506830871
1667825053794188800,2.905188720703125,1.2758008573055266,1.3801318771347402,-1.4722329454660414
1667825053804196900,2.91519677734375,1.009684407544136,1.0929229549840092,-1.2765551828041672
1667825053814203600,2.92520361328125,0.7784779431223869,0.8041950065724551,-1.1205994819387792
1667825053824211700,2.935211669921875,0.7073533195853233,0.6286641060128808,-0.9775877260595559
1667825053834219800,2.9452197265625,0.694332509970665,0.49075142683833833,-0.8271089953005314
1667825053844226800,2.955226806640625,0.6576151829481125,0.26223317858725786,-0.608885346570611
1667825053854234600,2.965234619140625,0.5586982971221208,-0.01175882685482502,-0.35713176868259905
1667825053864242000,2.975241943359375,0.4940460844695568,-0.24845526699498294,-0.08681114522963762
1667825053874249700,2.985249755859375,0.4883768066614866,-0.39309374729320407,0.11689210297763347
1667825053884257800,2.9952578125,0.46723757252097126,-0.4239551878944039,0.2263923421382904
1667825053894264600,3.0052646484375,0.3730108903378248,-0.42190877675861116,0.3005602788940072
1667825053904273000,3.01527294921875,0.19848609808087347,-0.4480690539315343,0.3286860109210014
1667825053914279700,3.02527978515625,-0.016327449944615362,-0.5604851805388927,0.3644637190058827
1667825053924287700,3.035287841796875,-0.29513094732165335,-0.6533280071482062,0.3960416373133659
1667825053934295600,3.045295654296875,-0.5928285302609205,-0.6339385392844676,0.40776217798441644
1667825053944302800,3.055302734375,-0.8668208279639482,-0.5411582565173506,0.4268512015968561
1667825053954310700,3.065310546875,-1.1345885520637036,-0.40790976976156235,0.36635435505807395
1667825053964317700,3.075317626953125,-1.3781845424592494,-0.2535501059159636,0.31740152357965706
1667825053974325800,3.08532568359375,-1.482304842147231,-0.1498778422564268,0.3307172244876623
1667825053984333800,3.095333740234375,-1.574169471374154,-0.14034925867170095,0.2904015807121992
1667825053994340600,3.105340576171875,-1.5415490582764149,-0.18339549645483494,0.3091279084920883
1667825054004348700,3.1153486328125,-1.4066729703187941,-0.2006938372582197,0.37253275143206116
1667825054014355700,3.125355712890625,-1.3127069848984478,-0.1619955655515194,0.4752390926688909
1667825054024363800,3.13536376953125,-1.1537649616986512,-0.12941957611739635,0.6459487105518579
1667825054034371800,3.145371826171875,-0.9579664952665566,-0.17992285190820692,0.8127110521137714
1667825054044379000,3.15537890625,-0.7976917621582746,-0.23188772468417881,0.9542717324018478
1667825054054387000,3.165386962890625,-0.7117956859469413,-0.23461510382145642,1.1489420715868472
1667825054064393700,3.175393798828125,-0.6420791756421327,-0.26518939804434777,1.3032809849053621
1667825054074401800,3.18540185546875,-0.6040402446269989,-0.27767390882521864,1.4060340878933668
1667825054084409600,3.19540966796875,-0.6258370658934116,-0.19596768551915883,1.5047271018356083
1667825054094417000,3.2054169921875,-0.6818874544173479,-0.06796411367952823,1.5429352519378066
1667825054104424700,3.2154248046875,-0.7711281648814677,0.06586012713760137,1.5238912365108728
1667825054114431700,3.225431640625,-0.9143383659422397,0.18683043933957813,1.5610682899996637
1667825054124439800,3.235439697265625,-1.0430255361318588,0.2591147543057799,1.6078630666613578
1667825054134447900,3.24544775390625,-1.1787573641359805,0.28336539846509695,1.6402163532555103
1667825054144454700,3.25545458984375,-1.2768559193164108,0.2969897269308567,1.6983724818870425
1667825054154462700,3.265462646484375,-1.292269761547446,0.32180297340899705,1.7187901237547396
1667825054164469800,3.2754697265625,-1.1748375603437422,0.32750556896477934,1.7541218416377902
1667825054174477800,3.285477783203125,-0.9996715475738048,0.29583763428628446,1.839143765363097
1667825054184485600,3.295485595703125,-0.8335188623428345,0.28580606961548327,1.96291861359179
1667825054194493000,3.305492919921875,-0.5859025303900242,0.26703093425780533,2.054958599385619
1667825054204500700,3.315500732421875,-0.33088848940134047,0.19539806893765926,2.111943638411164
1667825054214507800,3.3255078125,-0.04735504089295864,-0.001727262184023857,2.2787848904281853
1667825054224515600,3.335515625,0.057957683449983595,-0.34011589808240533,2.5799346596479413
1667825054234523600,3.345523681640625,-0.14451953009366988,-0.6546335367888212,2.808526849918067
1667825054244530700,3.35553076171875,-0.4385843094885349,-0.7096757711835205,2.8277824622690675
1667825054254538800,3.365538818359375,-0.7073200018376111,-0.4662986842356622,2.234420848044753
1667825054264545800,3.3755458984375,-1.055416231149435,0.10741598023250698,1.2373702966243028
1667825054274553900,3.385553955078125,-1.4451549689263103,0.7531525093384087,0.3276359173461795
1667825054284561700,3.395561767578125,-1.9702415038257837,1.168702126328647,-0.41762101643681526
1667825054294568700,3.405568603515625,-2.4871827261924744,1.201672814168781,-0.9747446115881204
1667825054304576500,3.415576416015625,-2.6895611555367704,0.9196030084721744,-1.2619193392083048
1667825054314583800,3.425583740234375,-2.5745243250370025,0.39733942203894257,-1.3052221821010113
1667825054324592400,3.43559228515625,-2.3386253188848496,-0.2041886936366558,-1.2515759321093558
1667825054334600400,3.445600341796875,-1.9843483551114796,-0.6259545547932386,-1.1543158735796808
1667825054344607200,3.455607177734375,-1.5740876383095979,-0.8503817343384027,-1.2117524557650088
1667825054354615600,3.465615478515625,-1.180906651124358,-0.9912120545253157,-1.2705243782073259
1667825054364622300,3.475622314453125,-0.8314636833786964,-1.0860551150411366,-1.3835700348898767
1667825054374630400,3.48563037109375,-0.8007721925169229,-1.2006059155896305,-1.5937164678871631
1667825054384638200,3.49563818359375,-0.7577899598807096,-1.3293831021502613,-1.597644162724912
1667825054394645500,3.5056455078125,-0.6581903524875641,-1.4366981062263249,-1.500817234915495
1667825054404653300,3.5156533203125,-0.5845493622153997,-1.5119570530891417,-1.310233872783184
1667825054414660400,3.525660400390625,-0.37346740193367,-1.6248963267877696,-1.112235265958309
1667825054424668400,3.53566845703125,-0.12008709962666034,-1.8060563192754984,-0.8904647384017705
1667825054434676500,3.545676513671875,0.14001637345552442,-2.0036276405990123,-0.6557023350641131
1667825054444683300,3.555683349609375,0.3402291491985321,-2.109467019164562,-0.5051479087203741
1667825054454691300,3.56569140625,0.44438627376556394,-1.964451814508438,-0.31796850981265307
1667825054464698400,3.575698486328125,0.4109983834266662,-1.7756513902701436,-0.14944997223317621
1667825054474706400,3.58570654296875,0.3843821791797876,-1.7523389037437735,-0.049903556331992144
1667825054484714200,3.59571435546875,0.3249035697728395,-1.8109620653651655,0.1199883154273033
1667825054494721500,3.605721435546875,0.2809112833112478,-1.8285371772833168,0.30253450157642364
1667825054504729300,3.615729248046875,0.2526554951637983,-1.7526035460293292,0.3597305530041456
1667825054514736400,3.625736328125,0.2678524797737598,-1.6196546267420053,0.3129226245999336
1667825054524744200,3.635744140625,0.31037703177034853,-1.474514918923378,0.21654314829707144
1667825054534752300,3.645752197265625,0.31094167991578575,-1.262890814588964,0.09854512990415096
1667825054544759300,3.65575927734375,0.30721593739092345,-1.029013085131347,-0.004812660978734493
1667825054554767400,3.665767333984375,0.2850257328927517,-0.8158893898889422,-0.14191636185795067
1667825054564774400,3.6757744140625,0.23235388089120387,-0.5828570252142846,-0.29875293721109625
1667825054574782500,3.685782470703125,0.09089841454327106,-0.3072004475608468,-0.5174453724965453
1667825054584790500,3.69579052734375,-0.06372516093552112,-0.03850654852688312,-0.8145955506861209
1667825054594797300,3.70579736328125,-0.17318448356389998,0.17329335076585412,-1.0796659985259174
1667825054604805400,3.715805419921875,-0.17588263660669326,0.26581732068434355,-1.2982517585664988
1667825054614812400,3.7258125,-0.05794365492463111,0.3137712042532861,-1.5016826195731758
1667825054624820500,3.735820556640625,0.11138298416733741,0.48883697151914235,-1.6679826043203472
1667825054634828300,3.745828369140625,0.32186522499024867,0.8094637407556176,-1.8638132194563746
1667825054644835600,3.755835693359375,0.5425087943434715,1.1818772497221828,-2.09869135812819
1667825054654843400,3.765843505859375,0.7796294512450694,1.3865683399230242,-2.215026119484007
1667825054664850400,3.775850341796875,1.0615133789807558,1.288994247008115,-2.201324926389754
1667825054674858200,3.785858154296875,1.4064204568624497,1.091554589240253,-2.094822992262244
1667825054684866300,3.7958662109375,1.7580688256978987,0.999623105322197,-1.9761622721768914
1667825054694873300,3.805873291015625,2.1538158639788625,0.9815459621660411,-1.9334535957850514
1667825054704881400,3.81588134765625,2.568812377130985,0.9491019285485148,-1.9002257183134554
1667825054714888400,3.825888427734375,2.8876994630932806,0.9367974505096673,-1.848831777293235
1667825054724896500,3.835896484375,3.0688813751518724,0.949305780557543,-1.789953471866995
1667825054734904300,3.845904296875,3.0931261740922924,0.9760988757412881,-1.7339776098839939
1667825054744911400,3.855911376953125,2.956218872568011,1.0007898110140114,-1.6787192485205829
1667825054754919200,3.865919189453125,2.745105932626128,1.047423259634152,-1.7075144042417405
1667825054764926500,3.875926513671875,2.4849784941464663,1.1789133584152907,-1.7259775510407984
1667825054774934300,3.885934326171875,2.2437995017647743,1.320752636449039,-1.7228659948915241
1667825054784942300,3.8959423828125,2.0703870546638963,1.432380535288155,-1.7445926735311745
1667825054794949400,3.905949462890625,1.9367349555432796,1.5385203581050038,-1.7339041062563656
1667825054804957400,3.91595751953125,1.7662614845037459,1.6271183867514132,-1.6765514029622077
1667825054814964200,3.925964111328125,1.6645061603814362,1.6300040251903234,-1.546811508849263
1667825054824972300,3.93597216796875,1.5680694009333849,1.5426828846119343,-1.3699839926078914
1667825054834980400,3.94598046875,1.3738000437647104,1.4523989487051963,-1.1205413220107554
1667825054844987400,3.9559873046875,1.2240829450279473,1.3961695503525435,-0.8694263342872262
1667825054854995200,3.9659951171875,1.1195528954952954,1.3340845578394829,-0.7007111050918697
1667825054865002500,3.97600244140625,1.0011720152646302,1.267389002791047,-0.5292044916123152
1667825054875010300,3.98601025390625,0.8719663741588592,1.1992710137240588,-0.37716421062499284
1667825054885018400,3.996018310546875,0.7345593064188957,1.1180667485907674,-0.18089841894209382
1667825054895025200,4.006025146484375,0.6044137541145086,0.967274129576981,-0.007342179456353187
1667825054905033500,4.016033447265625,0.45640579738318915,0.8817563851587474,0.06448153226077556
1667825054915040300,4.026040283203125,0.32329496553242204,0.8784661114417016,0.18051263449490068
1667825054925048300,4.03604833984375,0.21580139001905918,0.8168869495589286,0.374323434241116
1667825054935056400,4.046056396484375,0.09400865551829338,0.6724569243796169,0.5918675762742758
1667825054945063400,4.0560634765625,0.019959084445238112,0.49864568721950053,0.7646069464191794
1667825054955071500,4.066071533203125,-0.024791326907277107,0.33467779868170616,0.8664645618721842
1667825054965078300,4.076078369140625,-0.0959469301044941,0.20224150509163735,0.9751590376079082
1667825054975086300,4.08608642578125,-0.18531915799379348,0.09567030512019992,1.0807856502056121
1667825054985094400,4.096094482421875,-0.2913198646008968,0.06067563717179,1.1247656617075203
1667825054995101400,4.106101318359375,-0.4112520659267902,0.09695216162428259,1.1419354076951742
1667825055005109200,4.116109130859375,-0.5036375041574239,0.12098127198740839,1.1029378607809543
1667825055015116500,4.126116455078125,-0.600278261744976,0.1779244446326047,0.9945669179111718
1667825055025124400,4.136124267578125,-0.7250842065870762,0.28537184291668233,0.9478393612667918
1667825055035132400,4.14613232421875,-0.7720563856422901,0.32365671151690184,0.9910890126675367
1667825055045139200,4.15613916015625,-0.8564905726075172,0.21803535961620507,1.079750754199922
1667825055055147500,4.1661474609375,-0.7874141137719154,0.08509710785336792,1.2389222022414206
1667825055065154300,4.176154296875,-0.718309013363719,0.05819039622731507,1.505607976323366
1667825055075162400,4.186162353515625,-0.6222948632419109,0.028433921193331477,1.7405214785695076
1667825055085170200,4.196170166015625,-0.5050111305981874,-0.06473477636948227,1.9182821840077637
1667825055095177500,4.206177490234375,-0.44046413188576694,-0.1339735130947083,2.0706725936070085
1667825055105185300,4.216185302734375,-0.41835283784270283,-0.12619411126486957,2.134855142921209
1667825055115192300,4.2261923828125,-0.48395665213167666,-0.0334965383451432,2.1126780901655553
1667825055125200400,4.236200439453125,-0.6143266608417034,0.005208747624233364,2.0629954831078647
1667825055135208400,4.24620849609375,-0.7669342203229665,-0.07720569701641798,2.1006232029736043
1667825055145215200,4.25621533203125,-1.0098194321006535,-0.20596593244224787,2.078560424247384
1667825055155223300,4.266223388671875,-1.286285426440835,-0.19903591398335993,1.937854607222974
1667825055165230300,4.276230224609375,-1.5043290424287319,-0.04619841820374131,1.710999031487107
1667825055175238400,4.28623828125,-1.7140233477443456,0.17140797541067004,1.440094178405404
1667825055185246500,4.29624658203125,-1.7951766133427618,0.38943814739510413,1.2201461901009083
1667825055195253200,4.306253173828125,-1.721255052563548,0.39428945988379416,1.11485363176316
1667825055205261600,4.316261474609375,-1.6997364637166261,0.11590053465701639,1.1769298564478754
1667825055215268400,4.326268310546875,-1.9426509015887974,-0.24195282629840076,1.3940560653299092
1667825055225276400,4.3362763671875,-2.267776589679718,-0.3861544495493173,1.4579694423139093
1667825055235284200,4.3462841796875,-2.505592243108153,-0.17474807961881159,1.2107508775070308
1667825055245291500,4.35629150390625,-2.632694774454832,0.21287322761267422,0.7463628491982818
1667825055255299300,4.36629931640625,-2.566068631380796,0.4729875143498182,0.37312545662820334
1667825055265306400,4.376306396484375,-2.4719062466055153,0.43437619027420876,0.2194666345283389
1667825055275314400,4.386314453125,-2.4440818356126544,0.15561550912559033,0.16841683077067135
1667825055285322500,4.396322509765625,-2.3925649988651276,-0.08937076658457517,0.1464092893630266
1667825055295329300,4.406329345703125,-2.1693623926788566,-0.2610946760766208,0.06573094779998064
1667825055305337300,4.41633740234375,-1.7516449301302432,-0.4344502784237265,-0.07302198159098625
1667825055315344400,4.426344482421875,-1.238071138370037,-0.6915431715130805,-0.18310089742243288
1667825055325349000,4.43634912109375,-0.7478887435913085,-1.0346003837443887,-0.24166209972351788
1667825055335357200,4.446357177734375,-0.406569461068511,-1.4284484565362334,-0.2743064782187343
1667825055345364000,4.456364013671875,-0.21682488784790038,-1.7176944374725223,-0.3916241131320595
1667825055355372300,4.466372314453125,-0.13839490973353386,-1.905506581325829,-0.6757564043164253
1667825055365379000,4.476379150390625,-0.20532441966831683,-2.040514917360991,-1.0096887914583086
1667825055375387100,4.48638720703125,-0.3043997109264135,-2.1660047528140245,-1.2421233363702893
1667825055385395000,4.49639501953125,-0.43790275696516034,-2.2602076157301663,-1.3663649253278969
1667825055395402200,4.50640234375,-0.5939437980264425,-2.2951725461274384,-1.3958561004891992
1667825055405410000,4.51641015625,-0.6979395945519209,-2.256813589377701,-1.2959803065031765
1667825055415418000,4.526418212890625,-0.7036182247102261,-2.1356616369985044,-1.1473428196966649
1667825055425425200,4.536425048828125,-0.714808311766386,-1.9938059192866087,-1.0128197829604149
1667825055435433200,4.54643310546875,-0.6934884603619575,-2.008702751906216,-0.9342547802895307
1667825055445440000,4.55643994140625,-0.5612579184770584,-2.061285025928169,-0.7031403780654072
1667825055455448000,4.566447998046875,-0.5012608381539583,-2.0132816041290758,-0.5001569685652851
1667825055465455000,4.576455078125,-0.3443254786014557,-1.8447252187572418,-0.3165712102353573
1667825055475463200,4.586463134765625,-0.21547171967327594,-1.7208882650777697,-0.14272037171721458
1667825055485471200,4.59647119140625,-0.15655775841176509,-1.6289584616601467,0.049288054782152174
1667825055495478300,4.606478271484375,-0.05035714531838894,-1.4594189104698598,0.29214228689968585
1667825055505486300,4.616486328125,0.05021744458675384,-1.2402668948486446,0.4555795756921172
1667825055515493000,4.6264931640625,0.09370528865754604,-1.00883801984787,0.5551210231572389
1667825055525501200,4.636501220703125,0.1294429569929838,-0.8771713954560458,0.6169245683804154
1667825055535509000,4.646509033203125,0.12070318569839,-0.8543975458510219,0.6541402003139257
1667825055545516300,4.656516357421875,0.11457973438203334,-0.8401345541555434,0.6831938608407974
1667825055555524000,4.666524169921875,0.17121815192699433,-0.7414511848244816,0.6801598999723791
1667825055565531100,4.67653125,0.2586462600111961,-0.576697552736476,0.5979647241055965
1667825055575539200,4.686539306640625,0.3815899181127548,-0.4023832614250481,0.4110372541323304
1667825055585547300,4.69654736328125,0.4599111751556396,-0.23294190991222857,0.20299831480830907
1667825055595554000,4.706553955078125,0.41975159872472284,-0.06871990048289299,0.013178338263928889
1667825055605562000,4.71656201171875,0.28782559274435043,0.08952171936258674,-0.2543003397613764
1667825055615569200,4.726569091796875,0.1470809050142765,0.3141277626059949,-0.6129089029982686
1667825055625577200,4.7365771484375,0.008173954105377197,0.6045596653912216,-0.9349825100421905
1667825055635585000,4.7465849609375,-0.009101590344309806,0.8495002753287554,-1.1821993212833999
1667825055645592300,4.75659228515625,0.06371171693205833,1.0117589487958698,-1.3914917677998542
1667825055655600000,4.76660009765625,0.15809388193786145,1.1327888091653584,-1.5500915534332393
1667825055665607200,4.776607177734375,0.32394495387375355,1.2563710574313998,-1.6100637915760279
1667825055675615000,4.786614990234375,0.5730097310692072,1.3761239566676318,-1.666943908922374
1667825055685623300,4.796623291015625,0.8983709814816713,1.489119782859087,-1.6976362765669821
1667825055695630000,4.806630126953125,1.279254212629795,1.584833488729596,-1.7255863597661256
1667825055705638100,4.81663818359375,1.6746312485545873,1.5978858625262975,-1.6944053318217396
1667825055715645200,4.826645263671875,2.0215204401642084,1.5500836623877285,-1.6598098192587494
1667825055725653200,4.8366533203125,2.2354338244795797,1.5479292608328163,-1.7193743533834813
1667825055735661300,4.846661376953125,2.4142022456556558,1.6310751615531742,-1.8353139779418706
1667825055745668000,4.856668212890625,2.659431390210986,1.723289773261547,-1.8414578875243663
1667825055755676200,4.86667626953125,2.8904326874494553,1.741161091647297,-1.8022341306388376
1667825055765683200,4.87668310546875,3.0379560755342245,1.6365791657969355,-1.7901719369232654
1667825055775691300,4.886691162109375,3.0244553734481334,1.5549936462610958,-1.7423983783572912
1667825055785699000,4.896698974609375,2.9283985532283783,1.4734940514430404,-1.6703230299666523
1667825055795706400,4.906706298828125,2.8115105419039725,1.4028554578572512,-1.591001071448624
1667825055805714200,4.916714111328125,2.6641929055243727,1.3545663509845733,-1.5091343968838453
1667825055815721200,4.92672119140625,2.544634213685989,1.3539474884338676,-1.3983368113890289
1667825055825729000,4.93672900390625,2.467611179760098,1.4360412497527897,-1.291119422468543
1667825055835737300,4.9467373046875,2.3936463643610475,1.5919250544257462,-1.2196776958063245
1667825055845744000,4.956744140625,2.295910212752223,1.7176085127547382,-1.0721113453626632
1667825055855752200,4.966752197265625,2.1593173840045927,1.6386302531078456,-0.8212950483247637
1667825055865759200,4.97675927734375,1.9942419726163148,1.4102683644622565,-0.5634779326140881
1667825055875767300,4.986767333984375,1.781355008739233,1.2484151299908757,-0.31679742020666596
1667825055885775000,4.996775146484375,1.5885837811738253,1.1482776893939821,-0.07935849113613366
1667825055895782100,5.0067822265625,1.4201970532804726,0.9814867793247103,0.1397346339046955
1667825055905790200,5.016790283203125,1.2316940045535563,0.7572526381336152,0.2854553564816713
1667825055915797200,5.02679736328125,1.0343442170262336,0.5717301030548289,0.429684379196167
1667825055925805000,5.03680517578125,0.8318938914895058,0.42951128765158353,0.5339709753617644
1667825055935813000,5.046813232421875,0.5592594381362199,0.3294767229072749,0.5155068056493998
1667825055945820200,5.056820068359375,0.23820026883184908,0.25552339701661836,0.47231209930628537
1667825055955828200,5.066828125,-0.11647592339217662,0.22753508243262766,0.38785307016074655
1667825055965835000,5.0768349609375,-0.5001034848123789,0.26476536394599826,0.35567104848027226
1667825055975843000,5.086843017578125,-0.765314510166645,0.3288282689359039,0.4064233305960893
1667825055985851100,5.09685107421875,-1.0605670380413532,0.3651338368197903,0.447170643787086
1667825055995858200,5.106858154296875,-1.3150205225378273,0.32367154375985263,0.5342381018653511
1667825056005866000,5.116865966796875,-1.3993442348659038,0.2300412200346589,0.6190484286665916
1667825056015873300,5.126873291015625,-1.456784031921625,0.15156831609401852,0.647920010624826
1667825056025881000,5.136881103515625,-1.4845792168200016,0.14734364760369062,0.6961056571230292
1667825056035889200,5.14688916015625,-1.5011404755204916,0.17175430463030933,0.7287780926689506
1667825056045896000,5.15689599609375,-1.4947288549125193,0.15150588184967637,0.7474152808606624
1667825056055904300,5.166904296875,-1.4521148710668086,0.15316745838634668,0.7356842187955975
1667825056065911000,5.1769111328125,-1.3426134628623723,0.20971487317960708,0.7699243420496582
1667825056075919000,5.186919189453125,-1.1916525015443562,0.19186675300635397,0.853682237188518
1667825056085927200,5.19692724609375,-0.9585568623751402,0.04206299889944493,1.0036714308649302
1667825056095934200,5.206934326171875,-0.7374024208903313,-0.13537147025913,1.1408613487228751
1667825056105942300,5.2169423828125,-0.48263329457342624,-0.2748966261316091,1.3020745317250488
1667825056115949000,5.226948974609375,-0.27609073128700257,-0.3510584766509011,1.4290057981580495
1667825056125957400,5.236957275390625,-0.1488280409425497,-0.3828484668064862,1.5474451305776833
1667825056135965200,5.246965087890625,-0.046101825961470604,-0.3989789328742772,1.6879837743416428
1667825056145972200,5.25697216796875,0.036650691527128215,-0.46096842912361025,1.8492495643138884
1667825056155980000,5.26697998046875,0.06432429587244987,-0.5764502999771386,1.980462745849788
1667825056165987300,5.2769873046875,0.0391132822483778,-0.5909138557460158,1.9847589817389846
1667825056175995100,5.2869951171875,0.016294716718792915,-0.48072369809243826,1.9803385349482296
1667825056186003200,5.297003173828125,-0.026899697363376617,-0.34850817111358046,1.92946058062613
1667825056196010200,5.30701025390625,-0.08356324934959411,-0.24227139072827994,1.8935095618009565
1667825056206018300,5.317018310546875,-0.05580196672081947,-0.17241247627809642,1.8577409138053655
1667825056216025000,5.327025146484375,-0.020054946035146713,-0.1484837575495243,1.8109464294046163
1667825056226033200,5.337033203125,0.04742985969483852,-0.16720453237146138,1.7906392621740699
1667825056236041000,5.347041015625,0.0728413643270731,-0.23134309641346334,1.8650608814299106
1667825056246048300,5.35704833984375,-0.0031441432446241376,-0.42766872852481896,2.144938145518303
1667825056256056000,5.36705615234375,-0.27467852640151974,-0.771093239698559,2.4680747056186196
1667825056266063000,5.37706298828125,-0.646144525384903,-1.0535950801368803,2.6063474502772093
1667825056276071200,5.3870712890625,-1.1059756210416554,-1.0618003061633556,2.299306577192247
1667825056286079200,5.397079345703125,-1.785416851350665,-0.5827766534544527,1.4783727633953094
1667825056296086000,5.4070859375,-2.338726441171765,0.16574476201720534,0.5770937855124473
1667825056306094000,5.417093994140625,-2.82393630823493,0.5944372806318103,-0.19335779528170824
1667825056316101000,5.42710107421875,-3.3706302793085574,0.540570958148688,-0.8525643390744924
1667825056326109000,5.43710888671875,-3.587247661885619,0.3067023618455976,-1.2879068901628254
1667825056336116700,5.44711669921875,-3.356322352492809,0.213444305498898,-1.3560194724023342
1667825056346124000,5.4571240234375,-3.120488812792301,0.13572832087278366,-1.4078583807110785
1667825056356131800,5.4671318359375,-2.7462948501497504,-0.11561112325638533,-1.4725196534529328
1667825056366139000,5.477138916015625,-2.245714979997277,-0.4121979684747755,-1.523114699180424
1667825056376146700,5.487146728515625,-1.7273229743003844,-0.6502718344479799,-1.5313716553941368
1667825056386155000,5.497155029296875,-1.1673001505762337,-0.9648840195700525,-1.5721204298898577
1667825056396161800,5.507161865234375,-0.9204033650696277,-1.3350710846588014,-1.7613059079229831
1667825056406169900,5.517169921875,-0.7903793933182954,-1.6632753034122287,-1.8476175791978835
1667825056416177000,5.527177001953125,-0.6513070227146148,-1.9490045083992182,-1.8561711802706122
1667825056426185000,5.53718505859375,-0.6748012955486774,-2.0814482546433806,-1.9656366403788328
1667825056436193000,5.547193115234375,-0.6535264523297548,-2.106067439854145,-1.9889999803096055
1667825056446199800,5.55719970703125,-0.5493436087995768,-2.1252245602667332,-1.9389926713421939
1667825056456208000,5.567207763671875,-0.41541678439080715,-2.1439773376621303,-1.8138111711859701
1667825056466215000,5.57721484375,-0.2122054113537073,-2.1559569676607846,-1.6548060196220873
1667825056476223000,5.587222900390625,-0.021901450684666632,-2.165172685904056,-1.4120695686653255
1667825056486230800,5.597230712890625,0.2110468889683485,-2.197526264759153,-1.0485179960682987
1667825056496238000,5.607238037109375,0.40112873131930826,-2.1318539152786133,-0.7035889986157416
1667825056506246000,5.617245849609375,0.5599234550029039,-1.9456664500176906,-0.5273100561678409
1667825056516253000,5.6272529296875,0.7186527122348546,-1.8111710319407284,-0.395321506345272
1667825056526260700,5.6372607421875,0.8095031959831714,-1.7577946849316357,-0.2201525709658861
1667825056536269000,5.64726904296875,0.8644722190111875,-1.6773624270841478,-0.09233283126056194
1667825056546275800,5.65727587890625,0.8935036677062511,-1.5197013836055993,-0.06375789416134357
1667825056556284000,5.667283935546875,0.9478764784067869,-1.3116041382230816,-0.10754764378815888
1667825056566291000,5.677291015625,0.9231453572541475,-1.1141475293204188,-0.16136282060593365
1667825056576299000,5.687299072265625,0.9021797261148691,-0.969677975848317,-0.1669111023828387
1667825056586305800,5.697305908203125,0.9004583091497421,-0.8760364731419831,-0.14738836352825163
1667825056596313900,5.70731396484375,0.7973147455394267,-0.7566638784602284,-0.1290250238418579
1667825056606322000,5.717322021484375,0.6492734710603952,-0.5568215434648096,-0.16134323912262916
1667825056616329000,5.727328857421875,0.4535322877734899,-0.25740816958360374,-0.27631752578020097
1667825056626336800,5.737336669921875,0.2497328857153654,0.07664870245447382,-0.4613584513545036
1667825056636344800,5.7473447265625,0.06456745697855949,0.4253101096346974,-0.7001105088502169
1667825056646352000,5.757351806640625,-0.06793547210693358,0.6974409973800182,-0.8946534222632646
1667825056656360000,5.76735986328125,-0.13190730127990244,0.8984962883617729,-1.0519377413839102
1667825056666366700,5.77736669921875,-0.09485621225833893,1.1496436439849436,-1.1983563830971717
1667825056676375000,5.787375,0.12676526221632956,1.437628665074706,-1.340989953313768
1667825056686383000,5.797383056640625,0.5251683679640293,1.6938317697174845,-1.397316528430581
1667825056696390000,5.807389892578125,0.8860650421380997,1.883686086922884,-1.3488853827387093
1667825056706398000,5.81739794921875,1.2175626033484934,2.0019589767344295,-1.2371095998615025
1667825056716405000,5.827405029296875,1.5974954019039869,2.05404323810637,-1.135986143901944
1667825056726413000,5.8374130859375,1.9206880761057137,2.0509208683021365,-1.1457748397275804
1667825056736420900,5.8474208984375,2.088687850508094,1.9883175510033964,-1.2538082212060688
1667825056746428000,5.857427978515625,2.1426129174411295,1.9116231645099817,-1.2976029392689465
1667825056756436000,5.86743603515625,1.9783394700855015,1.9084478954747317,-1.264776189944148
1667825056766443000,5.877443115234375,1.6081342848181723,1.9241013916805385,-1.309116559191048
1667825056776450800,5.887450927734375,1.2523363950878381,1.912034667920321,-1.4929323268845676
1667825056786459000,5.897458984375,0.9763608146131038,1.981621998887509,-1.7821093342378735
1667825056796466000,5.9074658203125,0.6952817735195159,2.2035893641903996,-2.085136003245413
1667825056806474000,5.917473876953125,0.4835924949944019,2.5101214109703895,-2.246310315541923
1667825056816480800,5.927480712890625,0.357736164316535,2.7694699740320443,-2.288224042163789
1667825056826489000,5.937489013671875,0.2821329340606928,2.818376336020231,-2.2383543881013988
1667825056836497000,5.947496826171875,0.1517553265661001,2.6434809568852184,-2.0942294102832673
1667825056846504000,5.95750390625,0.09139993432462215,2.4382113361440596,-1.8722563458919523
1667825056856511700,5.96751171875,0.1498351721584797,2.2746818390235304,-1.5521432252660392
1667825056866519000,5.97751904296875,0.1972954269915819,2.1100793058440086,-1.2713865479946136
1667825056876526800,5.98752685546875,0.3539975623100996,1.8938469770617783,-1.0104445782616733
1667825056886534000,5.997533935546875,0.5532482150226831,1.5768622175894678,-0.6840814573302865
1667825056896542000,6.0075419921875,0.8090244725555181,1.2057033117938787,-0.298074599558115
1667825056906550000,6.017550048828125,1.0807289515823124,0.842956187447533,0.05449234542697668
1667825056916556800,6.027556884765625,1.3641606932818888,0.5568671727048233,0.3774307526066899
1667825056926564900,6.03756494140625,1.5390449665009975,0.2797037341523915,0.64291416516155
1667825056936572000,6.047572021484375,1.6697440610349177,0.02553597126211971,0.8718377793431281
1667825056946580000,6.057580078125,1.7263626048356293,-0.19984014303833245,1.0477709770932793
1667825056956587800,6.067587890625,1.711805087172985,-0.43613125378061085,1.281600191234052
1667825056966594800,6.0775947265625,1.594436598855257,-0.6973841526262462,1.5664795013934374
1667825056976603000,6.087602783203125,1.412386087268591,-0.9941583371102809,1.7712609002262354
1667825056986610000,6.09760986328125,1.1664169380009173,-1.2802160433992742,1.8725193807423113
1667825056996617700,6.10761767578125,0.9006833500772714,-1.457489257581532,1.9188228667557239
1667825057006625800,6.117625732421875,0.5321031356632709,-1.5151844907030463,1.839780017440021
1667825057016632800,6.1276328125,0.26856092030406,-1.473306127655506,1.6953449507594107
1667825057026641000,6.137640869140625,-0.05379238046407699,-1.3372465290017426,1.5185612736597656
1667825057036647700,6.147647705078125,-0.3524111699014902,-1.1422627399533987,1.3783666210278869
1667825057046656000,6.157656005859375,-0.6051619421333074,-0.9606829146184027,1.3517951327055693
1667825057056664000,6.1676640625,-0.9372563001930713,-0.7896116238161921,1.291345047917962
1667825057066670800,6.1776708984375,-1.1960410918921232,-0.6153636757392436,1.2442606406599281
1667825057076679000,6.187678955078125,-1.3154027998536824,-0.4751919655915349,1.3342255737453699
1667825057086686000,6.19768603515625,-1.303794195124507,-0.4329162007242441,1.4570593417316675
1667825057096694000,6.207694091796875,-1.2614724722236395,-0.39280667398013175,1.554193435794115
1667825057106701800,6.217701904296875,-1.219187574201822,-0.2812169882595539,1.7068430808514357
1667825057116709000,6.227709228515625,-1.1680951003462074,-0.14120938263237476,1.814313275489211
1667825057126717000,6.237717041015625,-1.2154641697645188,-0.01667677483893931,1.9081869064509867
1667825057136724000,6.247723876953125,-1.278670275261998,0.04998283211328089,2.0648831965506074
1667825057146731800,6.257731689453125,-1.3832780662059783,0.02960318416841328,2.115617358487844
1667825057156739800,6.26773974609375,-1.5428566337436436,0.02401966668134555,2.0358160920202732
1667825057166747000,6.277746826171875,-1.7719132266551254,0.1836688335034996,1.7808879757493734
1667825057176755000,6.2877548828125,-1.8868179552078246,0.47355705786608154,1.434135562261939
1667825057186762000,6.297761962890625,-1.8946511330515146,0.7204913989041,0.9884726926892995
1667825057196770000,6.30777001953125,-1.8195248726576565,0.9225978794392198,0.6966594916135073
1667825057206777900,6.31777783203125,-1.5708634155660868,1.0331145291008055,0.5969646071523428
1667825057216785000,6.327784912109375,-1.1536264300107955,0.9792666190572082,0.6247083541244268
1667825057226792700,6.337792724609375,-0.6664969930619001,0.7074686895933002,0.841940069207549
1667825057236800000,6.347800048828125,-0.24170798469185828,0.34238289316631854,1.0550818846285344
1667825057246807800,6.357807861328125,0.10604396122694015,0.0996073523081839,1.2875175985842942
1667825057256815900,6.36781591796875,0.3455406996101141,-0.10031988449171185,1.4367662030264734
1667825057266823000,6.377822998046875,0.2051081465691328,-0.31796712157316503,1.3028119060888885
1667825057276831000,6.3878310546875,-0.049907063463330265,-0.47454241564162075,0.9241735312581062
1667825057286837800,6.397837646484375,-0.2752215472370386,-0.4625060139544308,0.430898431161046
1667825057296845800,6.407845703125,-0.5328548308134079,-0.24116978616192936,-0.18482348343133925
1667825057306854000,6.41785400390625,-0.8593395322978497,-0.045462432079389686,-0.7964969994157552
1667825057316861000,6.42786083984375,-1.2691706255108117,-0.04858531334027648,-1.2510118684858083
1667825057326869000,6.437868896484375,-1.6180442689359187,-0.20781177950464189,-1.5151538033038376
1667825057336876000,6.4478759765625,-1.6889128718852995,-0.4095351790063083,-1.6048317361414433
1667825057346884000,6.457884033203125,-1.533417189747095,-0.6174087717007846,-1.545879196435213
1667825057356892200,6.46789208984375,-1.2147311793148516,-0.8345706364180893,-1.520878610691428
1667825057366899000,6.47789892578125,-0.8674562032580375,-1.0221982905499636,-1.493433554404974
1667825057376907000,6.487906982421875,-0.4124333846658468,-1.2218101777903736,-1.3142162204176187
1667825057386914000,6.4979140625,-0.18679799837470054,-1.4275246196895837,-1.1527683518767355
1667825057396922000,6.507922119140625,-0.09544073414802551,-1.6787753626219928,-1.0260936905533076
1667825057406930200,6.51793017578125,-0.1044341879427433,-1.8880964507110416,-0.9328817383706569
1667825057416937200,6.527937255859375,-0.04194003010690212,-2.1069288789890703,-0.7817366526573896
1667825057426945300,6.5379453125,0.009094576081633568,-2.3981132806420327,-0.7461398540973663
1667825057436952000,6.5479521484375,0.08216098133623599,-2.6584268893435596,-0.685747636976838
1667825057446960000,6.557960205078125,0.11972528057694434,-2.820739265759289,-0.5618336725383997
1667825057456968200,6.56796826171875,0.12353344068825244,-2.827151178628206,-0.4398527219891548
1667825057466975200,6.577975341796875,0.16244973905980586,-2.718430691668391,-0.2892079870134592
1667825057476983000,6.587983154296875,0.17502105134129523,-2.683224938252568,-0.06789981627166271
1667825057486990300,6.597990234375,0.1307721597701311,-2.733181101554632,0.13722002073526382
1667825057496998100,6.607998046875,0.06010755496025085,-2.6927508914887905,0.2785924849748611
1667825057507006200,6.618006103515625,0.05108604411482811,-2.515050391805172,0.30287469331622124
1667825057517013000,6.628012939453125,0.09645312606096267,-2.2892843648716807,0.33967385340332984
1667825057527021000,6.63802099609375,0.11271160242259502,-2.1207852626450356,0.4350888685882091
1667825057537028000,6.648028076171875,0.13915361914634702,-1.982336284636706,0.5658236189574003
1667825057547036200,6.6580361328125,0.19762159020602701,-1.7801751513049004,0.6812263601601123
1667825057557044000,6.6680439453125,0.2438286301076412,-1.5167819890275596,0.7550134809046983
1667825057567051300,6.67805126953125,0.31404607567191123,-1.3346534437686204,0.8561600254788995
1667825057577059000,6.68805908203125,0.292166252297163,-1.2119484167285264,0.9195657452017069
1667825057587066000,6.698066162109375,0.12355097634494304,-0.9532405627232045,0.8029626882985234
1667825057597074000,6.708073974609375,-0.087746672514081,-0.49692967708185315,0.5637032658025622
1667825057607082200,6.718082275390625,-0.3022872488170862,-0.050996575733087954,0.2659425544992089
1667825057617089000,6.728089111328125,-0.5838590418636799,0.2366606016417965,-0.07426058347523212
1667825057627097000,6.73809716796875,-0.7453460733711719,0.502181898521632,-0.352816243571043
1667825057637104000,6.748104248046875,-0.765452457332611,0.8227294650420546,-0.5923576978787779
1667825057647112200,6.7581123046875,-0.6903606837302446,1.2071287414871155,-0.8574854288637638
1667825057657120300,6.768120361328125,-0.47239364010989665,1.5554821604304014,-1.0700777937084436
1667825057667127000,6.778126953125,-0.2385427986592054,1.8840699716739355,-1.3529659300506114
1667825057677135000,6.788135009765625,-0.07027297514379025,2.245491400374472,-1.5559908406049012
1667825057687142100,6.79814208984375,0.19546879608631132,2.521685299775004,-1.6380840174019335
1667825057697150200,6.808150146484375,0.49628246521949765,2.684323254883289,-1.7653896701052785
1667825057707158000,6.818157958984375,0.8167764018565415,2.793101901771128,-1.9428499312922358
1667825057717165300,6.828165283203125,1.180727787426114,2.8459827203482386,-2.105662366184592
1667825057727173000,6.838173095703125,1.4079782076984644,2.834973250555992,-2.151250689665973
1667825057737180000,6.848179931640625,1.5402227781087159,2.7732459854394196,-2.104414704211056
1667825057747188000,6.85818798828125,1.5214052649140357,2.758263520362973,-2.1639617026790976
1667825057757196300,6.8681962890625,1.4039794934511183,2.7868814198210834,-2.2697914366334677
1667825057767203000,6.878203125,1.3596020070642232,2.810730205181241,-2.3352613954097032
1667825057777211100,6.888211181640625,1.3272323538571595,2.788058939167857,-2.3873875962272284
1667825057787218200,6.89821826171875,1.3026368417829275,2.7568153673812748,-2.3684262906476854
1667825057797226200,6.908226318359375,1.2365513814568518,2.749593307173252,-2.252496018439531
1667825057807234000,6.918234130859375,1.1548784758985042,2.6835768204301593,-2.123093393456936
1667825057817241000,6.928240966796875,1.0761024608254433,2.525606272611022,-2.0221543541535736
1667825057827249200,6.938249267578125,1.0556576386898755,2.293539684228599,-1.9038845330819487
1667825057837256200,6.948256103515625,1.0983259830713272,2.0202114033922554,-1.6349711460784078
1667825057847264000,6.958263916015625,1.1941507481008768,1.6703157234430313,-1.2590744711712003
1667825057857271300,6.968271240234375,1.339230834686756,1.3067020453952252,-0.9563412321522832
1667825057867279000,6.978279052734375,1.534983708411455,1.0721130989283323,-0.762030373929441
1667825057877287200,6.988287109375,1.6822797174811361,0.9640263798274099,-0.634262364411354
1667825057887294000,6.9982939453125,1.7989502866625784,0.7630013378534466,-0.4288844609901309
1667825057897302300,7.00830224609375,1.7939555471152067,0.5152052654195577,-0.22127689882069826
1667825057907310000,7.01831005859375,1.781815611988306,0.30769827754776924,-0.08532704415172337
1667825057917317000,7.028317138671875,1.8141028476089238,0.12275763401016593,0.0034866730719804763
1667825057927325000,7.038324951171875,1.7794103044122456,-0.12035641808733344,0.16213701984882353
1667825057937332200,7.048332275390625,1.7128782693624496,-0.4172846971545368,0.3740396488636732
1667825057947340000,7.058340087890625,1.5996464424580334,-0.675828373574093,0.4769292377129197
1667825057957347000,7.06834716796875,1.4748662165790796,-0.7637471147194504,0.4938794957309961
1667825057967355100,7.078355224609375,1.2920143254816532,-0.7714601002495736,0.44683337465673684
1667825057977363200,7.08836328125,1.0852923139750956,-0.775820122089982,0.4253527797326445
1667825057987370000,7.098369873046875,0.8310434121400118,-0.8061079275216907,0.459610146382451
1667825057997378000,7.1083779296875,0.5999310557425022,-0.867644565436989,0.4829921910136938
1667825058007385000,7.118385009765625,0.3562707679390907,-0.9078622287306934,0.4771116085425019
1667825058017393200,7.12839306640625,0.17425649670958518,-0.8490424485586583,0.49763738695979115
1667825058027401200,7.138401123046875,0.04713058448731899,-0.6729891315601766,0.5649377760335803
1667825058037408000,7.148407958984375,0.014095745369791983,-0.479928930985555,0.6890659677445888
1667825058047416300,7.158416259765625,0.0198071087539196,-0.36166367649119346,0.8661372296139598
1667825058057423000,7.168423095703125,-0.03238017460107803,-0.29868374443240464,1.0287702162861823
1667825058067431200,7.17843115234375,-0.11013561445474623,-0.2537569901322946,1.2183473239853977
1667825058077439000,7.18843896484375,-0.1287988138705492,-0.26540150642506777,1.4161179672732949
1667825058087446300,7.1984462890625,-0.20475275726020334,-0.29076917191557583,1.5502672022610902
1667825058097454000,7.2084541015625,-0.2550467742145061,-0.27856420872844756,1.621376335968077
1667825058107461000,7.218461181640625,-0.2796130601942539,-0.2835932889368385,1.6930594701707362
1667825058117469200,7.22846923828125,-0.37140871583819385,-0.3715757429681718,1.7240519898056983
1667825058127477200,7.238477294921875,-0.5711269860625267,-0.4205506401479244,1.7370666619405148
1667825058137484000,7.248484130859375,-0.7692027497768401,-0.4128890194788575,1.726667433001101
1667825058147492000,7.2584921875,-1.0035340682208538,-0.3144595518436283,1.6145324614226817
1667825058157499100,7.2684990234375,-1.282480773460865,-0.12170491008684038,1.3734826483786104
1667825058167507200,7.278507080078125,-1.4425550155609845,0.058960558615904296,1.0916203479528426
1667825058177515000,7.288514892578125,-1.5303665700048208,0.14882489913739264,0.9617167877107858
1667825058187522000,7.29852197265625,-1.5357769046157597,0.1210224807806313,0.9917831324115395
1667825058197530000,7.308530029296875,-1.434258311858773,0.06933204103186726,1.071927220967412
1667825058207537200,7.318537109375,-1.2732517573446034,0.031887934104725714,1.2004270518913864
1667825058217545000,7.328544921875,-1.1346142710268496,-0.08701368206441402,1.417538647726178
1667825058227553000,7.338552978515625,-1.2211381237477064,-0.2890980238329619,1.6533365315914152
1667825058237560000,7.34856005859375,-1.515059695279598,-0.45288558736778795,1.715965713983774
1667825058247568100,7.358568115234375,-1.856214142629504,-0.45620041100420056,1.4004796686366199
1667825058257575000,7.368574951171875,-2.106462576651573,-0.1565423416469246,0.7254433952882886
1667825058267583200,7.378583251953125,-2.2219728698819874,0.23262780246175824,0.0885851691648364
1667825058277591300,7.38859130859375,-2.3751047454982994,0.3442806165464222,-0.3868102831095457
1667825058287598000,7.39859814453125,-2.570909057149291,0.15470372804291546,-0.7288523269489408
1667825058297606100,7.408606201171875,-2.557265147200227,-0.03872968975827098,-0.9832269009903073
1667825058307613200,7.41861328125,-2.2059505403637885,-0.11581234491690992,-1.1478864250540732
1667825058317621200,7.428621337890625,-1.737435787513852,-0.3014537206023931,-1.2086305243521929
1667825058327628000,7.4386279296875,-1.3573890071898698,-0.6047602294646203,-1.1889029105752706
1667825058337635000,7.448635009765625,-1.0631652378410101,-0.9210679664582013,-1.226812077730894
1667825058347643100,7.45864306640625,-0.7900304337501526,-1.113884859796241,-1.3451383051648735
1667825058357650000,7.46864990234375,-0.5911620583534241,-1.2665708182759583,-1.497881181463599
1667825058367658200,7.478658203125,-0.4843371758818626,-1.4427636898756027,-1.7144482951581477
1667825058377666000,7.488666015625,-0.4821680151492357,-1.7074249723926185,-1.8185472597971557
1667825058387673000,7.498673095703125,-0.5485825612992048,-2.018740161795914,-1.7545394825279712
1667825058397681000,7.508680908203125,-0.6575958937257528,-2.116725904251635,-1.6999226339384912
1667825058407688200,7.518688232421875,-0.6420628090292215,-1.9984886702753601,-1.659172982659936
1667825058417696000,7.528696044921875,-0.4809171383053064,-1.8656515407994387,-1.5664581663444637
1667825058427704000,7.5387041015625,-0.2949327944010496,-1.8392787899196146,-1.433001589795947
1667825058437711000,7.548711181640625,-0.13662497745156288,-1.8928291783213613,-1.2289651641115547
1667825058447719200,7.55871923828125,-0.003369184172153473,-1.9037027467742562,-1.0053300117269157
1667825058457726000,7.568725830078125,0.10959434718489647,-1.7516987061440943,-0.8118702173754573
1667825058467734000,7.578734130859375,0.1864250734090805,-1.5547162906244396,-0.7075614093780517
1667825058477742000,7.5887421875,0.26410861707031724,-1.4235701829753815,-0.6485220681712031
1667825058487749000,7.5987490234375,0.2808411406844854,-1.3504771819747983,-0.571916967396438
1667825058497757200,7.608757080078125,0.27958383409976956,-1.268908321312815,-0.46169016752690073
1667825058507764200,7.61876416015625,0.3050707420557737,-1.1452554189633577,-0.4150760081291198
1667825058517772300,7.628772216796875,0.3480021212875843,-1.0153194908216594,-0.38987493137717244
1667825058527780000,7.638780029296875,0.4078425497442484,-0.9152985162112861,-0.3359855202794075
1667825058537787100,7.648787109375,0.46555122686922545,-0.8511987498097121,-0.319453195412457
1667825058547795000,7.658794921875,0.4969359606921673,-0.7608360495783388,-0.32874563215374947
1667825058557802200,7.66880224609375,0.4902630587995052,-0.6294735957648605,-0.32951515522152186
1667825058567810000,7.67881005859375,0.4136240557551384,-0.5171710490671918,-0.41726416582316156
1667825058577818000,7.688818115234375,0.20834405975043774,-0.32647264572046697,-0.6119374276176095
1667825058587825200,7.6988251953125,0.010959200909733771,-0.10062129685739055,-0.8213029393702745
1667825058597833200,7.708833251953125,-0.18009177873432636,0.09401972490157931,-1.0319573218896985
1667825058607840000,7.718840087890625,-0.35970191143155095,0.2600079585521482,-1.1633064047649502
1667825058617848000,7.72884814453125,-0.48914720651209354,0.4294125034522265,-1.2690014064237474
1667825058627856100,7.738856201171875,-0.5575614020466804,0.659370429117605,-1.3239835811942815
1667825058637863200,7.74886328125,-0.5187240141302347,0.9359326503738761,-1.363403152912855
1667825058647871000,7.75887109375,-0.4126256923675537,1.2074779933162032,-1.4497683079406618
1667825058657878300,7.768878173828125,-0.2080705035060644,1.5105198598928748,-1.5408029160842298
1667825058667886000,7.778885986328125,0.09512859945893287,1.7391839463554322,-1.5121832630604504
1667825058677894100,7.78889404296875,0.4707569788187742,1.779040009795129,-1.4087515301585196
1667825058687901000,7.79890087890625,0.8111819428503513,1.7692099590457975,-1.2819134949669242
1667825058697909000,7.808908935546875,1.1853349889606237,1.7531914289198816,-1.1348974718824028
1667825058707916000,7.818916015625,1.5986510016798972,1.7263728339686988,-1.0321285868033767
1667825058717924000,7.828924072265625,2.004030376181006,1.8051324824288486,-1.004887528656423
1667825058727932200,7.83893212890625,2.3294781358331442,1.9253642512232063,-1.001077322718501
1667825058737939200,7.848939208984375,2.588545836126804,1.9153440847292542,-1.0047995581120253
1667825058747947300,7.858947265625,2.633839852836728,1.7961534955509006,-1.0112819058686495
1667825058757954000,7.8689541015625,2.5393390298873184,1.6953611712418495,-1.032176225337386
1667825058767962000,7.878962158203125,2.3700386942803857,1.6097702154569327,-1.1262357342600822
1667825058777970200,7.88897021484375,2.178953227844834,1.5444903724253176,-1.228522096519172
1667825058787977200,7.898977294921875,2.049184692159295,1.5207896172337234,-1.2676684042543171
1667825058797985000,7.908985107421875,1.9242530751109121,1.5692605104140935,-1.2951841876894234
1667825058807992300,7.918992431640625,1.761457299092412,1.700347435221821,-1.2965171898588537
1667825058818000100,7.929000244140625,1.7027303848356008,1.8119564832299946,-1.213630524596572
1667825058828008200,7.93900830078125,1.6795768882632254,1.8283420931026337,-1.0445800720974803
1667825058838015000,7.949014892578125,1.5376970590233803,1.701653257123381,-0.7708174914970993
1667825058848023300,7.959023193359375,1.4000614432245493,1.430219703992456,-0.4610018930017948
1667825058858030000,7.969030029296875,1.326442664784193,1.1703413449030369,-0.19708061519712208
1667825058868038100,7.9790380859375,1.2282067469596862,1.0742331598222254,0.014199498005211352
1667825058878046000,7.9890458984375,1.1918050617575644,1.079106464947015,0.2162552712664008
1667825058888053200,7.99905322265625,1.2088421212762595,1.0558556454800068,0.36041941205114125
1667825058898061000,8.00906103515625,1.118447564601898,0.9351537749558687,0.45914662052392957
1667825058908068000,8.019068115234376,1.0043909773111344,0.7379771520383656,0.5877034423321486
1667825058918076200,8.029076171875,0.9075508977591991,0.5328964779980481,0.7823857642158866
1667825058928084200,8.039084228515625,0.760627813655138,0.3622594869598746,0.9480743390664458
1667825058938091000,8.049091064453124,0.5735802244335413,0.2564925891086459,0.9910787835344672
1667825058948099000,8.05909912109375,0.33269641560614105,0.23116233301907776,1.009874377158284
1667825058958106000,8.069106201171875,0.12228724001944065,0.1818014321964234,1.039533894623816
1667825058968114200,8.0791142578125,-0.0859773247539997,0.09405896093342453,1.0367986244410277
1667825058978122000,8.0891220703125,-0.32380759122967717,-0.014637743292003869,1.0268626290991902
1667825058988129000,8.09912890625,-0.5728747065126896,-0.1602167923759669,1.0567223453119396
1667825058998137000,8.10913720703125,-0.8843208288192749,-0.2845918715201318,1.1320073033988476
1667825059008144100,8.11914404296875,-1.1552414639919995,-0.4033857895310968,1.1721008288562298
1667825059018152000,8.12915185546875,-1.2876982158482073,-0.4708839296666905,1.143662669879198
1667825059028160000,8.139159912109376,-1.422624572688341,-0.478415786476247,1.0439274534076453
1667825059038167000,8.1491669921875,-1.4572311911672353,-0.4365352680042386,0.9305956732600926
1667825059048175000,8.159175048828125,-1.528784269249439,-0.3649544616648927,0.7998755359381436
1667825059058182000,8.169181884765624,-1.5903572205871344,-0.29619682298749683,0.7426353531077504
1667825059068190200,8.179190185546876,-1.651255633664131,-0.266314456551522,0.6994616895526647
1667825059078198300,8.1891982421875,-1.5738795485168695,-0.2961520339976996,0.7359682964339852
1667825059088205000,8.199205078125,-1.472494811272621,-0.3807898537762463,0.9038874068155884
1667825059098213000,8.209213134765625,-1.30376964520514,-0.5390386340148746,1.1222191920951008
1667825059108220200,8.21922021484375,-1.0723889932602644,-0.6597518296506255,1.3317445705845952
1667825059118228200,8.229228271484375,-0.906687558928132,-0.668663742641732,1.4566504686698316
1667825059128236000,8.239236083984375,-0.7875029610991477,-0.6530340657029301,1.5362179263815283
1667825059138243000,8.2492431640625,-0.6649743135392665,-0.6753736155439167,1.6263327893316746
1667825059148251100,8.259251220703124,-0.6319634398192167,-0.7578376714799553,1.7464210580021142
1667825059158258200,8.269258056640625,-0.65023442504704,-0.8506450614497065,1.8248773396015165
1667825059168266000,8.279265869140625,-0.6849135242402553,-0.8532860044125467,1.8283897316366433
1667825059178274000,8.289274169921875,-0.7342074242413044,-0.7527980698775499,1.7626240047842263
1667825059188281000,8.299281005859376,-0.7804039427489042,-0.5791286523409187,1.6459838307410477
1667825059198289200,8.3092890625,-0.8105915757417679,-0.4163023350536823,1.5060188952118156
1667825059208296000,8.3192958984375,-0.8755085768103599,-0.29391382661685345,1.4003297387719154
1667825059218304300,8.32930419921875,-0.960301075693965,-0.1838403176128864,1.3147937280446291
1667825059228312000,8.33931201171875,-1.0345026224583387,-0.08525858202539384,1.1892559617966412
1667825059238319000,8.349319091796875,-1.112396009477973,0.07814641193263232,1.0265598467603325
1667825059248327000,8.359326904296875,-1.1397136399924754,0.257957912420854,0.8287681606844067
1667825059258334200,8.369334228515624,-1.1380249562531708,0.41848450139835475,0.6192731773331761
1667825059268342000,8.379342041015626,-1.0818448038697241,0.4987711402300745,0.4695607547715306
1667825059278350000,8.38935009765625,-0.9710913497775793,0.47085715125761923,0.4185892769470811
1667825059288357000,8.399357177734375,-0.8921586828380823,0.3492878502491861,0.38402591308802364
1667825059298365200,8.409365234375,-0.9417653020501137,0.26381891340874136,0.30283377678394313
1667825059308372000,8.4193720703125,-1.0210521892547606,0.3187858175449073,0.1326584119081497
1667825059318380000,8.429380126953125,-1.0994260532677174,0.42255613475143905,-0.1775119913741946
1667825059328392400,8.439392333984374,-1.1788543947696686,0.486917547763884,-0.5223915967270731
1667825059338399700,8.449399658203125,-1.2211509832292795,0.5262572591792791,-0.859331348991394
1667825059348407600,8.459407470703125,-1.2035317399084566,0.617154870004952,-1.127314177146554
1667825059358415600,8.46941552734375,-1.1057307063698767,0.6218103676605969,-1.3114695520579813
1667825059368422400,8.47942236328125,-0.9693266781926154,0.5672137581415474,-1.40057319213897
1667825059378430700,8.4894306640625,-0.6912497415244578,0.4827924306578934,-1.3910133366331456
1667825059388437500,8.4994375,-0.2988508446276188,0.3818491901034489,-1.3307912153825163
1667825059398445600,8.509445556640625,0.09799158767461776,0.25002171259410677,-1.210961305387318
1667825059408453600,8.51945361328125,0.5080126505017281,0.06194225957412272,-1.1049024388521909
1667825059418460700,8.529460693359376,0.7862257807701826,-0.19398089561611412,-1.1130123878106475
1667825059428468700,8.53946875,0.8577917183339595,-0.46923060950171197,-1.1829498473897575
1667825059438475500,8.5494755859375,0.8224562010586262,-0.7258440850436687,-1.4379098201036453
1667825059448483600,8.559483642578124,0.7455886499553919,-1.0053057540684938,-1.6588184701338409
1667825059458491600,8.56949169921875,0.690716073039174,-1.350440649356693,-1.8133315709754823
1667825059468498700,8.579498779296875,0.5909001925468444,-1.6197238925859332,-1.829350685623288
1667825059478506500,8.589506591796875,0.48106268425583837,-1.8052841658592222,-1.7279975125610827
1667825059488513800,8.599513671875,0.5546475604265928,-1.8738097128137945,-1.6199001259356736
1667825059498521600,8.609521484375,0.5403028087317944,-1.798804594581574,-1.495570566433668
1667825059508529700,8.61952978515625,0.546817889714241,-1.7263395162209867,-1.34347563264966
1667825059518536400,8.629536376953125,0.5804711529910564,-1.7518500973135231,-1.1859978367835282
1667825059528544800,8.639544677734374,0.48557636228799816,-1.9432614347025752,-0.8160156466171145
1667825059538551600,8.649551513671875,0.44958910310566425,-1.8793797680310904,-0.6464826712980866
1667825059548559600,8.6595595703125,0.43445173972845075,-1.7782881685145198,-0.5263637152284384
1667825059558566700,8.669566650390625,0.4874737203419208,-1.6196572570905088,-0.4320411714553833
1667825059568574700,8.67957470703125,0.4831079263478517,-1.3591254755936562,-0.30745939075797796
1667825059578582500,8.68958251953125,0.5067752176612615,-1.1179739557407795,-0.19471885450184345
1667825059588589600,8.699589599609375,0.5112637612521648,-0.9450808563388884,-0.09477291788905859
1667825059598597600,8.70959765625,0.540333203870058,-0.8560551768649369,0.05828589249104261
1667825059608604700,8.719604736328124,0.5872153665542602,-0.8131616454254835,0.23386077832281588
1667825059618612500,8.729612548828126,0.6219950035125017,-0.7760337648406624,0.39358869120329615
1667825059628620500,8.73962060546875,0.711844785785675,-0.7417668997101485,0.5278048539474606
1667825059638627600,8.749627685546875,0.8081552885055542,-0.683493866700679,0.6197735280707478
1667825059648635600,8.7596357421875,0.8417506841152906,-0.606352247896418,0.6761506643310189
1667825059658642400,8.769642333984375,0.8838198935598135,-0.5316908285353332,0.7163903202608227
1667825059668650800,8.779650634765625,0.9694576110959052,-0.4865669076953083,0.7277651162341237
1667825059678658800,8.789658935546875,1.0485907690435647,-0.4128957414805889,0.7454363820031285
1667825059688665600,8.79966552734375,1.099528929120302,-0.35249402587935325,0.813245305120945
1667825059698673700,8.809673583984376,1.1659499050110578,-0.3141823423374444,0.8366790799394249
1667825059708680700,8.8196806640625,1.286671210888028,-0.15770298292413354,0.7610664973333477
1667825059718688800,8.829688720703125,1.3741899198651313,0.15279796748682856,0.5733198199316859
1667825059728696600,8.839696533203124,1.3737918604582546,0.5268898579943925,0.42373803801238535
1667825059738703600,8.84970361328125,1.3626561339378356,0.7661123825460672,0.319786957411468
1667825059748711700,8.859711669921875,1.2701999685585499,0.9003817367821931,0.16444412774741649
1667825059758719700,8.8697197265625,1.093559207060933,1.1027366391204296,-0.04701192654371261
1667825059768726500,8.8797265625,1.0530880804628133,1.3758202975459397,-0.18703356069624422
1667825059778734600,8.889734619140626,1.0619909333646296,1.6099638383328914,-0.37077801671922206
1667825059788741600,8.89974169921875,1.0880004038900137,1.7801487016893922,-0.48014790749847885
1667825059798749700,8.909749755859375,1.1866758821755647,1.8985329429209232,-0.5149366045460104
1667825059808757500,8.919757568359374,1.288732235071063,2.0728985990934072,-0.5770797569870948
1667825059818764800,8.929764892578126,1.4336831423193215,2.2933551214419303,-0.7106333641692996
1667825059828772600,8.939772705078125,1.604953316694498,2.4425544799149037,-0.8596861537784337
1667825059838779600,8.949779541015625,1.6935235805511473,2.4292834949314592,-0.8804922104418277
1667825059848787500,8.959787353515624,1.7391408378660678,2.252075601070374,-0.7764639729514717
1667825059858795500,8.96979541015625,1.7208102314054965,2.034185714339465,-0.696296211259067
1667825059868802600,8.979802490234375,1.630326827403903,1.8872972631573677,-0.6686839817121625
1667825059878810600,8.989810546875,1.496184314417839,1.8311738093972205,-0.6705462684527039
1667825059888817700,8.999817626953124,1.3330232122182846,1.8491383590243755,-0.716128746715188
1667825059898825700,9.00982568359375,1.0323843151301144,1.939384301008284,-0.7989785870984196
1667825059908833500,9.01983349609375,0.6767354784816503,2.065290316046774,-0.9447869879588484
1667825059918840600,9.029840576171875,0.4084890309542417,2.1361055813737213,-1.1329992370456456
1667825059928848400,9.039848388671874,0.13386544961035252,2.0817732488140464,-1.267336980342865
1667825059938855700,9.049855712890626,-0.19913141024708747,1.9168169337607919,-1.3342717509746551
1667825059948863500,9.059863525390625,-0.4553986661672592,1.6568869175493717,-1.2408534625649452
1667825059958871600,9.06987158203125,-0.6418909595936536,1.4497259301036596,-1.0752566576510667
1667825059968878600,9.079878662109374,-0.6513964545637368,1.296878716647625,-0.8599380827128886
1667825059978886700,9.08988671875,-0.563185087147355,1.149375202307105,-0.7265677231431007
1667825059988893400,9.0998935546875,-0.45461716040074823,0.9815092834174632,-0.5524111796766519
1667825059998901500,9.109901611328125,-0.2845890950411558,0.8134596054587513,-0.3057984718084335
1667825060008909800,9.119909912109375,-0.17961597791612147,0.6427279218744486,0.001266074413061142
1667825060018916600,9.12991650390625,-0.060574003428220745,0.38367077950742096,0.2871384872630238
1667825060028924700,9.139924560546875,0.039455812075734134,0.09350445058951154,0.47778293193280696
1667825060038931700,9.149931640625,0.09179214851260185,-0.2331460541822016,0.5962146655678748
1667825060048939800,9.159939697265624,0.11210369965732098,-0.4960802571782842,0.6959738474369048
1667825060058947600,9.169947509765626,0.08855214367806911,-0.6376905852943658,0.6924830827116966
1667825060068954600,9.17995458984375,-0.006211714121699333,-0.74632412462309,0.5827680317565799
1667825060078962700,9.189962646484375,-0.0772071583211422,-0.9342946739085018,0.4177341214224696
1667825060088969700,9.1999697265625,-0.06786416043639183,-1.0853734163872897,0.4197518909856677
1667825060098977500,9.2099775390625,-0.08555939160287379,-1.1651404883243144,0.5043801392182707
1667825060108985600,9.219985595703125,-0.03589198211431503,-1.2061371001012622,0.5666583162158727
1667825060118992600,9.22999267578125,0.024157705178856848,-1.2489455836057661,0.635329116860032
1667825060129000700,9.240000732421874,0.08737959276735782,-1.2860856660850346,0.7630927424639463
1667825060139007500,9.250007568359376,0.19288228672444818,-1.3301695763528347,0.9660989483177661
1667825060149015600,9.260015625,0.22826456575095652,-1.316415630158037,1.2070727735161781
1667825060159023600,9.270023681640625,0.2995101853191852,-1.3359849846333265,1.4027686563566326
1667825060169030700,9.28003076171875,0.352620428737998,-1.3664343373022974,1.4685057416364549
1667825060179038500,9.29003857421875,0.30512860972285266,-1.354746091465652,1.496715644815564
1667825060189045800,9.300045654296875,0.2479243749886751,-1.3757069002993405,1.5523635900184511
1667825060199053600,9.310053466796875,0.11194003352820872,-1.4976274989634752,1.5278125016078352
1667825060209061600,9.3200615234375,-0.09857260243296623,-1.573354355598986,1.411306183077395
1667825060219068400,9.330068359375,-0.2975292406350374,-1.5281033012479543,1.2298916313067079
1667825060229076700,9.34007666015625,-0.608946721369028,-1.319549398139119,0.9145847419187426
1667825060239083500,9.35008349609375,-0.9957289474278688,-1.0304300392571837,0.5651312527790665
1667825060249091600,9.360091552734374,-1.435788005644083,-0.7802020635012537,0.2555143917262554
1667825060259099600,9.370099609375,-1.8823025236099957,-0.5538006247410551,-0.024777298381924627
1667825060269106700,9.380106689453125,-2.232863097208738,-0.24707546654175966,-0.30565204907506704
1667825060279114800,9.39011474609375,-2.419837621194124,0.19834752986039966,-0.5683583981320262
1667825060289122600,9.40012255859375,-2.3944582652658224,0.6935495428994297,-0.7085439906746148
1667825060299129600,9.410129638671876,-2.154941653138399,0.9631507660366594,-0.6855357477918267
1667825060309137700,9.4201376953125,-1.8510434619933365,0.9287979031231254,-0.6062573361545801
1667825060319144700,9.430144775390625,-1.4454144966453313,0.8380831745836883,-0.22307868754565716
1667825060329148200,9.440148193359375,-1.049782024654746,0.71642334574759,0.1661751893237233
1667825060339155200,9.4501552734375,-0.7800520605713128,0.5920422021888196,0.3937611251607537
1667825060349163000,9.4601630859375,-0.6520037728071212,0.6195040634796023,0.460005575440824
1667825060359171000,9.470171142578126,-0.6148159056633711,0.808254364965856,0.29029578225016595
1667825060369178000,9.48017822265625,-0.6721019734621048,0.8954973988067358,0.20231442419737578
1667825060379186200,9.490186279296875,-0.7347200499385594,0.8226441248461603,0.2381605213433504
1667825060389194200,9.5001943359375,-1.0202899727106094,0.749710844451934,0.12930325626134873
1667825060399201300,9.510201171875,-1.2263099734276532,0.7852139003138989,-0.06458470037430525
1667825060409209300,9.520209228515625,-1.258250587567687,0.866255156905204,-0.32496377552747724
1667825060419216100,9.530216064453125,-1.1857996838629246,0.8828435958735644,-0.6192404441073537
1667825060429224200,9.54022412109375,-1.0430506705731153,0.8369896071933209,-0.9045341802865267
1667825060439232000,9.55023193359375,-1.0015408485770225,0.7571497622810304,-1.0948244046911597
1667825060449239300,9.5602392578125,-0.9666039752304554,0.5746566945586353,-1.2672352735340595
1667825060459247000,9.5702470703125,-0.8254904541879892,0.28432942119166255,-1.4293752159923314
1667825060469254100,9.580254150390624,-0.638566783607006,0.04420505242943763,-1.5649392862141132
1667825060479262200,9.59026220703125,-0.5421598347753286,-0.200277365411818,-1.6646414771988987
1667825060489270300,9.600270263671876,-0.4019412167459726,-0.5892866198703647,-1.9005746778815984
1667825060499277000,9.610277099609375,-0.19662556490600108,-0.9552529985241591,-2.0768030591860414
1667825060509285000,9.62028515625,-0.018461539363861083,-1.1737993033371865,-2.048949129837751
1667825060519292200,9.630292236328126,0.20452070206999778,-1.3056971061363816,-1.969589761918783
1667825060529300200,9.64030029296875,0.49403907020688054,-1.4704602367050945,-1.8400889372587204
1667825060539308000,9.65030810546875,0.8101356486678123,-1.6086137388981878,-1.6315315270185469
1667825060549315300,9.6603154296875,1.1407248628616333,-1.744058420524001,-1.3220742404416204
1667825060559323100,9.6703232421875,1.5006652592241763,-1.8916288626208901,-1.0784051848098635
1667825060569330200,9.680330078125,1.7700129459917544,-2.0540964295983315,-1.071932773925364
1667825060579338000,9.690337890625,1.8947838195204734,-2.1875055137433113,-1.1524833974555133
1667825060589346000,9.700345947265625,2.0277754089057445,-2.3219354653686284,-1.0773013152211903
1667825060599353000,9.71035302734375,2.1695693134278056,-2.505502811259031,-0.895350172355771
1667825060609361200,9.720361083984375,2.2257009504944083,-2.572507139995694,-0.6550868335142731
1667825060619368200,9.7303681640625,2.177685399866104,-2.6074597954332828,-0.5456134823605417
1667825060629376300,9.740376220703125,2.174851053223014,-2.669119840532541,-0.4533618996426463
1667825060639384300,9.75038427734375,2.170322762143612,-2.716701675918698,-0.31895489050149917
1667825060649391000,9.76039111328125,2.1141338419318196,-2.6941847236841916,-0.11815057860612868
1667825060659399200,9.770399169921875,2.0068518633425234,-2.633535316932201,0.16224866352975367
1667825060669406200,9.78040625,1.9316116211801766,-2.621228500805795,0.4310968763425946
1667825060679414300,9.790414306640624,1.8482108689159154,-2.636920867717266,0.55662967415452
1667825060689422000,9.800422119140626,1.680416846218705,-2.508048988610506,0.4869000121071934
1667825060699429400,9.810429443359375,1.5143658677965401,-2.260070545347035,0.4421563227564096
1667825060709437200,9.820437255859375,1.2295102307736874,-2.067687001924962,0.3047203211829066
1667825060719444000,9.83044384765625,0.7007464686661958,-1.8263614406794308,0.009809154091775418
1667825060729452000,9.8404521484375,-0.02879179472029209,-1.3675088346660136,-0.44533349148780105
1667825060739460400,9.85046044921875,-0.7722539540410042,-0.8109900004748255,-0.9764385560244321
1667825060749467100,9.860467041015625,-1.439967337155342,-0.38921887862123544,-1.4701017786562443
1667825060759475200,9.87047509765625,-1.9080150570154188,-0.14555384157747028,-1.9289076229184865
1667825060769482200,9.880482177734375,-2.0349422317951915,0.1425333977777511,-2.1286159562706946
1667825060779490300,9.890490234375,-2.0290116727024317,0.6469026502758264,-2.2320830527469515
1667825060789498000,9.900498046875,-1.9332120421141386,1.2440104652911423,-2.4114181678950786
1667825060799505200,9.910505126953124,-1.635664681300521,1.7670590646222233,-2.6021634425908324
1667825060809513200,9.92051318359375,-1.3720534923583267,2.2024036615371703,-2.671473710182309
1667825060819520300,9.930520263671875,-1.0062976877152918,2.4714216779589653,-2.568574184460938
1667825060829528000,9.940528076171875,-0.514702503529191,2.5096032323151825,-2.391021276554465
1667825060839536000,9.9505361328125,0.04903086515069008,2.3738442240431903,-2.2400734669789673
1667825060849543200,9.960543212890625,0.6124813252359629,2.2413449482195076,-2.161993325215578
1667825060859551200,9.97055126953125,1.14218558306396,2.1733409409210083,-2.094302767780423
1667825060869558000,9.98055810546875,1.634957409814,2.145574397595227,-2.0048302943870424
1667825060879566000,9.990566162109374,2.0293138705193994,2.0905667961224914,-1.9968781663388013
1667825060889574100,10.00057421875,2.294412667670846,2.103006883239746,-1.9469670112222432
1667825060899581200,10.010581298828125,2.5027865380376575,2.096653276429325,-1.7375108985766767
1667825060909589000,10.020589111328125,2.6797464484870432,2.014430628033727,-1.5266402429580688
1667825060919596300,10.03059619140625,2.8122745120137926,1.8904604033634065,-1.3683183974832296
1667825060929604000,10.04060400390625,2.851287841019034,1.7696189782381058,-1.1854714748218655
1667825060939612200,10.050612060546875,2.8194220456808803,1.6402910259269177,-0.9437655359566212
1667825060949619000,10.060618896484375,2.647111422342062,1.4972767858296632,-0.6787783824861049
1667825060959627300,10.070627197265624,2.4151316354602574,1.3877039198242127,-0.5144669412076472
1667825060969634000,10.080634033203125,2.144143780270219,1.3550383524104952,-0.3801820971414447
1667825060979642000,10.09064208984375,1.845361909225583,1.3972944627292454,-0.4129252598360181
1667825060989650200,10.100650146484375,1.4672937354981899,1.5403781148009001,-0.5924801552146672
1667825060999657200,10.1106572265625,1.080261918592453,1.7373451866209506,-0.7051464571908116
1667825061009665300,10.120665283203126,0.6786603090643882,1.838893151602894,-0.7115136541351675
1667825061019672000,10.130672119140625,0.49449149014949795,1.6943055247090757,-0.6021940322384238
1667825061029680000,10.14068017578125,0.39506490123569965,1.4876410886086522,-0.4742436518907547
1667825061039688200,10.150688232421874,0.23727847781181335,1.344210376664996,-0.18900836790055037
1667825061049695200,10.1606953125,0.2402688917994499,1.2354641707420349,0.1580322148784995
1667825061059703000,10.170703125,0.19244097269773483,1.1384198738548903,0.30955197912305593
1667825061069710300,10.18071044921875,-0.002555529701709747,1.142294377200678,0.3653817106336355
1667825061079718100,10.19071826171875,-0.01773965483009815,1.0881929307874292,0.4492243614464998
1667825061089726200,10.200726318359376,0.07986965552866458,0.94559991177693,0.4752779633745551
1667825061099733000,10.21073291015625,0.0756470693975687,0.8626679460681974,0.43780426502674813
1667825061109741300,10.2207412109375,-0.03977788363695144,0.7998148187268525,0.2995288900196552
1667825061119748000,10.230748046875,-0.18467443034946918,0.6501224160399287,0.14509060797989368
1667825061129756200,10.240756103515626,-0.31151392684578894,0.4191580167457461,0.06981587902605534
1667825061139764000,10.250763916015625,-0.39608255384564395,0.2516648036260158,0.05692307970523834
1667825061149771300,10.260771240234375,-0.342534503531456,0.1801752922993153,0.09381313294619321
1667825061159779000,10.270779052734374,-0.25658757391571996,0.1700644518472254,0.13246435064077378
1667825061169786000,10.2807861328125,-0.11280454140305518,0.17824790443331,0.2068903538107872
1667825061179794200,10.290794189453125,0.10664426520764828,0.22912812377773223,0.3323638226509094
1667825061189802200,10.30080224609375,0.265940508672595,0.20716792864315212,0.5207797776162624
1667825061199809000,10.31080908203125,0.3309650617688894,0.052729792733862996,0.7298302320703863
1667825061209817000,10.320817138671876,0.3217185099959373,-0.15071538905911147,0.897707549136877
1667825061219824000,10.33082421875,0.2803898897856474,-0.2942752803403884,1.013438791641593
1667825061229832200,10.340832275390625,0.16067571512460707,-0.3513006513763219,1.0438228239893912
1667825061239840300,10.35084033203125,0.001779284632205963,-0.3494307658512145,0.9623889878839254
1667825061249847300,10.360847412109376,-0.20212416232228278,-0.3198062466338277,0.8370113806337117
1667825061259855400,10.37085546875,-0.5592728821396827,-0.22242782242149114,0.6117495038300752
1667825061269862100,10.380862060546875,-0.9752274266690015,0.08608575356453657,0.21147008281648158
1667825061279870200,10.3908701171875,-1.365098266392946,0.6007184797931462,-0.18054010702371595
1667825061289878000,10.4008779296875,-1.5808622470110654,1.1162550229936838,-0.4137397910892963
1667825061299885300,10.41088525390625,-1.5517442890763282,1.3158442600108682,-0.46583121285438533
1667825061309893000,10.42089306640625,-1.478741012185812,1.2321027314849198,-0.36188100903630255
1667825061319900200,10.430900146484374,-1.354486856007576,1.0112129322856664,-0.0666805036097765
1667825061329908700,10.44090869140625,-1.100230355387926,0.6981523605197668,0.3268962048947811
1667825061339916800,10.450916748046875,-0.8553934250205755,0.43370457462295886,0.7768073795616627
1667825061349923600,10.460923583984375,-0.7130605913162231,0.15930979706626386,1.2497972319990396
1667825061359931600,10.470931640625,-0.7343021167874336,-0.30214243351891634,1.6559312242597342
1667825061369938700,10.480938720703126,-1.1396645401537417,-0.6812301595523953,1.8556565087467431
1667825061379946800,10.49094677734375,-1.6757020926564932,-0.8758028835818171,1.7389157969385385
1667825061389954600,10.50095458984375,-2.293638760688901,-0.7247329819966107,1.0500216786295176
1667825061399961600,10.510961669921874,-3.2349598261028527,-0.13826733783110975,-0.11739362275898456
1667825061409969700,10.5209697265625,-4.067399661037325,0.41539939486458893,-1.2049796006292104
1667825061419976700,10.530976806640625,-4.675804530614614,0.47469066500589246,-2.148632323861122
1667825061429984500,10.540984619140625,-4.970449740245938,0.2844714600108564,-2.598188109219074
1667825061439992600,10.55099267578125,-4.846956631568074,0.27641470254436135,-2.6433114455372095
1667825061449999600,10.56099951171875,-4.8240533103644845,0.3604967150710523,-2.8616736259549853
1667825061460007700,10.571007568359375,-4.5482764673322436,0.23006606221497058,-3.0399867045789954
1667825061470014500,10.581014404296875,-4.201876520544291,-0.24608254651427267,-3.0855186216980215
1667825061480022800,10.591022705078124,-3.7526241020470854,-0.7037839366659522,-2.756113648852706
1667825061490030600,10.601030517578126,-3.13373232524693,-1.140256953088939,-2.232794123625755
1667825061500037600,10.61103759765625,-2.607646257916093,-1.6243293405547736,-2.0341598492458464
1667825061510045400,10.62104541015625,-2.13181446005106,-2.0089815688475965,-2.0549486625134943
1667825061520052700,10.631052734375,-1.2732447430819271,-2.1880729383677244,-2.0859148786634205
1667825061530060500,10.641060546875,-0.6473229215145111,-2.248561309339106,-2.136483036383986
1667825061540068600,10.651068603515625,-0.27021628629565236,-2.3242981028467415,-2.217366837391257
1667825061550075600,10.66107568359375,0.08014145820736884,-2.4146423906385897,-2.297182132384181
1667825061560083700,10.671083740234375,0.3126835551470518,-2.5183687225729225,-2.3341776918262243
1667825061570090500,10.681090576171876,0.4779454290181398,-2.616096690875292,-2.2406223330333828
1667825061580098600,10.6910986328125,0.6036345864355563,-2.7089760501027107,-2.100086027356982
1667825061590106600,10.701106689453125,0.7912742963314056,-2.81267140237689,-2.0063643720865247
1667825061600113700,10.71111376953125,1.0003916785418987,-2.872349626009166,-1.9181796004161238
1667825061610121700,10.721121826171874,1.1764286289274692,-2.962753827294707,-1.7443506814688443
1667825061620128500,10.73112841796875,1.2591413989275693,-3.0097926418453453,-1.7123048533886671
1667825061630136800,10.74113671875,1.2317109556883572,-2.6994997812271118,-1.8875901086241005
1667825061640144600,10.75114453125,1.2477104888528585,-2.2223025402277705,-1.8470131835639476
1667825061650151700,10.761151611328126,1.1515531308680773,-1.7564945621185004,-1.8587293403208254
1667825061660159500,10.771159423828125,0.986366075798869,-1.3985959007166324,-1.959992497012019
1667825061670166800,10.781166748046875,0.8958294803053141,-1.117224160286784,-2.145413361814618
1667825061680174600,10.791174560546875,0.8234387823551893,-0.8320848109517246,-2.314850767804682
1667825061690182700,10.8011826171875,0.7079734973102808,-0.576253608361259,-2.5289862704381347
1667825061700189700,10.811189697265625,0.6333171925157308,-0.26813180817179383,-2.632480547182262
1667825061710197800,10.82119775390625,0.5709662425428629,0.05541275734067894,-2.6664894920289517
1667825061720204500,10.83120458984375,0.3863338977694511,0.26570669991672036,-2.8162527679949996
1667825061730212600,10.841212646484376,-0.11265022762417792,0.3982666198864579,-3.1421272286266086
1667825061740220700,10.851220703125,-0.8350029634207486,0.6327641617428511,-3.479123971775174
1667825061750227700,10.861227783203125,-1.4161796343326567,1.0099432046107948,-3.6406343841582536
1667825061760235500,10.871235595703125,-1.6903513802558183,1.40572955198884,-3.6952936105847356
1667825061770242800,10.881242919921876,-1.6986685422241687,1.7739771734476089,-3.773283151455223
1667825061780250600,10.891250732421875,-1.5577788930654526,2.2235709527283904,-3.8259859831169245
1667825061790258700,10.9012587890625,-1.2463041291862726,2.592065534685552,-3.9060283648639915
1667825061800265500,10.911265380859374,-0.5064467163592576,2.4328636915057897,-3.964731898245215
1667825061810273500,10.9212734375,0.7251946812242269,1.7003012579925356,-3.7992996362432834
1667825061820280600,10.931280517578125,0.8407862229973078,1.3381705119788645,-3.252574393248558
1667825061830288600,10.94128857421875,-0.1235135669440031,1.807336129952967,-2.657057062295079
1667825061840295700,10.951295654296874,0.8390390870690345,1.9274933722063898,-2.4237232304558156
1667825061850303700,10.9613037109375,2.4174720611065625,1.5024778616040944,-2.2620827619522808
1667825061860311600,10.9713115234375,2.981290769982338,0.990237948796153,-2.0535718212023375
1667825061870318600,10.981318603515625,2.77311505253613,0.6191328190144151,-1.8593650078758597
1667825061880326400,10.991326416015625,2.413967267856002,0.3694625502064824,-1.6830920567773282
1667825061890334700,11.001334716796874,2.425520343005657,0.08311937803961336,-1.5188471048638224
1667825061900341500,11.011341552734375,2.3761247361958024,-0.18105470548234878,-1.3689682396940885
1667825061910349600,11.021349609375,1.7171844421237705,-0.24687545045763254,-1.1738104823183269
1667825061920356600,11.031356689453125,1.1200409712731838,-0.2117152897492051,-0.9941010539650916
1667825061930364700,11.04136474609375,0.9149445151418447,-0.3169900201693177,-0.9190917710144072
1667825061940371500,11.051371337890625,0.48377369678020476,-0.45633302440792317,-0.9279012465443461
1667825061950379500,11.061379638671875,-0.15227379748225212,-0.4805881986118853,-1.092771417684108
1667825061960387600,11.0713876953125,-0.7990390851140022,-0.2171693173713982,-1.2539349163256586
1667825061970394600,11.08139453125,-1.3035779220253227,0.15428177630379794,-1.1786802072465419
1667825061980402700,11.091402587890625,-1.7127789006412029,0.3864508021473884,-0.9705737556442617
1667825061990409700,11.10140966796875,-1.8959043479830024,0.5271123416386544,-0.8633215876713395
1667825062000417800,11.111417724609375,-1.874420245927572,0.7697941397987306,-1.0217952627070248
1667825062010425600,11.121425537109374,-1.2217191385060548,1.0510638811588287,-1.2626533525712786
1667825062020432600,11.1314326171875,-0.6317126799285412,1.4345426817581057,-1.2440490437358618
1667825062030440400,11.1414404296875,-0.7326555186241864,2.0886403581045565,-1.0549128847371787
1667825062040447700,11.15144775390625,-1.2008166357308625,2.638476280465722,-0.7001864966958761
1667825062050455600,11.16145556640625,-1.6494401086747645,2.781856577396393,-0.18162030347585678
1667825062060463600,11.171463623046876,-1.65220898886621,2.586805714461207,0.24282237567454576
1667825062070470700,11.181470703125,-1.4638772050529718,2.2250769733771683,-0.12350925609506666
1667825062080478700,11.191478759765625,-1.2897563174217939,1.6998142051279543,-0.802393802369386
1667825062090485500,11.201485595703126,-0.8938456130117177,1.0902648416906595,-1.6928977037377655
1667825062100493600,11.21149365234375,-0.7256073536783456,0.68676032115072,-2.294375258269906
1667825062110501600,11.221501708984375,-0.9244494255900383,0.5441020548842848,-2.3696812591448424
1667825062120508700,11.2315087890625,-0.618122545993328,0.5731257586643099,-2.04932439289093
1667825062130516500,11.2415166015625,0.14700374812483788,0.797443778746575,-1.5901520534038542
1667825062140523800,11.251523681640625,0.6759726774156093,1.071264957666397,-1.0383052296116948
1667825062150531600,11.261531494140625,0.9495780216276645,1.3934011085525155,-0.5488892891608178
1667825062160539600,11.27153955078125,1.024267059648037,1.669117161308229,-0.17061901699006557
1667825062170546400,11.28154638671875,0.99813250143826,1.717476703068614,-0.01992620508894324
1667825062180554800,11.2915546875,1.0203548546403647,1.5481459723234177,-0.02127184754423797
1667825062190561500,11.3015615234375,1.2040841130942106,1.339640438400954,-0.036910150747490114
1667825062200569600,11.311569580078125,1.281680562993884,1.2310574602156876,-0.041697380457445976
1667825062210577700,11.32157763671875,1.2183739197313785,1.26697340772748,-0.2512646253272891
1667825062220584700,11.331584716796876,1.1869114444971083,1.3035577560201286,-0.49394277022555466
1667825062230592800,11.3415927734375,1.2926912018299102,1.2096943541914225,-0.5057056887336076
1667825062240599600,11.351599609375,0.7521686128675937,1.0479957257598638,-0.22078253943249582
1667825062250607600,11.361607666015624,0.659451166203618,1.1299620613068342,0.028683073648810384
1667825062260615700,11.37161572265625,0.6322469329357147,1.140645075623691,-0.1316781686991453
1667825062270622700,11.381622802734375,0.5821528224676847,1.116230180813372,-0.13261866441965103
1667825062280630500,11.391630615234375,0.5585100810736418,1.1813660853296517,0.009404806508007459
1667825062290637800,11.401637939453124,0.37422903395593166,1.2842121272981166,0.05605813343897462
1667825062300645600,11.411645751953126,0.2078039615243673,1.4326383094415067,-0.003020516864955425
1667825062310653700,11.42165380859375,0.09483400042653083,1.5322969535455107,-0.037220892630517484
1667825062320660500,11.431660400390625,-0.05983692132532596,1.5331816274255514,0.06826528858318924
1667825062330668800,11.441668701171874,-0.23035423150658607,1.433385620677471,0.24427242835238575
1667825062340675800,11.45167578125,-0.32249826219677924,1.2781076729431748,0.3799237384662032
1667825062350683600,11.46168359375,-0.3036708121299743,1.1017854758754373,0.3774719613999128
1667825062360691700,11.471691650390625,-0.0944604909390211,1.062969423007965,0.32473844233900306
1667825062370698800,11.48169873046875,0.19816110391020775,1.09406832562685,0.3091784331029281
1667825062380706800,11.491706787109376,0.3214367704451084,1.0260121497496961,0.30663521489351986
1667825062390713600,11.501713623046875,0.44841713671684263,0.9135758571371435,0.26276918516010045
1667825062400721700,11.5117216796875,0.49413960797190665,0.8587111712664365,0.24932737365439533
1667825062410730000,11.52172998046875,0.26981179714798925,0.7878317546620964,0.40400794001743195
1667825062420736800,11.53173681640625,0.09639292030632496,0.6904957082867622,0.6018506256282329
1667825062430744800,11.541744873046875,-0.02916004351079464,0.5716381504550576,0.8004647340029477
1667825062440751900,11.551751953125,-0.24519173515439033,0.48895899046361446,0.9006417028926312
1667825062450760000,11.561760009765624,-0.3495312305510044,0.4618316218242049,0.6196573543451727
1667825062460766700,11.5717666015625,-0.2658031460285187,0.3469739472836256,0.11583002670407294
1667825062470774800,11.58177490234375,-0.13265724286437033,0.24881226373910903,-0.22586408048048615
1667825062480782800,11.591782958984375,-0.04195581219792366,0.24245909532010554,-0.21214681303426622
1667825062490790000,11.601789794921874,0.12539046673178672,0.23642010741680858,-0.11448580902088433
1667825062500797700,11.611797607421876,0.41072190457284447,0.25579291640669105,-0.14145988679472357
1667825062510805000,11.621804931640625,0.5239905563563109,0.27747809399217366,-0.16085355590954423
1667825062520812800,11.631812744140625,0.4830044659733772,0.22679507772028445,-0.19834215956553816
1667825062530820900,11.64182080078125,0.44932840634286403,0.14399930561184882,-0.12527005522251128
1667825062540827600,11.65182763671875,0.5221002125650644,0.014752747973799704,-0.030849165641516445
1667825062550836000,11.6618359375,0.6471054793715476,-0.05921703586131334,0.012332242828607558
1667825062560842800,11.6718427734375,0.7679115409225225,-0.07340425890684127,0.04741846151798963
1667825062570850800,11.681850830078124,0.8896464077562093,-0.05483282942771911,0.03044672232046723
1667825062580858600,11.691858642578126,1.0293237585157156,-0.05354746579229831,-0.005290215362608433
1667825062590866000,11.701865966796875,1.0118184969633817,-0.09886077172458171,-0.045264681017585094
1667825062600873700,11.711873779296875,0.8546797237932682,-0.15844985576868056,-0.09132511552274226
1667825062610880800,11.721880859375,0.7883253833979368,-0.21721505620926618,-0.1292135321512818
1667825062620888800,11.731888916015626,0.7193395254552364,-0.2829945193260908,-0.12216712077111005
1667825062630897000,11.74189697265625,0.6180664318919181,-0.350992243014276,-0.11228234415985643
1667825062640903700,11.751903564453125,0.5648457138359546,-0.41160044097304344,-0.12588409546762705
1667825062650911700,11.761911865234374,0.6145002638429403,-0.41449411658793683,-0.15939882705658673
1667825062660918800,11.771918701171876,0.7006348249852656,-0.4339291771590709,-0.16971300806105136
1667825062670926800,11.7819267578125,0.7046236023604869,-0.5044117034003138,-0.30052674195058643
1667825062680934700,11.7919345703125,0.817667213216424,-0.5358253710567951,-0.4487286868840456
1667825062690941700,11.801941650390624,0.8554331725090741,-0.5749333926081657,-0.4362100546378642
1667825062700949800,11.81194970703125,1.034517235505581,-0.6198083071231841,-0.40312158563695843
1667825062710956800,11.821956787109375,1.9745891776412725,-0.43220746793299913,-0.07843012424483894
1667825062720964600,11.831964599609375,0.4502718246728182,-0.4161754938036203,0.23191008264645932
1667825062730972700,11.84197265625,0.13595394632220267,-0.7730784221664071,0.04369936792962253
1667825062740979700,11.851979736328126,-0.10686755256950854,-1.088475035664439,0.014765095998719334
1667825062750987800,11.86198779296875,0.043884734433889384,-1.1907099599972366,0.08040120512209832
1667825062760994600,11.87199462890625,0.10242927786111831,-1.0019234181538224,0.005540427264012396
1667825062771003000,11.8820029296875,-0.004315525111556053,-0.789897162759304,-0.05765625281799584
1667825062781011000,11.892010986328126,0.1191127016365528,-0.6631266398459672,-0.014586524561420082
