time,seconds_elapsed,z,y,x
1667825050911998200,0.022998291015625,0.5723773241043091,-0.5837497115135193,-0.08625788241624832
1667825050922006300,0.03300634765625,0.525762677192688,-0.6548725962638855,-0.12980137765407562
1667825050932013300,0.043013427734375,0.4618685245513916,-0.6582525372505188,-0.18594816327095032
1667825050942021400,0.053021484375,0.3815965950489044,-0.6121169924736023,-0.23741161823272705
1667825050952029200,0.063029296875,0.2988806366920471,-0.5322089791297913,-0.2593976557254791
1667825050962036500,0.073036376953125,0.22131742537021637,-0.445090115070343,-0.21939779818058014
1667825050972044300,0.083044189453125,0.13528650999069214,-0.3727394640445709,-0.11081903427839279
1667825050982051300,0.09305126953125,0.04112965241074562,-0.36672550439834595,0.05500268191099167
1667825050992059100,0.10305908203125,-0.05377652496099472,-0.43237408995628357,0.23997312784194946
1667825051002067200,0.113067138671875,-0.12730772793293,-0.5629858374595642,0.42933106422424316
1667825051012074200,0.12307421875,-0.18228134512901306,-0.7120364308357239,0.600631833076477
1667825051022082300,0.133082275390625,-0.2550005614757538,-0.7732353210449219,0.7592113614082336
1667825051032089300,0.14308935546875,-0.3062358796596527,-0.7929795980453491,0.8958033323287964
1667825051042097400,0.153097412109375,-0.3291396200656891,-0.8170093297958374,1.0119671821594238
1667825051052105200,0.163105224609375,-0.35155048966407776,-0.7854763269424438,1.1101354360580444
1667825051062112300,0.1731123046875,-0.360831618309021,-0.7669356465339661,1.1999531984329224
1667825051072120000,0.1831201171875,-0.3386150300502777,-0.8011946678161621,1.2879812717437744
1667825051082127400,0.19312744140625,-0.32454580068588257,-0.872189462184906,1.3520742654800415
1667825051092135200,0.20313525390625,-0.3532423973083496,-0.9845209717750549,1.3597593307495117
1667825051102143200,0.213143310546875,-0.4639153778553009,-1.1173032522201538,1.2899932861328125
1667825051112150300,0.223150390625,-0.7057119011878967,-1.2292879819869995,1.1488738059997559
1667825051122158300,0.233158447265625,-0.9864756464958191,-1.3045952320098877,0.969440221786499
1667825051132165000,0.2431650390625,-1.195559024810791,-1.376959204673767,0.7321014404296875
1667825051142173200,0.253173095703125,-1.308091163635254,-1.2009516954421997,0.45292195677757263
1667825051152180200,0.26318017578125,-1.3164665699005127,-0.7515287399291992,0.20808948576450348
1667825051162188300,0.273188232421875,-1.2119289636611938,-0.2305898815393448,0.05213051289319992
1667825051172196400,0.2831962890625,-1.0008565187454224,0.20779895782470703,-0.07865525037050247
1667825051182203400,0.293203369140625,-0.742367148399353,0.5010526776313782,-0.2821580469608307
1667825051192211500,0.30321142578125,-0.4425244927406311,0.9417033791542053,-0.7206374406814575
1667825051202218200,0.31321826171875,-0.2081844061613083,0.24995604157447815,-1.1277493238449097
1667825051212226300,0.323226318359375,-0.07141830027103424,-0.21520012617111206,-1.486765742301941
1667825051222234400,0.333234375,0.07371491938829422,-0.45168909430503845,-1.7447270154953003
1667825051232241400,0.343241455078125,0.29452353715896606,-0.3780630826950073,-1.8738981485366821
1667825051242249200,0.353249267578125,0.549008309841156,-0.1851748675107956,-1.9186973571777344
1667825051252256500,0.363256591796875,0.771499514579773,0.06269577890634537,-1.8785316944122314
1667825051262264300,0.373264404296875,0.9135711789131165,0.2742176055908203,-1.7572365999221802
1667825051272272400,0.3832724609375,0.9319055676460266,0.4045388400554657,-1.564321756362915
1667825051282279200,0.393279052734375,0.8208565711975098,0.49475449323654175,-1.336648941040039
1667825051292287200,0.403287353515625,0.5870458483695984,0.5651886463165283,-1.0605772733688354
1667825051302294300,0.413294189453125,0.31357619166374207,0.5780903100967407,-0.7114334106445312
1667825051312302300,0.42330224609375,0.04421534389257431,0.5545979738235474,-0.33268892765045166
1667825051322310700,0.433310546875,-0.17712663114070892,0.4987328350543976,0.019055258482694626
1667825051332317700,0.443317626953125,-0.3478677570819855,0.4149518609046936,0.30355432629585266
1667825051342325800,0.45332568359375,-0.44880741834640503,0.299670547246933,0.5074299573898315
1667825051352332500,0.46333251953125,-0.4933468699455261,0.142320916056633,0.603812038898468
1667825051362340600,0.473340576171875,-0.5071558952331543,-0.04630172252655029,0.6123522520065308
1667825051372348700,0.4833486328125,-0.52793949842453,-0.20422497391700745,0.5370203852653503
1667825051382355700,0.493355712890625,-0.5563144087791443,-0.3655281066894531,0.38449904322624207
1667825051392363500,0.503363525390625,-0.5855624079704285,-0.5525623559951782,0.15455959737300873
1667825051402370800,0.513370849609375,-0.5947063565254211,-0.7078304886817932,-0.1156466007232666
1667825051412378600,0.523378662109375,-0.5856106877326965,-0.7669815421104431,-0.4001169204711914
1667825051422385700,0.5333857421875,-0.5457234382629395,-0.8141935467720032,-0.7256995439529419
1667825051432393500,0.5433935546875,-0.477377325296402,-0.8245519995689392,-1.0994462966918945
1667825051442401500,0.553401611328125,-0.35134750604629517,-0.8446527123451233,-1.5130610466003418
1667825051452408600,0.56340869140625,-0.16675974428653717,-0.8896148204803467,-1.9359664916992188
1667825051462416600,0.573416748046875,0.06946663558483124,-0.9889456629753113,-2.3857059478759766
1667825051472423700,0.583423583984375,0.33620092272758484,-1.2048463821411133,-2.850876808166504
1667825051482431700,0.593431640625,0.6127981543540955,-1.5259754657745361,-3.3022282123565674
1667825051492439600,0.603439453125,0.9001492857933044,-1.9129160642623901,-3.716740846633911
1667825051502446600,0.613446533203125,1.1872241497039795,-2.4295713901519775,-4.114518642425537
1667825051512454400,0.623454345703125,1.4575783014297485,-3.0479273796081543,-4.511623859405518
1667825051522461700,0.633461669921875,1.6708199977874756,-3.676562786102295,-4.896449565887451
1667825051532469500,0.643469482421875,1.7978874444961548,-4.135570526123047,-5.2141523361206055
1667825051542477600,0.6534775390625,1.7910170555114746,-4.370761871337891,-5.4106903076171875
1667825051552484600,0.663484619140625,1.5928499698638916,-4.2180938720703125,-5.451972484588623
1667825051562492700,0.67349267578125,1.1658769845962524,-3.2766172885894775,-5.250913143157959
1667825051572499500,0.68349951171875,0.5407767295837402,-1.4710578918457031,-4.8400654792785645
1667825051582507500,0.693507568359375,-0.100949227809906,0.4215037226676941,-4.373864650726318
1667825051592515600,0.703515625,-0.6422338485717773,1.7490627765655518,-3.936455011367798
1667825051602522600,0.713522705078125,-0.9818617701530457,2.484163284301758,-3.5364489555358887
1667825051612530700,0.72353076171875,-1.0745487213134766,2.7329351902008057,-3.1619679927825928
1667825051622537700,0.733537841796875,-0.9114279747009277,2.590532064437866,-2.8090267181396484
1667825051632545800,0.7435458984375,-0.5722114443778992,2.1296019554138184,-2.455683708190918
1667825051642552600,0.753552490234375,-0.1911538541316986,1.4792851209640503,-2.058957099914551
1667825051652560600,0.763560546875,0.12115737050771713,0.7980554103851318,-1.605734944343567
1667825051662568400,0.773568359375,0.3200637996196747,0.185460165143013,-1.0820828676223755
1667825051672575700,0.78357568359375,0.3793453276157379,-0.29461759328842163,-0.5324349999427795
1667825051682583600,0.79358349609375,0.3314923346042633,-0.5878337621688843,-0.025054648518562317
1667825051692590600,0.803590576171875,0.2393709272146225,-0.7324568629264832,0.3844567835330963
1667825051702598700,0.8135986328125,0.131720632314682,-0.7550919055938721,0.6715039610862732
1667825051712606700,0.823606689453125,0.013070270419120789,-0.6749163269996643,0.8515138030052185
1667825051722613500,0.833613525390625,-0.11929229646921158,-0.5679049491882324,0.9202377796173096
1667825051732621600,0.84362158203125,-0.2603723108768463,-0.45028814673423767,0.9119793772697449
1667825051742628600,0.853628662109375,-0.37277528643608093,-0.31285226345062256,0.8522292375564575
1667825051752636700,0.86363671875,-0.44022050499916077,-0.18680649995803833,0.7697619199752808
1667825051762644500,0.87364453125,-0.44697508215904236,-0.07411376386880875,0.6865658760070801
1667825051772651800,0.88365185546875,-0.39085909724235535,0.05235112085938454,0.6272966265678406
1667825051782659600,0.89365966796875,-0.3026381731033325,0.22585472464561462,0.6026426553726196
1667825051792666600,0.90366650390625,-0.2053772360086441,0.394704133272171,0.6245817542076111
1667825051802674400,0.91367431640625,-0.1334788054227829,0.5433743000030518,0.672494649887085
1667825051812682800,0.923682861328125,-0.0906771570444107,0.6761977076530457,0.7334955930709839
1667825051822689500,0.933689453125,-0.0794207751750946,0.8008996844291687,0.8041404485702515
1667825051832697600,0.943697509765625,-0.1110566183924675,0.8823063969612122,0.8773661851882935
1667825051842704600,0.95370458984375,-0.17729076743125916,0.9314182996749878,0.9467135667800903
1667825051852712700,0.963712646484375,-0.27563655376434326,0.9389092326164246,1.0018672943115234
1667825051862719500,0.973719482421875,-0.4042049050331116,0.8835170865058899,1.0226877927780151
1667825051872727600,0.9837275390625,-0.5540002584457397,0.7740106582641602,0.9998403191566467
1667825051882735600,0.993735595703125,-0.7244441509246826,0.6259663105010986,0.9326831698417664
1667825051892742700,1.00374267578125,-0.8981785774230957,0.4610304534435272,0.8272793889045715
1667825051902750700,1.013750732421875,-1.0572915077209473,0.3044576346874237,0.6996063590049744
1667825051912757800,1.0237578125,-1.1887787580490112,0.17024879157543182,0.5340500473976135
1667825051922765800,1.033765869140625,-1.302127480506897,0.05582314729690552,0.3480716049671173
1667825051932773600,1.043773681640625,-1.409449815750122,-0.059143729507923126,0.1412435919046402
1667825051942780400,1.053780517578125,-1.5172690153121948,-0.14058825373649597,-0.07359760254621506
1667825051952788500,1.06378857421875,-1.6092126369476318,-0.16106244921684265,-0.2814091145992279
1667825051962795500,1.07379541015625,-1.676591396331787,-0.13391950726509094,-0.4748121500015259
1667825051972803600,1.083803466796875,-1.7180910110473633,-0.08540965616703033,-0.65625
1667825051982811600,1.093811767578125,-1.7315399646759033,-0.02166609652340412,-0.8070653676986694
1667825051992818700,1.103818603515625,-1.725538730621338,0.04765107110142708,-0.9239192008972168
1667825052002826800,1.11382666015625,-1.7014060020446777,0.10675247013568878,-1.0011932849884033
1667825052012833500,1.12383349609375,-1.6600415706634521,0.13167856633663177,-1.0422883033752441
1667825052022841600,1.133841552734375,-1.59778892993927,0.11681999266147614,-1.0511188507080078
1667825052032849700,1.143849609375,-1.517838716506958,0.047751426696777344,-1.0325206518173218
1667825052042856700,1.153856689453125,-1.4282547235488892,-0.0684279054403305,-1.0025614500045776
1667825052052864500,1.163864501953125,-1.3343417644500732,-0.21004381775856018,-0.9751439690589905
1667825052062871800,1.173871826171875,-1.2491813898086548,-0.3539240062236786,-0.9451911449432373
1667825052072879600,1.183879638671875,-1.1634026765823364,-0.505104660987854,-0.9316288232803345
1667825052082886700,1.19388671875,-1.0752429962158203,-0.6633496880531311,-0.9484336376190186
1667825052092894500,1.20389453125,-0.971868097782135,-0.7909801602363586,-0.9936990141868591
1667825052102902500,1.213902587890625,-0.8674295544624329,-0.8770585656166077,-1.0473552942276
1667825052112909600,1.22390966796875,-0.7613190412521362,-0.9242980480194092,-1.1044468879699707
1667825052122917600,1.233917724609375,-0.645750880241394,-0.9199919700622559,-1.1594507694244385
1667825052132924700,1.243924560546875,-0.5072022676467896,-0.8942875862121582,-1.212693214416504
1667825052142932700,1.2539326171875,-0.3540973961353302,-0.9127709865570068,-1.3020912408828735
1667825052152940500,1.2639404296875,-0.18136735260486603,-1.0332767963409424,-1.432782769203186
1667825052162947600,1.273947509765625,0.004816366359591484,-1.207414150238037,-1.5846295356750488
1667825052172955400,1.283955322265625,0.20093479752540588,-1.3522249460220337,-1.7198702096939087
1667825052182962700,1.293962646484375,0.41418689489364624,-1.4357911348342896,-1.7842521667480469
1667825052192970500,1.303970458984375,0.6819005012512207,-1.4574660062789917,-1.767698049545288
1667825052202978600,1.313978515625,1.0106847286224365,-1.4250483512878418,-1.6617554426193237
1667825052212985600,1.323985595703125,1.404532790184021,-1.3109841346740723,-1.463507056236267
1667825052222993700,1.33399365234375,1.8380674123764038,-1.0963181257247925,-1.151957392692566
1667825052233000400,1.34400048828125,2.285313367843628,-0.8506506085395813,-0.725368320941925
1667825052243008500,1.354008544921875,2.723438024520874,-0.6279885172843933,-0.1945590227842331
1667825052253016800,1.364016845703125,3.1288278102874756,-0.45573538541793823,0.3873705565929413
1667825052263023600,1.374023681640625,3.4642174243927,-0.33226829767227173,0.9465963244438171
1667825052273031700,1.38403173828125,3.7205307483673096,-0.2921476662158966,1.433580756187439
1667825052283038700,1.394038818359375,3.8835208415985107,-0.3366331160068512,1.8234931230545044
1667825052293046800,1.404046875,3.917487382888794,-0.41503584384918213,2.1097373962402344
1667825052303054600,1.4140546875,3.7963619232177734,-0.5353635549545288,2.2865304946899414
1667825052313061600,1.4240615234375,3.5160088539123535,-0.6870135068893433,2.3593945503234863
1667825052323073000,1.434072998046875,3.0695858001708984,-0.8329232931137085,2.343813896179199
1667825052333080300,1.444080322265625,2.4624147415161133,-0.9482930302619934,2.2782492637634277
1667825052343088000,1.454088134765625,1.7665657997131348,-1.0192303657531738,2.1704227924346924
1667825052353095200,1.46409521484375,1.074270486831665,-1.0476067066192627,2.004436492919922
1667825052363103200,1.474103271484375,0.4924420416355133,-1.0024226903915405,1.787635087966919
1667825052373111300,1.484111328125,0.06660977005958557,-0.8944329619407654,1.5501548051834106
1667825052383118000,1.4941181640625,-0.21837589144706726,-0.776642382144928,1.320150375366211
1667825052393126100,1.504126220703125,-0.40556639432907104,-0.6647729277610779,1.135029673576355
1667825052403133200,1.51413330078125,-0.49263471364974976,-0.5643216967582703,0.9806217551231384
1667825052413141200,1.524141357421875,-0.5241145491600037,-0.4571893513202667,0.8475780487060547
1667825052423149300,1.5341494140625,-0.5236594080924988,-0.3381010591983795,0.7244398593902588
1667825052433156400,1.54415625,-0.4933220148086548,-0.19250832498073578,0.6158154606819153
1667825052443164400,1.554164306640625,-0.4351702928543091,-0.029913295060396194,0.5224593877792358
1667825052453171200,1.564171142578125,-0.33815544843673706,0.1413433998823166,0.425733357667923
1667825052463179300,1.57417919921875,-0.20973356068134308,0.340603232383728,0.3307943344116211
1667825052473187300,1.584187255859375,-0.08077330887317657,0.5609139204025269,0.27748221158981323
1667825052483194400,1.5941943359375,0.05441167578101158,0.7378183603286743,0.2648942470550537
1667825052493202200,1.6042021484375,0.19127589464187622,0.8632771968841553,0.285895437002182
1667825052503209500,1.61420947265625,0.3298521339893341,0.942559003829956,0.33464619517326355
1667825052513217300,1.62421728515625,0.47288697957992554,0.9722053408622742,0.4003351926803589
1667825052523225300,1.634225341796875,0.6103175282478333,0.9825695753097534,0.4963487684726715
1667825052533232000,1.644232177734375,0.7122979164123535,0.9703989624977112,0.6048109531402588
1667825052543240200,1.654240234375,0.7679020762443542,0.9225368499755859,0.7279810905456543
1667825052553247200,1.664247314453125,0.783727765083313,0.8449035882949829,0.8597739338874817
1667825052563255300,1.67425537109375,0.7688623070716858,0.7641903758049011,0.9842338562011719
1667825052573263000,1.68426318359375,0.7390018105506897,0.682686984539032,1.089590072631836
1667825052583270400,1.6942705078125,0.6877679228782654,0.5962247848510742,1.173861026763916
1667825052593278200,1.7042783203125,0.6223161816596985,0.4903140366077423,1.2338122129440308
1667825052603285200,1.71428515625,0.5378876328468323,0.3696158230304718,1.2530133724212646
1667825052613293000,1.72429296875,0.4378305971622467,0.27728214859962463,1.2414106130599976
1667825052623301400,1.73430126953125,0.33210310339927673,0.2412024438381195,1.2211897373199463
1667825052633308200,1.74430810546875,0.22729486227035522,0.26005491614341736,1.2102501392364502
1667825052643316200,1.754316162109375,0.13958312571048737,0.2857368588447571,1.19890558719635
1667825052653323300,1.7643232421875,0.06473898887634277,0.2955162823200226,1.1826249361038208
1667825052663331300,1.774331298828125,0.0034268926829099655,0.27426770329475403,1.1555867195129395
1667825052673338000,1.784338134765625,-0.04284725338220596,0.1933794617652893,1.1131315231323242
1667825052683346200,1.79434619140625,-0.07617484778165817,0.03779067471623421,1.027359127998352
1667825052693354200,1.804354248046875,-0.11970014870166779,-0.15994390845298767,0.8904602527618408
1667825052703361300,1.814361328125,-0.18791674077510834,-0.35813578963279724,0.6940606832504272
1667825052713369000,1.824369140625,-0.280606210231781,-0.4997827410697937,0.43651673197746277
1667825052723376400,1.83437646484375,-0.39487579464912415,-0.5569736361503601,0.14012286067008972
1667825052733384200,1.84438427734375,-0.5238490104675293,-0.507303774356842,-0.1751052737236023
1667825052743392300,1.854392333984375,-0.66694575548172,-0.3706042766571045,-0.46257030963897705
1667825052753399000,1.86439892578125,-0.8226169347763062,-0.18337109684944153,-0.6954684257507324
1667825052763407000,1.874406982421875,-0.9843528270721436,-0.010767631232738495,-0.8651935458183289
1667825052773414100,1.8844140625,-1.1158584356307983,0.1250479370355606,-0.9857292771339417
1667825052783422200,1.894422119140625,-1.1983575820922852,0.21767321228981018,-1.0616579055786133
1667825052793430300,1.90443017578125,-1.2338110208511353,0.26790517568588257,-1.1053086519241333
1667825052803437300,1.914437255859375,-1.2327172756195068,0.27093106508255005,-1.124077558517456
1667825052813445400,1.9244453125,-1.206368088722229,0.2250678390264511,-1.1324881315231323
1667825052823452200,1.9344521484375,-1.1614396572113037,0.15314838290214539,-1.1331132650375366
1667825052833460200,1.944460205078125,-1.1041007041931152,0.0741066187620163,-1.12101149559021
1667825052843468300,1.95446826171875,-1.046335220336914,-0.007320334203541279,-1.1003767251968384
1667825052853475300,1.964475341796875,-0.9906688928604126,-0.05963626131415367,-1.0747408866882324
1667825052863483100,1.974483154296875,-0.952690601348877,-0.08872304111719131,-1.0395269393920898
1667825052873490400,1.984490478515625,-0.9216203689575195,-0.11137927323579788,-0.9983611702919006
1667825052883498200,1.994498291015625,-0.8922132253646851,-0.13764815032482147,-0.960228681564331
1667825052893506300,2.00450634765625,-0.8539284467697144,-0.1780318319797516,-0.9244483113288879
1667825052903513000,2.01451318359375,-0.8077542781829834,-0.22510293126106262,-0.9029880166053772
1667825052913521400,2.024521484375,-0.766762375831604,-0.2813924551010132,-0.8924196362495422
1667825052923528200,2.034528076171875,-0.7415531873703003,-0.33342769742012024,-0.8840328454971313
1667825052933536300,2.044536376953125,-0.7354108691215515,-0.36160528659820557,-0.8718757629394531
1667825052943543300,2.054543212890625,-0.7496776580810547,-0.35351434350013733,-0.8531598448753357
1667825052953551400,2.06455126953125,-0.7748268246650696,-0.31104815006256104,-0.8231566548347473
1667825052963559200,2.07455908203125,-0.7943578958511353,-0.25412869453430176,-0.7809340953826904
1667825052973566200,2.084566162109375,-0.8070566654205322,-0.185487762093544,-0.7279873490333557
1667825052983574300,2.09457421875,-0.8185189366340637,-0.12905724346637726,-0.6423930525779724
1667825052993581300,2.104581298828125,-0.8309561610221863,-0.09931206703186035,-0.5394013524055481
1667825053003589000,2.114589111328125,-0.8440997004508972,-0.09624357521533966,-0.4121224582195282
1667825053013597200,2.12459716796875,-0.847030520439148,-0.12403495609760284,-0.27887749671936035
1667825053023604200,2.134604248046875,-0.8455471396446228,-0.15731434524059296,-0.16257432103157043
1667825053033612300,2.1446123046875,-0.8474456667900085,-0.19380497932434082,-0.09554186463356018
1667825053043619000,2.154619140625,-0.8619282245635986,-0.2363676130771637,-0.08344312757253647
1667825053053627100,2.164627197265625,-0.8849096298217773,-0.2597396969795227,-0.12082833796739578
1667825053063635500,2.174635498046875,-0.9187621474266052,-0.2514825761318207,-0.17901016771793365
1667825053073642200,2.184642333984375,-0.9606215953826904,-0.21487843990325928,-0.24190263450145721
1667825053083650300,2.194650390625,-1.0056005716323853,-0.19865739345550537,-0.32249417901039124
1667825053093657300,2.2046572265625,-1.0405187606811523,-0.23442302644252777,-0.423875093460083
1667825053103665400,2.21466552734375,-1.0556353330612183,-0.30162498354911804,-0.5388213992118835
1667825053113673200,2.224673095703125,-1.0422868728637695,-0.3586607575416565,-0.6483286023139954
1667825053123680300,2.23468017578125,-1.0055893659591675,-0.37505438923835754,-0.7387900948524475
1667825053133688300,2.244688232421875,-0.956829845905304,-0.35741451382637024,-0.7879869937896729
1667825053143695400,2.2546953125,-0.8847330212593079,-0.32091188430786133,-0.7884061336517334
1667825053153703200,2.264703125,-0.7899909019470215,-0.28625044226646423,-0.7441315054893494
1667825053163711200,2.274711181640625,-0.6753287315368652,-0.3003614842891693,-0.6666971445083618
1667825053173718300,2.28471826171875,-0.5452585220336914,-0.4175598919391632,-0.6166834235191345
1667825053183726300,2.294726318359375,-0.40277326107025146,-0.6164013743400574,-0.6209412813186646
1667825053193733000,2.304733154296875,-0.2269192785024643,-0.8175590634346008,-0.6785115003585815
1667825053203741400,2.314741455078125,0.0000012172386050224304,-0.9612663984298706,-0.7542811036109924
1667825053213749200,2.324749267578125,0.272274374961853,-1.0164520740509033,-0.809592068195343
1667825053223756300,2.33475634765625,0.5859177708625793,-0.9999362230300903,-0.8091257214546204
1667825053233764000,2.34476416015625,0.9190885424613953,-0.9154615998268127,-0.7175553441047668
1667825053243771400,2.354771484375,1.2548165321350098,-0.7441971302032471,-0.48692694306373596
1667825053253779200,2.364779296875,1.6012827157974243,-0.5073792338371277,-0.11803829669952393
1667825053263787300,2.374787353515625,1.9692699909210205,-0.2722362279891968,0.34504494071006775
1667825053273794000,2.3847939453125,2.33337140083313,-0.12663839757442474,0.8266071081161499
1667825053283802400,2.39480224609375,2.663280725479126,-0.07045421749353409,1.2394803762435913
1667825053293809200,2.40480908203125,2.946645498275757,-0.07812678813934326,1.539589524269104
1667825053303817200,2.414817138671875,3.1549644470214844,-0.13573229312896729,1.7061073780059814
1667825053313825000,2.424824951171875,3.2284138202667236,-0.20602765679359436,1.746602177619934
1667825053323831800,2.434831787109375,3.106917381286621,-0.2938115894794464,1.679360032081604
1667825053333839600,2.444839599609375,2.7856433391571045,-0.38646888732910156,1.530342698097229
1667825053343847000,2.454846923828125,2.2869465351104736,-0.44558972120285034,1.333103060722351
1667825053353854700,2.464854736328125,1.6618075370788574,-0.4513357877731323,1.1268236637115479
1667825053363861800,2.47486181640625,0.9686815142631531,-0.39481446146965027,0.9504760503768921
1667825053373869600,2.48486962890625,0.30816322565078735,-0.32525524497032166,0.8206069469451904
1667825053383877600,2.494877685546875,-0.21897462010383606,-0.247436061501503,0.7558290362358093
1667825053393884700,2.504884765625,-0.5790312886238098,-0.19330613315105438,0.7605412602424622
1667825053403892700,2.514892822265625,-0.7742015719413757,-0.18842536211013794,0.8070254325866699
1667825053413899800,2.524899658203125,-0.8430327773094177,-0.2358739674091339,0.8944761753082275
1667825053423907800,2.534907958984375,-0.8311372399330139,-0.28333789110183716,1.001146912574768
1667825053433916000,2.544916015625,-0.7739394903182983,-0.32218149304389954,1.108820915222168
1667825053443922700,2.554922607421875,-0.6973605751991272,-0.3365412652492523,1.1858144998550415
1667825053453930800,2.5649306640625,-0.6025965213775635,-0.2807059586048126,1.2429448366165161
1667825053463938800,2.574938720703125,-0.5000485181808472,-0.1740460842847824,1.262511134147644
1667825053473945900,2.58494580078125,-0.3859746754169464,-0.04011545702815056,1.232319712638855
1667825053483953700,2.59495361328125,-0.2603166103363037,0.09528950601816177,1.1480258703231812
1667825053493961000,2.6049609375,-0.1339109241962433,0.23543892800807953,1.014227271080017
1667825053503968800,2.61496875,-0.01026860810816288,0.38287153840065,0.8552566170692444
1667825053513975600,2.6249755859375,0.11125065386295319,0.5230905413627625,0.6926674842834473
1667825053523983600,2.634983642578125,0.22987690567970276,0.6467496156692505,0.5214056968688965
1667825053533992000,2.644991943359375,0.3403240740299225,0.7629241943359375,0.37574124336242676
1667825053543998700,2.654998779296875,0.44123896956443787,0.8623605370521545,0.28254687786102295
1667825053554006800,2.6650068359375,0.5043036937713623,0.9471222758293152,0.2618413269519806
1667825053564013800,2.675013916015625,0.5266931653022766,1.012205958366394,0.31012389063835144
1667825053574022000,2.68502197265625,0.5276358723640442,1.033207893371582,0.4155123233795166
1667825053584029700,2.69502978515625,0.5250549912452698,1.0206427574157715,0.5361210703849792
1667825053594036700,2.70503662109375,0.5184091925621033,0.9661656022071838,0.6395434141159058
1667825053604044800,2.715044921875,0.4967569410800934,0.8913949131965637,0.7311364412307739
1667825053614051800,2.7250517578125,0.4378248453140259,0.7985493540763855,0.8138569593429565
1667825053624059600,2.7350595703125,0.3532830774784088,0.7112053632736206,0.8966311812400818
1667825053634067700,2.745067626953125,0.25386708974838257,0.652448296546936,0.984917938709259
1667825053644074800,2.75507470703125,0.1563679575920105,0.6175145506858826,1.0733071565628052
1667825053654082800,2.765082763671875,0.07525480538606644,0.5809440612792969,1.1526633501052856
1667825053664089600,2.775089599609375,0.02443077228963375,0.5376967787742615,1.2205041646957397
1667825053674097700,2.78509765625,0.007930256426334381,0.4869941473007202,1.2755768299102783
1667825053684105700,2.795105712890625,0.02120930887758732,0.39757266640663147,1.3128470182418823
1667825053694112800,2.80511279296875,0.03431299328804016,0.25092771649360657,1.3119838237762451
1667825053704120600,2.81512060546875,0.012610895559191704,0.05337150767445564,1.234755277633667
1667825053714128000,2.8251279296875,-0.05002395063638687,-0.1888268142938614,1.0674289464950562
1667825053724135700,2.8351357421875,-0.1529865562915802,-0.4177529513835907,0.8060773015022278
1667825053734143700,2.845143798828125,-0.2774488627910614,-0.5899136066436768,0.47423645853996277
1667825053744150500,2.855150634765625,-0.40944790840148926,-0.7053989171981812,0.09945511817932129
1667825053754158800,2.865158935546875,-0.5476444959640503,-0.7758350372314453,-0.3064146339893341
1667825053764165600,2.87516552734375,-0.6901593208312988,-0.7936651110649109,-0.7218198180198669
1667825053774173700,2.885173583984375,-0.8168023824691772,-0.7352694869041443,-1.1156686544418335
1667825053784181800,2.895181640625,-0.9279845952987671,-0.6149731278419495,-1.444471836090088
1667825053794188800,2.905188720703125,-0.987758219242096,-0.4687395989894867,-1.6997655630111694
1667825053804196900,2.91519677734375,-0.981783926486969,-0.305868923664093,-1.8583054542541504
1667825053814203600,2.92520361328125,-0.9220434427261353,-0.1147642731666565,-1.9206737279891968
1667825053824211700,2.935211669921875,-0.8146432042121887,0.07303731888532639,-1.8957115411758423
1667825053834219800,2.9452197265625,-0.6773287057876587,0.21024441719055176,-1.7878814935684204
1667825053844226800,2.955226806640625,-0.532512366771698,0.24607592821121216,-1.6106048822402954
1667825053854234600,2.965234619140625,-0.40381261706352234,0.19010579586029053,-1.3816076517105103
1667825053864242000,2.975241943359375,-0.3073779344558716,0.0847330242395401,-1.1141650676727295
1667825053874249700,2.985249755859375,-0.25888490676879883,-0.04984753206372261,-0.8626756072044373
1667825053884257800,2.9952578125,-0.2579970061779022,-0.18296164274215698,-0.6779747009277344
1667825053894264600,3.0052646484375,-0.28362351655960083,-0.29761576652526855,-0.5739907622337341
1667825053904273000,3.01527294921875,-0.3375437557697296,-0.396806001663208,-0.5472393035888672
1667825053914279700,3.02527978515625,-0.42125415802001953,-0.479543536901474,-0.593438446521759
1667825053924287700,3.035287841796875,-0.5342352986335754,-0.517308235168457,-0.6865878701210022
1667825053934295600,3.045295654296875,-0.6611907482147217,-0.5138805508613586,-0.7949188947677612
1667825053944302800,3.055302734375,-0.7951946258544922,-0.4680776298046112,-0.8960103988647461
1667825053954310700,3.065310546875,-0.9058231711387634,-0.3744406998157501,-0.9609323740005493
1667825053964317700,3.075317626953125,-0.9890773296356201,-0.2397012710571289,-0.9589797258377075
1667825053974325800,3.08532568359375,-1.0140575170516968,-0.10903400927782059,-0.8906212449073792
1667825053984333800,3.095333740234375,-1.0012890100479126,0.03182458132505417,-0.7564272284507751
1667825053994340600,3.105340576171875,-0.9601333141326904,0.16257870197296143,-0.5714386701583862
1667825054004348700,3.1153486328125,-0.922955334186554,0.2442818284034729,-0.35990968346595764
1667825054014355700,3.125355712890625,-0.9053044319152832,0.29569628834724426,-0.14453423023223877
1667825054024363800,3.13536376953125,-0.9069095253944397,0.3144233524799347,0.05014151334762573
1667825054034371800,3.145371826171875,-0.9340678453445435,0.3081694543361664,0.19944113492965698
1667825054044379000,3.15537890625,-0.9866554141044617,0.27997857332229614,0.28532299399375916
1667825054054387000,3.165386962890625,-1.052158236503601,0.2354416698217392,0.3046756386756897
1667825054064393700,3.175393798828125,-1.123972773551941,0.1927591860294342,0.25620236992836
1667825054074401800,3.18540185546875,-1.1933696269989014,0.1419680118560791,0.15097111463546753
1667825054084409600,3.19540966796875,-1.2573020458221436,0.078276127576828,0.008460571989417076
1667825054094417000,3.2054169921875,-1.3087801933288574,0.02111782319843769,-0.15664951503276825
1667825054104424700,3.2154248046875,-1.3478354215621948,-0.016825297847390175,-0.31850019097328186
1667825054114431700,3.225431640625,-1.3614957332611084,-0.0070795281790196896,-0.45800578594207764
1667825054124439800,3.235439697265625,-1.3555086851119995,0.04412506893277168,-0.5571792125701904
1667825054134447900,3.24544775390625,-1.3211091756820679,0.12898972630500793,-0.6096699237823486
1667825054144454700,3.25545458984375,-1.2469438314437866,0.22967132925987244,-0.6143107414245605
1667825054154462700,3.265462646484375,-1.1385750770568848,0.34329599142074585,-0.545528769493103
1667825054164469800,3.2754697265625,-0.9954432249069214,0.4146316945552826,-0.4100148677825928
1667825054174477800,3.285477783203125,-0.830184817314148,0.42377209663391113,-0.2256537824869156
1667825054184485600,3.295485595703125,-0.6427595615386963,0.3716287314891815,-0.006022090557962656
1667825054194493000,3.305492919921875,-0.4349936246871948,0.2775580883026123,0.23948831856250763
1667825054204500700,3.315500732421875,-0.22374606132507324,0.14137521386146545,0.49684956669807434
1667825054214507800,3.3255078125,-0.026700885966420174,-0.05742136389017105,0.7357335090637207
1667825054224515600,3.335515625,0.15588729083538055,-0.36657601594924927,0.9055667519569397
1667825054234523600,3.345523681640625,0.3317210376262665,-0.7271397113800049,0.9787968993186951
1667825054244530700,3.35553076171875,0.543087899684906,-1.0763925313949585,0.9491133093833923
1667825054254538800,3.365538818359375,0.7901768088340759,-1.3493636846542358,0.8087500929832458
1667825054264545800,3.3755458984375,1.0297398567199707,-1.498039960861206,0.5747101902961731
1667825054274553900,3.385553955078125,1.258448839187622,-1.534100890159607,0.2668115198612213
1667825054284561700,3.395561767578125,1.4853280782699585,-1.4372375011444092,-0.044854503124952316
1667825054294568700,3.405568603515625,1.6876544952392578,-1.1445081233978271,-0.27330437302589417
1667825054304576500,3.415576416015625,1.8618651628494263,-0.6533013582229614,-0.3502897024154663
1667825054314583800,3.425583740234375,2.0011415481567383,-0.05660029873251915,-0.2612670063972473
1667825054324592400,3.43559228515625,2.116114377975464,0.5011822581291199,-0.041656892746686935
1667825054334600400,3.445600341796875,2.232415199279785,0.865827739238739,0.22141313552856445
1667825054344607200,3.455607177734375,2.34739351272583,1.0193520784378052,0.45975086092948914
1667825054354615600,3.465615478515625,2.4517149925231934,1.0022993087768555,0.6146557331085205
1667825054364622300,3.475622314453125,2.507459878921509,0.8182708621025085,0.6751768589019775
1667825054374630400,3.48563037109375,2.462644577026367,0.5764860510826111,0.667892336845398
1667825054384638200,3.49563818359375,2.2763476371765137,0.3517248332500458,0.6424716711044312
1667825054394645500,3.5056455078125,1.9656391143798828,0.1910114735364914,0.6318140625953674
1667825054404653300,3.5156533203125,1.5661301612854004,0.11181066185235977,0.6821328997612
1667825054414660400,3.525660400390625,1.1402382850646973,0.09282909333705902,0.7989524602890015
1667825054424668400,3.53566845703125,0.7444847822189331,0.0965828150510788,0.9626556634902954
1667825054434676500,3.545676513671875,0.4296484887599945,0.09191561490297318,1.146754264831543
1667825054444683300,3.555683349609375,0.19293446838855743,0.05022995546460152,1.2871917486190796
1667825054454691300,3.56569140625,0.040996260941028595,-0.039775434881448746,1.3580119609832764
1667825054464698400,3.575698486328125,-0.03473765030503273,-0.16704683005809784,1.3833266496658325
1667825054474706400,3.58570654296875,-0.07507725805044174,-0.29995837807655334,1.375941514968872
1667825054484714200,3.59571435546875,-0.11165657639503479,-0.3897913098335266,1.3360562324523926
1667825054494721500,3.605721435546875,-0.14496560394763947,-0.40483856201171875,1.2777479887008667
1667825054504729300,3.615729248046875,-0.17986899614334106,-0.33795619010925293,1.1989258527755737
1667825054514736400,3.625736328125,-0.20656633377075195,-0.2198346108198166,1.1106855869293213
1667825054524744200,3.635744140625,-0.21963366866111755,-0.06604957580566406,0.9964174032211304
1667825054534752300,3.645752197265625,-0.21160589158535004,0.09647324681282043,0.8682960271835327
1667825054544759300,3.65575927734375,-0.17317675054073334,0.2374870926141739,0.7243329882621765
1667825054554767400,3.665767333984375,-0.10697169601917267,0.35613536834716797,0.5605238080024719
1667825054564774400,3.6757744140625,-0.020537469536066055,0.4384597837924957,0.38251951336860657
1667825054574782500,3.685782470703125,0.08370756357908249,0.5141913890838623,0.1911884844303131
1667825054584790500,3.69579052734375,0.20363584160804749,0.612311065196991,0.009439719840884209
1667825054594797300,3.70579736328125,0.3190224766731262,0.7147374153137207,-0.12555788457393646
1667825054604805400,3.715805419921875,0.41466885805130005,0.8174978494644165,-0.16769787669181824
1667825054614812400,3.7258125,0.46456071734428406,0.8906862735748291,-0.11348303407430649
1667825054624820500,3.735820556640625,0.4707863926887512,0.9244421124458313,0.01563793048262596
1667825054634828300,3.745828369140625,0.44050273299217224,0.9284408092498779,0.1830376535654068
1667825054644835600,3.755835693359375,0.41131606698036194,0.9216604232788086,0.3699135482311249
1667825054654843400,3.765843505859375,0.3853755593299866,0.9041855931282043,0.5716832280158997
1667825054664850400,3.775850341796875,0.3668772280216217,0.846152663230896,0.784382700920105
1667825054674858200,3.785858154296875,0.3426629304885864,0.7415218353271484,1.0052828788757324
1667825054684866300,3.7958662109375,0.31383606791496277,0.6200864315032959,1.2187811136245728
1667825054694873300,3.805873291015625,0.28409069776535034,0.4997721314430237,1.4316985607147217
1667825054704881400,3.81588134765625,0.26583153009414673,0.3749074339866638,1.6083306074142456
1667825054714888400,3.825888427734375,0.25048428773880005,0.22799794375896454,1.7327779531478882
1667825054724896500,3.835896484375,0.22377809882164001,0.044869665056467056,1.7772772312164307
1667825054734904300,3.845904296875,0.18689769506454468,-0.17535056173801422,1.721634030342102
1667825054744911400,3.855911376953125,0.1271241158246994,-0.4213816225528717,1.5558305978775024
1667825054754919200,3.865919189453125,0.04023933783173561,-0.6613622903823853,1.289150357246399
1667825054764926500,3.875926513671875,-0.07859836518764496,-0.8554098010063171,0.9567439556121826
1667825054774934300,3.885934326171875,-0.23521974682807922,-0.9773672819137573,0.6100983619689941
1667825054784942300,3.8959423828125,-0.41375112533569336,-1.0041003227233887,0.2723541259765625
1667825054794949400,3.905949462890625,-0.6051574945449829,-0.9551719427108765,-0.02937207743525505
1667825054804957400,3.91595751953125,-0.791190505027771,-0.8205991983413696,-0.27577653527259827
1667825054814964200,3.925964111328125,-0.9462852478027344,-0.6459144353866577,-0.45993512868881226
1667825054824972300,3.93597216796875,-1.056168794631958,-0.5148442983627319,-0.6033871173858643
1667825054834980400,3.94598046875,-1.1070237159729004,-0.4276027977466583,-0.7176527380943298
1667825054844987400,3.9559873046875,-1.0906689167022705,-0.3790251314640045,-0.8179508447647095
1667825054854995200,3.9659951171875,-1.0234771966934204,-0.35280147194862366,-0.914625883102417
1667825054865002500,3.97600244140625,-0.9321355819702148,-0.342058002948761,-0.9930480122566223
1667825054875010300,3.98601025390625,-0.8367616534233093,-0.3399447500705719,-1.0480252504348755
1667825054885018400,3.996018310546875,-0.7422878742218018,-0.32796239852905273,-1.0770795345306396
1667825054895025200,4.006025146484375,-0.67445307970047,-0.3138817846775055,-1.086712121963501
1667825054905033500,4.016033447265625,-0.6405752897262573,-0.28494149446487427,-1.0824086666107178
1667825054915040300,4.026040283203125,-0.6489240527153015,-0.2609490156173706,-1.0686602592468262
1667825054925048300,4.03604833984375,-0.6837731003761292,-0.25707384943962097,-1.0369606018066406
1667825054935056400,4.046056396484375,-0.7343370914459229,-0.2581108510494232,-0.9817295670509338
1667825054945063400,4.0560634765625,-0.7766517996788025,-0.2522180676460266,-0.9026666879653931
1667825054955071500,4.066071533203125,-0.8060823678970337,-0.25130099058151245,-0.8048979640007019
1667825054965078300,4.076078369140625,-0.8230650424957275,-0.2576662003993988,-0.6987174153327942
1667825054975086300,4.08608642578125,-0.829110324382782,-0.2669272720813751,-0.5995793342590332
1667825054985094400,4.096094482421875,-0.8258846998214722,-0.27877646684646606,-0.5301275253295898
1667825054995101400,4.106101318359375,-0.8215969204902649,-0.2859874963760376,-0.4719482958316803
1667825055005109200,4.116109130859375,-0.8156527280807495,-0.2926991879940033,-0.44774895906448364
1667825055015116500,4.126116455078125,-0.8332724571228027,-0.2763902246952057,-0.4496366083621979
1667825055025124400,4.136124267578125,-0.8696368932723999,-0.22468893229961395,-0.46356815099716187
1667825055035132400,4.14613232421875,-0.9146157503128052,-0.1365959197282791,-0.4855894148349762
1667825055045139200,4.15613916015625,-0.961700439453125,-0.020647211000323296,-0.490494966506958
1667825055055147500,4.1661474609375,-1.010115623474121,0.0679296925663948,-0.47432398796081543
1667825055065154300,4.176154296875,-1.0441181659698486,0.12500177323818207,-0.449773907661438
1667825055075162400,4.186162353515625,-1.047855257987976,0.14016593992710114,-0.41281092166900635
1667825055085170200,4.196170166015625,-1.0257328748703003,0.11693093925714493,-0.3799445927143097
1667825055095177500,4.206177490234375,-0.9926018714904785,0.0512060821056366,-0.3564082086086273
1667825055105185300,4.216185302734375,-0.9534515142440796,-0.056218378245830536,-0.35155510902404785
1667825055115192300,4.2261923828125,-0.9102144837379456,-0.1712978184223175,-0.37387922406196594
1667825055125200400,4.236200439453125,-0.8820316195487976,-0.2738390862941742,-0.40939727425575256
1667825055135208400,4.24620849609375,-0.8523398637771606,-0.35402342677116394,-0.46534016728401184
1667825055145215200,4.25621533203125,-0.8179033398628235,-0.3992830514907837,-0.5433425903320312
1667825055155223300,4.266223388671875,-0.7792060375213623,-0.40431544184684753,-0.6334024667739868
1667825055165230300,4.276230224609375,-0.7407846450805664,-0.36862772703170776,-0.7310328483581543
1667825055175238400,4.28623828125,-0.6955320835113525,-0.2724665403366089,-0.7937458753585815
1667825055185246500,4.29624658203125,-0.6249966621398926,-0.11507956683635712,-0.7912241220474243
1667825055195253200,4.306253173828125,-0.5052211880683899,0.02418799325823784,-0.7326433062553406
1667825055205261600,4.316261474609375,-0.3443116843700409,0.05554591864347458,-0.6693737506866455
1667825055215268400,4.326268310546875,-0.15099214017391205,-0.020634008571505547,-0.6500381231307983
1667825055225276400,4.3362763671875,0.07142600417137146,-0.17118357121944427,-0.6840778589248657
1667825055235284200,4.3462841796875,0.305337518453598,-0.32312753796577454,-0.7557367086410522
1667825055245291500,4.35629150390625,0.5354202389717102,-0.411484032869339,-0.802010178565979
1667825055255299300,4.36629931640625,0.7524600028991699,-0.4444118142127991,-0.7849429845809937
1667825055265306400,4.376306396484375,0.9650700092315674,-0.4541746973991394,-0.707049548625946
1667825055275314400,4.386314453125,1.181610107421875,-0.4549099802970886,-0.5602222084999084
1667825055285322500,4.396322509765625,1.402255654335022,-0.4327801764011383,-0.33608657121658325
1667825055295329300,4.406329345703125,1.6300455331802368,-0.37055504322052,-0.036881692707538605
1667825055305337300,4.41633740234375,1.8679723739624023,-0.27089983224868774,0.33599549531936646
1667825055315344400,4.426344482421875,2.1123225688934326,-0.183988556265831,0.7362290620803833
1667825055325349000,4.43634912109375,2.3384079933166504,-0.15844884514808655,1.0950617790222168
1667825055335357200,4.446357177734375,2.5324227809906006,-0.1948452889919281,1.3552255630493164
1667825055345364000,4.456364013671875,2.6776392459869385,-0.26524701714515686,1.4831295013427734
1667825055355372300,4.466372314453125,2.746020793914795,-0.3663065433502197,1.4890333414077759
1667825055365379000,4.476379150390625,2.6974825859069824,-0.449893593788147,1.3890929222106934
1667825055375387100,4.48638720703125,2.525686502456665,-0.5025200843811035,1.2109977006912231
1667825055385395000,4.49639501953125,2.2163949012756348,-0.5304127335548401,0.9766680002212524
1667825055395402200,4.50640234375,1.7982068061828613,-0.5062305331230164,0.7236852049827576
1667825055405410000,4.51641015625,1.2963807582855225,-0.4078317880630493,0.49393507838249207
1667825055415418000,4.526418212890625,0.7894105315208435,-0.2618064880371094,0.298215389251709
1667825055425425200,4.536425048828125,0.3624166250228882,-0.10351298749446869,0.18840685486793518
1667825055435433200,4.54643310546875,0.04074469208717346,0.02398541197180748,0.1903018206357956
1667825055445440000,4.55643994140625,-0.15919531881809235,0.09915420413017273,0.2612318992614746
1667825055455448000,4.566447998046875,-0.26247379183769226,0.16016149520874023,0.36508262157440186
1667825055465455000,4.576455078125,-0.28282007575035095,0.1864737868309021,0.4750858247280121
1667825055475463200,4.586463134765625,-0.26499077677726746,0.16917318105697632,0.5914218425750732
1667825055485471200,4.59647119140625,-0.24280479550361633,0.1419444978237152,0.7043212652206421
1667825055495478300,4.606478271484375,-0.22539657354354858,0.1215054839849472,0.80539470911026
1667825055505486300,4.616486328125,-0.20985889434814453,0.11624866724014282,0.8776103258132935
1667825055515493000,4.6264931640625,-0.1913444995880127,0.1517043560743332,0.9201120138168335
1667825055525501200,4.636501220703125,-0.15266340970993042,0.22282540798187256,0.9369183778762817
1667825055535509000,4.646509033203125,-0.10369031876325607,0.2994808554649353,0.9349635243415833
1667825055545516300,4.656516357421875,-0.04848005995154381,0.37837326526641846,0.9331116080284119
1667825055555524000,4.666524169921875,0.008859310299158096,0.4508877694606781,0.9275274872779846
1667825055565531100,4.67653125,0.0762503370642662,0.5266557335853577,0.9253090620040894
1667825055575539200,4.686539306640625,0.14991550147533417,0.5921975374221802,0.9027068614959717
1667825055585547300,4.69654736328125,0.23068837821483612,0.6354025602340698,0.853530764579773
1667825055595554000,4.706553955078125,0.3024434447288513,0.6476417183876038,0.7414886355400085
1667825055605562000,4.71656201171875,0.36321091651916504,0.646651566028595,0.5848199129104614
1667825055615569200,4.726569091796875,0.3871123194694519,0.6475769877433777,0.39814209938049316
1667825055625577200,4.7365771484375,0.36528611183166504,0.6788712739944458,0.2343374490737915
1667825055635585000,4.7465849609375,0.322560578584671,0.7447324991226196,0.12665307521820068
1667825055645592300,4.75659228515625,0.27141857147216797,0.8162237405776978,0.09044419974088669
1667825055655600000,4.76660009765625,0.22568228840827942,0.8755437135696411,0.1363566517829895
1667825055665607200,4.776607177734375,0.192186638712883,0.9090526700019836,0.25531020760536194
1667825055675615000,4.786614990234375,0.18208763003349304,0.9108366370201111,0.43866777420043945
1667825055685623300,4.796623291015625,0.19134771823883057,0.8737393617630005,0.6624419689178467
1667825055695630000,4.806630126953125,0.21654345095157623,0.8118900656700134,0.8959847092628479
1667825055705638100,4.81663818359375,0.25394436717033386,0.714566707611084,1.1169248819351196
1667825055715645200,4.826645263671875,0.29382315278053284,0.5762926340103149,1.286300539970398
1667825055725653200,4.8366533203125,0.32782983779907227,0.4148973226547241,1.4049230813980103
1667825055735661300,4.846661376953125,0.338577538728714,0.28117233514785767,1.4791324138641357
1667825055745668000,4.856668212890625,0.3290303647518158,0.174347385764122,1.5097463130950928
1667825055755676200,4.86667626953125,0.3054336607456207,0.07987229526042938,1.4977188110351562
1667825055765683200,4.87668310546875,0.25698089599609375,-0.025985699146986008,1.4299283027648926
1667825055775691300,4.886691162109375,0.19461318850517273,-0.14810028672218323,1.2968815565109253
1667825055785699000,4.896698974609375,0.10954171419143677,-0.27545586228370667,1.112900972366333
1667825055795706400,4.906706298828125,0.006130188703536987,-0.41724398732185364,0.8760395050048828
1667825055805714200,4.916714111328125,-0.12560413777828217,-0.5535792112350464,0.6147823333740234
1667825055815721200,4.92672119140625,-0.27800849080085754,-0.6608818173408508,0.3422863781452179
1667825055825729000,4.93672900390625,-0.45286285877227783,-0.7283250093460083,0.08785009384155273
1667825055835737300,4.9467373046875,-0.6361545324325562,-0.756363034248352,-0.14878329634666443
1667825055845744000,4.956744140625,-0.7823434472084045,-0.7693342566490173,-0.3540954291820526
1667825055855752200,4.966752197265625,-0.880357563495636,-0.7904561758041382,-0.5260293483734131
1667825055865759200,4.97675927734375,-0.9235140681266785,-0.8322981595993042,-0.6629768013954163
1667825055875767300,4.986767333984375,-0.9191989898681641,-0.8795754313468933,-0.7814850807189941
1667825055885775000,4.996775146484375,-0.8648481369018555,-0.902911901473999,-0.8812106251716614
1667825055895782100,5.0067822265625,-0.7748156189918518,-0.9165148735046387,-0.9459717273712158
1667825055905790200,5.016790283203125,-0.6782086491584778,-0.8996269702911377,-0.9963286519050598
1667825055915797200,5.02679736328125,-0.5824772119522095,-0.8583791255950928,-1.03992760181427
1667825055925805000,5.03680517578125,-0.4870041608810425,-0.8079441785812378,-1.1010527610778809
1667825055935813000,5.046813232421875,-0.40853092074394226,-0.7374319434165955,-1.195716142654419
1667825055945820200,5.056820068359375,-0.3535025715827942,-0.6840078830718994,-1.3206690549850464
1667825055955828200,5.066828125,-0.35704880952835083,-0.6588429808616638,-1.442667007446289
1667825055965835000,5.0768349609375,-0.41845303773880005,-0.6353781223297119,-1.5390316247940063
1667825055975843000,5.086843017578125,-0.512082040309906,-0.6173799633979797,-1.5739619731903076
1667825055985851100,5.09685107421875,-0.6217899322509766,-0.5796754956245422,-1.5402507781982422
1667825055995858200,5.106858154296875,-0.7159140706062317,-0.49922287464141846,-1.4161349534988403
1667825056005866000,5.116865966796875,-0.7763584852218628,-0.39557182788848877,-1.205305814743042
1667825056015873300,5.126873291015625,-0.8057171106338501,-0.29402369260787964,-0.9438115954399109
1667825056025881000,5.136881103515625,-0.7983494997024536,-0.2298327386379242,-0.664889931678772
1667825056035889200,5.14688916015625,-0.7556419968605042,-0.20049241185188293,-0.4093667268753052
1667825056045896000,5.15689599609375,-0.6926036477088928,-0.1946512907743454,-0.20525993406772614
1667825056055904300,5.166904296875,-0.6525954008102417,-0.19848543405532837,-0.05969051644206047
1667825056065911000,5.1769111328125,-0.6405783891677856,-0.16927774250507355,0.03218401223421097
1667825056075919000,5.186919189453125,-0.6660463809967041,-0.09870709478855133,0.08487696200609207
1667825056085927200,5.19692724609375,-0.704160213470459,-0.00284315156750381,0.10543230175971985
1667825056095934200,5.206934326171875,-0.7454472184181213,0.09475116431713104,0.10309067368507385
1667825056105942300,5.2169423828125,-0.7861871719360352,0.15222591161727905,0.0733114629983902
1667825056115949000,5.226948974609375,-0.8220904469490051,0.16732585430145264,0.008434055373072624
1667825056125957400,5.236957275390625,-0.8522017598152161,0.1565278023481369,-0.08309399336576462
1667825056135965200,5.246965087890625,-0.8774925470352173,0.1298123151063919,-0.1874391883611679
1667825056145972200,5.25697216796875,-0.884763240814209,0.097584068775177,-0.304047554731369
1667825056155980000,5.26697998046875,-0.8797307014465332,0.05713779479265213,-0.4238671064376831
1667825056165987300,5.2769873046875,-0.8593266010284424,0.022742537781596184,-0.5422691106796265
1667825056175995100,5.2869951171875,-0.8292787075042725,-0.04410994052886963,-0.6382739543914795
1667825056186003200,5.297003173828125,-0.7996332049369812,-0.10733284801244736,-0.6938578486442566
1667825056196010200,5.30701025390625,-0.7633675336837769,-0.15471011400222778,-0.6897119879722595
1667825056206018300,5.317018310546875,-0.7017670273780823,-0.17473414540290833,-0.628194272518158
1667825056216025000,5.327025146484375,-0.6166741847991943,-0.18948239088058472,-0.5150623321533203
1667825056226033200,5.337033203125,-0.5090598464012146,-0.20467759668827057,-0.36812856793403625
1667825056236041000,5.347041015625,-0.37954047322273254,-0.2594848573207855,-0.22034852206707
1667825056246048300,5.35704833984375,-0.223201185464859,-0.4011450409889221,-0.11610227823257446
1667825056256056000,5.36705615234375,-0.0361483059823513,-0.6168839335441589,-0.08264051377773285
1667825056266063000,5.37706298828125,0.20714664459228516,-0.8914558291435242,-0.1407451033592224
1667825056276071200,5.3870712890625,0.49100884795188904,-1.1959174871444702,-0.3049294352531433
1667825056286079200,5.397079345703125,0.7741995453834534,-1.408879280090332,-0.5300991535186768
1667825056296086000,5.4070859375,1.0418858528137207,-1.4703065156936646,-0.7488981485366821
1667825056306094000,5.417093994140625,1.3065483570098877,-1.3921574354171753,-0.9079714417457581
1667825056316101000,5.42710107421875,1.5249202251434326,-1.1241618394851685,-0.9213235974311829
1667825056326109000,5.43710888671875,1.6714955568313599,-0.6495394706726074,-0.774254560470581
1667825056336116700,5.44711669921875,1.7743165493011475,-0.12204566597938538,-0.5066945552825928
1667825056346124000,5.4571240234375,1.8898441791534424,0.3111550509929657,-0.13203118741512299
1667825056356131800,5.4671318359375,2.058445930480957,0.5962796211242676,0.2616291046142578
1667825056366139000,5.477138916015625,2.280233144760132,0.7368636727333069,0.6079779863357544
1667825056376146700,5.487146728515625,2.5273361206054688,0.7704922556877136,0.8834129571914673
1667825056386155000,5.497155029296875,2.7576804161071777,0.679531455039978,1.0579354763031006
1667825056396161800,5.507161865234375,2.8958702087402344,0.5317907333374023,1.143323302268982
1667825056406169900,5.517169921875,2.8976237773895264,0.3704007863998413,1.1565043926239014
1667825056416177000,5.527177001953125,2.7430319786071777,0.21799331903457642,1.103941798210144
1667825056426185000,5.53718505859375,2.4308528900146484,0.10784604400396347,1.0161573886871338
1667825056436193000,5.547193115234375,1.9979267120361328,0.05985360965132713,0.910869836807251
1667825056446199800,5.55719970703125,1.4799184799194336,0.06879783421754837,0.8177704811096191
1667825056456208000,5.567207763671875,0.9501826763153076,0.1160978376865387,0.7571393847465515
1667825056466215000,5.57721484375,0.4779126048088074,0.15057513117790222,0.7357954978942871
1667825056476223000,5.587222900390625,0.10205704718828201,0.1581013947725296,0.7704346776008606
1667825056486230800,5.597230712890625,-0.15433958172798157,0.13845765590667725,0.8303872346878052
1667825056496238000,5.607238037109375,-0.29231274127960205,0.09326639026403427,0.9000034928321838
1667825056506246000,5.617245849609375,-0.33841127157211304,0.009419961832463741,0.9731885194778442
1667825056516253000,5.6272529296875,-0.32768571376800537,-0.10019073635339737,1.0523900985717773
1667825056526260700,5.6372607421875,-0.29434508085250854,-0.188786119222641,1.1199816465377808
1667825056536269000,5.64726904296875,-0.2606866955757141,-0.2244633585214615,1.1610674858093262
1667825056546275800,5.65727587890625,-0.24056890606880188,-0.1742744892835617,1.1703046560287476
1667825056556284000,5.667283935546875,-0.24617207050323486,-0.06631668657064438,1.1302510499954224
1667825056566291000,5.677291015625,-0.27467960119247437,0.10130160301923752,1.0405839681625366
1667825056576299000,5.687299072265625,-0.3206517696380615,0.2923095226287842,0.9099398851394653
1667825056586305800,5.697305908203125,-0.36791250109672546,0.4393506348133087,0.7481831908226013
1667825056596313900,5.70731396484375,-0.40333646535873413,0.525949239730835,0.5527987480163574
1667825056606322000,5.717322021484375,-0.4269528388977051,0.5612720847129822,0.32778799533843994
1667825056616329000,5.727328857421875,-0.44079917669296265,0.5740715861320496,0.09604812413454056
1667825056626336800,5.737336669921875,-0.45021557807922363,0.5889540910720825,-0.11292080581188202
1667825056636344800,5.7473447265625,-0.4552099108695984,0.6338217854499817,-0.267830491065979
1667825056646352000,5.757351806640625,-0.4607527256011963,0.6976404190063477,-0.3533773422241211
1667825056656360000,5.76735986328125,-0.46544745564460754,0.7940304279327393,-0.34818926453590393
1667825056666366700,5.77736669921875,-0.4569101631641388,0.9299099445343018,-0.24913647770881653
1667825056676375000,5.787375,-0.4331130087375641,1.0757769346237183,-0.053226519376039505
1667825056686383000,5.797383056640625,-0.3904566168785095,1.1625375747680664,0.20517119765281677
1667825056696390000,5.807389892578125,-0.32888293266296387,1.1479357481002808,0.48788926005363464
1667825056706398000,5.81739794921875,-0.24346068501472473,1.0568231344223022,0.7700546979904175
1667825056716405000,5.827405029296875,-0.1376286745071411,0.8900516629219055,1.0092475414276123
1667825056726413000,5.8374130859375,-0.014051353558897972,0.6388466358184814,1.201350450515747
1667825056736420900,5.8474208984375,0.09345434606075287,0.3154875338077545,1.3239184617996216
1667825056746428000,5.857427978515625,0.15372274816036224,-0.07039517164230347,1.3560460805892944
1667825056756436000,5.86743603515625,0.15940654277801514,-0.4736407995223999,1.2612707614898682
1667825056766443000,5.877443115234375,0.12197048962116241,-0.8317086696624756,1.0659563541412354
1667825056776450800,5.887450927734375,0.04151849448680878,-1.0902739763259888,0.7970247268676758
1667825056786459000,5.897458984375,-0.09399273246526718,-1.21652352809906,0.48385241627693176
1667825056796466000,5.9074658203125,-0.2820589542388916,-1.2000598907470703,0.14905554056167603
1667825056806474000,5.917473876953125,-0.5011012554168701,-1.0696531534194946,-0.18200387060642242
1667825056816480800,5.927480712890625,-0.713292121887207,-0.8901032209396362,-0.46447479724884033
1667825056826489000,5.937489013671875,-0.8689978122711182,-0.7299010157585144,-0.696259617805481
1667825056836497000,5.947496826171875,-0.9469774961471558,-0.6113944053649902,-0.8643931746482849
1667825056846504000,5.95750390625,-0.9529136419296265,-0.5205971598625183,-0.9761838912963867
1667825056856511700,5.96751171875,-0.887782871723175,-0.450754851102829,-1.04786217212677
1667825056866519000,5.97751904296875,-0.7646734714508057,-0.3781467080116272,-1.0616605281829834
1667825056876526800,5.98752685546875,-0.6116000413894653,-0.30663591623306274,-1.0115200281143188
1667825056886534000,5.997533935546875,-0.44658362865448,-0.23255343735218048,-0.9019501209259033
1667825056896542000,6.0075419921875,-0.2866232097148895,-0.17428620159626007,-0.7486089468002319
1667825056906550000,6.017550048828125,-0.15274958312511444,-0.16689327359199524,-0.5671094655990601
1667825056916556800,6.027556884765625,-0.0466763973236084,-0.21717901527881622,-0.40181151032447815
1667825056926564900,6.03756494140625,0.03296889364719391,-0.3132064938545227,-0.2704513669013977
1667825056936572000,6.047572021484375,0.08315283060073853,-0.44989022612571716,-0.18540459871292114
1667825056946580000,6.057580078125,0.0816020667552948,-0.6058161854743958,-0.15779827535152435
1667825056956587800,6.067587890625,0.03278186172246933,-0.777733564376831,-0.17469418048858643
1667825056966594800,6.0775947265625,-0.036988161504268646,-0.9399595260620117,-0.23052150011062622
1667825056976603000,6.087602783203125,-0.11509275436401367,-1.0878788232803345,-0.3205377459526062
1667825056986610000,6.09760986328125,-0.20946931838989258,-1.2116483449935913,-0.4328211545944214
1667825056996617700,6.10761767578125,-0.3010908365249634,-1.290703296661377,-0.5770187973976135
1667825057006625800,6.117625732421875,-0.3928876221179962,-1.2809685468673706,-0.7249826788902283
1667825057016632800,6.1276328125,-0.4841650426387787,-1.2178864479064941,-0.8721497058868408
1667825057026641000,6.137640869140625,-0.5851590037345886,-1.0932060480117798,-0.9960883855819702
1667825057036647700,6.147647705078125,-0.6980247497558594,-0.9212026000022888,-1.1005350351333618
1667825057046656000,6.157656005859375,-0.8061285614967346,-0.7322947382926941,-1.1657606363296509
1667825057056664000,6.1676640625,-0.9036669731140137,-0.5358785390853882,-1.1695458889007568
1667825057066670800,6.1776708984375,-0.9885101914405823,-0.3381878137588501,-1.093982219696045
1667825057076679000,6.187678955078125,-1.0348392724990845,-0.14620904624462128,-0.9380131959915161
1667825057086686000,6.19768603515625,-1.0458756685256958,-0.0045861294493079185,-0.724169135093689
1667825057096694000,6.207694091796875,-1.029239535331726,0.07009424269199371,-0.49260327219963074
1667825057106701800,6.217701904296875,-0.994483232498169,0.0646483451128006,-0.27516335248947144
1667825057116709000,6.227709228515625,-0.9543683528900146,-0.012103671208024025,-0.10749556124210358
1667825057126717000,6.237717041015625,-0.9253172278404236,-0.12462302297353745,-0.0023459726944565773
1667825057136724000,6.247723876953125,-0.899975597858429,-0.21521899104118347,0.03513193130493164
1667825057146731800,6.257731689453125,-0.8864427804946899,-0.27406686544418335,-0.008092771284282207
1667825057156739800,6.26773974609375,-0.8773545622825623,-0.29060184955596924,-0.1337457001209259
1667825057166747000,6.277746826171875,-0.8700511455535889,-0.23589281737804413,-0.2878575026988983
1667825057176755000,6.2877548828125,-0.8555151224136353,-0.12021896243095398,-0.42619019746780396
1667825057186762000,6.297761962890625,-0.8358452916145325,0.04531886801123619,-0.5051960349082947
1667825057196770000,6.30777001953125,-0.8130070567131042,0.24936535954475403,-0.4891430139541626
1667825057206777900,6.31777783203125,-0.7670859098434448,0.47286927700042725,-0.3711777627468109
1667825057216785000,6.327784912109375,-0.6664734482765198,0.676552414894104,-0.1632826030254364
1667825057226792700,6.337792724609375,-0.5100217461585999,0.7701212167739868,0.09844009578227997
1667825057236800000,6.347800048828125,-0.3160797357559204,0.7464174032211304,0.3527844548225403
1667825057246807800,6.357807861328125,-0.08736906945705414,0.5951014161109924,0.5535825490951538
1667825057256815900,6.36781591796875,0.1916775405406952,0.31367695331573486,0.6532970666885376
1667825057266823000,6.377822998046875,0.5071327090263367,-0.045968860387802124,0.6398454308509827
1667825057276831000,6.3878310546875,0.8230528235435486,-0.370388388633728,0.5234113931655884
1667825057286837800,6.397837646484375,1.1029480695724487,-0.6264635920524597,0.3299809396266937
1667825057296845800,6.407845703125,1.3260732889175415,-0.7876237630844116,0.08385924249887466
1667825057306854000,6.41785400390625,1.4869415760040283,-0.8396427631378174,-0.17040152847766876
1667825057316861000,6.42786083984375,1.5706336498260498,-0.7657455205917358,-0.3860514461994171
1667825057326869000,6.437868896484375,1.5822551250457764,-0.5428655743598938,-0.4865908622741699
1667825057336876000,6.4478759765625,1.557546854019165,-0.20264235138893127,-0.43743380904197693
1667825057346884000,6.457884033203125,1.5483810901641846,0.14570285379886627,-0.2344156950712204
1667825057356892200,6.46789208984375,1.5987176895141602,0.400031179189682,0.08352240920066833
1667825057366899000,6.47789892578125,1.7099355459213257,0.5335040092468262,0.41909295320510864
1667825057376907000,6.487906982421875,1.8686835765838623,0.506626546382904,0.686043381690979
1667825057386914000,6.4979140625,2.020250082015991,0.36438634991645813,0.8564987182617188
1667825057396922000,6.507922119140625,2.121079206466675,0.1513339877128601,0.9304646849632263
1667825057406930200,6.51793017578125,2.1205523014068604,-0.027103405445814133,0.9405665993690491
1667825057416937200,6.527937255859375,2.0220398902893066,-0.13895507156848907,0.9162432551383972
1667825057426945300,6.5379453125,1.8250553607940674,-0.190480574965477,0.9049346446990967
1667825057436952000,6.5479521484375,1.5420012474060059,-0.1972203105688095,0.8959189057350159
1667825057446960000,6.557960205078125,1.2049273252487183,-0.19431987404823303,0.8847780823707581
1667825057456968200,6.56796826171875,0.8422741293907166,-0.17764912545681,0.8678430914878845
1667825057466975200,6.577975341796875,0.503167986869812,-0.16042566299438477,0.838592529296875
1667825057476983000,6.587983154296875,0.23153525590896606,-0.14873145520687103,0.7932929992675781
1667825057486990300,6.597990234375,0.04878781735897064,-0.13207551836967468,0.7373785972595215
1667825057496998100,6.607998046875,-0.05900717154145241,-0.06635579466819763,0.682583212852478
1667825057507006200,6.618006103515625,-0.12061300873756409,0.0472826212644577,0.6417843699455261
1667825057517013000,6.628012939453125,-0.1624346375465393,0.1642121821641922,0.6319038271903992
1667825057527021000,6.63802099609375,-0.2092287838459015,0.279983788728714,0.6493688225746155
1667825057537028000,6.648028076171875,-0.25867316126823425,0.4031338691711426,0.6814097762107849
1667825057547036200,6.6580361328125,-0.30481669306755066,0.5237314105033875,0.7072155475616455
1667825057557044000,6.6680439453125,-0.3406899571418762,0.6494976282119751,0.7160990238189697
1667825057567051300,6.67805126953125,-0.364402174949646,0.7284033298492432,0.6827120184898376
1667825057577059000,6.68805908203125,-0.3675503432750702,0.7329453825950623,0.599881112575531
1667825057587066000,6.698066162109375,-0.36450690031051636,0.6974574327468872,0.46000152826309204
1667825057597074000,6.708073974609375,-0.347781777381897,0.6624670028686523,0.28385841846466064
1667825057607082200,6.718082275390625,-0.3269457519054413,0.6510908007621765,0.1118626818060875
1667825057617089000,6.728089111328125,-0.32203274965286255,0.6996893286705017,-0.02172750234603882
1667825057627097000,6.73809716796875,-0.344191312789917,0.8146979212760925,-0.08990469574928284
1667825057637104000,6.748104248046875,-0.37811821699142456,0.9623934626579285,-0.08121053129434586
1667825057647112200,6.7581123046875,-0.40997976064682007,1.1309974193572998,0.013808926567435265
1667825057657120300,6.768120361328125,-0.4092031717300415,1.2593423128128052,0.16749434173107147
1667825057667127000,6.778126953125,-0.3862248957157135,1.301884412765503,0.3439423441886902
1667825057677135000,6.788135009765625,-0.34173229336738586,1.2648037672042847,0.5250659584999084
1667825057687142100,6.79814208984375,-0.27544647455215454,1.1829341650009155,0.7020103931427002
1667825057697150200,6.808150146484375,-0.1916991025209427,1.0864965915679932,0.8575360178947449
1667825057707158000,6.818157958984375,-0.10427258908748627,0.9961498975753784,0.9855547547340393
1667825057717165300,6.828165283203125,-0.036394741386175156,0.8806856274604797,1.0674978494644165
1667825057727173000,6.838173095703125,-0.004102582111954689,0.7517143487930298,1.0891131162643433
1667825057737180000,6.848179931640625,0.014098843559622765,0.5959258079528809,1.0313748121261597
1667825057747188000,6.85818798828125,0.0170871764421463,0.43636277318000793,0.8843358755111694
1667825057757196300,6.8681962890625,0.006133463233709335,0.2899492084980011,0.6706897616386414
1667825057767203000,6.878203125,-0.023431619629263878,0.16687095165252686,0.4184284508228302
1667825057777211100,6.888211181640625,-0.07935285568237305,0.06332160532474518,0.1376229226589203
1667825057787218200,6.89821826171875,-0.15280042588710785,-0.013246400281786919,-0.16236619651317596
1667825057797226200,6.908226318359375,-0.22209735214710236,-0.044691022485494614,-0.4542282819747925
1667825057807234000,6.918234130859375,-0.2607821524143219,-0.034354228526353836,-0.7132912874221802
1667825057817241000,6.928240966796875,-0.2578304409980774,0.021075299009680748,-0.8953019976615906
1667825057827249200,6.938249267578125,-0.22799533605575562,0.11990760266780853,-0.9931806325912476
1667825057837256200,6.948256103515625,-0.18997156620025635,0.21236059069633484,-0.9889500737190247
1667825057847264000,6.958263916015625,-0.12894150614738464,0.28706464171409607,-0.8884937763214111
1667825057857271300,6.968271240234375,-0.04654458910226822,0.32581305503845215,-0.7282312512397766
1667825057867279000,6.978279052734375,0.04045955091714859,0.2924710810184479,-0.5581032037734985
1667825057877287200,6.988287109375,0.11841432005167007,0.16638022661209106,-0.39645320177078247
1667825057887294000,6.9982939453125,0.1641538441181183,-0.02866036631166935,-0.27467429637908936
1667825057897302300,7.00830224609375,0.1789543330669403,-0.2316274642944336,-0.19403676688671112
1667825057907310000,7.01831005859375,0.1586860865354538,-0.384722501039505,-0.14131763577461243
1667825057917317000,7.028317138671875,0.09610754251480103,-0.4838930368423462,-0.11771411448717117
1667825057927325000,7.038324951171875,0.012083742767572403,-0.5432024002075195,-0.11915647983551025
1667825057937332200,7.048332275390625,-0.08256709575653076,-0.5894635319709778,-0.14660482108592987
1667825057947340000,7.058340087890625,-0.17132440209388733,-0.6304639577865601,-0.21311193704605103
1667825057957347000,7.06834716796875,-0.23640628159046173,-0.671438992023468,-0.3134545087814331
1667825057967355100,7.078355224609375,-0.2975066602230072,-0.6942266225814819,-0.44603225588798523
1667825057977363200,7.08836328125,-0.35865655541419983,-0.6931341290473938,-0.5908346772193909
1667825057987370000,7.098369873046875,-0.4255964457988739,-0.6626814007759094,-0.7212997674942017
1667825057997378000,7.1083779296875,-0.500025749206543,-0.5935736298561096,-0.8333993554115295
1667825058007385000,7.118385009765625,-0.5857193470001221,-0.49050718545913696,-0.9030013084411621
1667825058017393200,7.12839306640625,-0.6804612278938293,-0.38108763098716736,-0.9156615138053894
1667825058027401200,7.138401123046875,-0.7770698070526123,-0.29020991921424866,-0.8564184308052063
1667825058037408000,7.148407958984375,-0.8593325018882751,-0.23460261523723602,-0.7577879428863525
1667825058047416300,7.158416259765625,-0.9066075682640076,-0.2194146066904068,-0.6373907327651978
1667825058057423000,7.168423095703125,-0.9318518042564392,-0.23297561705112457,-0.5280653834342957
1667825058067431200,7.17843115234375,-0.9287068843841553,-0.257461279630661,-0.43985268473625183
1667825058077439000,7.18843896484375,-0.9051012992858887,-0.29655227065086365,-0.3854479491710663
1667825058087446300,7.1984462890625,-0.866443932056427,-0.3345358669757843,-0.36987486481666565
1667825058097454000,7.2084541015625,-0.8296841979026794,-0.36755743622779846,-0.3720678687095642
1667825058107461000,7.218461181640625,-0.7901315093040466,-0.4212331771850586,-0.40371474623680115
1667825058117469200,7.22846923828125,-0.7689070701599121,-0.5068672299385071,-0.45624127984046936
1667825058127477200,7.238477294921875,-0.7729226350784302,-0.5935605764389038,-0.5218831300735474
1667825058137484000,7.248484130859375,-0.7953567504882812,-0.6556445360183716,-0.6053593158721924
1667825058147492000,7.2584921875,-0.8105027079582214,-0.6656047105789185,-0.7128546237945557
1667825058157499100,7.2684990234375,-0.8102030158042908,-0.5986577868461609,-0.8046852350234985
1667825058167507200,7.278507080078125,-0.7976672649383545,-0.4747723340988159,-0.8499882817268372
1667825058177515000,7.288514892578125,-0.7657051086425781,-0.33393940329551697,-0.8310112953186035
1667825058187522000,7.29852197265625,-0.7092673778533936,-0.19847558438777924,-0.7302319407463074
1667825058197530000,7.308530029296875,-0.6188893914222717,-0.08364423364400864,-0.5550745725631714
1667825058207537200,7.318537109375,-0.48052138090133667,-0.038202449679374695,-0.35449859499931335
1667825058217545000,7.328544921875,-0.29473334550857544,-0.11136870086193085,-0.18457402288913727
1667825058227553000,7.338552978515625,-0.05512554198503494,-0.2815585434436798,-0.10427732020616531
1667825058237560000,7.34856005859375,0.24758316576480865,-0.4761313199996948,-0.12716273963451385
1667825058247568100,7.358568115234375,0.5716222524642944,-0.6086923480033875,-0.22266316413879395
1667825058257575000,7.368574951171875,0.8688246011734009,-0.6274040341377258,-0.33883002400398254
1667825058267583200,7.378583251953125,1.117091178894043,-0.5657185912132263,-0.447623074054718
1667825058277591300,7.38859130859375,1.3196653127670288,-0.44743600487709045,-0.5127005577087402
1667825058287598000,7.39859814453125,1.4654635190963745,-0.2580098807811737,-0.49248582124710083
1667825058297606100,7.408606201171875,1.5577267408370972,0.027383428066968918,-0.35504457354545593
1667825058307613200,7.41861328125,1.6208440065383911,0.35047438740730286,-0.10891309380531311
1667825058317621200,7.428621337890625,1.7006772756576538,0.5696864128112793,0.19608329236507416
1667825058327628000,7.4386279296875,1.842336654663086,0.6432117819786072,0.4868437647819519
1667825058337635000,7.448635009765625,2.000343084335327,0.5698833465576172,0.7133418917655945
1667825058347643100,7.45864306640625,2.1497180461883545,0.4340805113315582,0.8533024787902832
1667825058357650000,7.46864990234375,2.240442991256714,0.28557589650154114,0.9186038970947266
1667825058367658200,7.478658203125,2.2369613647460938,0.1447758972644806,0.912219762802124
1667825058377666000,7.488666015625,2.097243547439575,0.02108318731188774,0.8576447367668152
1667825058387673000,7.498673095703125,1.8242242336273193,-0.08217795938253403,0.769940972328186
1667825058397681000,7.508680908203125,1.4429203271865845,-0.11122122406959534,0.6697383522987366
1667825058407688200,7.518688232421875,1.011313796043396,-0.048082202672958374,0.5993310213088989
1667825058417696000,7.528696044921875,0.5955829620361328,0.03605984151363373,0.5801036357879639
1667825058427704000,7.5387041015625,0.2653653919696808,0.07656172662973404,0.6023160219192505
1667825058437711000,7.548711181640625,0.03496742621064186,0.07232461124658585,0.6655948758125305
1667825058447719200,7.55871923828125,-0.09185496717691422,0.050192948430776596,0.7348359823226929
1667825058457726000,7.568725830078125,-0.14147241413593292,0.03147132694721222,0.7982959747314453
1667825058467734000,7.578734130859375,-0.13004983961582184,0.026667248457670212,0.8453100919723511
1667825058477742000,7.5887421875,-0.1011309027671814,0.029593752697110176,0.8772963285446167
1667825058487749000,7.5987490234375,-0.08128263056278229,0.06582659482955933,0.8988215923309326
1667825058497757200,7.608757080078125,-0.08546187728643417,0.1409817934036255,0.8985591530799866
1667825058507764200,7.61876416015625,-0.10989877581596375,0.2632884979248047,0.884269118309021
1667825058517772300,7.628772216796875,-0.14997610449790955,0.41463086009025574,0.8404268026351929
1667825058527780000,7.638780029296875,-0.17925409972667694,0.5473838448524475,0.7791943550109863
1667825058537787100,7.648787109375,-0.20065847039222717,0.6339450478553772,0.7061123251914978
1667825058547795000,7.658794921875,-0.20795181393623352,0.6702990531921387,0.6318117380142212
1667825058557802200,7.66880224609375,-0.21054190397262573,0.6611747741699219,0.5439183712005615
1667825058567810000,7.67881005859375,-0.20950433611869812,0.6094513535499573,0.4359482228755951
1667825058577818000,7.688818115234375,-0.223204106092453,0.5675870180130005,0.3207021951675415
1667825058587825200,7.6988251953125,-0.2571732699871063,0.5667327046394348,0.21016955375671387
1667825058597833200,7.708833251953125,-0.3196984827518463,0.6186121702194214,0.11876789480447769
1667825058607840000,7.718840087890625,-0.3903864920139313,0.6872631311416626,0.05598626658320427
1667825058617848000,7.72884814453125,-0.4629567265510559,0.7489955425262451,0.022852253168821335
1667825058627856100,7.738856201171875,-0.5187073945999146,0.8019464015960693,0.024589166045188904
1667825058637863200,7.74886328125,-0.5485463738441467,0.8513776659965515,0.05311036854982376
1667825058647871000,7.75887109375,-0.5511288046836853,0.8880954384803772,0.12348973006010056
1667825058657878300,7.768878173828125,-0.5283532738685608,0.9184364080429077,0.230181485414505
1667825058667886000,7.778885986328125,-0.48144617676734924,0.9394860863685608,0.37825536727905273
1667825058677894100,7.78889404296875,-0.417102575302124,0.9195898771286011,0.542650580406189
1667825058687901000,7.79890087890625,-0.3437524735927582,0.8650517463684082,0.7235133051872253
1667825058697909000,7.808908935546875,-0.27851682901382446,0.7806959748268127,0.9104344248771667
1667825058707916000,7.818916015625,-0.22344450652599335,0.6820825934410095,1.0892833471298218
1667825058717924000,7.828924072265625,-0.1771955043077469,0.5671522617340088,1.2387877702713013
1667825058727932200,7.83893212890625,-0.12610623240470886,0.42890065908432007,1.341981053352356
1667825058737939200,7.848939208984375,-0.06784960627555847,0.25716742873191833,1.3690216541290283
1667825058747947300,7.858947265625,-0.006454153452068567,0.05166409909725189,1.3037422895431519
1667825058757954000,7.8689541015625,0.04178855940699577,-0.15294399857521057,1.1384785175323486
1667825058767962000,7.878962158203125,0.06103788688778877,-0.34578004479408264,0.8961305618286133
1667825058777970200,7.88897021484375,0.0329572893679142,-0.47734689712524414,0.5962046980857849
1667825058787977200,7.898977294921875,-0.054017554968595505,-0.5552694201469421,0.2659306228160858
1667825058797985000,7.908985107421875,-0.19639785587787628,-0.5968338847160339,-0.06733601540327072
1667825058807992300,7.918992431640625,-0.3856274485588074,-0.5744901895523071,-0.3510902225971222
1667825058818000100,7.929000244140625,-0.5865870118141174,-0.49277427792549133,-0.5678985714912415
1667825058828008200,7.93900830078125,-0.7371349334716797,-0.4103182852268219,-0.7070761322975159
1667825058838015000,7.949014892578125,-0.8060398101806641,-0.36586204171180725,-0.7769662737846375
1667825058848023300,7.959023193359375,-0.7936992645263672,-0.3666263818740845,-0.7851349711418152
1667825058858030000,7.969030029296875,-0.7198436856269836,-0.41113054752349854,-0.7551224827766418
1667825058868038100,7.9790380859375,-0.6159924268722534,-0.4923838675022125,-0.707601010799408
1667825058878046000,7.9890458984375,-0.49519452452659607,-0.5811558365821838,-0.644102931022644
1667825058888053200,7.99905322265625,-0.36983391642570496,-0.6688777208328247,-0.5953814387321472
1667825058898061000,8.00906103515625,-0.2630620002746582,-0.7358996868133545,-0.572096049785614
1667825058908068000,8.019068115234376,-0.19551785290241241,-0.7613446116447449,-0.5889711976051331
1667825058918076200,8.029076171875,-0.162374347448349,-0.766334056854248,-0.651833713054657
1667825058928084200,8.039084228515625,-0.14389121532440186,-0.7621853351593018,-0.7629724740982056
1667825058938091000,8.049091064453124,-0.13023856282234192,-0.75184565782547,-0.9086225032806396
1667825058948099000,8.05909912109375,-0.12075265496969223,-0.7319321036338806,-1.0677075386047363
1667825058958106000,8.069106201171875,-0.10106050223112106,-0.708567202091217,-1.20059335231781
1667825058968114200,8.0791142578125,-0.07427549362182617,-0.6776721477508545,-1.2881906032562256
1667825058978122000,8.0891220703125,-0.043271809816360474,-0.6560903787612915,-1.3125708103179932
1667825058988129000,8.09912890625,-0.020593397319316864,-0.6422746777534485,-1.2858643531799316
1667825058998137000,8.10913720703125,-0.006238671485334635,-0.6024408340454102,-1.2025880813598633
1667825059008144100,8.11914404296875,0.003469349816441536,-0.5334208011627197,-1.0483564138412476
1667825059018152000,8.12915185546875,0.015096965245902538,-0.4459082782268524,-0.8431159257888794
1667825059028160000,8.139159912109376,0.02219003066420555,-0.3347759246826172,-0.6005597114562988
1667825059038167000,8.1491669921875,0.021001450717449188,-0.24929489195346832,-0.36037859320640564
1667825059048175000,8.159175048828125,0.00045409752056002617,-0.20176491141319275,-0.14806048572063446
1667825059058182000,8.169181884765624,-0.03189769387245178,-0.17847013473510742,-0.006805005483329296
1667825059068190200,8.179190185546876,-0.08622165024280548,-0.1369629055261612,0.08548683673143387
1667825059078198300,8.1891982421875,-0.1686825007200241,-0.1036880761384964,0.1539384126663208
1667825059088205000,8.199205078125,-0.25888562202453613,-0.06884860247373581,0.21466673910617828
1667825059098213000,8.209213134765625,-0.3500770628452301,-0.029434680938720703,0.27738091349601746
1667825059108220200,8.21922021484375,-0.4181261658668518,-0.014882368966937065,0.3170018494129181
1667825059118228200,8.229228271484375,-0.4573654532432556,-0.008905578404664993,0.3124443292617798
1667825059128236000,8.239236083984375,-0.4721854329109192,0.0006210810970515013,0.28020811080932617
1667825059138243000,8.2492431640625,-0.4765686094760895,0.003002122975885868,0.22389835119247437
1667825059148251100,8.259251220703124,-0.47248998284339905,0.0057505052536726,0.14713113009929657
1667825059158258200,8.269258056640625,-0.4706572890281677,0.02884822152554989,0.0507035069167614
1667825059168266000,8.279265869140625,-0.4789533019065857,0.06434176862239838,-0.04845822975039482
1667825059178274000,8.289274169921875,-0.4985394775867462,0.1216277927160263,-0.13450312614440918
1667825059188281000,8.299281005859376,-0.5166561603546143,0.17088429629802704,-0.19586077332496643
1667825059198289200,8.3092890625,-0.5288637280464172,0.19491435587406158,-0.23613590002059937
1667825059208296000,8.3192958984375,-0.5299380421638489,0.2062719315290451,-0.26020553708076477
1667825059218304300,8.32930419921875,-0.5235316753387451,0.21062727272510529,-0.27976325154304504
1667825059228312000,8.33931201171875,-0.5055603981018066,0.21794642508029938,-0.29590171575546265
1667825059238319000,8.349319091796875,-0.47210386395454407,0.2433674931526184,-0.30871546268463135
1667825059248327000,8.359326904296875,-0.42085400223731995,0.2737666666507721,-0.3123685121536255
1667825059258334200,8.369334228515624,-0.3515640199184418,0.31403616070747375,-0.286809504032135
1667825059268342000,8.379342041015626,-0.2626091241836548,0.3444366753101349,-0.2262401580810547
1667825059278350000,8.38935009765625,-0.14595241844654083,0.33418941497802734,-0.1492430418729782
1667825059288357000,8.399357177734375,-0.00743449293076992,0.24643103778362274,-0.08569442480802536
1667825059298365200,8.409365234375,0.14988556504249573,0.1105530634522438,-0.06873427331447601
1667825059308372000,8.4193720703125,0.3249383270740509,-0.021399378776550293,-0.09869696199893951
1667825059318380000,8.429380126953125,0.5090745091438293,-0.12664790451526642,-0.15651653707027435
1667825059328392400,8.439392333984374,0.6839177012443542,-0.17530439794063568,-0.21685098111629486
1667825059338399700,8.449399658203125,0.8397016525268555,-0.15911610424518585,-0.24332183599472046
1667825059348407600,8.459407470703125,0.9918069839477539,-0.09218420833349228,-0.21989187598228455
1667825059358415600,8.46941552734375,1.1527624130249023,-0.01568760722875595,-0.13932256400585175
1667825059368422400,8.47942236328125,1.3152612447738647,0.038019295781850815,0.022896165028214455
1667825059378430700,8.4894306640625,1.4889841079711914,0.038923848420381546,0.263497918844223
1667825059388437500,8.4994375,1.6647617816925049,-0.0442272312939167,0.5697952508926392
1667825059398445600,8.509445556640625,1.8471453189849854,-0.19453948736190796,0.9076362252235413
1667825059408453600,8.51945361328125,2.0256996154785156,-0.38674357533454895,1.2098039388656616
1667825059418460700,8.529460693359376,2.1941871643066406,-0.5944585204124451,1.436182975769043
1667825059428468700,8.53946875,2.3353238105773926,-0.7864055633544922,1.5608761310577393
1667825059438475500,8.5494755859375,2.4195919036865234,-0.9273468255996704,1.6080231666564941
1667825059448483600,8.559483642578124,2.4038708209991455,-0.9906278252601624,1.5904611349105835
1667825059458491600,8.56949169921875,2.2701573371887207,-1.0071840286254883,1.5142356157302856
1667825059468498700,8.579498779296875,2.0274007320404053,-0.9693456292152405,1.3864043951034546
1667825059478506500,8.589506591796875,1.703199863433838,-0.8777458667755127,1.2280876636505127
1667825059488513800,8.599513671875,1.330186128616333,-0.7715714573860168,1.0474368333816528
1667825059498521600,8.609521484375,0.9560794830322266,-0.6654749512672424,0.8640066385269165
1667825059508529700,8.61952978515625,0.6353808045387268,-0.5671542882919312,0.6943843364715576
1667825059518536400,8.629536376953125,0.40068158507347107,-0.4882793724536896,0.548383891582489
1667825059528544800,8.639544677734374,0.2564575672149658,-0.42257943749427795,0.4372696280479431
1667825059538551600,8.649551513671875,0.17843946814537048,-0.3547412157058716,0.3577258288860321
1667825059548559600,8.6595595703125,0.13773544132709503,-0.27437126636505127,0.3169291317462921
1667825059558566700,8.669566650390625,0.10386806726455688,-0.17157256603240967,0.3095676600933075
1667825059568574700,8.67957470703125,0.05163363367319107,-0.05541745573282242,0.3237428665161133
1667825059578582500,8.68958251953125,-0.011863011866807938,0.06366921216249466,0.3522878587245941
1667825059588589600,8.699589599609375,-0.08292946219444275,0.1737307459115982,0.3830377757549286
1667825059598597600,8.70959765625,-0.14536859095096588,0.2803137004375458,0.4174703359603882
1667825059608604700,8.719604736328124,-0.19532737135887146,0.3662792146205902,0.4547801613807678
1667825059618612500,8.729612548828126,-0.23173190653324127,0.4233287274837494,0.49020254611968994
1667825059628620500,8.73962060546875,-0.2595478296279907,0.45688295364379883,0.5402113795280457
1667825059638627600,8.749627685546875,-0.27467477321624756,0.4656435549259186,0.6048295497894287
1667825059648635600,8.7596357421875,-0.2869114577770233,0.43502599000930786,0.6646883487701416
1667825059658642400,8.769642333984375,-0.2897624969482422,0.39120733737945557,0.7164494395256042
1667825059668650800,8.779650634765625,-0.29120221734046936,0.3565194010734558,0.7561028599739075
1667825059678658800,8.789658935546875,-0.2953788936138153,0.3360004723072052,0.7848647832870483
1667825059688665600,8.79966552734375,-0.3071082532405853,0.3344443738460541,0.7887484431266785
1667825059698673700,8.809673583984376,-0.32091954350471497,0.3417513072490692,0.7797584533691406
1667825059708680700,8.8196806640625,-0.3420160412788391,0.3597654700279236,0.7563409805297852
1667825059718688800,8.829688720703125,-0.3505372107028961,0.37510544061660767,0.7051405310630798
1667825059728696600,8.839696533203124,-0.354544460773468,0.3744654953479767,0.6118350625038147
1667825059738703600,8.84970361328125,-0.3447503447532654,0.36288344860076904,0.48316940665245056
1667825059748711700,8.859711669921875,-0.31772565841674805,0.32356613874435425,0.33477380871772766
1667825059758719700,8.8697197265625,-0.2895249128341675,0.26882535219192505,0.1691211760044098
1667825059768726500,8.8797265625,-0.2713669538497925,0.2620081901550293,0.01795854978263378
1667825059778734600,8.889734619140626,-0.2641341984272003,0.2833387553691864,-0.09354941546916962
1667825059788741600,8.89974169921875,-0.26945945620536804,0.32237374782562256,-0.12582452595233917
1667825059798749700,8.909749755859375,-0.27907848358154297,0.34696635603904724,-0.07762014120817184
1667825059808757500,8.919757568359374,-0.2819187641143799,0.3441769778728485,0.01844407245516777
1667825059818764800,8.929764892578126,-0.26686787605285645,0.34399813413619995,0.1379210203886032
1667825059828772600,8.939772705078125,-0.22974607348442078,0.328304648399353,0.2565648555755615
1667825059838779600,8.949779541015625,-0.17026890814304352,0.29072579741477966,0.35636621713638306
1667825059848787500,8.959787353515624,-0.10702893882989883,0.21288080513477325,0.41598907113075256
1667825059858795500,8.96979541015625,-0.03891107812523842,0.10260866582393646,0.41773685812950134
1667825059868802600,8.979802490234375,0.02419918030500412,-0.03624802082777023,0.34943076968193054
1667825059878810600,8.989810546875,0.062324408441782,-0.19101761281490326,0.21631143987178802
1667825059888817700,8.999817626953124,0.06179097667336464,-0.3724289536476135,0.02828001044690609
1667825059898825700,9.00982568359375,0.020499086007475853,-0.5761589407920837,-0.22868742048740387
1667825059908833500,9.01983349609375,-0.0411488339304924,-0.7561970949172974,-0.5486275553703308
1667825059918840600,9.029840576171875,-0.10501585900783539,-0.841228723526001,-0.9057552814483643
1667825059928848400,9.039848388671874,-0.1581650972366333,-0.8255261778831482,-1.2642126083374023
1667825059938855700,9.049855712890626,-0.19342650473117828,-0.7237440347671509,-1.5925536155700684
1667825059948863500,9.059863525390625,-0.22091245651245117,-0.5302624702453613,-1.8447214365005493
1667825059958871600,9.06987158203125,-0.24618211388587952,-0.29831281304359436,-2.0008556842803955
1667825059968878600,9.079878662109374,-0.25361818075180054,-0.039096951484680176,-2.0397627353668213
1667825059978886700,9.08988671875,-0.22180220484733582,0.19668708741664886,-1.9689440727233887
1667825059988893400,9.0998935546875,-0.1524937003850937,0.3670521676540375,-1.8042408227920532
1667825059998901500,9.109901611328125,-0.07270585745573044,0.40908384323120117,-1.5804917812347412
1667825060008909800,9.119909912109375,0.007276593707501888,0.3283165693283081,-1.3184614181518555
1667825060018916600,9.12991650390625,0.07440721243619919,0.16281123459339142,-1.0554226636886597
1667825060028924700,9.139924560546875,0.12926140427589417,-0.03769896924495697,-0.8066182136535645
1667825060038931700,9.149931640625,0.15439513325691223,-0.22922155261039734,-0.6084103584289551
1667825060048939800,9.159939697265624,0.14010567963123322,-0.3859429955482483,-0.47378095984458923
1667825060058947600,9.169947509765626,0.09379278123378754,-0.5083796977996826,-0.392614483833313
1667825060068954600,9.17995458984375,0.0414867028594017,-0.5687721967697144,-0.37923580408096313
1667825060078962700,9.189962646484375,-0.0006968877278268337,-0.5214918851852417,-0.4163770377635956
1667825060088969700,9.1999697265625,-0.05612925440073013,-0.3732004165649414,-0.4708370864391327
1667825060098977500,9.2099775390625,-0.13451597094535828,-0.18385088443756104,-0.5201592445373535
1667825060108985600,9.219985595703125,-0.21967080235481262,0.02326314151287079,-0.5426954030990601
1667825060118992600,9.22999267578125,-0.2929776608943939,0.18801522254943848,-0.5275384187698364
1667825060129000700,9.240000732421874,-0.34018802642822266,0.2902566194534302,-0.4793604612350464
1667825060139007500,9.250007568359376,-0.3775988221168518,0.32475292682647705,-0.4061998426914215
1667825060149015600,9.260015625,-0.4150868058204651,0.28579115867614746,-0.3040545582771301
1667825060159023600,9.270023681640625,-0.4499415159225464,0.21140433847904205,-0.19030869007110596
1667825060169030700,9.28003076171875,-0.4705221652984619,0.11051580309867859,-0.07070451974868774
1667825060179038500,9.29003857421875,-0.49096882343292236,-0.007847805507481098,0.03035343438386917
1667825060189045800,9.300045654296875,-0.5113511085510254,-0.10215646773576736,0.09693565219640732
1667825060199053600,9.310053466796875,-0.5269683003425598,-0.16667012870311737,0.12009362131357193
1667825060209061600,9.3200615234375,-0.532558798789978,-0.18869979679584503,0.09332405775785446
1667825060219068400,9.330068359375,-0.5443686842918396,-0.19623759388923645,0.012167911045253277
1667825060229076700,9.34007666015625,-0.5689507722854614,-0.21175210177898407,-0.13420873880386353
1667825060239083500,9.35008349609375,-0.612618088722229,-0.23557935655117035,-0.3385705053806305
1667825060249091600,9.360091552734374,-0.6919592618942261,-0.23770590126514435,-0.594623327255249
1667825060259099600,9.370099609375,-0.7929591536521912,-0.2092997431755066,-0.8598543405532837
1667825060269106700,9.380106689453125,-0.914901077747345,-0.12276912480592728,-1.1098157167434692
1667825060279114800,9.39011474609375,-1.043986439704895,0.03716495260596275,-1.311863899230957
1667825060289122600,9.40012255859375,-1.1645792722702026,0.2549404203891754,-1.4261268377304077
1667825060299129600,9.410129638671876,-1.2289355993270874,0.4924469292163849,-1.4078423976898193
1667825060309137700,9.4201376953125,-1.222694754600525,0.684955358505249,-1.2540220022201538
1667825060319144700,9.430144775390625,-1.143201470375061,0.7962686419487,-1.0030231475830078
1667825060329148200,9.440148193359375,-0.9786069393157959,0.7718070149421692,-0.7067291736602783
1667825060339155200,9.4501552734375,-0.7392053008079529,0.5845451951026917,-0.4261952042579651
1667825060349163000,9.4601630859375,-0.44607776403427124,0.28014644980430603,-0.21534980833530426
1667825060359171000,9.470171142578126,-0.12310704588890076,-0.107090063393116,-0.09186633676290512
1667825060369178000,9.48017822265625,0.19445787370204926,-0.47582441568374634,-0.04301970452070236
1667825060379186200,9.490186279296875,0.48928189277648926,-0.7620615363121033,-0.05554715916514397
1667825060389194200,9.5001943359375,0.7443357706069946,-0.9820541143417358,-0.10622791200876236
1667825060399201300,9.510201171875,0.9629985690116882,-1.0855146646499634,-0.14654821157455444
1667825060409209300,9.520209228515625,1.1544891595840454,-1.0573192834854126,-0.13555841147899628
1667825060419216100,9.530216064453125,1.3520190715789795,-0.902549684047699,-0.05637793242931366
1667825060429224200,9.54022412109375,1.5747309923171997,-0.6687052249908447,0.0856684222817421
1667825060439232000,9.55023193359375,1.8379263877868652,-0.43643635511398315,0.2428075075149536
1667825060449239300,9.5602392578125,2.1382031440734863,-0.2998763620853424,0.41380029916763306
1667825060459247000,9.5702470703125,2.4406471252441406,-0.22154755890369415,0.5931065082550049
1667825060469254100,9.580254150390624,2.697268009185791,-0.14095792174339294,0.7339522838592529
1667825060479262200,9.59026220703125,2.8996613025665283,-0.06309738755226135,0.8169019222259521
1667825060489270300,9.600270263671876,3.0546207427978516,0.03351623937487602,0.8533920049667358
1667825060499277000,9.610277099609375,3.1096603870391846,0.13158737123012543,0.8594177961349487
1667825060509285000,9.62028515625,3.04516863822937,0.24557864665985107,0.8262707591056824
1667825060519292200,9.630292236328126,2.8566932678222656,0.3538009524345398,0.7904555201530457
1667825060529300200,9.64030029296875,2.569084882736206,0.44890883564949036,0.7559401392936707
1667825060539308000,9.65030810546875,2.2146973609924316,0.49687695503234863,0.7380237579345703
1667825060549315300,9.6603154296875,1.8332492113113403,0.4633019268512726,0.7544218897819519
1667825060559323100,9.6703232421875,1.487618327140808,0.34131041169166565,0.8097710013389587
1667825060569330200,9.680330078125,1.2414757013320923,0.1432838886976242,0.8991251587867737
1667825060579338000,9.690337890625,1.0875921249389648,-0.09857375919818878,1.0051079988479614
1667825060589346000,9.700345947265625,0.9887768626213074,-0.33242061734199524,1.105258822441101
1667825060599353000,9.71035302734375,0.8902406692504883,-0.4974941611289978,1.209304690361023
1667825060609361200,9.720361083984375,0.7608947157859802,-0.5707085132598877,1.2798646688461304
1667825060619368200,9.7303681640625,0.6151349544525146,-0.5563501119613647,1.2959219217300415
1667825060629376300,9.740376220703125,0.4622759521007538,-0.4473133981227875,1.2507227659225464
1667825060639384300,9.75038427734375,0.30877485871315,-0.2823214530944824,1.143248200416565
1667825060649391000,9.76039111328125,0.14713270962238312,-0.12518565356731415,1.0029957294464111
1667825060659399200,9.770399169921875,-0.011076569557189941,0.00324453879147768,0.8230069875717163
1667825060669406200,9.78040625,-0.1416178047657013,0.09700538963079453,0.629670262336731
1667825060679414300,9.790414306640624,-0.22323653101921082,0.1571098268032074,0.4587455093860626
1667825060689422000,9.800422119140626,-0.2579082250595093,0.17388615012168884,0.30895787477493286
1667825060699429400,9.810429443359375,-0.276593953371048,0.1675320565700531,0.1851012408733368
1667825060709437200,9.820437255859375,-0.28509581089019775,0.1420421451330185,0.08157139271497726
1667825060719444000,9.83044384765625,-0.297895610332489,0.04143292084336281,-0.0329476073384285
1667825060729452000,9.8404521484375,-0.3425999581813812,-0.12140499800443649,-0.1772557944059372
1667825060739460400,9.85046044921875,-0.4295252859592438,-0.25376972556114197,-0.3564065992832184
1667825060749467100,9.860467041015625,-0.5514304041862488,-0.29704874753952026,-0.5374326109886169
1667825060759475200,9.87047509765625,-0.696323037147522,-0.20248863101005554,-0.6595571041107178
1667825060769482200,9.880482177734375,-0.8846767544746399,0.08561293035745621,-0.6660138964653015
1667825060779490300,9.890490234375,-1.0976786613464355,0.4597589075565338,-0.5677025318145752
1667825060789498000,9.900498046875,-1.281365156173706,0.7897216081619263,-0.37564465403556824
1667825060799505200,9.910505126953124,-1.386473536491394,1.0134434700012207,-0.13852131366729736
1667825060809513200,9.92051318359375,-1.4064611196517944,1.0995734930038452,0.0854547992348671
1667825060819520300,9.930520263671875,-1.356573224067688,1.1056064367294312,0.27910709381103516
1667825060829528000,9.940528076171875,-1.2679623365402222,1.0801897048950195,0.469530314207077
1667825060839536000,9.9505361328125,-1.153127670288086,1.0633364915847778,0.6603808999061584
1667825060849543200,9.960543212890625,-1.0451676845550537,1.0470807552337646,0.8403980731964111
1667825060859551200,9.97055126953125,-0.9715237617492676,1.0401934385299683,0.9884871244430542
1667825060869558000,9.98055810546875,-0.9443176984786987,1.0198506116867065,1.0915898084640503
1667825060879566000,9.990566162109374,-0.9491757154464722,0.9649249911308289,1.148592233657837
1667825060889574100,10.00057421875,-0.9889580607414246,0.8714110255241394,1.1336356401443481
1667825060899581200,10.010581298828125,-1.0648841857910156,0.7473664283752441,1.052831768989563
1667825060909589000,10.020589111328125,-1.1551778316497803,0.5976096987724304,0.9155958890914917
1667825060919596300,10.03059619140625,-1.248069167137146,0.4212794601917267,0.7284702658653259
1667825060929604000,10.04060400390625,-1.3430174589157104,0.2106873244047165,0.5040907263755798
1667825060939612200,10.050612060546875,-1.4365308284759521,-0.04237227141857147,0.24336829781532288
1667825060949619000,10.060618896484375,-1.5261784791946411,-0.3488789498806,-0.0499301478266716
1667825060959627300,10.070627197265624,-1.598526954650879,-0.6767987608909607,-0.37975823879241943
1667825060969634000,10.080634033203125,-1.6453908681869507,-0.9662744998931885,-0.725345253944397
1667825060979642000,10.09064208984375,-1.6647803783416748,-1.1760549545288086,-1.0717754364013672
1667825060989650200,10.100650146484375,-1.6572364568710327,-1.3134410381317139,-1.396742820739746
1667825060999657200,10.1106572265625,-1.638245701789856,-1.3528841733932495,-1.6936581134796143
1667825061009665300,10.120665283203126,-1.6144466400146484,-1.3047339916229248,-1.9237661361694336
1667825061019672000,10.130672119140625,-1.5761704444885254,-1.1028635501861572,-2.035290479660034
1667825061029680000,10.14068017578125,-1.5210163593292236,-0.8100910782814026,-2.0103745460510254
1667825061039688200,10.150688232421874,-1.4564357995986938,-0.46810367703437805,-1.8758080005645752
1667825061049695200,10.1606953125,-1.3690694570541382,-0.15299367904663086,-1.6522144079208374
1667825061059703000,10.170703125,-1.2316616773605347,0.04998462274670601,-1.3986420631408691
1667825061069710300,10.18071044921875,-1.0442299842834473,0.0651760920882225,-1.146030306816101
1667825061079718100,10.19071826171875,-0.8370562195777893,-0.061112817376852036,-0.8818233013153076
1667825061089726200,10.200726318359376,-0.6481989622116089,-0.26236364245414734,-0.5932367444038391
1667825061099733000,10.21073291015625,-0.5024481415748596,-0.47759127616882324,-0.3215930163860321
1667825061109741300,10.2207412109375,-0.40393275022506714,-0.6604047417640686,-0.10045421868562698
1667825061119748000,10.230748046875,-0.35193732380867004,-0.7955533266067505,0.06534744799137115
1667825061129756200,10.240756103515626,-0.36576923727989197,-0.8701527118682861,0.16796250641345978
1667825061139764000,10.250763916015625,-0.44635143876075745,-0.8805094957351685,0.22059375047683716
1667825061149771300,10.260771240234375,-0.5844025015830994,-0.833926796913147,0.2397938221693039
1667825061159779000,10.270779052734374,-0.7595788240432739,-0.7713559865951538,0.23862072825431824
1667825061169786000,10.2807861328125,-0.9553225040435791,-0.6926172375679016,0.21951253712177277
1667825061179794200,10.290794189453125,-1.1525546312332153,-0.6322099566459656,0.2052847295999527
1667825061189802200,10.30080224609375,-1.306044578552246,-0.6140647530555725,0.16988731920719147
1667825061199809000,10.31080908203125,-1.395552158355713,-0.6600504517555237,0.10608101636171341
1667825061209817000,10.320817138671876,-1.427346110343933,-0.752213180065155,0.007265491411089897
1667825061219824000,10.33082421875,-1.42031729221344,-0.8693751692771912,-0.12836959958076477
1667825061229832200,10.340832275390625,-1.3947550058364868,-0.9948233962059021,-0.3183669447898865
1667825061239840300,10.35084033203125,-1.3677141666412354,-1.0898199081420898,-0.5662868618965149
1667825061249847300,10.360847412109376,-1.348912000656128,-1.151282548904419,-0.8668555021286011
1667825061259855400,10.37085546875,-1.3464502096176147,-1.1804115772247314,-1.2207934856414795
1667825061269862100,10.380862060546875,-1.3682295083999634,-1.1875964403152466,-1.61951744556427
1667825061279870200,10.3908701171875,-1.4283766746520996,-1.1312382221221924,-2.0334086418151855
1667825061289878000,10.4008779296875,-1.536090612411499,-0.9511256217956543,-2.415243625640869
1667825061299885300,10.41088525390625,-1.668643832206726,-0.597307562828064,-2.6982150077819824
1667825061309893000,10.42089306640625,-1.7751966714859009,-0.15077432990074158,-2.819786787033081
1667825061319900200,10.430900146484374,-1.8288511037826538,0.26446136832237244,-2.7634975910186768
1667825061329908700,10.44090869140625,-1.8056312799453735,0.6032418012619019,-2.562603235244751
1667825061339916800,10.450916748046875,-1.703899621963501,0.7947115898132324,-2.275787591934204
1667825061349923600,10.460923583984375,-1.521289587020874,0.8080345988273621,-1.9695099592208862
1667825061359931600,10.470931640625,-1.2582786083221436,0.6230779886245728,-1.6931368112564087
1667825061369938700,10.480938720703126,-0.9208207130432129,0.23120692372322083,-1.5072031021118164
1667825061379946800,10.49094677734375,-0.5270815491676331,-0.28852102160453796,-1.4417667388916016
1667825061389954600,10.50095458984375,-0.10112176835536957,-0.8550528883934021,-1.5042738914489746
1667825061399961600,10.510961669921874,0.3017390966415405,-1.3849469423294067,-1.694913387298584
1667825061409969700,10.5209697265625,0.6316677331924438,-1.6949613094329834,-1.9384229183197021
1667825061419976700,10.530976806640625,0.8747705817222595,-1.6782020330429077,-2.138237953186035
1667825061429984500,10.540984619140625,0.976578414440155,-1.2556002140045166,-2.202627420425415
1667825061439992600,10.55099267578125,0.9498199820518494,-0.4417794346809387,-2.130919933319092
1667825061449999600,10.56099951171875,0.9183251857757568,0.4760603606700897,-1.956729769706726
1667825061460007700,10.571007568359375,1.0046173334121704,1.2772490978240967,-1.6990854740142822
1667825061470014500,10.581014404296875,1.2577753067016602,1.8069652318954468,-1.3836052417755127
1667825061480022800,10.591022705078124,1.6050688028335571,2.095891237258911,-1.0512350797653198
1667825061490030600,10.601030517578126,1.9687294960021973,2.223637342453003,-0.7133199572563171
1667825061500037600,10.61103759765625,2.2966365814208984,2.207995891571045,-0.377044141292572
1667825061510045400,10.62104541015625,2.5366270542144775,2.118598699569702,-0.011940209195017815
1667825061520052700,10.631052734375,2.6404950618743896,2.072962522506714,0.39612552523612976
1667825061530060500,10.641060546875,2.583836793899536,2.053551197052002,0.8215308785438538
1667825061540068600,10.651068603515625,2.3844470977783203,2.033066749572754,1.2214468717575073
1667825061550075600,10.66107568359375,2.0561673641204834,1.9693644046783447,1.5733088254928589
1667825061560083700,10.671083740234375,1.6226425170898438,1.8168649673461914,1.858365774154663
1667825061570090500,10.681090576171876,1.114536166191101,1.5511465072631836,2.0675220489501953
1667825061580098600,10.6910986328125,0.5640415549278259,1.2141395807266235,2.20524525642395
1667825061590106600,10.701106689453125,0.02410748414695263,0.8649455308914185,2.2790915966033936
1667825061600113700,10.71111376953125,-0.47276055812835693,0.553068995475769,2.3066675662994385
1667825061610121700,10.721121826171874,-0.8938395977020264,0.31824424862861633,2.312131881713867
1667825061620128500,10.73112841796875,-1.2103090286254883,0.12214727699756622,2.2943615913391113
1667825061630136800,10.74113671875,-1.44717538356781,-0.04707770049571991,2.258056879043579
1667825061640144600,10.75114453125,-1.636749267578125,-0.13884425163269043,2.210515022277832
1667825061650151700,10.761151611328126,-1.7984342575073242,-0.15232783555984497,2.1379013061523438
1667825061660159500,10.771159423828125,-1.9260454177856445,-0.09638974815607071,2.0360705852508545
1667825061670166800,10.781166748046875,-1.999604344367981,0.05158959701657295,1.9074956178665161
1667825061680174600,10.791174560546875,-2.042245626449585,0.27700144052505493,1.757609486579895
1667825061690182700,10.8011826171875,-2.045104742050171,0.5077787637710571,1.5833332538604736
1667825061700189700,10.811189697265625,-2.037687301635742,0.7251074314117432,1.3829654455184937
1667825061710197800,10.82119775390625,-2.01938533782959,0.9281846284866333,1.1608178615570068
1667825061720204500,10.83120458984375,-1.973478078842163,1.0561134815216064,0.9144653677940369
1667825061730212600,10.841212646484376,-1.905108094215393,1.049207329750061,0.6178262233734131
1667825061740220700,10.851220703125,-1.835152268409729,0.9122878313064575,0.24488438665866852
1667825061750227700,10.861227783203125,-1.8095487356185913,0.7465388178825378,-0.17328114807605743
1667825061760235500,10.871235595703125,-1.8487765789031982,0.6457875967025757,-0.5608230829238892
1667825061770242800,10.881242919921876,-1.9699887037277222,0.6807088255882263,-0.8365827202796936
1667825061780250600,10.891250732421875,-2.1530632972717285,0.8555495142936707,-0.9588648676872253
1667825061790258700,10.9012587890625,-2.330183267593384,1.162824273109436,-0.9110462069511414
1667825061800265500,10.911265380859374,-2.432892322540283,1.6189535856246948,-0.692888617515564
1667825061810273500,10.9212734375,-2.384192943572998,2.255246639251709,-0.34362247586250305
1667825061820280600,10.931280517578125,-2.26432204246521,2.6782844066619873,-0.06849078834056854
1667825061830288600,10.94128857421875,-2.164832592010498,2.685462713241577,0.08250538259744644
1667825061840295700,10.951295654296874,-2.0669169425964355,2.649550676345825,0.2723117768764496
1667825061850303700,10.9613037109375,-1.9535986185073853,2.669858932495117,0.5256383419036865
1667825061860311600,10.9713115234375,-1.820651650428772,2.6125426292419434,0.7634131908416748
1667825061870318600,10.981318603515625,-1.6905474662780762,2.3377139568328857,0.9548800587654114
1667825061880326400,10.991326416015625,-1.5921542644500732,1.8955730199813843,1.0956699848175049
1667825061890334700,11.001334716796874,-1.5420016050338745,1.456636905670166,1.232485055923462
1667825061900341500,11.011341552734375,-1.5458269119262695,0.9872062802314758,1.3667758703231812
1667825061910349600,11.021349609375,-1.6098053455352783,0.45763933658599854,1.4767931699752808
1667825061920356600,11.031356689453125,-1.7066001892089844,-0.03215409070253372,1.5746077299118042
1667825061930364700,11.04136474609375,-1.8224248886108398,-0.4511212408542633,1.670335054397583
1667825061940371500,11.051371337890625,-1.9820337295532227,-0.8384228944778442,1.7254472970962524
1667825061950379500,11.061379638671875,-2.189527750015259,-1.2791008949279785,1.7230746746063232
1667825061960387600,11.0713876953125,-2.4410183429718018,-1.7876558303833008,1.6162214279174805
1667825061970394600,11.08139453125,-2.723823308944702,-2.2864720821380615,1.3875129222869873
1667825061980402700,11.091402587890625,-2.9862234592437744,-2.7034993171691895,1.0261048078536987
1667825061990409700,11.10140966796875,-3.169919013977051,-2.9774372577667236,0.5927233099937439
1667825062000417800,11.111417724609375,-3.231417655944824,-3.045894145965576,0.14257320761680603
1667825062010425600,11.121425537109374,-3.168651580810547,-2.7947635650634766,-0.21130496263504028
1667825062020432600,11.1314326171875,-3.075841188430786,-2.251281261444092,-0.44987788796424866
1667825062030440400,11.1414404296875,-3.045060873031616,-1.6124064922332764,-0.5986961126327515
1667825062040447700,11.15144775390625,-3.1640281677246094,-1.032692551612854,-0.6686277985572815
1667825062050455600,11.16145556640625,-3.4650840759277344,-0.5731745362281799,-0.683449923992157
1667825062060463600,11.171463623046876,-3.84541654586792,-0.18339504301548004,-0.6695192456245422
1667825062070470700,11.181470703125,-4.092370510101318,0.1871744990348816,-0.6875848174095154
1667825062080478700,11.191478759765625,-4.145921230316162,0.5224632620811462,-0.6882946491241455
1667825062090485500,11.201485595703126,-4.008969306945801,0.7655838131904602,-0.6230602264404297
1667825062100493600,11.21149365234375,-3.7204854488372803,0.7917683124542236,-0.5014212727546692
1667825062110501600,11.221501708984375,-3.339646100997925,0.5665911436080933,-0.363243967294693
1667825062120508700,11.2315087890625,-2.923555612564087,0.2770732343196869,-0.19854192435741425
1667825062130516500,11.2415166015625,-2.5427770614624023,0.07749141752719879,-0.0026981206610798836
1667825062140523800,11.251523681640625,-2.253031015396118,-0.017902527004480362,0.20577222108840942
1667825062150531600,11.261531494140625,-2.0775630474090576,-0.034235693514347076,0.4164822995662689
1667825062160539600,11.27153955078125,-2.0028345584869385,-0.04714870825409889,0.6171786189079285
1667825062170546400,11.28154638671875,-1.9814515113830566,-0.11322759091854095,0.8139877915382385
1667825062180554800,11.2915546875,-1.9743808507919312,-0.22703403234481812,1.022486925125122
1667825062190561500,11.3015615234375,-1.9542194604873657,-0.36017316579818726,1.234249472618103
1667825062200569600,11.311569580078125,-1.912030816078186,-0.4770243465900421,1.4159218072891235
1667825062210577700,11.32157763671875,-1.8340294361114502,-0.497544527053833,1.513768196105957
1667825062220584700,11.331584716796876,-1.7272151708602905,-0.6008085012435913,1.5955995321273804
1667825062230592800,11.3415927734375,-1.6163171529769897,-0.6468353867530823,1.642926573753357
1667825062240599600,11.351599609375,-1.5754936933517456,-0.6065512895584106,1.5414243936538696
1667825062250607600,11.361607666015624,-1.5874584913253784,-0.5995405316352844,1.473022699356079
1667825062260615700,11.37161572265625,-1.582331895828247,-0.6063889861106873,1.409881591796875
1667825062270622700,11.381622802734375,-1.5779107809066772,-0.5131767392158508,1.3030632734298706
1667825062280630500,11.391630615234375,-1.5797109603881836,-0.38434308767318726,1.182608723640442
1667825062290637800,11.401637939453124,-1.580933928489685,-0.2892751693725586,1.0489805936813354
1667825062300645600,11.411645751953126,-1.5642248392105103,-0.21340908110141754,0.8874500393867493
1667825062310653700,11.42165380859375,-1.5294023752212524,-0.1451922059059143,0.7036250829696655
1667825062320660500,11.431660400390625,-1.485097050666809,-0.10212834179401398,0.5121400356292725
1667825062330668800,11.441668701171874,-1.4327143430709839,-0.1122153252363205,0.33366942405700684
1667825062340675800,11.45167578125,-1.3749408721923828,-0.1616840958595276,0.19026672840118408
1667825062350683600,11.46168359375,-1.3142783641815186,-0.206032395362854,0.08664846420288086
1667825062360691700,11.471691650390625,-1.2585773468017578,-0.20714031159877777,0.04475967586040497
1667825062370698800,11.48169873046875,-1.208816409111023,-0.16849251091480255,0.044139426201581955
1667825062380706800,11.491706787109376,-1.1642743349075317,-0.14696642756462097,0.09120436757802963
1667825062390713600,11.501713623046875,-1.1157270669937134,-0.14910493791103363,0.16981929540634155
1667825062400721700,11.5117216796875,-1.0801105499267578,-0.2146831899881363,0.2645658254623413
1667825062410730000,11.52172998046875,-1.068524718284607,-0.36256349086761475,0.3458535075187683
1667825062420736800,11.53173681640625,-1.0824575424194336,-0.5426490306854248,0.4137779474258423
1667825062430744800,11.541744873046875,-1.1239187717437744,-0.709027886390686,0.45735764503479004
1667825062440751900,11.551751953125,-1.2054108381271362,-0.8627933859825134,0.4639888405799866
1667825062450760000,11.561760009765624,-1.2615364789962769,-0.9820423126220703,0.45483341813087463
1667825062460766700,11.5717666015625,-1.2684950828552246,-1.0111217498779297,0.4482348561286926
1667825062470774800,11.58177490234375,-1.2426930665969849,-0.9445585012435913,0.4575881361961365
1667825062480782800,11.591782958984375,-1.2211999893188477,-0.8253948092460632,0.48560407757759094
1667825062490790000,11.601789794921874,-1.2117698192596436,-0.6625542044639587,0.5247021913528442
1667825062500797700,11.611797607421876,-1.209670066833496,-0.4798462688922882,0.5681340098381042
1667825062510805000,11.621804931640625,-1.200361728668213,-0.32274290919303894,0.5866328477859497
1667825062520812800,11.631812744140625,-1.1815009117126465,-0.22595548629760742,0.5650793313980103
1667825062530820900,11.64182080078125,-1.1701315641403198,-0.20344005525112152,0.5280867218971252
1667825062540827600,11.65182763671875,-1.1640697717666626,-0.21120968461036682,0.4790574312210083
1667825062550836000,11.6618359375,-1.1570483446121216,-0.23188406229019165,0.43405693769454956
1667825062560842800,11.6718427734375,-1.1449527740478516,-0.25395727157592773,0.38497692346572876
1667825062570850800,11.681850830078124,-1.1327391862869263,-0.2867543697357178,0.32989928126335144
1667825062580858600,11.691858642578126,-1.132188320159912,-0.31169578433036804,0.2712891399860382
1667825062590866000,11.701865966796875,-1.1533565521240234,-0.3623368442058563,0.195797860622406
1667825062600873700,11.711873779296875,-1.1956785917282104,-0.4442337453365326,0.0993780717253685
1667825062610880800,11.721880859375,-1.2489508390426636,-0.532700777053833,-0.009401672519743443
1667825062620888800,11.731888916015626,-1.2956188917160034,-0.6369361877441406,-0.12035199999809265
1667825062630897000,11.74189697265625,-1.3306527137756348,-0.7275233268737793,-0.23348574340343475
1667825062640903700,11.751903564453125,-1.333909273147583,-0.7939609885215759,-0.34718939661979675
1667825062650911700,11.761911865234374,-1.310246229171753,-0.8122145533561707,-0.43251389265060425
1667825062660918800,11.771918701171876,-1.2679001092910767,-0.7667285203933716,-0.496806263923645
1667825062670926800,11.7819267578125,-1.2194499969482422,-0.627646267414093,-0.5475568175315857
1667825062680934700,11.7919345703125,-1.1666183471679688,-0.4193134009838104,-0.5693594813346863
1667825062690941700,11.801941650390624,-1.1230438947677612,-0.23434676229953766,-0.5684694051742554
1667825062700949800,11.81194970703125,-1.0838264226913452,-0.06887055933475494,-0.5004456639289856
1667825062710956800,11.821956787109375,-1.1007529497146606,-0.013314889743924141,-0.2768830955028534
1667825062720964600,11.831964599609375,-1.1090927124023438,-0.4375864863395691,-0.09526973962783813
1667825062730972700,11.84197265625,-1.0468127727508545,-0.8770495653152466,0.03868778795003891
1667825062740979700,11.851979736328126,-0.9615328907966614,-1.2591243982315063,0.11110209673643112
1667825062750987800,11.86198779296875,-0.9188879132270813,-1.4140844345092773,0.14313912391662598
1667825062760994600,11.87199462890625,-0.941135823726654,-1.4044629335403442,0.09826476126909256
1667825062771003000,11.8820029296875,-0.999117374420166,-1.3152247667312622,-0.025350388139486313
1667825062781011000,11.892010986328126,-1.0582295656204224,-1.1848208904266357,-0.16754208505153656
