time,seconds_elapsed,z,y,x
1667825050900740400,0.011740234375,0.6080156564712524,-0.4216042160987854,-0.053939398378133774
1667825050910747400,0.021747314453125,0.5818588733673096,-0.5702986121177673,-0.07421617209911346
1667825050920755500,0.03175537109375,0.5373460054397583,-0.6499868035316467,-0.11854102462530136
1667825050930762200,0.04176220703125,0.47458648681640625,-0.6629236340522766,-0.1735621988773346
1667825050940770300,0.051770263671875,0.39794549345970154,-0.6224614381790161,-0.22497932612895966
1667825050950778400,0.0617783203125,0.31518006324768066,-0.5443892478942871,-0.2527765929698944
1667825050960785400,0.071785400390625,0.23616379499435425,-0.4577063024044037,-0.22233080863952637
1667825050970793200,0.081793212890625,0.15160709619522095,-0.3803928792476654,-0.12181724607944489
1667825050980800500,0.091800537109375,0.05843481421470642,-0.364658921957016,0.040400419384241104
1667825050990808300,0.101808349609375,-0.03803633153438568,-0.4227350056171417,0.22120508551597595
1667825051000816400,0.11181640625,-0.11636602133512497,-0.5430819392204285,0.41145652532577515
1667825051010823200,0.1218232421875,-0.16839247941970825,-0.7012995481491089,0.5876824259757996
1667825051020831200,0.131831298828125,-0.2416222095489502,-0.7718876600265503,0.7453674077987671
1667825051030838300,0.14183837890625,-0.29488304257392883,-0.7940353155136108,0.8870395421981812
1667825051040846300,0.151846435546875,-0.324383407831192,-0.8178812861442566,1.0052913427352905
1667825051050854100,0.161854248046875,-0.34312325716018677,-0.7915833592414856,1.1052544116973877
1667825051060861400,0.171861328125,-0.3575706481933594,-0.7676902413368225,1.194806694984436
1667825051070869200,0.181869140625,-0.3381231725215912,-0.7971954345703125,1.2818577289581299
1667825051080876300,0.191876220703125,-0.3175017833709717,-0.8632383346557617,1.3536946773529053
1667825051090884000,0.201884033203125,-0.34108966588974,-0.9697144627571106,1.368017315864563
1667825051100892400,0.211892333984375,-0.44132333993911743,-1.100296974182129,1.3091928958892822
1667825051110899200,0.221899169921875,-0.6640538573265076,-1.220422625541687,1.1753566265106201
1667825051120907300,0.2319072265625,-0.9490978717803955,-1.2948875427246094,0.998678982257843
1667825051130914300,0.241914306640625,-1.168199896812439,-1.3756103515625,0.7667115330696106
1667825051140922400,0.25192236328125,-1.2922650575637817,-1.2454181909561157,0.4947255849838257
1667825051150929200,0.26192919921875,-1.3168569803237915,-0.8158101439476013,0.24201369285583496
1667825051160937200,0.271937255859375,-1.2252633571624756,-0.296259343624115,0.07364305853843689
1667825051170945300,0.2819453125,-1.0258421897888184,0.16363713145256042,-0.0535614937543869
1667825051180952300,0.291952392578125,-0.7724405527114868,0.41219502687454224,-0.2378746122121811
1667825051190960000,0.301960205078125,-0.4740767478942871,1.027645468711853,-0.6610932350158691
1667825051200967400,0.311967529296875,-0.22625577449798584,0.3051319420337677,-1.0742051601409912
1667825051210975200,0.321975341796875,-0.0826200470328331,-0.16737115383148193,-1.4382874965667725
1667825051220983300,0.3319833984375,0.057735733687877655,-0.4439425468444824,-1.71384859085083
1667825051230990000,0.341989990234375,0.2688455879688263,-0.39826908707618713,-1.8570927381515503
1667825051240998100,0.351998046875,0.52272629737854,-0.21519619226455688,-1.9157930612564087
1667825051251005200,0.362005126953125,0.7512572407722473,0.03221439570188522,-1.880874514579773
1667825051261013200,0.37201318359375,0.908262312412262,0.24787691235542297,-1.7718415260314941
1667825051271021300,0.382021240234375,0.9419465065002441,0.38948971033096313,-1.5865066051483154
1667825051281028400,0.3920283203125,0.8478482365608215,0.4825650453567505,-1.361201286315918
1667825051291036400,0.402036376953125,0.6262447237968445,0.5559364557266235,-1.095285177230835
1667825051301043200,0.412043212890625,0.35168880224227905,0.57404625415802,-0.7502233982086182
1667825051311051300,0.42205126953125,0.08026421070098877,0.5573921799659729,-0.37102067470550537
1667825051321059600,0.4320595703125,-0.14588236808776855,0.5039576888084412,-0.01683836802840233
1667825051331066600,0.442066650390625,-0.3238680958747864,0.4246639311313629,0.2755658030509949
1667825051341074700,0.45207470703125,-0.43391281366348267,0.31317922472953796,0.4939330220222473
1667825051351081700,0.462081787109375,-0.4872277081012726,0.1626267284154892,0.6035662889480591
1667825051361089800,0.47208984375,-0.5001251101493835,-0.02466433309018612,0.6193700432777405
1667825051371097600,0.48209765625,-0.5181017518043518,-0.1903342604637146,0.5576068162918091
1667825051381104600,0.492104736328125,-0.5465956926345825,-0.34579548239707947,0.412436306476593
1667825051391112400,0.502112548828125,-0.574577271938324,-0.531761109828949,0.19239741563796997
1667825051401119700,0.51211962890625,-0.5907439589500427,-0.6965479254722595,-0.07570834457874298
1667825051411127600,0.52212744140625,-0.5822612643241882,-0.7632888555526733,-0.35642683506011963
1667825051421134600,0.532134521484375,-0.5470923781394958,-0.8124561309814453,-0.6792432069778442
1667825051431142700,0.542142578125,-0.481812983751297,-0.8273125886917114,-1.0451215505599976
1667825051441150700,0.552150634765625,-0.36577796936035156,-0.8441890478134155,-1.4510523080825806
1667825051451157500,0.562157470703125,-0.1875280886888504,-0.8835154175758362,-1.8743228912353516
1667825051461165600,0.57216552734375,0.04394055902957916,-0.9742578268051147,-2.322272777557373
1667825051471172600,0.582172607421875,0.307721883058548,-1.1740214824676514,-2.7845916748046875
1667825051481180700,0.5921806640625,0.5847542881965637,-1.484950065612793,-3.24078106880188
1667825051491188500,0.6021884765625,0.8699157238006592,-1.860308051109314,-3.6604576110839844
1667825051501195800,0.61219580078125,1.1577969789505005,-2.357422351837158,-4.058178901672363
1667825051511203600,0.62220361328125,1.4293086528778076,-2.969783306121826,-4.455420017242432
1667825051521210600,0.632210693359375,1.6521929502487183,-3.609210968017578,-4.845569133758545
1667825051531218400,0.642218505859375,1.7921265363693237,-4.091416835784912,-5.174396991729736
1667825051541226800,0.652226806640625,1.806748628616333,-4.360450267791748,-5.388056755065918
1667825051551233500,0.662233642578125,1.6354022026062012,-4.272268772125244,-5.454420566558838
1667825051561241600,0.67224169921875,1.2362987995147705,-3.452665328979492,-5.283524036407471
1667825051571248600,0.68224853515625,0.6328075528144836,-1.7256308794021606,-4.892264366149902
1667825051581256700,0.692256591796875,-0.020241089165210724,0.2080456167459488,-4.424709796905518
1667825051591264800,0.7022646484375,-0.5775525569915771,1.6161630153656006,-3.9847750663757324
1667825051601271600,0.712271484375,-0.9495500922203064,2.4191665649414062,-3.579951524734497
1667825051611279600,0.722279541015625,-1.070921540260315,2.720210552215576,-3.2029430866241455
1667825051621286700,0.73228662109375,-0.9378372430801392,2.6225364208221436,-2.8451406955718994
1667825051631294700,0.742294677734375,-0.615379810333252,2.1992506980895996,-2.4961929321289062
1667825051641301500,0.752301513671875,-0.23061110079288483,1.5651850700378418,-2.105491876602173
1667825051651309800,0.762309814453125,0.09461572021245956,0.8764100670814514,-1.6610878705978394
1667825051661317600,0.772317626953125,0.30875250697135925,0.25244688987731934,-1.1439019441604614
1667825051671324700,0.78232470703125,0.384084016084671,-0.2434225082397461,-0.5931775569915771
1667825051681332500,0.79233251953125,0.34896278381347656,-0.5643115639686584,-0.0774492546916008
1667825051691339800,0.80233984375,0.25703099370002747,-0.7232319712638855,0.3442511260509491
1667825051701347600,0.81234765625,0.15250271558761597,-0.7594743967056274,0.6478086113929749
1667825051711355600,0.822355712890625,0.03455078601837158,-0.6897128820419312,0.8418297171592712
1667825051721362700,0.83236279296875,-0.09645436704158783,-0.5850924849510193,0.9216124415397644
1667825051731370800,0.842370849609375,-0.23715342581272125,-0.4664105772972107,0.922456681728363
1667825051741377500,0.85237744140625,-0.35506993532180786,-0.3312378525733948,0.8673385381698608
1667825051751385600,0.862385498046875,-0.4309583306312561,-0.20255017280578613,0.7846724390983582
1667825051761393700,0.8723935546875,-0.44379183650016785,-0.0909259095788002,0.701968789100647
1667825051771400700,0.882400634765625,-0.3919382095336914,0.029377063736319542,0.636740505695343
1667825051781408500,0.892408447265625,-0.30748191475868225,0.19770295917987823,0.6103320717811584
1667825051791415800,0.902415771484375,-0.21156923472881317,0.3717373311519623,0.6247384548187256
1667825051801423600,0.912423583984375,-0.13456925749778748,0.5244882702827454,0.6723451018333435
1667825051811431700,0.922431640625,-0.08874744921922684,0.6589446067810059,0.7295359373092651
1667825051821438500,0.9324384765625,-0.073391392827034,0.7859795093536377,0.7987771034240723
1667825051831446500,0.942446533203125,-0.10034524649381638,0.8729304075241089,0.8737756609916687
1667825051841453600,0.95245361328125,-0.16269570589065552,0.9248303771018982,0.9453138113021851
1667825051851461600,0.962461669921875,-0.25323039293289185,0.9372444152832031,1.002847671508789
1667825051861468700,0.97246875,-0.3841173052787781,0.8915451169013977,1.0268893241882324
1667825051871476700,0.982476806640625,-0.531529426574707,0.7873910069465637,1.0086967945098877
1667825051881484500,0.992484619140625,-0.6992725729942322,0.6432093381881714,0.9486512541770935
1667825051891491600,1.00249169921875,-0.8725820779800415,0.48190778493881226,0.8534775972366333
1667825051901499400,1.01249951171875,-1.0323432683944702,0.31979265809059143,0.724449872970581
1667825051911506700,1.022506591796875,-1.1685138940811157,0.182458758354187,0.5602931380271912
1667825051921514500,1.032514404296875,-1.2833166122436523,0.06838225573301315,0.37847405672073364
1667825051931522600,1.0425224609375,-1.391029715538025,-0.04766711965203285,0.17414329946041107
1667825051941529600,1.052529541015625,-1.5000648498535156,-0.13496793806552887,-0.03982144966721535
1667825051951537700,1.06253759765625,-1.592915415763855,-0.16134068369865417,-0.25026363134384155
1667825051961544400,1.07254443359375,-1.6652612686157227,-0.13928279280662537,-0.44405627250671387
1667825051971552500,1.082552490234375,-1.708549976348877,-0.09465780109167099,-0.6299686431884766
1667825051981560800,1.092560791015625,-1.7264436483383179,-0.0301405917853117,-0.78362637758255
1667825051991567600,1.102567626953125,-1.7216646671295166,0.036379579454660416,-0.9033724665641785
1667825052001575700,1.11257568359375,-1.7021727561950684,0.09907278418540955,-0.9875456690788269
1667825052011582700,1.122582763671875,-1.6598113775253296,0.12972897291183472,-1.0344325304031372
1667825052021590800,1.1325908203125,-1.6004689931869507,0.11922413110733032,-1.0438745021820068
1667825052031598600,1.1425986328125,-1.5253242254257202,0.057523213326931,-1.0299794673919678
1667825052041605600,1.152605712890625,-1.4350001811981201,-0.052030179649591446,-1.0018761157989502
1667825052051613700,1.16261376953125,-1.3394019603729248,-0.19432473182678223,-0.970727264881134
1667825052061620700,1.172620849609375,-1.2530412673950195,-0.33680278062820435,-0.9440327882766724
1667825052071628500,1.182628662109375,-1.1688693761825562,-0.485737144947052,-0.9270719289779663
1667825052081635800,1.1926357421875,-1.0821163654327393,-0.6478980779647827,-0.9394079446792603
1667825052091643600,1.2026435546875,-0.980735719203949,-0.7807048559188843,-0.9795399308204651
1667825052101651700,1.212651611328125,-0.8755677342414856,-0.8688980937004089,-1.0325446128845215
1667825052111658500,1.222658447265625,-0.770032525062561,-0.9220539927482605,-1.0899639129638672
1667825052121666600,1.23266650390625,-0.6571925282478333,-0.9282572865486145,-1.1446775197982788
1667825052131673600,1.242673583984375,-0.5183757543563843,-0.8981420397758484,-1.2008938789367676
1667825052141681700,1.252681640625,-0.36978498101234436,-0.9081355333328247,-1.283419132232666
1667825052151689500,1.262689453125,-0.19759882986545563,-1.0145131349563599,-1.4083483219146729
1667825052161696800,1.27269677734375,-0.01173335500061512,-1.1875282526016235,-1.5613442659378052
1667825052171704600,1.28270458984375,0.180070161819458,-1.3361108303070068,-1.6981481313705444
1667825052181711600,1.292711669921875,0.39125964045524597,-1.431654453277588,-1.7749837636947632
1667825052191719400,1.302719482421875,0.6509522199630737,-1.4591033458709717,-1.769683837890625
1667825052201727700,1.312727783203125,0.9710820317268372,-1.4348899126052856,-1.6722211837768555
1667825052211734500,1.322734619140625,1.3572916984558105,-1.3344053030014038,-1.4889600276947021
1667825052221742600,1.33274267578125,1.7880319356918335,-1.1278167963027954,-1.1910446882247925
1667825052231749600,1.34274951171875,2.2323431968688965,-0.8825265765190125,-0.7784393429756165
1667825052241757700,1.3527578125,2.6744871139526367,-0.6575397849082947,-0.2594691216945648
1667825052251765800,1.362765869140625,3.084291458129883,-0.4748770296573639,0.3198307454586029
1667825052261772500,1.3727724609375,3.431563377380371,-0.34498322010040283,0.8855183720588684
1667825052271780600,1.382780517578125,3.698049545288086,-0.2937738299369812,1.3829859495162964
1667825052281787600,1.39278759765625,3.8769643306732178,-0.33103278279304504,1.7855219841003418
1667825052291795700,1.402795654296875,3.9268295764923096,-0.4034308195114136,2.084843635559082
1667825052301803500,1.412803466796875,3.8239808082580566,-0.5196759104728699,2.2761499881744385
1667825052311810800,1.422810791015625,3.5658445358276367,-0.6667673587799072,2.3613460063934326
1667825052321822200,1.432822265625,3.141916513442993,-0.8181552886962891,2.357379198074341
1667825052331829200,1.442829345703125,2.5499813556671143,-0.9386993050575256,2.290649652481079
1667825052341837000,1.452837158203125,1.8585731983184814,-1.0157405138015747,2.190200090408325
1667825052351844400,1.46284423828125,1.1627699136734009,-1.0516018867492676,2.0334482192993164
1667825052361852200,1.47285205078125,0.5599623918533325,-1.015541911125183,1.8219590187072754
1667825052371860200,1.482860107421875,0.11747363209724426,-0.9109001755714417,1.5821634531021118
1667825052381867300,1.4928671875,-0.18285582959651947,-0.7925513982772827,1.3522692918777466
1667825052391875300,1.502875244140625,-0.3816157877445221,-0.6778634190559387,1.1631861925125122
1667825052401882000,1.512882080078125,-0.4782280921936035,-0.5821688771247864,1.0013717412948608
1667825052411890200,1.52289013671875,-0.5151208639144897,-0.47386130690574646,0.8708419799804688
1667825052421898200,1.532898193359375,-0.5204312205314636,-0.35403770208358765,0.7451503276824951
1667825052431905300,1.5429052734375,-0.4940890967845917,-0.2159179151058197,0.6355172991752625
1667825052441913000,1.5529130859375,-0.4401129186153412,-0.053106628358364105,0.5371646285057068
1667825052451920400,1.56292041015625,-0.34682267904281616,0.11882838606834412,0.4412442445755005
1667825052461928200,1.57292822265625,-0.2221776694059372,0.31134963035583496,0.34712228178977966
1667825052471936300,1.582936279296875,-0.09189370274543762,0.5327965021133423,0.28410547971725464
1667825052481943000,1.592943115234375,0.04296797513961792,0.7165903449058533,0.2696594297885895
1667825052491951000,1.602951171875,0.18038389086723328,0.8493305444717407,0.2871665358543396
1667825052501958100,1.612958251953125,0.3167223036289215,0.9327556490898132,0.33206209540367126
1667825052511966200,1.62296630859375,0.46221238374710083,0.966625452041626,0.3954261541366577
1667825052521974300,1.632974365234375,0.5988301634788513,0.9811245203018188,0.48933079838752747
1667825052531981300,1.642981201171875,0.7085862159729004,0.9742705821990967,0.5964189171791077
1667825052541989400,1.6529892578125,0.7705262899398804,0.9257696270942688,0.7179661393165588
1667825052551996200,1.66299609375,0.7874213457107544,0.8539180755615234,0.8489151000976562
1667825052562004200,1.673004150390625,0.7771562337875366,0.7714282870292664,0.9755808711051941
1667825052572012300,1.68301220703125,0.7473027110099792,0.6884375214576721,1.0862823724746704
1667825052582019300,1.693019287109375,0.6991740465164185,0.6054337024688721,1.169251561164856
1667825052592027100,1.703027099609375,0.6387794017791748,0.502840518951416,1.2326693534851074
1667825052602034400,1.713034423828125,0.5548169016838074,0.38209623098373413,1.2591640949249268
1667825052612042200,1.723042236328125,0.4553861618041992,0.2849976420402527,1.2488428354263306
1667825052622050300,1.73305029296875,0.35277244448661804,0.24141715466976166,1.2277414798736572
1667825052632057000,1.74305712890625,0.24408510327339172,0.25402188301086426,1.2178881168365479
1667825052642065400,1.7530654296875,0.15511049330234528,0.28348737955093384,1.2049427032470703
1667825052652072200,1.763072265625,0.08024770021438599,0.29483190178871155,1.1898263692855835
1667825052662080300,1.773080322265625,0.013094496913254261,0.2778278887271881,1.162590742111206
1667825052672087300,1.78308740234375,-0.03443547338247299,0.20613159239292145,1.1251956224441528
1667825052682095400,1.793095458984375,-0.06738010793924332,0.05777142196893692,1.0459152460098267
1667825052692103200,1.803103271484375,-0.10850091278553009,-0.13543292880058289,0.9170024991035461
1667825052702110200,1.813110107421875,-0.16946732997894287,-0.3358214199542999,0.7293626070022583
1667825052712118300,1.8231181640625,-0.2609114944934845,-0.48920804262161255,0.47869521379470825
1667825052722125300,1.833125244140625,-0.3725333511829376,-0.5564749836921692,0.1855110079050064
1667825052732133000,1.843133056640625,-0.5017789602279663,-0.5220307111740112,-0.12952657043933868
1667825052742141200,1.85314111328125,-0.6431840062141418,-0.39257124066352844,-0.42247456312179565
1667825052752148200,1.863148193359375,-0.7960050106048584,-0.21055856347084045,-0.6641936898231506
1667825052762156300,1.87315625,-0.9604538679122925,-0.031153924763202667,-0.8422728776931763
1667825052772163000,1.8831630859375,-1.0962090492248535,0.10864418745040894,-0.9697405695915222
1667825052782171100,1.893171142578125,-1.18501877784729,0.20653745532035828,-1.047907829284668
1667825052792179500,1.903179443359375,-1.224553108215332,0.2632089853286743,-1.0963728427886963
1667825052802186200,1.913186279296875,-1.2283066511154175,0.27309146523475647,-1.1170400381088257
1667825052812194300,1.9231943359375,-1.205941081047058,0.22943958640098572,-1.1261296272277832
1667825052822201300,1.933201416015625,-1.1612212657928467,0.15970231592655182,-1.1287566423416138
1667825052832209400,1.94320947265625,-1.1084082126617432,0.08242084085941315,-1.117180347442627
1667825052842217200,1.95321728515625,-1.0490726232528687,-0.0009028115891851485,-1.0961112976074219
1667825052852224300,1.963224365234375,-0.9931833148002625,-0.05678205564618111,-1.073299765586853
1667825052862232300,1.973232421875,-0.9493759274482727,-0.08654101938009262,-1.0382908582687378
1667825052872239400,1.9832392578125,-0.9205567836761475,-0.109247125685215,-1.000101923942566
1667825052882247200,1.9932470703125,-0.8920191526412964,-0.1360289454460144,-0.9600083231925964
1667825052892255200,2.003255126953125,-0.853354275226593,-0.17642536759376526,-0.9203125834465027
1667825052902262300,2.01326220703125,-0.8089019060134888,-0.22235903143882751,-0.9001039862632751
1667825052912270300,2.023270263671875,-0.7665131688117981,-0.27836930751800537,-0.8888124227523804
1667825052922277000,2.033277099609375,-0.7391195893287659,-0.33055368065834045,-0.8813287019729614
1667825052932285200,2.04328515625,-0.7311620712280273,-0.3625877797603607,-0.8692485690116882
1667825052942292200,2.053292236328125,-0.744550347328186,-0.3602617681026459,-0.8498626351356506
1667825052952300300,2.06330029296875,-0.7657269835472107,-0.3196682631969452,-0.820240318775177
1667825052962308000,2.07330810546875,-0.7850444912910461,-0.2649155557155609,-0.7811773419380188
1667825052972315400,2.0833154296875,-0.8018295764923096,-0.1977386474609375,-0.7298728227615356
1667825052982323200,2.0933232421875,-0.8127400279045105,-0.13782231509685516,-0.6490453481674194
1667825052992330200,2.103330322265625,-0.8255708813667297,-0.1044750064611435,-0.5447823405265808
1667825053002338000,2.113338134765625,-0.8360586762428284,-0.09863150119781494,-0.4244522154331207
1667825053012346400,2.123346435546875,-0.8424947261810303,-0.12156664580106735,-0.28944486379623413
1667825053022353200,2.133353271484375,-0.8412619829177856,-0.15536534786224365,-0.16837356984615326
1667825053032361200,2.143361328125,-0.8418859243392944,-0.18942265212535858,-0.09408548474311829
1667825053042368300,2.1533681640625,-0.8553079962730408,-0.23383300006389618,-0.07644044607877731
1667825053052376300,2.163376220703125,-0.8764652013778687,-0.2615661025047302,-0.10742606222629547
1667825053062384000,2.173384033203125,-0.9068596363067627,-0.2540317475795746,-0.16732454299926758
1667825053072391200,2.18339111328125,-0.9514036178588867,-0.2223619669675827,-0.22798655927181244
1667825053082399200,2.193399169921875,-0.9953199625015259,-0.19885770976543427,-0.3043404519557953
1667825053092406300,2.20340625,-1.0310592651367188,-0.22952799499034882,-0.40383481979370117
1667825053102414000,2.2134140625,-1.048059344291687,-0.295879602432251,-0.5193039178848267
1667825053112422100,2.223422119140625,-1.0399247407913208,-0.35538020730018616,-0.6288080215454102
1667825053122429200,2.23342919921875,-1.0057973861694336,-0.378074586391449,-0.7221105098724365
1667825053132437200,2.243437255859375,-0.958021342754364,-0.3628128170967102,-0.7775216102600098
1667825053142444000,2.253444091796875,-0.889514148235321,-0.3268766701221466,-0.7869443893432617
1667825053152452400,2.263452392578125,-0.7988942861557007,-0.28790903091430664,-0.7470659613609314
1667825053162460400,2.27346044921875,-0.6842976212501526,-0.2961762547492981,-0.6727414131164551
1667825053172467200,2.28346728515625,-0.5583005547523499,-0.3985404670238495,-0.6159548163414001
1667825053182475300,2.293475341796875,-0.41674503684043884,-0.5913474559783936,-0.6118119955062866
1667825053192482300,2.303482421875,-0.2453165501356125,-0.7962209582328796,-0.6630948781967163
1667825053202490400,2.313490478515625,-0.028447354212403297,-0.9489271640777588,-0.7387095093727112
1667825053212498200,2.323498291015625,0.23990021646022797,-1.0175453424453735,-0.7982801198959351
1667825053222505200,2.333505126953125,0.5497174859046936,-1.0074125528335571,-0.8098177313804626
1667825053232513300,2.34351318359375,0.8847889304161072,-0.9318544268608093,-0.729164719581604
1667825053242520300,2.353520263671875,1.2160717248916626,-0.7716490626335144,-0.517491340637207
1667825053252528000,2.363528076171875,1.5603457689285278,-0.5448009967803955,-0.16525447368621826
1667825053262536200,2.3735361328125,1.9270015954971313,-0.2988751232624054,0.2894730865955353
1667825053272543200,2.383543212890625,2.2957706451416016,-0.13833098113536835,0.7751961350440979
1667825053282551300,2.39355126953125,2.62884259223938,-0.07581912726163864,1.19847571849823
1667825053292558000,2.40355810546875,2.9160568714141846,-0.07433894276618958,1.5138288736343384
1667825053302566400,2.41356640625,3.139777183532715,-0.13046613335609436,1.6971513032913208
1667825053312574200,2.42357421875,3.234872817993164,-0.19902707636356354,1.7535240650177002
1667825053322580700,2.433580810546875,3.138526201248169,-0.282659113407135,1.6987191438674927
1667825053332588800,2.4435888671875,2.840942859649658,-0.3773254454135895,1.557040810585022
1667825053342595800,2.453595947265625,2.3628525733947754,-0.44423604011535645,1.3622689247131348
1667825053352603600,2.463603759765625,1.7482222318649292,-0.46087172627449036,1.1574345827102661
1667825053362611000,2.47361083984375,1.0621041059494019,-0.4058369994163513,0.9761031270027161
1667825053372618800,2.48361865234375,0.3891970217227936,-0.33447784185409546,0.8402726054191589
1667825053382626800,2.493626708984375,-0.15744102001190186,-0.261061429977417,0.7654215097427368
1667825053392633600,2.503633544921875,-0.5387614965438843,-0.19857726991176605,0.7620539665222168
1667825053402641700,2.5136416015625,-0.7533169388771057,-0.19021494686603546,0.8039497137069702
1667825053412648700,2.523648681640625,-0.8362765312194824,-0.2337200790643692,0.8884488940238953
1667825053422656800,2.53365673828125,-0.8276572227478027,-0.2810439169406891,0.9934871792793274
1667825053432664600,2.54366455078125,-0.7794507741928101,-0.3200187385082245,1.1017528772354126
1667825053442671900,2.553671875,-0.7044305801391602,-0.34037381410598755,1.181501865386963
1667825053452679700,2.5636796875,-0.6115003824234009,-0.2945195138454437,1.240684151649475
1667825053462687700,2.573687744140625,-0.5101884007453918,-0.19337452948093414,1.2668066024780273
1667825053472694500,2.583694580078125,-0.39474278688430786,-0.05999116599559784,1.2443164587020874
1667825053482702800,2.593702880859375,-0.2719385623931885,0.07811664044857025,1.1655974388122559
1667825053492709600,2.603709716796875,-0.1439070999622345,0.21451176702976227,1.0386499166488647
1667825053502717700,2.6137177734375,-0.019568640738725662,0.36182692646980286,0.8823845982551575
1667825053512724700,2.623724853515625,0.10320228338241577,0.5036095976829529,0.717059314250946
1667825053522732800,2.63373291015625,0.22071027755737305,0.6304943561553955,0.5476242303848267
1667825053532740900,2.643740966796875,0.3335542678833008,0.7464446425437927,0.3981231451034546
1667825053542747600,2.65374755859375,0.4369669556617737,0.8480556607246399,0.29573097825050354
1667825053552755700,2.663755615234375,0.5048863291740417,0.9357402324676514,0.26868367195129395
1667825053562762800,2.6737626953125,0.5331680178642273,1.0042232275009155,0.30607870221138
1667825053572770800,2.683770751953125,0.5322513580322266,1.033124566078186,0.40566468238830566
1667825053582778600,2.693778564453125,0.5291234850883484,1.023322582244873,0.528400719165802
1667825053592786000,2.703785888671875,0.5251010656356812,0.9726018905639648,0.6331785321235657
1667825053602793700,2.713793701171875,0.5066083073616028,0.9000043869018555,0.7227180004119873
1667825053612800800,2.72380078125,0.45092111825942993,0.8089527487754822,0.8079172968864441
1667825053622808600,2.73380859375,0.3702358603477478,0.7190553545951843,0.8895605206489563
1667825053632817000,2.74381689453125,0.27211061120033264,0.6535040140151978,0.9787101149559021
1667825053642823700,2.75382373046875,0.1725563257932663,0.6191064119338989,1.0693113803863525
1667825053652831700,2.763831787109375,0.08837779611349106,0.5837262868881226,1.1499098539352417
1667825053662838800,2.7738388671875,0.03266473487019539,0.5431072115898132,1.2180904150009155
1667825053672846800,2.783846923828125,0.013559218496084213,0.49333512783050537,1.2742784023284912
1667825053682854700,2.793854736328125,0.025797508656978607,0.41237398982048035,1.3149282932281494
1667825053692861700,2.80386181640625,0.037219006568193436,0.2711159288883209,1.319638967514038
1667825053702869800,2.813869873046875,0.02159690484404564,0.07884101569652557,1.253778100013733
1667825053712876800,2.823876708984375,-0.03537902981042862,-0.158440500497818,1.0985270738601685
1667825053722884600,2.833884521484375,-0.13252262771129608,-0.39350441098213196,0.8478718996047974
1667825053732892700,2.843892578125,-0.25494974851608276,-0.5755621194839478,0.5242264866828918
1667825053742899700,2.853899658203125,-0.38841378688812256,-0.6962224841117859,0.15159006416797638
1667825053752907800,2.86390771484375,-0.5264166593551636,-0.7719830274581909,-0.24818024039268494
1667825053762914600,2.87391455078125,-0.666485071182251,-0.7980707883834839,-0.6638568043708801
1667825053772923000,2.8839228515625,-0.7951224446296692,-0.7491629123687744,-1.0623154640197754
1667825053782931000,2.893930908203125,-0.9116061329841614,-0.635177493095398,-1.4029103517532349
1667825053792937700,2.903937744140625,-0.9781169891357422,-0.48888951539993286,-1.664467692375183
1667825053802945800,2.91394580078125,-0.9810851216316223,-0.3294852077960968,-1.8368525505065918
1667825053812952800,2.923952880859375,-0.9264066815376282,-0.1446743607521057,-1.9120899438858032
1667825053822961000,2.9339609375,-0.825933575630188,0.04764261841773987,-1.897361397743225
1667825053832968700,2.94396875,-0.691509485244751,0.19579213857650757,-1.7996913194656372
1667825053842975700,2.953975830078125,-0.5470505952835083,0.2455620914697647,-1.6308133602142334
1667825053852983800,2.96398388671875,-0.4139449894428253,0.19993895292282104,-1.4060028791427612
1667825053862990800,2.973990966796875,-0.3102699816226959,0.09556327760219574,-1.1399309635162354
1667825053872998700,2.98399853515625,-0.2578171491622925,-0.03441549837589264,-0.8869453072547913
1667825053883006700,2.9940068359375,-0.24947799742221832,-0.16857969760894775,-0.688361644744873
1667825053893013800,3.004013671875,-0.27562785148620605,-0.28265511989593506,-0.5753722190856934
1667825053903021800,3.014021728515625,-0.3244608938694,-0.38905027508735657,-0.5395998358726501
1667825053913028600,3.024028564453125,-0.4050779938697815,-0.4721798002719879,-0.5778036713600159
1667825053923037000,3.034036865234375,-0.514430046081543,-0.5184945464134216,-0.6662246584892273
1667825053933044700,3.044044677734375,-0.6424351334571838,-0.518385112285614,-0.7764065265655518
1667825053943051800,3.0540517578125,-0.7724797129631042,-0.47937166690826416,-0.8813624978065491
1667825053953059600,3.0640595703125,-0.8889074921607971,-0.393459677696228,-0.9478541612625122
1667825053963067000,3.07406689453125,-0.9749987125396729,-0.2570751905441284,-0.9561775922775269
1667825053973074700,3.08407470703125,-1.0081630945205688,-0.12740056216716766,-0.8993702530860901
1667825053983082800,3.094082763671875,-0.9995431900024414,0.012920858338475227,-0.7720088362693787
1667825053993089800,3.10408984375,-0.9595680832862854,0.14676333963871002,-0.5891929864883423
1667825054003097900,3.114097900390625,-0.9220238924026489,0.2363065481185913,-0.37999260425567627
1667825054013104600,3.124104736328125,-0.9012824296951294,0.2866336405277252,-0.16871844232082367
1667825054023112700,3.13411279296875,-0.9022731184959412,0.3144117295742035,0.03456410393118858
1667825054033120500,3.14412060546875,-0.9246066212654114,0.30767208337783813,0.19047380983829498
1667825054043127800,3.1541279296875,-0.9748261570930481,0.2825715243816376,0.2829856276512146
1667825054053135600,3.164135498046875,-1.0399025678634644,0.23982617259025574,0.30917274951934814
1667825054063142700,3.174142578125,-1.1068395376205444,0.1950421929359436,0.27088794112205505
1667825054073150700,3.184150634765625,-1.179198145866394,0.14647039771080017,0.17375847697257996
1667825054083158800,3.19415869140625,-1.2457777261734009,0.08479398488998413,0.03213902935385704
1667825054093165600,3.20416552734375,-1.2974257469177246,0.02400520071387291,-0.12805916368961334
1667825054103173600,3.214173583984375,-1.3376262187957764,-0.013866547495126724,-0.29241108894348145
1667825054113180700,3.2241806640625,-1.356858730316162,-0.00980602577328682,-0.4364313781261444
1667825054123188700,3.234188720703125,-1.352471113204956,0.03403706103563309,-0.541696310043335
1667825054133196800,3.24419677734375,-1.3197838068008423,0.11411964893341064,-0.6009358763694763
1667825054143203800,3.254203857421875,-1.2543081045150757,0.21268589794635773,-0.6125547289848328
1667825054153212000,3.2642119140625,-1.1510933637619019,0.32768943905830383,-0.5538594722747803
1667825054163218700,3.27421875,-1.007615566253662,0.4083552658557892,-0.423462837934494
1667825054173226800,3.284226806640625,-0.8496077656745911,0.42430680990219116,-0.24546116590499878
1667825054183234800,3.29423486328125,-0.6631763577461243,0.38019898533821106,-0.030707579106092453
1667825054193241900,3.304241943359375,-0.4574376046657562,0.2868208587169647,0.2100573629140854
1667825054203249700,3.314249755859375,-0.24209465086460114,0.15897659957408905,0.47155633568763733
1667825054213257000,3.324257080078125,-0.0438031405210495,-0.0297286007553339,0.7143793702125549
1667825054223264800,3.3342646484375,0.14001356065273285,-0.3243671655654907,0.8947150707244873
1667825054233272800,3.34427294921875,0.31457871198654175,-0.6823071837425232,0.9801449775695801
1667825054243279600,3.354279541015625,0.5176628232002258,-1.0366849899291992,0.9619220495223999
1667825054253287700,3.36428759765625,0.7641857862472534,-1.325423002243042,0.8366895914077759
1667825054263294700,3.374294677734375,1.0043278932571411,-1.4874284267425537,0.6150258779525757
1667825054273302800,3.384302734375,1.2350656986236572,-1.5379531383514404,0.31240716576576233
1667825054283310600,3.394310546875,1.4634519815444946,-1.4610463380813599,-0.0036935380194336176
1667825054293318000,3.40431787109375,1.6683857440948486,-1.1945492029190063,-0.25054165720939636
1667825054303325700,3.41432568359375,1.8454360961914062,-0.7260940670967102,-0.3447571098804474
1667825054313332700,3.424332763671875,1.9896937608718872,-0.13612321019172668,-0.27144962549209595
1667825054323341300,3.43434130859375,2.110023021697998,0.4370169937610626,-0.06977588683366776
1667825054333349400,3.444349365234375,2.222966194152832,0.8285067677497864,0.194900244474411
1667825054343356400,3.4543564453125,2.338486671447754,1.0072021484375,0.440870076417923
1667825054353364500,3.464364501953125,2.4446470737457275,1.0091571807861328,0.6032949090003967
1667825054363371300,3.474371337890625,2.5096373558044434,0.8423501253128052,0.6768559813499451
1667825054373379600,3.484379638671875,2.481750249862671,0.6039687395095825,0.6768240332603455
1667825054383387400,3.494387451171875,2.3140499591827393,0.37610599398612976,0.6523258686065674
1667825054393394400,3.50439453125,2.0160722732543945,0.2066410630941391,0.6367117166519165
1667825054403402200,3.51440234375,1.623887538909912,0.11453217267990112,0.6781460046768188
1667825054413409500,3.524409423828125,1.2005327939987183,0.08995065838098526,0.7847912311553955
1667825054423417300,3.534417236328125,0.7922558188438416,0.09502264857292175,0.9455316066741943
1667825054433425400,3.54442529296875,0.467693954706192,0.09055599570274353,1.1298996210098267
1667825054443432400,3.554432373046875,0.2223595678806305,0.05613517388701439,1.2795599699020386
1667825054453440500,3.5644404296875,0.061142448335886,-0.026285666972398758,1.3584976196289062
1667825054463447300,3.574447265625,-0.022057631984353065,-0.15349102020263672,1.3863811492919922
1667825054473455400,3.584455322265625,-0.0674850344657898,-0.28844723105430603,1.3833963871002197
1667825054483463200,3.594463134765625,-0.09949516505002975,-0.383226215839386,1.345674753189087
1667825054493470500,3.604470458984375,-0.13403689861297607,-0.4087824523448944,1.2903363704681396
1667825054503478300,3.614478271484375,-0.17086201906204224,-0.35354021191596985,1.2167751789093018
1667825054513485300,3.6244853515625,-0.19948114454746246,-0.23800857365131378,1.1284306049346924
1667825054523493400,3.634493408203125,-0.21510325372219086,-0.08833545446395874,1.0177648067474365
1667825054533501400,3.64450146484375,-0.21079479157924652,0.07395864278078079,0.8902689218521118
1667825054543508200,3.65450830078125,-0.17321571707725525,0.21985645592212677,0.7477136254310608
1667825054553516300,3.664516357421875,-0.11210070550441742,0.34190407395362854,0.5873820185661316
1667825054563523300,3.6745234375,-0.02924630232155323,0.4285540282726288,0.4110834002494812
1667825054573531400,3.684531494140625,0.07626361399888992,0.5037555694580078,0.2193043828010559
1667825054583539200,3.694539306640625,0.19478093087673187,0.5962689518928528,0.03263331204652786
1667825054593546500,3.70454638671875,0.30920231342315674,0.7002432942390442,-0.10666066408157349
1667825054603554300,3.71455419921875,0.40966928005218506,0.8024628758430481,-0.1608426719903946
1667825054613561300,3.724561279296875,0.46489417552948,0.8818362951278687,-0.11921880394220352
1667825054623569200,3.734569091796875,0.475574254989624,0.9203618168830872,-0.0011669971281662583
1667825054633577500,3.744577392578125,0.4529978334903717,0.9260756373405457,0.1653364896774292
1667825054643584300,3.754584228515625,0.4196409583091736,0.9210811257362366,0.3500826358795166
1667825054653592300,3.76459228515625,0.39337843656539917,0.9030441045761108,0.5503446459770203
1667825054663599400,3.774599365234375,0.3762708306312561,0.8540600538253784,0.763759970664978
1667825054673607400,3.784607421875,0.35044988989830017,0.7536173462867737,0.9806203842163086
1667825054683615500,3.794615478515625,0.32338792085647583,0.6346680521965027,1.1981724500656128
1667825054693622300,3.804622314453125,0.29324784874916077,0.5139144659042358,1.4115198850631714
1667825054703630300,3.81463037109375,0.27415111660957336,0.3861439824104309,1.5962857007980347
1667825054713637400,3.824637451171875,0.25898149609565735,0.24483904242515564,1.7260721921920776
1667825054723645400,3.8346455078125,0.2324012815952301,0.06797505915164948,1.7802518606185913
1667825054733653200,3.8446533203125,0.19714929163455963,-0.14875991642475128,1.739113211631775
1667825054743660500,3.85466064453125,0.1403757482767105,-0.39152461290359497,1.588488221168518
1667825054753668400,3.86466845703125,0.06034509837627411,-0.6350100040435791,1.3328306674957275
1667825054763675400,3.87467529296875,-0.05582385137677193,-0.8373550772666931,1.006286859512329
1667825054773683200,3.88468310546875,-0.20989011228084564,-0.9675953984260559,0.6581128835678101
1667825054783691500,3.89469140625,-0.38631096482276917,-1.0081084966659546,0.3210129141807556
1667825054793698300,3.9046982421875,-0.5755746364593506,-0.9677456021308899,0.011566640809178352
1667825054803706400,3.914706298828125,-0.7622568607330322,-0.8430140614509583,-0.24208852648735046
1667825054813713400,3.92471337890625,-0.9234263300895691,-0.6699477434158325,-0.43347951769828796
1667825054823721500,3.934721435546875,-1.0405102968215942,-0.5301206111907959,-0.5808990597724915
1667825054833729300,3.944729248046875,-1.0988391637802124,-0.437579482793808,-0.698314905166626
1667825054843736300,3.954736328125,-1.0904749631881714,-0.3869575560092926,-0.8017584681510925
1667825054853744400,3.964744384765625,-1.0283551216125488,-0.35624998807907104,-0.8964796662330627
1667825054863752400,3.97475244140625,-0.9379251003265381,-0.346834659576416,-0.97812420129776
1667825054873759200,3.98475927734375,-0.8429027199745178,-0.3402707576751709,-1.0372493267059326
1667825054883767300,3.994767333984375,-0.749419093132019,-0.33212894201278687,-1.073171615600586
1667825054893774300,4.0047744140625,-0.6771060228347778,-0.3186919689178467,-1.0823571681976318
1667825054903782400,4.014782470703125,-0.6393921971321106,-0.29183557629585266,-1.079350471496582
1667825054913789200,4.0247890625,-0.6396835446357727,-0.26604658365249634,-1.0647342205047607
1667825054923797200,4.03479736328125,-0.6733595132827759,-0.25604429841041565,-1.0376826524734497
1667825054933805600,4.0448056640625,-0.7248938083648682,-0.2588067948818207,-0.9866055846214294
1667825054943812400,4.054812255859375,-0.7657948732376099,-0.254336416721344,-0.9093770980834961
1667825054953820400,4.0648203125,-0.7993161082267761,-0.2532232105731964,-0.813892662525177
1667825054963827500,4.074827392578125,-0.8177981972694397,-0.25859692692756653,-0.7072367668151855
1667825054973835500,4.08483544921875,-0.8235897421836853,-0.2663517892360687,-0.6038347482681274
1667825054983843300,4.09484326171875,-0.8224120736122131,-0.27767929434776306,-0.5307789444923401
1667825054993850400,4.104850341796875,-0.8163267970085144,-0.2864852845668793,-0.4726008474826813
1667825055003858400,4.1148583984375,-0.8099657893180847,-0.29544416069984436,-0.44448211789131165
1667825055013866500,4.124866455078125,-0.8239399790763855,-0.2824207842350006,-0.4417470395565033
1667825055023873300,4.134873291015625,-0.8614290356636047,-0.23593290150165558,-0.4561946988105774
1667825055033881300,4.14488134765625,-0.9046635627746582,-0.15224891901016235,-0.47889387607574463
1667825055043888400,4.154888427734375,-0.9499351978302002,-0.03803952783346176,-0.48677071928977966
1667825055053896400,4.164896484375,-1.0003365278244019,0.05979728698730469,-0.4716474115848541
1667825055063903200,4.1749033203125,-1.0373318195343018,0.11643553525209427,-0.4476882815361023
1667825055073911600,4.18491162109375,-1.0447766780853271,0.13868464529514313,-0.4167114794254303
1667825055083919400,4.19491943359375,-1.0257670879364014,0.1182054728269577,-0.3777883052825928
1667825055093926400,4.204926513671875,-0.99373459815979,0.05967318266630173,-0.3505425751209259
1667825055103934200,4.214934326171875,-0.9526470899581909,-0.04337170720100403,-0.34546923637390137
1667825055113941500,4.22494140625,-0.9092742800712585,-0.15924398601055145,-0.36266741156578064
1667825055123949300,4.23494921875,-0.8802234530448914,-0.26611316204071045,-0.39762645959854126
1667825055133957400,4.244957275390625,-0.8514205813407898,-0.3484719693660736,-0.450954407453537
1667825055143964400,4.25496435546875,-0.8156458139419556,-0.39651405811309814,-0.5283759236335754
1667825055153972500,4.264972412109375,-0.7790329456329346,-0.4075624346733093,-0.6167577505111694
1667825055163980300,4.274980224609375,-0.7414056658744812,-0.37872040271759033,-0.7141072154045105
1667825055173987300,4.2849873046875,-0.6968989372253418,-0.29173359274864197,-0.7829083800315857
1667825055183995100,4.2949951171875,-0.6284143924713135,-0.13622601330280304,-0.7902517914772034
1667825055194002400,4.30500244140625,-0.516372561454773,0.008027566596865654,-0.7336585521697998
1667825055204010200,4.31501025390625,-0.3598199486732483,0.056705623865127563,-0.6673476696014404
1667825055214017300,4.325017333984375,-0.1699320524930954,-0.009734120219945908,-0.6418596506118774
1667825055224025300,4.335025390625,0.05073321983218193,-0.1527208387851715,-0.6728215217590332
1667825055234033400,4.345033447265625,0.2837955057621002,-0.30964919924736023,-0.7422874569892883
1667825055244040200,4.355040283203125,0.5135868787765503,-0.4054130017757416,-0.794845461845398
1667825055254048300,4.36504833984375,0.7292336821556091,-0.44327250123023987,-0.7868735194206238
1667825055264055300,4.37505517578125,0.943760871887207,-0.4558919072151184,-0.7127838730812073
1667825055274063400,4.3850634765625,1.1607686281204224,-0.4554423689842224,-0.577261745929718
1667825055284071400,4.395071533203125,1.3781328201293945,-0.4380359351634979,-0.36430951952934265
1667825055294078500,4.405078369140625,1.605664849281311,-0.3834080994129181,-0.0732763409614563
1667825055304086500,4.41508642578125,1.8430709838867188,-0.2871209979057312,0.2934952676296234
1667825055314094300,4.42509423828125,2.0880448818206787,-0.1944648176431656,0.6932849884033203
1667825055324098000,4.43509814453125,2.317706823348999,-0.16192738711833954,1.062573790550232
1667825055334106000,4.445106201171875,2.5153489112854004,-0.1892029494047165,1.333945631980896
1667825055344113200,4.455113037109375,2.668067216873169,-0.2581750750541687,1.4813060760498047
1667825055354121200,4.465121337890625,2.745480537414551,-0.35631096363067627,1.5002713203430176
1667825055364129000,4.47512890625,2.7160253524780273,-0.44043463468551636,1.415728211402893
1667825055374136300,4.48513623046875,2.560478448867798,-0.501270592212677,1.2422360181808472
1667825055384144100,4.49514404296875,2.267728090286255,-0.5308423042297363,1.013085126876831
1667825055394151200,4.505151123046875,1.861965298652649,-0.5154132843017578,0.7618776559829712
1667825055404159000,4.515158935546875,1.3676553964614868,-0.42756783962249756,0.5249418020248413
1667825055414167000,4.5251669921875,0.8538336753845215,-0.28430816531181335,0.3281099796295166
1667825055424174000,4.535174072265625,0.41581106185913086,-0.12395550310611725,0.20006971061229706
1667825055434182100,4.54518212890625,0.07962505519390106,0.010479272343218327,0.19070124626159668
1667825055444189200,4.555189208984375,-0.1341085284948349,0.08776739984750748,0.25816524028778076
1667825055454197200,4.565197265625,-0.24822711944580078,0.15130004286766052,0.3568883538246155
1667825055464205300,4.575205322265625,-0.27767235040664673,0.18349578976631165,0.4656076431274414
1667825055474212000,4.585212158203125,-0.26250433921813965,0.17282849550247192,0.5849335193634033
1667825055484220200,4.59522021484375,-0.2406163364648819,0.1431632786989212,0.6976193189620972
1667825055494227200,4.605227294921875,-0.22206395864486694,0.12050510942935944,0.8003706932067871
1667825055504235300,4.6152353515625,-0.208350270986557,0.11214704066514969,0.8766511082649231
1667825055514243000,4.6252431640625,-0.18947724997997284,0.14530819654464722,0.9210995435714722
1667825055524250400,4.63525048828125,-0.15527373552322388,0.21100224554538727,0.9403515458106995
1667825055534258200,4.645258056640625,-0.10313624143600464,0.28918707370758057,0.9425478577613831
1667825055544265200,4.65526513671875,-0.05126185715198517,0.36406129598617554,0.941219687461853
1667825055554273000,4.66527294921875,0.005330583080649376,0.4400727152824402,0.9339929819107056
1667825055564280300,4.6752802734375,0.0733538419008255,0.5134132504463196,0.9307026267051697
1667825055574288100,4.6852880859375,0.14651939272880554,0.5823584794998169,0.914843738079071
1667825055584296200,4.695296142578125,0.22534391283988953,0.6303175091743469,0.8677199482917786
1667825055594303200,4.70530322265625,0.2970878779888153,0.6429531574249268,0.7657219171524048
1667825055604311300,4.715311279296875,0.36201706528663635,0.6453356146812439,0.6129960417747498
1667825055614318000,4.725318115234375,0.3909672200679779,0.6446352005004883,0.4280503988265991
1667825055624326100,4.735326171875,0.3758489787578583,0.6731427311897278,0.2578917443752289
1667825055634334200,4.745334228515625,0.33158618211746216,0.733957052230835,0.14121517539024353
1667825055644341200,4.75534130859375,0.28131794929504395,0.8056696057319641,0.09762189537286758
1667825055654349000,4.76534912109375,0.23795902729034424,0.8672773241996765,0.13259479403495789
1667825055664356400,4.7753564453125,0.20111899077892303,0.9036235809326172,0.24312902987003326
1667825055674364200,4.7853642578125,0.18970654904842377,0.9116383790969849,0.418945848941803
1667825055684372200,4.795372314453125,0.19502222537994385,0.8769022226333618,0.6387932896614075
1667825055694379000,4.80537890625,0.21785935759544373,0.8190655708312988,0.874714195728302
1667825055704387000,4.815386962890625,0.2532482445240021,0.7280943989753723,1.097063660621643
1667825055714394000,4.82539404296875,0.2915570139884949,0.5925975441932678,1.2741707563400269
1667825055724402200,4.835402099609375,0.33001306653022766,0.4336225390434265,1.3982759714126587
1667825055734410000,4.845409912109375,0.3440191447734833,0.29609397053718567,1.4768937826156616
1667825055744417300,4.855417236328125,0.33671385049819946,0.18564869463443756,1.5138976573944092
1667825055754425000,4.865425048828125,0.31290143728256226,0.09036718308925629,1.5086066722869873
1667825055764432100,4.87543212890625,0.2720264494419098,-0.014157630503177643,1.4477505683898926
1667825055774440000,4.88543994140625,0.21001075208187103,-0.13351304829120636,1.3231606483459473
1667825055784448300,4.8954482421875,0.1246042475104332,-0.2597202658653259,1.1450148820877075
1667825055794455000,4.905455078125,0.02497832104563713,-0.40269631147384644,0.912753701210022
1667825055804463000,4.915463134765625,-0.10148347914218903,-0.5383891463279724,0.6529112458229065
1667825055814470100,4.92547021484375,-0.2519286572933197,-0.6526997685432434,0.38200435042381287
1667825055824478200,4.935478271484375,-0.42604026198387146,-0.7233060002326965,0.121685691177845
1667825055834486300,4.945486328125,-0.6070385575294495,-0.7569215297698975,-0.11720652133226395
1667825055844493000,4.9554931640625,-0.761368453502655,-0.7705763578414917,-0.3264843821525574
1667825055854501000,4.965501220703125,-0.8669816851615906,-0.7891196608543396,-0.500007152557373
1667825055864508200,4.975508056640625,-0.9180179834365845,-0.8307874798774719,-0.6431110501289368
1667825055874516200,4.98551611328125,-0.918358325958252,-0.8755919933319092,-0.7588171362876892
1667825055884524000,4.99552392578125,-0.8706709742546082,-0.9036483764648438,-0.8637747168540955
1667825055894531300,5.00553125,-0.7842404842376709,-0.9175170660018921,-0.93418949842453
1667825055904539100,5.0155390625,-0.6852632761001587,-0.9073427319526672,-0.9858015775680542
1667825055914546200,5.025546142578125,-0.5893521904945374,-0.866502583026886,-1.0279823541641235
1667825055924554000,5.035553955078125,-0.4925609529018402,-0.8168588876724243,-1.0856014490127563
1667825055934562300,5.045562255859375,-0.41243496537208557,-0.7463521957397461,-1.1779416799545288
1667825055944569000,5.055569091796875,-0.35520389676094055,-0.6912591457366943,-1.299475073814392
1667825055954577200,5.0655771484375,-0.3495960831642151,-0.6652283668518066,-1.4245864152908325
1667825055964584200,5.075584228515625,-0.4037432074546814,-0.639797568321228,-1.5209113359451294
1667825055974592300,5.08559228515625,-0.4951799213886261,-0.6191676259040833,-1.564659595489502
1667825055984600000,5.09560009765625,-0.6018105149269104,-0.5902441143989563,-1.5433231592178345
1667825055994607000,5.105607177734375,-0.7009645104408264,-0.5129722356796265,-1.4299558401107788
1667825056004615200,5.115615234375,-0.7672410011291504,-0.41119179129600525,-1.2307881116867065
1667825056014622200,5.125622314453125,-0.7968473434448242,-0.30955466628074646,-0.9710454940795898
1667825056024630000,5.135630126953125,-0.7974372506141663,-0.23671694099903107,-0.6918889880180359
1667825056034638000,5.14563818359375,-0.7579702734947205,-0.20344500243663788,-0.4326622188091278
1667825056044645000,5.15564501953125,-0.6960850358009338,-0.19612610340118408,-0.22173133492469788
1667825056054653200,5.165653076171875,-0.6510134339332581,-0.1996108442544937,-0.06618354469537735
1667825056064660000,5.175659912109375,-0.6371607780456543,-0.17659901082515717,0.030791468918323517
1667825056074668300,5.185668212890625,-0.6569980978965759,-0.1113547533750534,0.085233673453331
1667825056084676400,5.19567626953125,-0.6931949853897095,-0.017967814579606056,0.10906017571687698
1667825056094683100,5.20568310546875,-0.7336686253547668,0.08218301832675934,0.11012677103281021
1667825056104691200,5.215691162109375,-0.7759652137756348,0.14738120138645172,0.08448878675699234
1667825056114698200,5.2256982421875,-0.8129493594169617,0.165534108877182,0.024386832490563393
1667825056124706300,5.235706298828125,-0.8451773524284363,0.15520796179771423,-0.06561469286680222
1667825056134714000,5.245714111328125,-0.8703327775001526,0.13174951076507568,-0.16784866154193878
1667825056144721200,5.25572119140625,-0.880477786064148,0.10109279304742813,-0.28471988439559937
1667825056154729200,5.265729248046875,-0.8747586607933044,0.060441773384809494,-0.40515413880348206
1667825056164736300,5.275736328125,-0.8582260012626648,0.02593732438981533,-0.5246451497077942
1667825056174744000,5.285744140625,-0.8279339075088501,-0.0353393480181694,-0.6194704174995422
1667825056184752000,5.295752197265625,-0.7988644242286682,-0.10161690413951874,-0.6816059947013855
1667825056194759200,5.30575927734375,-0.7643589377403259,-0.15038125216960907,-0.6896167993545532
1667825056204767200,5.315767333984375,-0.7074479460716248,-0.17418484389781952,-0.6321257948875427
1667825056214774000,5.32577392578125,-0.6234428286552429,-0.18697254359722137,-0.5246573686599731
1667825056224782300,5.3357822265625,-0.5174500942230225,-0.20363488793373108,-0.3800051212310791
1667825056234790100,5.3457900390625,-0.39177894592285156,-0.24935948848724365,-0.23174189031124115
1667825056244797200,5.355797119140625,-0.23716780543327332,-0.37940511107444763,-0.1192459687590599
1667825056254805000,5.365804931640625,-0.058096058666706085,-0.5884912014007568,-0.07640422880649567
1667825056264812300,5.375812255859375,0.18092051148414612,-0.8563080430030823,-0.12211232632398605
1667825056274820000,5.385820068359375,0.4593569338321686,-1.1666791439056396,-0.27472904324531555
1667825056284828200,5.395828125,0.7454661726951599,-1.3932585716247559,-0.4981357455253601
1667825056294835200,5.405835205078125,1.0158902406692505,-1.4738279581069946,-0.7184891700744629
1667825056304843300,5.41584326171875,1.2795472145080566,-1.4115887880325317,-0.8881849646568298
1667825056314850000,5.42585009765625,1.5072673559188843,-1.1748872995376587,-0.9249845743179321
1667825056324857900,5.43585791015625,1.6630085706710815,-0.7184489369392395,-0.7936619520187378
1667825056334866000,5.445865966796875,1.767751932144165,-0.18922345340251923,-0.5384001135826111
1667825056344873000,5.455873046875,1.8764592409133911,0.26076287031173706,-0.1752977818250656
1667825056354880800,5.465880859375,2.039533853530884,0.5688884854316711,0.22057712078094482
1667825056364888000,5.47588818359375,2.254431962966919,0.7219893336296082,0.5749689936637878
1667825056374895900,5.485895751953125,2.5030946731567383,0.7703204154968262,0.8613128662109375
1667825056384904000,5.495904052734375,2.7387473583221436,0.6917776465415955,1.0486947298049927
1667825056394910700,5.50591064453125,2.890103340148926,0.5475136637687683,1.1435208320617676
1667825056404918800,5.515918701171875,2.9108352661132812,0.39021727442741394,1.1650607585906982
1667825056414925800,5.52592578125,2.7767720222473145,0.23401835560798645,1.1180613040924072
1667825056424934000,5.535933837890625,2.483135938644409,0.11652341485023499,1.0337656736373901
1667825056434942000,5.54594189453125,2.0629847049713135,0.05937917158007622,0.9298256635665894
1667825056444949000,5.555948974609375,1.5526543855667114,0.06204020231962204,0.8347672820091248
1667825056454957000,5.56595703125,1.020713448524475,0.10688304156064987,0.7701606154441833
1667825056464963800,5.5759638671875,0.5379902124404907,0.14772315323352814,0.739168107509613
1667825056474972000,5.585971923828125,0.14672338962554932,0.155689999461174,0.7677528262138367
1667825056484980000,5.59597998046875,-0.1239810660481453,0.14035604894161224,0.8281202912330627
1667825056494987000,5.605987060546875,-0.2762545049190521,0.09866825491189957,0.8987915515899658
1667825056504994800,5.615994873046875,-0.3303763270378113,0.018205102533102036,0.9702545404434204
1667825056515002000,5.626002197265625,-0.3249772787094116,-0.09120900928974152,1.0452089309692383
1667825056525010000,5.636010009765625,-0.2937636971473694,-0.18224170804023743,1.1197031736373901
1667825056535018000,5.64601806640625,-0.2598837614059448,-0.22526241838932037,1.1622780561447144
1667825056545024800,5.656024658203125,-0.23755823075771332,-0.1867147535085678,1.1755131483078003
1667825056555033000,5.666033203125,-0.23851962387561798,-0.0843963697552681,1.1437983512878418
1667825056565039900,5.676039794921875,-0.2668442130088806,0.07427848875522614,1.0578014850616455
1667825056575048000,5.6860478515625,-0.3098105788230896,0.2686072289943695,0.9337833523750305
1667825056585055000,5.696054931640625,-0.35614851117134094,0.42090994119644165,0.7770875096321106
1667825056595063000,5.70606298828125,-0.39273449778556824,0.5164993405342102,0.5838786363601685
1667825056605070800,5.71607080078125,-0.41953814029693604,0.5578153133392334,0.3632650375366211
1667825056615078000,5.726077880859375,-0.4338656961917877,0.5713969469070435,0.1306576132774353
1667825056625086000,5.7360859375,-0.4439002275466919,0.5856000781059265,-0.08402406424283981
1667825056635094000,5.746093994140625,-0.4481775164604187,0.6237711906433105,-0.24712297320365906
1667825056645100800,5.756100830078125,-0.4548865556716919,0.6867781281471252,-0.34240156412124634
1667825056655108900,5.76610888671875,-0.4581230878829956,0.7774222493171692,-0.3475039005279541
1667825056665116000,5.776115966796875,-0.45414620637893677,0.9070151448249817,-0.2623216211795807
1667825056675124000,5.7861240234375,-0.4307814836502075,1.0564740896224976,-0.0778905376791954
1667825056685131800,5.7961318359375,-0.3904436528682709,1.1556504964828491,0.17362292110919952
1667825056695138800,5.806138916015625,-0.3337199091911316,1.1511950492858887,0.4557829797267914
1667825056705147000,5.81614697265625,-0.253999799489975,1.0698895454406738,0.7398330569267273
1667825056715154000,5.82615380859375,-0.14721128344535828,0.913049578666687,0.9893782138824463
1667825056725161700,5.83616162109375,-0.025243038311600685,0.6725171208381653,1.1876627206802368
1667825056735169800,5.846169677734375,0.08790775388479233,0.359803169965744,1.3189741373062134
1667825056745176800,5.8561767578125,0.15579013526439667,-0.021076522767543793,1.3631736040115356
1667825056755185000,5.866184814453125,0.16812855005264282,-0.4260261356830597,1.283706784248352
1667825056765191700,5.876191650390625,0.1349295824766159,-0.7943724989891052,1.0991175174713135
1667825056775200000,5.886199951171875,0.059833504259586334,-1.0668418407440186,0.8406699299812317
1667825056785208000,5.8962080078125,-0.06757744401693344,-1.2100580930709839,0.5306543111801147
1667825056795214800,5.90621484375,-0.2519214451313019,-1.2131808996200562,0.1956789493560791
1667825056805223000,5.916222900390625,-0.46868571639060974,-1.0926058292388916,-0.13612934947013855
1667825056815230000,5.92622998046875,-0.6824515461921692,-0.9149444103240967,-0.4275859594345093
1667825056825238000,5.936238037109375,-0.8476253151893616,-0.7499171495437622,-0.66424161195755
1667825056835245800,5.946245849609375,-0.9358348250389099,-0.6261669397354126,-0.8402382135391235
1667825056845252900,5.9562529296875,-0.9516614079475403,-0.53229159116745,-0.958328366279602
1667825056855261000,5.966260986328125,-0.8955377340316772,-0.4608014225959778,-1.0352580547332764
1667825056865268000,5.97626806640625,-0.7774786949157715,-0.3892654776573181,-1.055842399597168
1667825056875275800,5.98627587890625,-0.6259171366691589,-0.3178027272224426,-1.0161051750183105
1667825056885283000,5.996282958984375,-0.4626366198062897,-0.2437008023262024,-0.9136887788772583
1667825056895291000,6.006290771484375,-0.29898858070373535,-0.18189603090286255,-0.7641216516494751
1667825056905299000,6.016298828125,-0.16409306228160858,-0.16670562326908112,-0.5853396058082581
1667825056915305700,6.0263056640625,-0.055742889642715454,-0.20937825739383698,-0.4154494106769562
1667825056925314000,6.03631396484375,0.02864948846399784,-0.2984543442726135,-0.2808583080768585
1667825056935320800,6.04632080078125,0.08494392037391663,-0.4364553391933441,-0.18858030438423157
1667825056945329000,6.056328857421875,0.09149130433797836,-0.5886304974555969,-0.15245158970355988
1667825056955336700,6.066336669921875,0.04809695482254028,-0.758235514163971,-0.16406750679016113
1667825056965344000,6.076343994140625,-0.022105835378170013,-0.9230455160140991,-0.21380363404750824
1667825056975351800,6.086351806640625,-0.09733640402555466,-1.0724434852600098,-0.30382752418518066
1667825056985358800,6.09635888671875,-0.19255825877189636,-1.199865698814392,-0.4103526473045349
1667825056995367000,6.106366943359375,-0.2849515676498413,-1.2848907709121704,-0.5519273281097412
1667825057005375000,6.116375,-0.3739112615585327,-1.289255976676941,-0.7000089287757874
1667825057015381800,6.1263818359375,-0.46901488304138184,-1.2293686866760254,-0.8465675115585327
1667825057025389800,6.136389892578125,-0.5661904215812683,-1.1178853511810303,-0.9794613718986511
1667825057035396900,6.14639697265625,-0.6774541139602661,-0.9478475451469421,-1.0837949514389038
1667825057045405000,6.156405029296875,-0.7894578576087952,-0.7580373883247375,-1.1571182012557983
1667825057055413000,6.1664130859375,-0.8895906209945679,-0.5624876022338867,-1.167388677597046
1667825057065420000,6.176419921875,-0.9747962951660156,-0.3641430735588074,-1.1026057004928589
1667825057075428000,6.186427978515625,-1.0276269912719727,-0.17271052300930023,-0.9549331068992615
1667825057085435000,6.196434814453125,-1.0404651165008545,-0.021771075204014778,-0.7480358481407166
1667825057095443000,6.20644287109375,-1.0279319286346436,0.061112355440855026,-0.5152361989021301
1667825057105450800,6.21645068359375,-0.9938104748725891,0.06862673163414001,-0.2938694357872009
1667825057115458000,6.2264580078125,-0.9546721577644348,-0.0022738068364560604,-0.11835407465696335
1667825057125465900,6.2364658203125,-0.9235491156578064,-0.11066712439060211,-0.00481366366147995
1667825057135473000,6.246472900390625,-0.897199273109436,-0.20919929444789886,0.04080229252576828
1667825057145481000,6.25648095703125,-0.879574716091156,-0.27353566884994507,0.007466970942914486
1667825057155489000,6.266489013671875,-0.8723450303077698,-0.2938404083251953,-0.10814084857702255
1667825057165495800,6.276495849609375,-0.8669420480728149,-0.24799728393554688,-0.26203134655952454
1667825057175504000,6.28650390625,-0.8499481081962585,-0.13912193477153778,-0.40606069564819336
1667825057185511000,6.296510986328125,-0.83167564868927,0.019303657114505768,-0.49470987915992737
1667825057195519000,6.30651904296875,-0.8126487135887146,0.22010813653469086,-0.49144935607910156
1667825057205526800,6.31652685546875,-0.7688833475112915,0.4420378804206848,-0.38730430603027344
1667825057215534000,6.3265341796875,-0.676792562007904,0.6530531644821167,-0.1874157041311264
1667825057225542000,6.3365419921875,-0.5269538164138794,0.7615218758583069,0.0709705799818039
1667825057235549000,6.346548828125,-0.3360099792480469,0.75397789478302,0.32664257287979126
1667825057245556700,6.356556640625,-0.11227194964885712,0.6177979707717896,0.538866400718689
1667825057255565000,6.36656494140625,0.15826714038848877,0.3550989627838135,0.6505188941955566
1667825057265571800,6.37657177734375,0.47323787212371826,-0.0029609024059027433,0.6508736610412598
1667825057275580000,6.386579833984375,0.7892695665359497,-0.33489862084388733,0.549323558807373
1667825057285587000,6.3965869140625,1.0768249034881592,-0.5993283987045288,0.3634224236011505
1667825057295595000,6.406594970703125,1.3079657554626465,-0.7743180990219116,0.12072109431028366
1667825057305602800,6.416602783203125,1.4780945777893066,-0.8416827321052551,-0.1337314248085022
1667825057315609900,6.42660986328125,1.568695068359375,-0.7865079045295715,-0.35651499032974243
1667825057325618000,6.436617919921875,1.5906363725662231,-0.5784886479377747,-0.4761849045753479
1667825057335625200,6.446625244140625,1.5662723779678345,-0.2526775300502777,-0.44540703296661377
1667825057345633000,6.456633056640625,1.5528024435043335,0.10735681653022766,-0.2635418772697449
1667825057355641000,6.46664111328125,1.593336820602417,0.36855220794677734,0.0473099909722805
1667825057365648100,6.476648193359375,1.6992586851119995,0.5229425430297852,0.38300570845603943
1667825057375656200,6.48665625,1.8541041612625122,0.5153189897537231,0.6657300591468811
1667825057385663000,6.4966630859375,2.0087335109710693,0.3849990665912628,0.8473800420761108
1667825057395671000,6.506671142578125,2.119879961013794,0.1766541302204132,0.9307998418807983
1667825057405679000,6.51667919921875,2.130119562149048,-0.00902891531586647,0.9480142593383789
1667825057415686100,6.52668603515625,2.0447330474853516,-0.12996119260787964,0.9250684380531311
1667825057425694200,6.536694091796875,1.857385516166687,-0.18916405737400055,0.9086537957191467
1667825057435701200,6.546701171875,1.5862756967544556,-0.19963082671165466,0.9017878770828247
1667825057445709300,6.556709228515625,1.2543257474899292,-0.19661052525043488,0.8922228813171387
1667825057455717000,6.566717041015625,0.8924008011817932,-0.18180549144744873,0.8772079944610596
1667825057465724200,6.57672412109375,0.5491677522659302,-0.1645154505968094,0.8483286499977112
1667825057475732000,6.58673193359375,0.2683638036251068,-0.15248221158981323,0.8051422834396362
1667825057485739300,6.5967392578125,0.07314691692590714,-0.13720153272151947,0.7495565414428711
1667825057495747000,6.6067470703125,-0.04343429207801819,-0.08066581934690475,0.6943787932395935
1667825057505755100,6.616755126953125,-0.10943141579627991,0.030109966173768044,0.6518288850784302
1667825057515762200,6.62676220703125,-0.15305852890014648,0.1489332914352417,0.6379940509796143
1667825057525770200,6.636770263671875,-0.19696632027626038,0.2626577317714691,0.6510137319564819
1667825057535777000,6.646777099609375,-0.24863751232624054,0.3865378499031067,0.6873195171356201
1667825057545785000,6.65678515625,-0.2936718165874481,0.5041006803512573,0.7108932733535767
1667825057555793200,6.666793212890625,-0.33356037735939026,0.6317622661590576,0.7247505187988281
1667825057565800200,6.67680029296875,-0.35845455527305603,0.720504105091095,0.6934195160865784
1667825057575808000,6.68680810546875,-0.36216673254966736,0.7362759113311768,0.6182746887207031
1667825057585815300,6.696815185546875,-0.35823458433151245,0.6986880302429199,0.4868631362915039
1667825057595823000,6.706822998046875,-0.34312567114830017,0.6636248230934143,0.3136444687843323
1667825057605831200,6.7168310546875,-0.32330963015556335,0.6481660008430481,0.13589099049568176
1667825057615838000,6.726837890625,-0.3166133761405945,0.688529372215271,-0.004473578184843063
1667825057625846300,6.73684619140625,-0.3344205915927887,0.7950089573860168,-0.08060003817081451
1667825057635853000,6.74685302734375,-0.368726909160614,0.9417930841445923,-0.07895153760910034
1667825057645861000,6.756861083984375,-0.4031834006309509,1.1091376543045044,0.005179848056286573
1667825057655869000,6.766868896484375,-0.4059584140777588,1.2425942420959473,0.15263774991035461
1667825057665876200,6.776876220703125,-0.3837953209877014,1.2970430850982666,0.3276713490486145
1667825057675884000,6.786884033203125,-0.3419472277164459,1.2702019214630127,0.508834719657898
1667825057685891000,6.79689111328125,-0.27876877784729004,1.193096399307251,0.6856873035430908
1667825057695899100,6.806899169921875,-0.1985975205898285,1.0964332818984985,0.8459722995758057
1667825057705907200,6.8169072265625,-0.10836588591337204,1.0084270238876343,0.9780057072639465
1667825057715914000,6.8269140625,-0.03672179579734802,0.8934617638587952,1.0655707120895386
1667825057725922000,6.836922119140625,-0.00202293717302382,0.7685848474502563,1.097672939300537
1667825057735929000,6.84692919921875,0.01871350035071373,0.6124237179756165,1.048309087753296
1667825057745937200,6.856937255859375,0.022245118394494057,0.45073947310447693,0.9124993681907654
1667825057755945200,6.8669453125,0.01543701346963644,0.30530691146850586,0.703464925289154
1667825057765952000,6.876951904296875,-0.011753861792385578,0.17876921594142914,0.4550846815109253
1667825057775960300,6.886960205078125,-0.06720220297574997,0.0748385563492775,0.1795564442873001
1667825057785967000,6.896967041015625,-0.1401757448911667,-0.00893570389598608,-0.12031123042106628
1667825057795975200,6.90697509765625,-0.21346168220043182,-0.04645485058426857,-0.41763824224472046
1667825057805983000,6.91698291015625,-0.25356224179267883,-0.04174211993813515,-0.6775110960006714
1667825057815990300,6.926990234375,-0.2562536299228668,0.009494967758655548,-0.8710768222808838
1667825057825998000,6.936998046875,-0.22821879386901855,0.10142036527395248,-0.9811652898788452
1667825057836005000,6.947005126953125,-0.18934036791324615,0.19668829441070557,-0.9900618195533752
1667825057846013200,6.95701318359375,-0.1319178193807602,0.27753761410713196,-0.897577702999115
1667825057856020200,6.967020263671875,-0.05404059961438179,0.3234856426715851,-0.7441279292106628
1667825057866028000,6.977028076171875,0.03621845692396164,0.2971328794956207,-0.5743958950042725
1667825057876036000,6.9870361328125,0.11480221897363663,0.18228192627429962,-0.4080921411514282
1667825057886043100,6.997043212890625,0.1670915186405182,-0.006684267893433571,-0.2807059586048126
1667825057896051200,7.00705126953125,0.18382762372493744,-0.20847225189208984,-0.1963506042957306
1667825057906059000,7.01705908203125,0.16765157878398895,-0.37068939208984375,-0.14176778495311737
1667825057916066000,7.027066162109375,0.11194304376840591,-0.47753462195396423,-0.11419901251792908
1667825057926074000,7.03707421875,0.02623213641345501,-0.5408248901367188,-0.11383522301912308
1667825057936081200,7.0470810546875,-0.0664389431476593,-0.5846743583679199,-0.13666702806949615
1667825057946089000,7.0570888671875,-0.15664100646972656,-0.6300082802772522,-0.19655513763427734
1667825057956096300,7.06709619140625,-0.22327622771263123,-0.669840931892395,-0.29309552907943726
1667825057966104000,7.07710400390625,-0.28533294796943665,-0.6944307088851929,-0.4226132929325104
1667825057976112000,7.087112060546875,-0.3444002568721771,-0.6963852047920227,-0.565761923789978
1667825057986119000,7.097118896484375,-0.41208741068840027,-0.6697418689727783,-0.7003607749938965
1667825057996127200,7.107127197265625,-0.4853150248527527,-0.6080971360206604,-0.8163489103317261
1667825058006134000,7.117134033203125,-0.5698221921920776,-0.5074621438980103,-0.8926244974136353
1667825058016142000,7.12714208984375,-0.6645865440368652,-0.3958999216556549,-0.9125518202781677
1667825058026150100,7.137150146484375,-0.7609849572181702,-0.3031263053417206,-0.8617400527000427
1667825058036157200,7.1471572265625,-0.8432002067565918,-0.2424725592136383,-0.7647490501403809
1667825058046165200,7.157165283203125,-0.8987298011779785,-0.22104822099208832,-0.6469420194625854
1667825058056172000,7.167172119140625,-0.9253144860267639,-0.23219701647758484,-0.5344926714897156
1667825058066180400,7.177180419921875,-0.926645815372467,-0.2558368444442749,-0.4445574879646301
1667825058076188200,7.187188232421875,-0.9021199941635132,-0.29249951243400574,-0.3861554265022278
1667825058086195200,7.1971953125,-0.8656178712844849,-0.3335942029953003,-0.36396676301956177
1667825058096203000,7.207203125,-0.8298450112342834,-0.3665529489517212,-0.36487969756126404
1667825058106210300,7.217210205078125,-0.7868740558624268,-0.4119630455970764,-0.392713725566864
1667825058116218000,7.227218017578125,-0.763605535030365,-0.49968278408050537,-0.44534337520599365
1667825058126226200,7.23722607421875,-0.7674146294593811,-0.5837369561195374,-0.5073846578598022
1667825058136233200,7.247233154296875,-0.7893385887145996,-0.6521647572517395,-0.5879293084144592
1667825058146241300,7.2572412109375,-0.8051031231880188,-0.6700404286384583,-0.6925435662269592
1667825058156248000,7.267248046875,-0.8061609864234924,-0.6135321259498596,-0.7876754403114319
1667825058166256000,7.277256103515625,-0.7929913401603699,-0.49234336614608765,-0.8396353125572205
1667825058176264000,7.287263916015625,-0.7636710405349731,-0.35287097096443176,-0.8323922753334045
1667825058186271200,7.297271240234375,-0.7149626016616821,-0.21678850054740906,-0.742613673210144
1667825058196279000,7.307279052734375,-0.6271265149116516,-0.0982392206788063,-0.573982834815979
1667825058206286000,7.3172861328125,-0.493617981672287,-0.040456078946590424,-0.376651406288147
1667825058216294100,7.327294189453125,-0.3161451816558838,-0.09753188490867615,-0.1954648345708847
1667825058226302200,7.33730224609375,-0.08294548094272614,-0.26229819655418396,-0.10246378928422928
1667825058236309000,7.34730908203125,0.212699756026268,-0.45461809635162354,-0.1140671819448471
1667825058246317000,7.357317138671875,0.5367236137390137,-0.6024366021156311,-0.2015640139579773
1667825058256324000,7.367323974609375,0.838412880897522,-0.6317974328994751,-0.3211500644683838
1667825058266332200,7.377332275390625,1.093415379524231,-0.579215943813324,-0.42872339487075806
1667825058276340000,7.387340087890625,1.3008711338043213,-0.467057466506958,-0.5005909204483032
1667825058286347300,7.39734716796875,1.4548348188400269,-0.2884661555290222,-0.4957285225391388
1667825058296355000,7.40735498046875,1.5530647039413452,-0.013055081479251385,-0.37489718198776245
1667825058306362000,7.417362060546875,1.6197278499603271,0.31184205412864685,-0.13744601607322693
1667825058316370000,7.427369873046875,1.6961212158203125,0.5490415692329407,0.1638307422399521
1667825058326377200,7.437377197265625,1.8262346982955933,0.6402982473373413,0.4586629271507263
1667825058336384000,7.447384033203125,1.986452341079712,0.5837284326553345,0.6965774893760681
1667825058346392000,7.45739208984375,2.1370930671691895,0.45087531208992004,0.8490759134292603
1667825058356399000,7.467399169921875,2.2401340007781982,0.30238914489746094,0.9194084405899048
1667825058366407200,7.4774072265625,2.2479641437530518,0.15640798211097717,0.9199591875076294
1667825058376415000,7.4874150390625,2.1298298835754395,0.03310175985097885,0.872769832611084
1667825058386422300,7.49742236328125,1.8697699308395386,-0.073447585105896,0.7881028652191162
1667825058396430000,7.50743017578125,1.50228750705719,-0.11421685665845871,0.6881725192070007
1667825058406437000,7.51743701171875,1.0702860355377197,-0.0614822693169117,0.6116977334022522
1667825058416445000,7.52744482421875,0.6509223580360413,0.025067802518606186,0.5841150879859924
1667825058426453000,7.537452880859375,0.30537882447242737,0.06961449980735779,0.603337287902832
1667825058436460000,7.5474599609375,0.06066387891769409,0.07195035368204117,0.6629404425621033
1667825058446468000,7.557468017578125,-0.07603324949741364,0.05131645128130913,0.7323471903800964
1667825058456475100,7.56747509765625,-0.13148505985736847,0.030768832191824913,0.7930305004119873
1667825058466483200,7.577483154296875,-0.12726661562919617,0.02526620775461197,0.8457192778587341
1667825058476491300,7.5874912109375,-0.09864188730716705,0.02575995773077011,0.8789515495300293
1667825058486498000,7.597498046875,-0.07769639045000076,0.056353554129600525,0.9017015695571899
1667825058496506000,7.607506103515625,-0.07719571888446808,0.12956757843494415,0.9068422913551331
1667825058506513200,7.61751318359375,-0.09910953789949417,0.24448591470718384,0.8910492062568665
1667825058516521200,7.627521240234375,-0.14159680902957916,0.39284422993659973,0.8524472117424011
1667825058526529000,7.637529052734375,-0.17306019365787506,0.5295644998550415,0.791553795337677
1667825058536536300,7.647536376953125,-0.19220353662967682,0.624046802520752,0.7206245064735413
1667825058546544000,7.657544189453125,-0.1997823566198349,0.6663191914558411,0.6458051204681396
1667825058556551200,7.66755126953125,-0.2043086588382721,0.6609747409820557,0.5594773888587952
1667825058566559000,7.67755908203125,-0.20413076877593994,0.6133459806442261,0.4560988247394562
1667825058576567300,7.6875673828125,-0.21502043306827545,0.5656026601791382,0.34282392263412476
1667825058586574000,7.697573974609375,-0.24698475003242493,0.5625674724578857,0.2278459519147873
1667825058596582100,7.70758203125,-0.3043556213378906,0.6072220206260681,0.13366298377513885
1667825058606589200,7.717589111328125,-0.3755866587162018,0.6767313480377197,0.06954365968704224
1667825058616597200,7.72759716796875,-0.4500787556171417,0.7424304485321045,0.029747774824500084
1667825058626605000,7.73760498046875,-0.5081777572631836,0.7927383780479431,0.027786623686552048
1667825058636612000,7.747612060546875,-0.5412158370018005,0.8430867791175842,0.05576286464929581
1667825058646620200,7.7576201171875,-0.5475030541419983,0.8813217282295227,0.11747390031814575
1667825058656627200,7.767627197265625,-0.5277668833732605,0.9127545356750488,0.2191254198551178
1667825058666635000,7.777635009765625,-0.48352140188217163,0.9348710179328918,0.3623235821723938
1667825058676643000,7.78764306640625,-0.41940099000930786,0.921637237071991,0.5261234641075134
1667825058686650000,7.797650146484375,-0.34772467613220215,0.8705543279647827,0.7059952020645142
1667825058696658200,7.807658203125,-0.2816745638847351,0.789837658405304,0.8969321250915527
1667825058706665000,7.8176650390625,-0.22306664288043976,0.6935214996337891,1.0724395513534546
1667825058716673000,7.827673095703125,-0.1762607842683792,0.5797155499458313,1.22580087184906
1667825058726681300,7.837681396484375,-0.12569241225719452,0.4467897415161133,1.3375049829483032
1667825058736688000,7.847688232421875,-0.07043661922216415,0.2772100269794464,1.3741354942321777
1667825058746696000,7.857696044921875,-0.01008246187120676,0.07633897662162781,1.3204901218414307
1667825058756703200,7.867703125,0.0421714223921299,-0.1300663948059082,1.1692906618118286
1667825058766711000,7.8777109375,0.06660406291484833,-0.3242760896682739,0.9353679418563843
1667825058776719000,7.887718994140625,0.04489743337035179,-0.4647618234157562,0.6414902806282043
1667825058786726000,7.897725830078125,-0.033968351781368256,-0.5525164604187012,0.3155728578567505
1667825058796734200,7.907734130859375,-0.17211024463176727,-0.5970362424850464,-0.01996784843504429
1667825058806741000,7.917740966796875,-0.35560789704322815,-0.5829470753669739,-0.3123190104961395
1667825058816749000,7.9277490234375,-0.5570307374000549,-0.5054032802581787,-0.5373614430427551
1667825058826757000,7.937757080078125,-0.7178513407707214,-0.422299861907959,-0.6909651160240173
1667825058836764200,7.94776416015625,-0.7975935935974121,-0.37251976132392883,-0.7681014537811279
1667825058846772200,7.957772216796875,-0.7956028580665588,-0.3620258569717407,-0.7807930111885071
1667825058856780000,7.967780029296875,-0.7255145907402039,-0.4072415232658386,-0.7548375725746155
1667825058866787000,7.977787109375,-0.6237536072731018,-0.4823557138442993,-0.7085614204406738
1667825058876795100,7.987795166015625,-0.5065404176712036,-0.5718474984169006,-0.6465702056884766
1667825058886802200,7.99780224609375,-0.3802027404308319,-0.6605163812637329,-0.5943834781646729
1667825058896810000,8.00781005859375,-0.2693028450012207,-0.7336603999137878,-0.5651768445968628
1667825058906818000,8.017818115234375,-0.19552023708820343,-0.7613149285316467,-0.5776292681694031
1667825058916825000,8.0278251953125,-0.16047543287277222,-0.7677294015884399,-0.6372457146644592
1667825058926833200,8.037833251953124,-0.13936588168144226,-0.7665709257125854,-0.7387510538101196
1667825058936840000,8.04783984375,-0.12658803164958954,-0.7543896436691284,-0.8812807202339172
1667825058946848300,8.05784814453125,-0.11765046417713165,-0.736933708190918,-1.0460715293884277
1667825058956855000,8.06785498046875,-0.10114233195781708,-0.7157836556434631,-1.1816916465759277
1667825058966863000,8.077863037109376,-0.07368593662977219,-0.6841687560081482,-1.2775352001190186
1667825058976871000,8.087870849609375,-0.03964221850037575,-0.6607151031494141,-1.3087631464004517
1667825058986878200,8.097878173828125,-0.017647702246904373,-0.6475891470909119,-1.2859808206558228
1667825058996886000,8.107885986328125,-0.0024343954864889383,-0.6112189292907715,-1.2114554643630981
1667825059006893000,8.11789306640625,0.007430485915392637,-0.5455448031425476,-1.0649802684783936
1667825059016901000,8.127901123046875,0.01967356912791729,-0.4616592228412628,-0.8672959804534912
1667825059026909200,8.1379091796875,0.026975691318511963,-0.3489918112754822,-0.6257917284965515
1667825059036916000,8.147916015625,0.027897411957383156,-0.26193681359291077,-0.3811934292316437
1667825059046924000,8.157924072265626,0.00920441746711731,-0.20755505561828613,-0.1654912233352661
1667825059056931000,8.16793115234375,-0.02359028160572052,-0.18378154933452606,-0.017374729737639427
1667825059066939100,8.177939208984375,-0.0728723406791687,-0.14629249274730682,0.07966979593038559
1667825059076947200,8.187947265625,-0.14906299114227295,-0.11197739839553833,0.150966614484787
1667825059086954200,8.197954345703126,-0.24190637469291687,-0.07423961162567139,0.21490831673145294
1667825059096962300,8.20796240234375,-0.3333105742931366,-0.03469965606927872,0.27739670872688293
1667825059106969000,8.217968994140625,-0.4062793254852295,-0.017236510291695595,0.31618085503578186
1667825059116977200,8.22797705078125,-0.4499370753765106,-0.012443087063729763,0.3213393986225128
1667825059126985000,8.23798486328125,-0.4663013815879822,-0.0006593986763618886,0.29195836186408997
1667825059136992300,8.2479921875,-0.4706905484199524,0.0004420847399160266,0.23608790338039398
1667825059147000000,8.258,-0.4693523049354553,0.00481446273624897,0.1654755175113678
1667825059157008100,8.268008056640625,-0.4658145606517792,0.023028619587421417,0.06876920908689499
1667825059167015200,8.27801513671875,-0.47288498282432556,0.05712320655584335,-0.03226659446954727
1667825059177023200,8.288023193359376,-0.48943760991096497,0.11343015730381012,-0.11941348016262054
1667825059187030000,8.298030029296875,-0.5095431208610535,0.16590560972690582,-0.18475013971328735
1667825059197038000,8.3080380859375,-0.5208272337913513,0.1933247148990631,-0.22798176109790802
1667825059207045000,8.318045166015626,-0.5257610082626343,0.2018044888973236,-0.2517020106315613
1667825059217053200,8.32805322265625,-0.5213174819946289,0.21043366193771362,-0.2715018093585968
1667825059227061000,8.33806103515625,-0.5036271810531616,0.2140883207321167,-0.2860051095485687
1667825059237068300,8.348068359375,-0.47185489535331726,0.23656539618968964,-0.30166903138160706
1667825059247076000,8.358076171875,-0.4231637716293335,0.2681252062320709,-0.3063197135925293
1667825059257084200,8.368084228515626,-0.3568209707736969,0.3072555363178253,-0.28620246052742004
1667825059267091000,8.378091064453125,-0.2690272033214569,0.3415658473968506,-0.2307426631450653
1667825059277099000,8.38809912109375,-0.15712358057498932,0.337496280670166,-0.1512363851070404
1667825059287106000,8.39810595703125,-0.019421368837356567,0.2580251395702362,-0.08860470354557037
1667825059297114000,8.408114013671875,0.13317270576953888,0.12806369364261627,-0.059181831777095795
1667825059307122200,8.4181220703125,0.30712586641311646,-0.007173757068812847,-0.08790615200996399
1667825059317129200,8.428129150390625,0.49324139952659607,-0.1177801638841629,-0.14496996998786926
1667825059327137300,8.43813720703125,0.6658350229263306,-0.17496594786643982,-0.2039177119731903
1667825059337148700,8.448148681640625,0.8260366916656494,-0.16677087545394897,-0.23590654134750366
1667825059347156500,8.458156494140624,0.9805868268013,-0.10354103893041611,-0.22109723091125488
1667825059357164500,8.46816455078125,1.1375921964645386,-0.027296602725982666,-0.14740702509880066
1667825059367171600,8.478171630859375,1.299323320388794,0.03200080990791321,0.004397145472466946
1667825059377179600,8.4881796875,1.4709813594818115,0.039089612662792206,0.23403513431549072
1667825059387186400,8.4981865234375,1.6467310190200806,-0.03540007025003433,0.5341123938560486
1667825059397194500,8.508194580078126,1.8273258209228516,-0.17567595839500427,0.8679785132408142
1667825059407202800,8.518202880859375,2.01017427444458,-0.3640629053115845,1.1810482740402222
1667825059417209600,8.528209716796875,2.17875075340271,-0.5705516338348389,1.4186859130859375
1667825059427217700,8.5382177734375,2.327503204345703,-0.7650470733642578,1.5550658702850342
1667825059437224700,8.548224609375,2.4179375171661377,-0.9164459109306335,1.6122462749481201
1667825059447232800,8.558232666015625,2.4180715084075928,-0.9898114800453186,1.5988903045654297
1667825059457240600,8.568240478515625,2.2987923622131348,-1.0068690776824951,1.5340667963027954
1667825059467247600,8.57824755859375,2.0689380168914795,-0.9827940464019775,1.4119030237197876
1667825059477255700,8.588255615234376,1.7518904209136963,-0.8933832049369812,1.2543789148330688
1667825059487262700,8.5982626953125,1.3839631080627441,-0.7877050042152405,1.076006293296814
1667825059497270500,8.6082705078125,1.0064839124679565,-0.6814624667167664,0.8915544152259827
1667825059507278600,8.618278564453124,0.6771073937416077,-0.5799943804740906,0.7187538743019104
1667825059517285600,8.62828564453125,0.4295623004436493,-0.4989520013332367,0.5724288821220398
1667825059527293700,8.638293701171875,0.27503716945648193,-0.43302732706069946,0.4544743001461029
1667825059537300500,8.648300537109375,0.18923890590667725,-0.3680744171142578,0.37178900837898254
1667825059547308800,8.658308837890624,0.14673379063606262,-0.2898898720741272,0.3239051103591919
1667825059557316600,8.668316650390626,0.11316357553005219,-0.18858376145362854,0.3135025203227997
1667825059567323600,8.67832373046875,0.06415501981973648,-0.07419406622648239,0.3262723982334137
1667825059577331500,8.68833154296875,0.000035420041967881843,0.04655525088310242,0.35357511043548584
1667825059587338800,8.6983388671875,-0.06765946745872498,0.1583305150270462,0.3831082284450531
1667825059597346600,8.7083466796875,-0.1330970674753189,0.26776379346847534,0.4199269711971283
1667825059607354600,8.718354736328125,-0.1839115172624588,0.3549745976924896,0.4539235532283783
1667825059617361700,8.728361572265625,-0.220957413315773,0.41456204652786255,0.49036306142807007
1667825059627369700,8.73836962890625,-0.25114381313323975,0.4527600109577179,0.5371803641319275
1667825059637376500,8.74837646484375,-0.2683646082878113,0.46286219358444214,0.6032112836837769
1667825059647384600,8.758384521484375,-0.2808431088924408,0.43946152925491333,0.6658541560173035
1667825059657392400,8.768392333984375,-0.2835363745689392,0.3947893977165222,0.7160488963127136
1667825059667399700,8.778399658203124,-0.28660085797309875,0.3580481708049774,0.7560573220252991
1667825059677407500,8.788407470703126,-0.28916361927986145,0.3367615044116974,0.7874554395675659
1667825059687414500,8.79841455078125,-0.30039817094802856,0.33258992433547974,0.7924163937568665
1667825059697422600,8.808422607421875,-0.31517231464385986,0.3376651108264923,0.7868620753288269
1667825059707430700,8.8184306640625,-0.33479663729667664,0.355095773935318,0.765929639339447
1667825059717437400,8.8284375,-0.3448468744754791,0.3720249533653259,0.7199802398681641
1667825059727445500,8.838445556640625,-0.3523987829685211,0.3730159103870392,0.6315225958824158
1667825059737452500,8.84845263671875,-0.3451118469238281,0.36148709058761597,0.5072693228721619
1667825059747460600,8.858460693359374,-0.31622615456581116,0.3283421993255615,0.36121705174446106
1667825059757468700,8.86846875,-0.2872040867805481,0.27056410908699036,0.19556310772895813
1667825059767475700,8.878475830078125,-0.2670586109161377,0.25770023465156555,0.040764741599559784
1667825059777483800,8.88848388671875,-0.259937584400177,0.2796279191970825,-0.07824607193470001
1667825059787490600,8.898490478515624,-0.26299646496772766,0.3141542077064514,-0.12179408222436905
1667825059797498600,8.90849853515625,-0.27007967233657837,0.3438689410686493,-0.08010468631982803
1667825059807506700,8.918506591796875,-0.2771373391151428,0.34229689836502075,0.011444135569036007
1667825059817513700,8.928513671875,-0.2653121054172516,0.340861976146698,0.12855024635791779
1667825059827521500,8.938521484375,-0.22916874289512634,0.3300074636936188,0.24982741475105286
1667825059837529600,8.948529541015626,-0.1745012253522873,0.29433682560920715,0.3510882556438446
1667825059847536600,8.95853662109375,-0.10898108035326004,0.22282534837722778,0.41691306233406067
1667825059857544700,8.968544677734375,-0.04032531753182411,0.11559104174375534,0.42404794692993164
1667825059867551500,8.978551513671874,0.021083448082208633,-0.020325511693954468,0.3670256733894348
1667825059877559600,8.9885595703125,0.06773670017719269,-0.17299015820026398,0.24311651289463043
1667825059887567600,8.998567626953125,0.06760460883378983,-0.34818753600120544,0.06017518788576126
1667825059897574700,9.00857470703125,0.03297632560133934,-0.5511313080787659,-0.18645375967025757
1667825059907582500,9.01858251953125,-0.027777569368481636,-0.7410203218460083,-0.5002572536468506
1667825059917589800,9.02858984375,-0.09327242523431778,-0.8401476740837097,-0.8543663024902344
1667825059927597600,9.03859765625,-0.14846749603748322,-0.8349984884262085,-1.217427372932434
1667825059937605600,9.048605712890625,-0.18425239622592926,-0.7446081042289734,-1.5494105815887451
1667825059947612400,9.0586123046875,-0.21342413127422333,-0.5617677569389343,-1.8138145208358765
1667825059957620700,9.068620849609376,-0.23904001712799072,-0.3334437310695648,-1.9841362237930298
1667825059967627500,9.07862744140625,-0.2478039413690567,-0.07499781250953674,-2.036717414855957
1667825059977635600,9.088635498046875,-0.22143545746803284,0.1689663827419281,-1.9757165908813477
1667825059987643600,9.0986435546875,-0.1559765487909317,0.3479097783565521,-1.8235005140304565
1667825059997650700,9.108650634765626,-0.07671927660703659,0.4098530411720276,-1.6035300493240356
1667825060007658800,9.11865869140625,0.002974484581500292,0.341686487197876,-1.346928596496582
1667825060017665500,9.12866552734375,0.07356023788452148,0.18347501754760742,-1.0820649862289429
1667825060027673600,9.138673583984374,0.12812228500843048,-0.013347497209906578,-0.8319757580757141
1667825060037681700,9.148681640625,0.15829695761203766,-0.2088717222213745,-0.6246985197067261
1667825060047688700,9.158688720703125,0.14805923402309418,-0.37082281708717346,-0.4822199046611786
1667825060057696500,9.168696533203125,0.10651525855064392,-0.4964848756790161,-0.3938101530075073
1667825060067703800,9.178703857421874,0.053158294409513474,-0.5687899589538574,-0.37034156918525696
1667825060077711600,9.188711669921876,0.009680057875812054,-0.534980833530426,-0.4052090048789978
1667825060087719700,9.1987197265625,-0.04207981005311012,-0.39862409234046936,-0.45753827691078186
1667825060097726500,9.2087265625,-0.11822570860385895,-0.21171651780605316,-0.5117799043655396
1667825060107734800,9.21873486328125,-0.20503197610378265,-0.004693288821727037,-0.5371540188789368
1667825060117741600,9.228741455078126,-0.28071075677871704,0.168131485581398,-0.5253047943115234
1667825060127749600,9.23874951171875,-0.3316842019557953,0.2764294743537903,-0.48308703303337097
1667825060137757400,9.24875732421875,-0.36597052216529846,0.32263851165771484,-0.41133934259414673
1667825060147764700,9.2587646484375,-0.40372535586357117,0.2909032106399536,-0.31278666853904724
1667825060157772500,9.2687724609375,-0.4417659640312195,0.21915924549102783,-0.19812080264091492
1667825060167779600,9.278779541015625,-0.46391761302948,0.11997194588184357,-0.0793084055185318
1667825060177787600,9.28878759765625,-0.48278743028640747,0.007422496099025011,0.024519991129636765
1667825060187795700,9.298795654296875,-0.5016924142837524,-0.09128836542367935,0.09704798460006714
1667825060197802500,9.308802490234376,-0.5205222964286804,-0.1623830497264862,0.12679150700569153
1667825060207810600,9.318810546875,-0.5268661975860596,-0.19003891944885254,0.10564999282360077
1667825060217817600,9.328817626953125,-0.5372093915939331,-0.19684888422489166,0.03001915104687214
1667825060227825700,9.33882568359375,-0.5599589347839355,-0.21253782510757446,-0.10584547370672226
1667825060237833500,9.34883349609375,-0.5994160175323486,-0.23667246103286743,-0.304361492395401
1667825060247840800,9.3588408203125,-0.675439178943634,-0.24121740460395813,-0.5569114685058594
1667825060257848600,9.3688486328125,-0.7742733359336853,-0.21727293729782104,-0.822931706905365
1667825060267855600,9.378855712890624,-0.8922942280769348,-0.14184235036373138,-1.0765905380249023
1667825060277863400,9.388863525390626,-1.0228288173675537,0.010949320159852505,-1.2865406274795532
1667825060287871500,9.39887158203125,-1.143934965133667,0.22358542680740356,-1.412837266921997
1667825060297878500,9.40887841796875,-1.2211371660232544,0.4652414619922638,-1.4139819145202637
1667825060307886600,9.418886474609375,-1.2224873304367065,0.6611454486846924,-1.2759628295898438
1667825060317893600,9.4288935546875,-1.152504801750183,0.788720428943634,-1.034243106842041
1667825060327901700,9.438901611328125,-0.9995146989822388,0.7828724384307861,-0.7390684485435486
1667825060337905200,9.4489052734375,-0.7676993012428284,0.6164309978485107,-0.4519413709640503
1667825060347912200,9.458912109375,-0.4813549220561981,0.3180687725543976,-0.23046064376831055
1667825060357920300,9.468920166015625,-0.15985943377017975,-0.05837808921933174,-0.09878303855657578
1667825060367927000,9.478927001953124,0.16298864781856537,-0.43872782588005066,-0.04237701743841171
1667825060377935000,9.48893505859375,0.4593082070350647,-0.7327221632003784,-0.045228198170661926
1667825060387943200,9.498943115234376,0.7203062176704407,-0.9617207050323486,-0.09372302889823914
1667825060397950200,9.5089501953125,0.9422908425331116,-1.0811687707901,-0.13827665150165558
1667825060407958300,9.518958251953125,1.135480284690857,-1.0692481994628906,-0.1361304074525833
1667825060417966000,9.528966064453124,1.33197820186615,-0.9304996728897095,-0.06418031454086304
1667825060427973400,9.538973388671875,1.548652172088623,-0.7026750445365906,0.07057616859674454
1667825060437981200,9.548981201171875,1.808146595954895,-0.46590378880500793,0.23053812980651855
1667825060447988200,9.55898828125,2.104825258255005,-0.3141118586063385,0.39779770374298096
1667825060457996000,9.56899609375,2.4091591835021973,-0.23237252235412598,0.5767788887023926
1667825060468004400,9.57900439453125,2.6748034954071045,-0.15456454455852509,0.7260493636131287
1667825060478011100,9.58901123046875,2.8837568759918213,-0.07713739573955536,0.8159366250038147
1667825060488019200,9.599019287109375,3.043365716934204,0.018939869478344917,0.8530650734901428
1667825060498026200,9.609026123046876,3.114290237426758,0.11957087367773056,0.8637930750846863
1667825060508034300,9.619034423828126,3.064328193664551,0.22956688702106476,0.8393825888633728
1667825060518042000,9.6290419921875,2.8912925720214844,0.3399930000305176,0.7992687225341797
1667825060528049200,9.639049072265625,2.6122021675109863,0.43697094917297363,0.7675235271453857
1667825060538057200,9.64905712890625,2.26557993888855,0.49305471777915955,0.7446699142456055
1667825060548064300,9.659064208984375,1.8892991542816162,0.46890968084335327,0.7547289133071899
1667825060558072000,9.669072021484375,1.5306541919708252,0.35851579904556274,0.807096540927887
1667825060568080100,9.679080078125,1.2720301151275635,0.1705554872751236,0.8949587345123291
1667825060578087200,9.689087158203124,1.1079440116882324,-0.0719173327088356,0.9964222311973572
1667825060588095200,9.69909521484375,1.0056320428848267,-0.30746832489967346,1.0979448556900024
1667825060598102000,9.70910205078125,0.9103046655654907,-0.48526710271835327,1.205055594444275
1667825060608110000,9.719110107421875,0.7812033891677856,-0.5680621266365051,1.2801295518875122
1667825060618118100,9.7291181640625,0.6393828988075256,-0.566047191619873,1.3012622594833374
1667825060628125200,9.739125244140626,0.48786208033561707,-0.4666433334350586,1.2645610570907593
1667825060638133000,9.749133056640625,0.33222028613090515,-0.3072291910648346,1.1666549444198608
1667825060648140300,9.759140380859375,0.17230145633220673,-0.14409272372722626,1.0262839794158936
1667825060658148000,9.769148193359374,0.012751481495797634,-0.014852182939648628,0.8519247174263
1667825060668156200,9.77915625,-0.12264149636030197,0.08196890354156494,0.6617867350578308
1667825060678163000,9.789162841796875,-0.2110600471496582,0.15071894228458405,0.48629721999168396
1667825060688171300,9.799171142578125,-0.2488202005624771,0.17250706255435944,0.33274519443511963
1667825060698178000,9.809177978515624,-0.272154301404953,0.16670535504817963,0.20609112083911896
1667825060708186000,9.81918603515625,-0.27901750802993774,0.14620009064674377,0.10073646157979965
1667825060718194200,9.829194091796875,-0.2908640503883362,0.05620255321264267,-0.011471566744148731
1667825060728201200,9.839201171875,-0.3300314247608185,-0.1070215255022049,-0.15270911157131195
1667825060738209300,9.849209228515624,-0.4107832610607147,-0.24257828295230865,-0.3279094398021698
1667825060748216000,9.859216064453125,-0.5320220589637756,-0.2989744544029236,-0.5138734579086304
1667825060758224100,9.86922412109375,-0.6711674332618713,-0.2241358906030655,-0.6425467133522034
1667825060768232200,9.879232177734375,-0.8535513877868652,0.03772047907114029,-0.6676286458969116
1667825060778239200,9.8892392578125,-1.0666799545288086,0.4110330641269684,-0.5805051922798157
1667825060788247000,9.8992470703125,-1.2579811811447144,0.7523150444030762,-0.3993777632713318
1667825060798254300,9.90925439453125,-1.37345290184021,0.9886426329612732,-0.16300703585147858
1667825060808262100,9.91926220703125,-1.4028373956680298,1.0916824340820312,0.06565064936876297
1667825060818270200,9.929270263671874,-1.360898733139038,1.1064773797988892,0.2614491879940033
1667825060828277000,9.939277099609376,-1.27601158618927,1.0822921991348267,0.4491197466850281
1667825060838285300,9.949285400390625,-1.1612045764923096,1.0616915225982666,0.6406792998313904
1667825060848292000,9.9592919921875,-1.0533441305160522,1.0479440689086914,0.8281381726264954
1667825060858300200,9.969300048828124,-0.9731912016868591,1.040886402130127,0.9769521355628967
1667825060868308000,9.979307861328126,-0.9400684237480164,1.0223283767700195,1.087127923965454
1667825060878315300,9.989315185546875,-0.9426674246788025,0.9719323515892029,1.1516855955123901
1667825060888323000,9.999322998046875,-0.9773463010787964,0.8835167288780212,1.1449989080429077
1667825060898330000,10.009330078125,-1.0493416786193848,0.7639264464378357,1.0735492706298828
1667825060908338200,10.019338134765626,-1.1374284029006958,0.6185535192489624,0.9403376579284668
1667825060918346200,10.02934619140625,-1.2334281206130981,0.4438197910785675,0.7579031586647034
1667825060928353000,10.03935302734375,-1.3264374732971191,0.23959048092365265,0.537891149520874
1667825060938361000,10.049361083984374,-1.4189332723617554,-0.00965635571628809,0.28488287329673767
1667825060948368100,10.0593681640625,-1.5097377300262451,-0.3096475899219513,-0.006280798930674791
1667825060958376200,10.069376220703125,-1.583803415298462,-0.6387000679969788,-0.3309345245361328
1667825060968384300,10.07938427734375,-1.6367098093032837,-0.9347756505012512,-0.6780000329017639
1667825060978391300,10.089391357421874,-1.6578865051269531,-1.1550371646881104,-1.0226541757583618
1667825060988399400,10.0993994140625,-1.6530834436416626,-1.3048114776611328,-1.353353500366211
1667825060998406100,10.10940625,-1.6374648809432983,-1.3534083366394043,-1.653056263923645
1667825061008414200,10.119414306640625,-1.6130974292755127,-1.3187265396118164,-1.8971930742263794
1667825061018422000,10.129422119140624,-1.5769644975662231,-1.1375596523284912,-2.0231029987335205
1667825061028429300,10.13942919921875,-1.5216556787490845,-0.8533585667610168,-2.0155911445617676
1667825061038437000,10.14943701171875,-1.4577312469482422,-0.5142574906349182,-1.8918036222457886
1667825061048444200,10.159444091796875,-1.3775866031646729,-0.19346879422664642,-1.6753458976745605
1667825061058452200,10.1694521484375,-1.2467180490493774,0.033722277730703354,-1.422224998474121
1667825061068460300,10.179460205078126,-1.064727544784546,0.07119108736515045,-1.1727581024169922
1667825061078467000,10.189467041015625,-0.859180748462677,-0.04151095822453499,-0.9096343517303467
1667825061088475100,10.19947509765625,-0.6647266149520874,-0.23675395548343658,-0.6222246885299683
1667825061098482200,10.209482177734374,-0.5132097601890564,-0.4512135088443756,-0.3490876853466034
1667825061108490200,10.219490234375,-0.4068588316440582,-0.6392651796340942,-0.11895168572664261
1667825061118498000,10.229498046875,-0.3496967554092407,-0.7850591540336609,0.05432236194610596
1667825061128505300,10.23950537109375,-0.35448938608169556,-0.8647962808609009,0.16393433511257172
1667825061138513200,10.24951318359375,-0.4264559745788574,-0.8850573897361755,0.22241203486919403
1667825061148520200,10.259520263671876,-0.5570970773696899,-0.8455579280853271,0.2450142800807953
1667825061158528000,10.269528076171875,-0.7301013469696045,-0.7808318734169006,0.24537087976932526
1667825061168536000,10.2795361328125,-0.9264378547668457,-0.7041538953781128,0.22898444533348083
1667825061178543000,10.289543212890624,-1.1261684894561768,-0.641904354095459,0.2116406112909317
1667825061188551200,10.29955126953125,-1.2845786809921265,-0.6135899424552917,0.18043315410614014
1667825061198558200,10.30955810546875,-1.3849021196365356,-0.6510720252990723,0.12227584421634674
1667825061208566300,10.319566162109375,-1.4214414358139038,-0.7407736778259277,0.025304291397333145
1667825061218574000,10.329573974609374,-1.4151734113693237,-0.8544600605964661,-0.09953031688928604
1667825061228581000,10.3395810546875,-1.393785834312439,-0.9815570116043091,-0.285197377204895
1667825061238589000,10.3495888671875,-1.367708683013916,-1.0823677778244019,-0.5279274582862854
1667825061248596200,10.35959619140625,-1.3448513746261597,-1.1464698314666748,-0.819942831993103
1667825061258604000,10.36960400390625,-1.3406555652618408,-1.1801981925964355,-1.1684092283248901
1667825061268612000,10.379612060546876,-1.3561558723449707,-1.1915438175201416,-1.5606563091278076
1667825061278619100,10.389619140625,-1.4153223037719727,-1.1455928087234497,-1.9774011373519897
1667825061288627200,10.399627197265625,-1.516390085220337,-0.9861270189285278,-2.3689112663269043
1667825061298634000,10.409634033203124,-1.6466060876846313,-0.6484426856040955,-2.6657509803771973
1667825061308642000,10.41964208984375,-1.7575621604919434,-0.2093351185321808,-2.8082547187805176
1667825061318650400,10.429650390625,-1.820332407951355,0.2125474214553833,-2.7749691009521484
1667825061328657200,10.4396572265625,-1.8081028461456299,0.5668543577194214,-2.585740327835083
1667825061338665700,10.449665771484375,-1.717146873474121,0.776904284954071,-2.3082215785980225
1667825061348672500,10.459672607421876,-1.5440478324890137,0.8125765323638916,-2.0015196800231934
1667825061358680800,10.469680908203125,-1.289119839668274,0.6568289995193481,-1.7174432277679443
1667825061368688600,10.479688720703125,-0.9598314762115479,0.2851552963256836,-1.5178114175796509
1667825061378695700,10.48969580078125,-0.5725333094596863,-0.2210804522037506,-1.438927173614502
1667825061388703500,10.499703369140626,-0.14906936883926392,-0.7859499454498291,-1.4837005138397217
1667825061398710800,10.509710693359375,0.2586382031440735,-1.330485463142395,-1.6589936017990112
1667825061408718600,10.519718505859375,0.5998858213424683,-1.674409031867981,-1.9052361249923706
1667825061418726700,10.5297265625,0.8550454378128052,-1.702884554862976,-2.1144580841064453
1667825061428733700,10.539733642578126,0.9789934754371643,-1.3382408618927002,-2.195779323577881
1667825061438741800,10.54974169921875,0.9612317681312561,-0.5566283464431763,-2.141895294189453
1667825061448748500,10.55974853515625,0.9242056012153625,0.3591427206993103,-1.9790605306625366
1667825061458756600,10.569756591796875,0.991499125957489,1.1887621879577637,-1.7315460443496704
1667825061468764400,10.579764404296874,1.2245643138885498,1.755120038986206,-1.4173465967178345
1667825061478771700,10.589771728515625,1.565043568611145,2.0688936710357666,-1.0873560905456543
1667825061488779500,10.599779541015625,1.9289523363113403,2.213132858276367,-0.7492976784706116
1667825061498786600,10.60978662109375,2.2649006843566895,2.2147934436798096,-0.41385096311569214
1667825061508794600,10.619794677734374,2.5193614959716797,2.1277756690979004,-0.05662732571363449
1667825061518802700,10.629802734375,2.6416544914245605,2.07289981842041,0.3504248559474945
1667825061528809500,10.6398095703125,2.605860710144043,2.0546157360076904,0.7713544964790344
1667825061538817500,10.649817626953125,2.4234960079193115,2.034398317337036,1.1792432069778442
1667825061548824600,10.659824462890626,2.108332395553589,1.9799904823303223,1.5354771614074707
1667825061558832600,10.66983251953125,1.6883628368377686,1.8397740125656128,1.832131028175354
1667825061568840400,10.67984033203125,1.1870404481887817,1.5895226001739502,2.052450656890869
1667825061578847700,10.68984765625,0.6394569277763367,1.252873420715332,2.199448585510254
1667825061588855600,10.69985546875,0.09452437609434128,0.905347466468811,2.2794413566589355
1667825061598862600,10.709862548828125,-0.4053994417190552,0.5855497717857361,2.309453248977661
1667825061608870400,10.719870361328125,-0.8394100069999695,0.34173843264579773,2.318694829940796
1667825061618878700,10.729878662109375,-1.169776201248169,0.14256620407104492,2.3040449619293213
1667825061628885500,10.739885498046876,-1.4114394187927246,-0.029933664947748184,2.2676634788513184
1667825061638893600,10.7498935546875,-1.6082144975662231,-0.13512133061885834,2.2217793464660645
1667825061648900600,10.759900634765625,-1.7754496335983276,-0.15703542530536652,2.1551685333251953
1667825061658908700,10.76990869140625,-1.908117413520813,-0.10943328589200974,2.0553741455078125
1667825061668916700,10.779916748046874,-1.987715482711792,0.02659512497484684,1.933100700378418
1667825061678923500,10.789923583984375,-2.0326414108276367,0.24404248595237732,1.7851752042770386
1667825061688931600,10.799931640625,-2.0410537719726562,0.47432655096054077,1.6115280389785767
1667825061698938600,10.809938720703125,-2.0339949131011963,0.6939374804496765,1.4161521196365356
1667825061708946700,10.81994677734375,-2.0176851749420166,0.9001045227050781,1.1969587802886963
1667825061718954500,10.82995458984375,-1.978603482246399,1.0433002710342407,0.9525485038757324
1667825061728961800,10.8399619140625,-1.9096641540527344,1.0576094388961792,0.6633260250091553
1667825061738969600,10.849969482421875,-1.8362367153167725,0.9324802756309509,0.30004289746284485
1667825061748976600,10.8599765625,-1.802914023399353,0.7636420130729675,-0.11380885541439056
1667825061758984400,10.869984375,-1.8350898027420044,0.6497684121131897,-0.5125546455383301
1667825061768992800,10.87999267578125,-1.94422447681427,0.6658163666725159,-0.8046237826347351
1667825061778999600,10.88999951171875,-2.1211302280426025,0.8232361078262329,-0.9475015997886658
1667825061789007600,10.900007568359374,-2.306809186935425,1.1150377988815308,-0.9215384125709534
1667825061799014700,10.9100146484375,-2.4219934940338135,1.5473285913467407,-0.7226189374923706
1667825061809022700,10.920022705078125,-2.391957998275757,2.1741275787353516,-0.3856441080570221
1667825061819029500,10.930029541015625,-2.274494171142578,2.6515090465545654,-0.08754636347293854
1667825061829037600,10.94003759765625,-2.171035051345825,2.6921961307525635,0.0705263614654541
1667825061839045600,10.950045654296876,-2.073374032974243,2.6464600563049316,0.24962633848190308
1667825061849052700,10.960052734375,-1.9636799097061157,2.6655242443084717,0.49753546714782715
1667825061859060500,10.970060546875,-1.831182837486267,2.6271543502807617,0.7430749535560608
1667825061869067800,10.98006787109375,-1.7010616064071655,2.3837642669677734,0.9410050511360168
1667825061879075600,10.99007568359375,-1.5989570617675781,1.9534062147140503,1.083475947380066
1667825061889083600,11.000083740234375,-1.5391219854354858,1.5100517272949219,1.2203913927078247
1667825061899090400,11.01009033203125,-1.536258339881897,1.0486276149749756,1.356813669204712
1667825061909098800,11.0200986328125,-1.594555139541626,0.5219675898551941,1.4683152437210083
1667825061919106800,11.03010693359375,-1.6878433227539062,0.023059513419866562,1.5671906471252441
1667825061929113600,11.040113525390625,-1.8010066747665405,-0.4055110216140747,1.6657830476760864
1667825061939121700,11.05012158203125,-1.953039288520813,-0.7900840044021606,1.7308698892593384
1667825061949128700,11.060128662109374,-2.1555964946746826,-1.2207653522491455,1.7308634519577026
1667825061959136800,11.07013671875,-2.402251720428467,-1.7255009412765503,1.640586256980896
1667825061969143600,11.0801435546875,-2.681772470474243,-2.228381872177124,1.4282170534133911
1667825061979151600,11.090151611328125,-2.9517147541046143,-2.6566786766052246,1.0805346965789795
1667825061989159700,11.10015966796875,-3.1484408378601074,-2.9538888931274414,0.6571856141090393
1667825061999166700,11.110166748046876,-3.2251343727111816,-3.0540475845336914,0.19992563128471375
1667825062009174500,11.120174560546875,-3.177051305770874,-2.8481838703155518,-0.16774426400661469
1667825062019181800,11.130181884765625,-3.0793302059173584,-2.3300647735595703,-0.4189714193344116
1667825062029189600,11.140189697265624,-3.0362741947174072,-1.6933931112289429,-0.5794865489006042
1667825062039197700,11.15019775390625,-3.135667562484741,-1.0987610816955566,-0.6577739119529724
1667825062049204500,11.16020458984375,-3.4123692512512207,-0.6273909211158752,-0.6781116724014282
1667825062059212800,11.170212890625,-3.7978227138519287,-0.2339717447757721,-0.663413941860199
1667825062069219600,11.180219482421874,-4.06630802154541,0.13791047036647797,-0.6756740808486938
1667825062079227600,11.1902275390625,-4.145864963531494,0.48223695158958435,-0.6874156594276428
1667825062089235500,11.2002353515625,-4.030289649963379,0.7400943040847778,-0.6301577091217041
1667825062099242800,11.21024267578125,-3.758432388305664,0.7993533611297607,-0.5130159258842468
1667825062109250600,11.22025048828125,-3.3849937915802,0.6015763878822327,-0.37609079480171204
1667825062119257600,11.230257568359375,-2.9708240032196045,0.30938154458999634,-0.21594934165477753
1667825062129265700,11.240265625,-2.5811500549316406,0.09427990019321442,-0.023391608148813248
1667825062139273700,11.250273681640625,-2.2770464420318604,-0.014947524294257164,0.18778188526630402
1667825062149280500,11.260280517578124,-2.088878631591797,-0.03526211529970169,0.39612922072410583
1667825062159288600,11.27028857421875,-2.0018508434295654,-0.04568120092153549,0.6002064347267151
1667825062169295600,11.280295654296875,-1.976365089416504,-0.10330082476139069,0.7958675622940063
1667825062179303700,11.2903037109375,-1.9700156450271606,-0.21558421850204468,0.9999032616615295
1667825062189311500,11.3003115234375,-1.9506843090057373,-0.34391236305236816,1.2162411212921143
1667825062199318500,11.310318603515626,-1.9156303405761719,-0.47201547026634216,1.4031798839569092
1667825062209326600,11.32032666015625,-1.8403841257095337,-0.49474582076072693,1.5096418857574463
1667825062219333600,11.330333740234375,-1.7358300685882568,-0.5871391296386719,1.5908195972442627
1667825062229341400,11.340341552734374,-1.6235923767089844,-0.6499340534210205,1.653560757637024
1667825062239349500,11.350349609375,-1.5691784620285034,-0.6139212250709534,1.5608086585998535
1667825062249356500,11.3603564453125,-1.5816463232040405,-0.5997713208198547,1.4853674173355103
1667825062259364600,11.370364501953125,-1.578196406364441,-0.6128972172737122,1.4257917404174805
1667825062269371400,11.380371337890624,-1.5726608037948608,-0.5307480096817017,1.3268859386444092
1667825062279379700,11.390379638671876,-1.5749177932739258,-0.4003109335899353,1.2049996852874756
1667825062289387800,11.4003876953125,-1.5765042304992676,-0.3026922345161438,1.0748555660247803
1667825062299394600,11.41039453125,-1.5641006231307983,-0.22503258287906647,0.916105329990387
1667825062309402600,11.420402587890624,-1.5297192335128784,-0.1550401896238327,0.7341975569725037
1667825062319409700,11.43040966796875,-1.4872997999191284,-0.10590539127588272,0.5415391325950623
1667825062329417700,11.440417724609375,-1.4337974786758423,-0.110450878739357,0.3609994649887085
1667825062339425800,11.45042578125,-1.3763834238052368,-0.15681065618991852,0.21163874864578247
1667825062349432800,11.460432861328124,-1.3171193599700928,-0.20389480888843536,0.10357512533664703
1667825062359441000,11.47044091796875,-1.26063072681427,-0.211937814950943,0.0508384145796299
1667825062369447700,11.48044775390625,-1.2092591524124146,-0.17469671368598938,0.046965911984443665
1667825062379455700,11.490455810546875,-1.1652767658233643,-0.14965660870075226,0.08842946588993073
1667825062389463600,11.500463623046874,-1.1177090406417847,-0.14787867665290833,0.16452635824680328
1667825062399470800,11.510470947265626,-1.07989501953125,-0.20520295202732086,0.2575058341026306
1667825062409478700,11.520478759765625,-1.0659587383270264,-0.3449419438838959,0.34320929646492004
1667825062419485700,11.530485595703125,-1.0737290382385254,-0.5218527913093567,0.4125731885433197
1667825062429493800,11.54049365234375,-1.1113464832305908,-0.6904362440109253,0.46177536249160767
1667825062439501800,11.550501708984376,-1.1889290809631348,-0.8432888984680176,0.47108522057533264
1667825062449508600,11.560508544921875,-1.2537131309509277,-0.9730961322784424,0.4630659222602844
1667825062459516700,11.5705166015625,-1.2646174430847168,-1.015562891960144,0.453201025724411
1667825062469523700,11.580523681640624,-1.2392910718917847,-0.9595502614974976,0.46334049105644226
1667825062479531800,11.59053173828125,-1.2174291610717773,-0.8442881107330322,0.48795396089553833
1667825062489538600,11.60053857421875,-1.2081818580627441,-0.6883395314216614,0.5258978605270386
1667825062499547000,11.610546875,-1.2064080238342285,-0.5040479898452759,0.5680360198020935
1667825062509555000,11.620554931640624,-1.197425365447998,-0.34126412868499756,0.5922430753707886
1667825062519561700,11.630561767578126,-1.1771068572998047,-0.23732785880565643,0.5743240118026733
1667825062529569800,11.64056982421875,-1.1665675640106201,-0.20705437660217285,0.5397146344184875
1667825062539576800,11.650576904296875,-1.1590559482574463,-0.21320335566997528,0.49027198553085327
1667825062549585000,11.6605849609375,-1.1525665521621704,-0.22882120311260223,0.444568395614624
1667825062559592700,11.6705927734375,-1.140317678451538,-0.2527206838130951,0.3939931094646454
1667825062569599700,11.680599853515625,-1.127922773361206,-0.28189319372177124,0.34154561161994934
1667825062579607800,11.69060791015625,-1.1247352361679077,-0.31078025698661804,0.2826841473579407
1667825062589614800,11.70061474609375,-1.1416093111038208,-0.35652828216552734,0.21265581250190735
1667825062599622700,11.71062255859375,-1.1856003999710083,-0.4350518584251404,0.11987580358982086
1667825062609630700,11.720630615234375,-1.2358742952346802,-0.5248347520828247,0.009104815311729908
1667825062619637800,11.7306376953125,-1.2884799242019653,-0.625076949596405,-0.09951061010360718
1667825062629645800,11.740645751953124,-1.3216639757156372,-0.7184803485870361,-0.21316607296466827
1667825062639652600,11.750652587890626,-1.331112027168274,-0.7907764315605164,-0.32815656065940857
1667825062649661000,11.760660888671875,-1.3091132640838623,-0.8147944211959839,-0.41763293743133545
1667825062659668700,11.770668701171875,-1.2659459114074707,-0.7795045971870422,-0.4822441339492798
1667825062669675800,11.78067578125,-1.2195026874542236,-0.6516752243041992,-0.5379281640052795
1667825062679683600,11.79068359375,-1.1645028591156006,-0.44659772515296936,-0.5614004731178284
1667825062689691000,11.80069091796875,-1.1196414232254028,-0.2579471170902252,-0.5637246370315552
1667825062699698700,11.81069873046875,-1.0824517011642456,-0.10448326915502548,-0.5200559496879578
1667825062709706800,11.820706787109375,-1.0930007696151733,0.012375975959002972,-0.2929740846157074
1667825062719713800,11.8307138671875,-1.1069482564926147,-0.38207173347473145,-0.11297795176506042
1667825062729721900,11.840721923828125,-1.0526155233383179,-0.8242297172546387,0.032164592295885086
1667825062739728600,11.850728759765625,-0.9649170637130737,-1.2272552251815796,0.11162719875574112
1667825062749736700,11.86073681640625,-0.9155492186546326,-1.4098072052001953,0.14902544021606445
1667825062759744800,11.870744873046876,-0.9302922487258911,-1.4113112688064575,0.11540462076663971
1667825062769751800,11.880751708984375,-0.9852129817008972,-1.3281594514846802,-0.0010673949727788568
1667825062779759900,11.890759765625,-1.0463253259658813,-1.2057794332504272,-0.1453995406627655
1667825062789767000,11.900766845703124,-1.0550600290298462,-1.022741436958313,-0.21273064613342285
