time,seconds_elapsed,z,y,x
1667266586157187000,0.07118701171875,-0.09338327497243881,-0.1358371526002884,-0.17920731008052826
1667266586159585000,0.0735849609375,-0.1080436110496521,-0.11873343586921692,-0.17126630246639252
1667266586161982700,0.075982666015625,-0.120871402323246,-0.10101886838674545,-0.16637952625751495
1667266586164380700,0.078380615234375,-0.1349208950996399,-0.08086090534925461,-0.159660205245018
1667266586166778400,0.0807783203125,-0.14408360421657562,-0.06070294603705406,-0.15477342903614044
1667266586169176000,0.083176025390625,-0.15263545513153076,-0.041766680777072906,-0.15110833942890167
1667266586171574000,0.085573974609375,-0.15752223134040833,-0.02283041551709175,-0.1456107199192047
1667266586173971700,0.0879716796875,-0.1617981642484665,-0.002061609411612153,-0.14072394371032715
1667266586176369700,0.09036962890625,-0.16546325385570526,0.016874656081199646,-0.1346154659986496
1667266586178767400,0.092767333984375,-0.16424155235290527,0.0358109213411808,-0.12911784648895264
1667266586181165300,0.095165283203125,-0.16301986575126648,0.05474718660116196,-0.12362021207809448
1667266586183563000,0.09756298828125,-0.1587439328432083,0.07062921673059464,-0.11873343586921692
1667266586185961000,0.0999609375,-0.15630054473876953,0.08590039610862732,-0.11690089106559753
1667266586188358700,0.102358642578125,-0.14958122372627258,0.09628479927778244,-0.11323580890893936
1667266586190756400,0.10475634765625,-0.14102935791015625,0.10422581434249878,-0.11262496560811996
1667266586193154300,0.107154296875,-0.1349208950996399,0.11216682940721512,-0.10957072675228119
1667266586195552000,0.109552001953125,-0.12514732778072357,0.12560546398162842,-0.1083490327000618
1667266586197950000,0.111949951171875,-0.11659546941518784,0.13660071790218353,-0.10712733864784241
1667266586200347600,0.11434765625,-0.10437852889299393,0.14881765842437744,-0.10529479384422302
1667266586202745600,0.11674560546875,-0.09399411827325821,0.16042375564575195,-0.10040801763534546
1667266586205143300,0.119143310546875,-0.08055548369884491,0.17080816626548767,-0.09613208472728729
1667266586207541200,0.121541259765625,-0.06711684167385101,0.17630578577518463,-0.09063446521759033
1667266586209939000,0.12393896484375,-0.05428905040025711,0.1811925619840622,-0.08574768155813217
1667266586212336600,0.126336669921875,-0.04146125912666321,0.179360032081604,-0.0814717561006546
1667266586214734600,0.128734619140625,-0.02680092304944992,0.1805817186832428,-0.07536327838897705
1667266586217132300,0.13113232421875,-0.013973130844533443,0.179360032081604,-0.0686439573764801
1667266586219530200,0.1335302734375,-0.0029778804164379835,0.1805817186832428,-0.06070294603705406
1667266586221928000,0.135927978515625,0.004963133949786425,0.18485765159130096,-0.053983625024557114
1667266586224326000,0.138325927734375,0.011071606539189816,0.19035527110099792,-0.04543176665902138
1667266586226723600,0.1407236328125,0.0165692325681448,0.20012883841991425,-0.03749075159430504
1667266586229121300,0.143121337890625,0.01779092662036419,0.20929154753684998,-0.028938889503479004
1667266586231519200,0.145519287109375,0.018401773646473885,0.2208976447582245,-0.01916533336043358
1667266586233917000,0.1479169921875,0.015347537584602833,0.22944949567317963,-0.010613471269607544
1667266586236315000,0.15031494140625,0.011682453565299511,0.23922306299209595,-0.002672456670552492
1667266586238712600,0.152712646484375,0.0067956759594380856,0.2477749139070511,0.005268557462841272
1667266586241110500,0.155110595703125,0.000687203137204051,0.25510507822036743,0.009544488042593002
1667266586243508200,0.15750830078125,-0.007253811229020357,0.2593810260295868,0.01748550310730934
1667266586245906000,0.159906005859375,-0.01763821393251419,0.2593810260295868,0.022372281178832054
1667266586248303900,0.162303955078125,-0.028633465990424156,0.2606027126312256,0.028480753302574158
1667266586250701600,0.16470166015625,-0.03962871432304382,0.2587701678276062,0.031534988433122635
1667266586253099500,0.167099609375,-0.050013117492198944,0.2581593096256256,0.03336753323674202
1667266586255497200,0.169497314453125,-0.06039752438664436,0.2575484812259674,0.03458922728896141
1667266586257895200,0.171895263671875,-0.07078192383050919,0.26365694403648376,0.033978380262851715
1667266586260292900,0.17429296875,-0.08299887180328369,0.2746522128582001,0.03458922728896141
1667266586262690600,0.176690673828125,-0.09093988686800003,0.2850365936756134,0.03336753323674202
1667266586265088500,0.179088623046875,-0.09888090193271637,0.2941993176937103,0.03336753323674202
1667266586267486200,0.181486328125,-0.10376767814159393,0.2996969223022461,0.032756682485342026
1667266586269884200,0.18388427734375,-0.10560022294521332,0.29297763109207153,0.0358109213411808
1667266586272281900,0.18628173828125,-0.10498937219381332,0.2691545784473419,0.03886515647172928
1667266586274679600,0.188679443359375,-0.10193513333797455,0.22761696577072144,0.04619532451033592
1667266586277077500,0.191077392578125,-0.09399411827325821,0.1689756214618683,0.05291464552283287
1667266586279475200,0.19347509765625,-0.08360971510410309,0.09628479927778244,0.059023115783929825
1667266586281873200,0.195873046875,-0.07200361788272858,0.018096350133419037,0.06696412712335587
1667266586284270800,0.198270751953125,-0.059175826609134674,-0.06558972597122192,0.06940752267837524
1667266586286668800,0.200668701171875,-0.04390464723110199,-0.1480541080236435,0.07185091078281403
1667266586289066500,0.20306640625,-0.023746687918901443,-0.22990763187408447,0.07124006003141403
1667266586291464200,0.205464111328125,-0.004199574701488018,-0.3056527078151703,0.06940752267837524
1667266586293862100,0.207862060546875,0.0165692325681448,-0.37467843294143677,0.06146650388836861
1667266586296259800,0.210259765625,0.04100312292575836,-0.4327089190483093,0.05291464552283287
1667266586298657800,0.21265771484375,0.0623827762901783,-0.4847072958946228,0.041919391602277756
1667266586301055500,0.215055419921875,0.08315158635377884,-0.5311316847801208,0.027869906276464462
1667266586303453400,0.217453369140625,0.10636378079652786,-0.569004237651825,0.015042114071547985
1667266586305851100,0.21985107421875,0.1283542811870575,-0.6074876189231873,-0.002672456670552492
1667266586308248800,0.222248779296875,0.15095563232898712,-0.6435275673866272,-0.02160872146487236
1667266586310646800,0.224646728515625,0.17172443866729736,-0.6759024858474731,-0.04115583375096321
1667266586313044500,0.22704443359375,0.19127154350280762,-0.7113316059112549,-0.06070294603705406
1667266586315442400,0.2294423828125,0.20959696173667908,-0.7467607855796814,-0.08269345015287399
1667266586317840100,0.231840087890625,0.22792237997055054,-0.7834116220474243,-0.10651648789644241
1667266586320238000,0.234238037109375,0.2468586415052414,-0.8170081973075867,-0.13095037639141083
1667266586322635800,0.2366357421875,0.26335152983665466,-0.8506048321723938,-0.159660205245018
1667266586325033700,0.23903369140625,0.27740100026130676,-0.8799254894256592,-0.1847049444913864
1667266586327431400,0.241431396484375,0.29083964228630066,-0.9104678630828857,-0.2134147584438324
1667266586329829000,0.2438291015625,0.30183491110801697,-0.930014967918396,-0.24273543059825897
1667266586332227000,0.24622705078125,0.3103867769241333,-0.9483403563499451,-0.26961269974708557
1667266586334624800,0.248624755859375,0.31710609793663025,-0.9593356251716614,-0.29893338680267334
1667266586337022700,0.251022705078125,0.3219928741455078,-0.9691091775894165,-0.32336726784706116
1667266586339420400,0.25342041015625,0.325047105550766,-0.9727742671966553,-0.34963369369506836
1667266586341818400,0.255818359375,0.3238253891468048,-0.9752176403999329,-0.37467843294143677
1667266586344216000,0.258216064453125,0.3201603293418884,-0.9733850955963135,-0.3997231721878052
1667266586346614000,0.260614013671875,0.3146626949310303,-0.9678874611854553,-0.4247679114341736
1667266586349011700,0.26301171875,0.3079433739185333,-0.9587247967720032,-0.4492017924785614
1667266586351409400,0.265409423828125,0.299391508102417,-0.9458969831466675,-0.46813806891441345
1667266586353807400,0.267807373046875,0.2877854108810425,-0.9263498783111572,-0.4882960319519043
1667266586356205000,0.270205078125,0.27740100026130676,-0.9031376838684082,-0.5066214203834534
1667266586358603000,0.27260302734375,0.26762744784355164,-0.8750386834144592,-0.5225034952163696
1667266586361000700,0.275000732421875,0.2554105222225189,-0.8420529365539551,-0.5353312492370605
1667266586363398700,0.277398681640625,0.24380441009998322,-0.8054021000862122,-0.5469373464584351
1667266586365796400,0.27979638671875,0.2340308576822281,-0.7595885396003723,-0.5554892420768738
1667266586368194000,0.282194091796875,0.22364644706249237,-0.7107207775115967,-0.5622085332870483
1667266586370592000,0.284592041015625,0.21142950654029846,-0.6587987542152405,-0.5652627944946289
1667266586372989700,0.28698974609375,0.19982340931892395,-0.6001574397087097,-0.5658736228942871
1667266586375387600,0.2893876953125,0.18699561059474945,-0.5378510355949402,-0.5609868764877319
1667266586377785300,0.291785400390625,0.17783290147781372,-0.4712686538696289,-0.5530458092689514
1667266586380183000,0.29418310546875,0.16317257285118103,-0.40277740359306335,-0.5457156896591187
1667266586382581000,0.2965810546875,0.15034478902816772,-0.3337516784667969,-0.5316661596298218
1667266586384978700,0.298978759765625,0.13751699030399323,-0.2653367817401886,-0.5163949728012085
1667266586387376600,0.301376708984375,0.12346750497817993,-0.19142426550388336,-0.4980695843696594
1667266586389774300,0.3037744140625,0.11125055700540543,-0.1211768239736557,-0.475468248128891
1667266586392172300,0.30617236328125,0.09475768357515335,-0.053983625024557114,-0.449812650680542
1667266586394570000,0.308570068359375,0.08254073560237885,0.011377030052244663,-0.4211028218269348
1667266586396967700,0.3109677734375,0.07032378762960434,0.07429429888725281,-0.39117130637168884
1667266586399365600,0.31336572265625,0.05566345527768135,0.13171394169330597,-0.3575747013092041
1667266586401763300,0.315763427734375,0.04222481697797775,0.18791188299655914,-0.32519981265068054
1667266586404161300,0.318161376953125,0.02695363573729992,0.23922306299209595,-0.28488388657569885
1667266586406559000,0.32055908203125,0.012904148548841476,0.28992336988449097,-0.24762220680713654
1667266586408957000,0.32295703125,-0.0011453386396169662,0.334515243768692,-0.20669543743133545
1667266586411354600,0.325354736328125,-0.014583977870643139,0.3760528564453125,-0.16393613815307617
1667266586413752300,0.32775244140625,-0.030466007068753242,0.4157579243183136,-0.11934428662061691
1667266586416150300,0.330150390625,-0.04390464723110199,0.44752198457717896,-0.07291989028453827
1667266586418548000,0.3325478515625,-0.059175826609134674,0.47317755222320557,-0.028938889503479004
1667266586420946000,0.33494580078125,-0.07261446863412857,0.49028128385543823,0.01626380905508995
1667266586423343600,0.337343505859375,-0.08422056585550308,0.5006656646728516,0.06085565686225891
1667266586425741600,0.339741455078125,-0.0946049690246582,0.502498209476471,0.10544750839471817
1667266586428139300,0.34213916015625,-0.10498937219381332,0.49883314967155457,0.14759597182273865
1667266586430537000,0.344536865234375,-0.11293038725852966,0.48661619424819946,0.18791188299655914
1667266586432935000,0.346934814453125,-0.1220930963754654,0.4676799178123474,0.22578442096710205
1667266586435332600,0.34933251953125,-0.12636902928352356,0.44813281297683716,0.2618243992328644
1667266586437730600,0.35173046875,-0.13125580549240112,0.4163687527179718,0.2990860939025879
1667266586440128300,0.354128173828125,-0.1330883502960205,0.38155046105384827,0.33268269896507263
1667266586442526200,0.356526123046875,-0.1349208950996399,0.34184539318084717,0.3650575876235962
1667266586444924000,0.358923828125,-0.1336991935968399,0.2941993176937103,0.39376741647720337
1667266586447321600,0.361321533203125,-0.1336991935968399,0.24288813769817352,0.41942301392555237
1667266586449719600,0.363719482421875,-0.12759071588516235,0.18424680829048157,0.4438568949699402
1667266586452117200,0.3661171875,-0.12026055157184601,0.1139993667602539,0.4701233208179474
1667266586454515200,0.36851513671875,-0.10926530510187149,0.03703261539340019,0.493946373462677
1667266586456913000,0.370912841796875,-0.09827005118131638,-0.038101598620414734,0.5134934782981873
1667266586459310800,0.373310791015625,-0.08483141660690308,-0.11018157750368118,0.5312080383300781
1667266586461708500,0.37570849609375,-0.06772769242525101,-0.18165069818496704,0.5452575087547302
1667266586464106200,0.378106201171875,-0.05123481526970863,-0.2537306845188141,0.5531985759735107
1667266586466504200,0.380504150390625,-0.03352024406194687,-0.32642149925231934,0.5580853223800659
1667266586468902000,0.38290185546875,-0.012140588834881783,-0.3960580825805664,0.5586961507797241
1667266586471299800,0.3852998046875,0.0067956759594380856,-0.46699273586273193,0.5525876879692078
1667266586473697500,0.387697509765625,0.024510245770215988,-0.5335750579833984,0.5477009415626526
1667266586476095500,0.390095458984375,0.04405735805630684,-0.5977140665054321,0.5324297547340393
1667266586478493200,0.3924931640625,0.06116108223795891,-0.6557445526123047,0.5153260231018066
1667266586480891100,0.39489111328125,0.07765395939350128,-0.7107207775115967,0.4933355152606964
1667266586483288800,0.397288818359375,0.09353598952293396,-0.7620319724082947,0.4701233208179474
1667266586485686500,0.3996865234375,0.10697462409734726,-0.8084563612937927,0.4395809471607208
1667266586488084500,0.40208447265625,0.11613733321428299,-0.8506048321723938,0.41026028990745544
1667266586490482200,0.404482177734375,0.12407834827899933,-0.8890882134437561,0.3772745430469513
1667266586492880100,0.406880126953125,0.13201937079429626,-0.9232956171035767,0.3406237065792084
1667266586495277800,0.40927783203125,0.13690614700317383,-0.948951244354248,0.3009186387062073
1667266586497675800,0.41167578125,0.13812783360481262,-0.9739959836006165,0.26243525743484497
1667266586500073500,0.414073486328125,0.13873867690563202,-0.9898779988288879,0.22334103286266327
1667266586502471200,0.41647119140625,0.1393495351076126,-1.0008732080459595,0.18363595008850098
1667266586504869000,0.418869140625,0.13690614700317383,-1.0057599544525146,0.1414874941110611
1667266586507266800,0.421266845703125,0.13385190069675446,-1.0088142156600952,0.10117157548666
1667266586509664800,0.423664794921875,0.13018682599067688,-1.0069817304611206,0.06390989571809769
1667266586512062500,0.4260625,0.1259108930826187,-1.0020949840545654,0.02542651630938053
1667266586514460400,0.42846044921875,0.12041326612234116,-0.9959864616394043,-0.008780929259955883
1667266586516858000,0.430858154296875,0.11552648991346359,-0.9904888272285461,-0.041766680777072906
1667266586519255800,0.433255859375,0.11186140775680542,-0.9837695360183716,-0.06986565887928009
1667266586521653800,0.43565380859375,0.11186140775680542,-0.9788827300071716,-0.09735377877950668
1667266586524051500,0.438051513671875,0.11308310180902481,-0.9739959836006165,-0.1217876747250557
1667266586526449400,0.440449462890625,0.1149156391620636,-0.9697200059890747,-0.14133478701114655
1667266586528847000,0.44284716796875,0.12041326612234116,-0.9642223715782166,-0.15660595893859863
1667266586531245000,0.4452451171875,0.1277434378862381,-0.9544488191604614,-0.17004460096359253
1667266586533642800,0.447642822265625,0.13568444550037384,-0.9477295279502869,-0.17554223537445068
1667266586536040400,0.45004052734375,0.14790138602256775,-0.9452861547470093,-0.17920731008052826
1667266586538438400,0.4524384765625,0.16195088624954224,-0.9501729011535645,-0.17859646677970886
1667266586540836000,0.454836181640625,0.17416782677173615,-0.9568922519683838,-0.1730988472700119
1667266586543234000,0.457234130859375,0.18760646879673004,-0.9703308939933777,-0.16515782475471497
1667266586545631700,0.4596318359375,0.20043425261974335,-0.9862129092216492,-0.15660595893859863
1667266586548029700,0.46202978515625,0.21448373794555664,-1.0075925588607788,-0.14499986171722412
1667266586550427400,0.464427490234375,0.2321983128786087,-1.0344698429107666,-0.12972868978977203
1667266586552825000,0.4668251953125,0.246247798204422,-1.0637905597686768,-0.11567919701337814
1667266586555223000,0.46922314453125,0.26212984323501587,-1.0967762470245361,-0.09857547283172607
1667266586557620700,0.471620849609375,0.27862271666526794,-1.132816195487976,-0.08574768155813217
1667266586560018700,0.474018798828125,0.2969481348991394,-1.1639693975448608,-0.07353074103593826
1667266586562416400,0.47641650390625,0.31588438153266907,-1.1993986368179321,-0.060092099010944366
1667266586564814300,0.478814453125,0.3366532027721405,-1.230551838874817,-0.04787515476346016
1667266586567212000,0.4812119140625,0.3610870838165283,-1.258039951324463,-0.03626905754208565
1667266586569609700,0.483609619140625,0.38491013646125793,-1.2855280637741089,-0.025273805484175682
1667266586572007700,0.486007568359375,0.41056570410728455,-1.3099619150161743,-0.012446013279259205
1667266586574405400,0.4884052734375,0.43499961495399475,-1.336228370666504,0.0022143214009702206
1667266586576803300,0.49080322265625,0.46309858560562134,-1.3588297367095947,0.018096350133419037
1667266586579201000,0.493200927734375,0.4911975562572479,-1.3838744163513184,0.033978380262851715
1667266586581598700,0.4955986328125,0.5247941613197327,-1.4125843048095703,0.053525492548942566
1667266586583996700,0.49799658203125,0.559001624584198,-1.4474025964736938,0.07307260483503342
1667266586586394400,0.500394287109375,0.5980958342552185,-1.4791666269302368,0.09200886636972427
1667266586588792300,0.502792236328125,0.6390225887298584,-1.5176500082015991,0.1146102175116539
1667266586591190000,0.50518994140625,0.6811710596084595,-1.559187650680542,0.13415732979774475
1667266586593588000,0.507587890625,0.7233195304870605,-1.601336121559143,0.15187190473079681
1667266586595985700,0.509985595703125,0.766689658164978,-1.6410411596298218,0.1671430766582489
1667266586598383400,0.51238330078125,0.8094489574432373,-1.683800458908081,0.1799708753824234
1667266586600781300,0.51478125,0.8467106819152832,-1.7222838401794434,0.18669019639492035
1667266586603179000,0.517178955078125,0.8809180855751038,-1.7595455646514893,0.18669019639492035
1667266586605577000,0.519576904296875,0.9102387428283691,-1.7968071699142456,0.17752748727798462
1667266586607974700,0.521974609375,0.9316184520721436,-1.8297929763793945,0.1653105467557907
1667266586610372600,0.52437255859375,0.9462787508964539,-1.858502745628357,0.14393088221549988
1667266586612770300,0.526770263671875,0.9511655569076538,-1.8835475444793701,0.1139993667602539
1667266586615168000,0.52916796875,0.9487221240997314,-1.901872992515564,0.07795938104391098
1667266586617566000,0.53156591796875,0.9358943700790405,-1.9189766645431519,0.03703261539340019
1667266586619963600,0.533963623046875,0.9132930040359497,-1.9244742393493652,-0.009391776286065578
1667266586622361600,0.536361572265625,0.8815289735794067,-1.91958749294281,-0.06253548711538315
1667266586624759300,0.53875927734375,0.8430455923080444,-1.9030946493148804,-0.11873343586921692
1667266586627157200,0.5411572265625,0.7935669422149658,-1.8725522756576538,-0.17981816828250885
1667266586629555000,0.543554931640625,0.7404232621192932,-1.8279603719711304,-0.2402920424938202
1667266586631952600,0.54595263671875,0.6793385148048401,-1.7680974006652832,-0.3038201630115509
1667266586634350600,0.5483505859375,0.6133670210838318,-1.6960173845291138,-0.36551573872566223
1667266586636748300,0.550748291015625,0.5418978929519653,-1.6068336963653564,-0.4247679114341736
1667266586639146200,0.553146240234375,0.4667636752128601,-1.5023788213729858,-0.4791333079338074
1667266586641544000,0.5555439453125,0.3897969126701355,-1.3814311027526855,-0.523725152015686
1667266586643942000,0.55794189453125,0.3103867769241333,-1.2500989437103271,-0.5615977048873901
1667266586646339600,0.560339599609375,0.22914408147335052,-1.1089931726455688,-0.5829773545265198
1667266586648737300,0.5627373046875,0.14912308752536774,-0.9611681699752808,-0.5970268249511719
1667266586651135200,0.56513525390625,0.07154548168182373,-0.804791271686554,-0.5945834517478943
1667266586653533000,0.567532958984375,-0.004810422193259001,-0.6441384553909302,-0.575036346912384
1667266586655931000,0.569930908203125,-0.07750124484300613,-0.48104220628738403,-0.5396072268486023
1667266586658328600,0.57232861328125,-0.1459161341190338,-0.317869633436203,-0.49196112155914307
1667266586660726500,0.5747265625,-0.20944425463676453,-0.15538427233695984,-0.4357631504535675
1667266586663124200,0.577124267578125,-0.2656421959400177,0.0028251686599105597,-0.36429402232170105
1667266586665522200,0.579522216796875,-0.31825143098831177,0.1543152928352356,-0.28549474477767944
1667266586667920000,0.581919921875,-0.3640649616718292,0.3009186387062073,-0.19508934020996094
1667266586670317600,0.584317626953125,-0.4049917459487915,0.4463002681732178,-0.09918632358312607
1667266586672715500,0.586715576171875,-0.4434750974178314,0.5849626064300537,0.00038177953683771193
1667266586675113200,0.58911328125,-0.469741553068161,0.7205706834793091,0.10728005319833755
1667266586677511200,0.59151123046875,-0.497229665517807,0.8500702977180481,0.21540001034736633
1667266586679908900,0.593908935546875,-0.5137225389480591,0.9710180759429932,0.3253525197505951
1667266586682306800,0.596306884765625,-0.527161180973053,1.0828031301498413,0.43408334255218506
1667266586684704500,0.59870458984375,-0.5375455617904663,1.1854255199432373,0.5415924787521362
1667266586687102200,0.601102294921875,-0.5454866290092468,1.26972234249115,0.6454364657402039
1667266586689500200,0.603500244140625,-0.5485408306121826,1.3424131870269775,0.7432484030723572
1667266586691897900,0.60589794921875,-0.550373375415802,1.3980003595352173,0.8379297256469727
1667266586694295800,0.6082958984375,-0.5509842038154602,1.4340403079986572,0.9265025854110718
1667266586696693500,0.610693603515625,-0.5497625470161438,1.448089838027954,1.0089669227600098
1667266586699091500,0.613091552734375,-0.5467082858085632,1.4364837408065796,1.0816577672958374
1667266586701489200,0.6154892578125,-0.5424323678016663,1.401665449142456,1.145796775817871
1667266586703886800,0.617886962890625,-0.5387672781944275,1.3448566198349,1.2032164335250854
1667266586706284800,0.620284912109375,-0.5344913601875305,1.2709441184997559,1.2484190464019775
1667266586708682500,0.6226826171875,-0.5289937257766724,1.1805386543273926,1.283237338066101
1667266586711080400,0.62508056640625,-0.5259394645690918,1.0809705257415771,1.3088929653167725
1667266586713478100,0.62747802734375,-0.5222744345664978,0.9716289043426514,1.3229424953460693
1667266586715876000,0.6298759765625,-0.5210527181625366,0.8598438501358032,1.3272184133529663
1667266586718273800,0.632273681640625,-0.517998456954956,0.7437828779220581,1.3211098909378052
1667266586720671500,0.63467138671875,-0.5149442553520203,0.6228351593017578,1.3082821369171143
1667266586723069400,0.6370693359375,-0.5082249045372009,0.4792860448360443,1.3027844429016113
1667266586725467100,0.639467041015625,-0.5027272701263428,0.3406237065792084,1.2911783456802368
1667266586727865000,0.641864990234375,-0.4953971207141876,0.22273017466068268,1.2722420692443848
1667266586730262800,0.6442626953125,-0.48806697130203247,0.12194038182497025,1.2435322999954224
1667266586732660700,0.64666064453125,-0.47890424728393555,0.03336753323674202,1.2062705755233765
1667266586735058400,0.649058349609375,-0.46485477685928345,-0.040544986724853516,1.1653438806533813
1667266586737456000,0.6514560546875,-0.45019441843032837,-0.1077381819486618,1.1146435737609863
1667266586739854000,0.65385400390625,-0.43736663460731506,-0.16882291436195374,1.0602781772613525
1667266586742251800,0.656251708984375,-0.42392799258232117,-0.2262425571680069,0.9998042583465576
1667266586744649700,0.658649658203125,-0.41293275356292725,-0.2799971103668213,0.9411629438400269
1667266586747047400,0.66104736328125,-0.39888325333595276,-0.3343625068664551,0.8776348233222961
1667266586749445400,0.6634453125,-0.38727715611457825,-0.38689538836479187,0.8153283596038818
1667266586751843000,0.665843017578125,-0.3775036036968231,-0.44011545181274414,0.7505785822868347
1667266586754240800,0.66824072265625,-0.3640649616718292,-0.49448084831237793,0.6881957650184631
1667266586756638700,0.670638671875,-0.3573456406593323,-0.5476245880126953,0.63199782371521
1667266586759036400,0.673036376953125,-0.342074453830719,-0.5971031785011292,0.5776324272155762
1667266586761434400,0.675434326171875,-0.3292466700077057,-0.6453601121902466,0.5305972099304199
1667266586763832000,0.67783203125,-0.3164188861846924,-0.6875085830688477,0.49028128385543823
1667266586766229800,0.680229736328125,-0.29862794280052185,-0.7253811359405518,0.4560738205909729
1667266586768627700,0.682627685546875,-0.2796916961669922,-0.7565343379974365,0.4279748499393463
1667266586771025400,0.685025390625,-0.25647950172424316,-0.7785248160362244,0.40781688690185547
1667266586773423400,0.68742333984375,-0.22899135947227478,-0.7931851744651794,0.39621078968048096
1667266586775821000,0.689821044921875,-0.20333577692508698,-0.8029587268829346,0.3925457298755646
1667266586778219000,0.692218994140625,-0.174625962972641,-0.804791271686554,0.39498910307884216
1667266586780616700,0.69461669921875,-0.1459161341190338,-0.8023478984832764,0.4029301106929779
1667266586783014400,0.697014404296875,-0.11659546941518784,-0.799904465675354,0.4182012975215912
1667266586785412400,0.699412353515625,-0.08788564801216125,-0.7925743460655212,0.4389701187610626
1667266586787810000,0.70181005859375,-0.06039752438664436,-0.7828007340431213,0.4670690894126892
1667266586790208000,0.7042080078125,-0.03596363216638565,-0.7705838084220886,0.49761146306991577
1667266586792605700,0.706605712890625,-0.015805672854185104,-0.7608102560043335,0.5330405831336975
1667266586795003600,0.709003662109375,-0.0005344913806766272,-0.7522584199905396,0.572745680809021
1667266586797401300,0.7114013671875,0.011682453565299511,-0.7437065243721008,0.6155049800872803
1667266586799799300,0.71379931640625,0.018401773646473885,-0.7308787703514099,0.6588751077651978
1667266586802197000,0.716197021484375,0.020845163613557816,-0.7241594195365906,0.7028561234474182
1667266586804594700,0.7185947265625,0.022677704691886902,-0.717440128326416,0.7463026642799377
1667266586806992600,0.72099267578125,0.022677704691886902,-0.7088882327079773,0.788451075553894
1667266586809390300,0.723390380859375,0.01779092662036419,-0.7015580534934998,0.8293778896331787
1667266586811788300,0.725788330078125,0.011682453565299511,-0.693617045879364,0.867861270904541
1667266586814186000,0.72818603515625,0.007406522985547781,-0.6826218366622925,0.9057337641716003
1667266586816584000,0.730583984375,0.00007635590736754239,-0.6783458590507507,0.9417737722396851
1667266586818981600,0.732981689453125,-0.009697199799120426,-0.6728482842445374,0.974148690700531
1667266586821379600,0.735379638671875,-0.019470756873488426,-0.6630746722221375,1.005301833152771
1667266586823777300,0.73777734375,-0.027411770075559616,-0.6526902914047241,1.034011721611023
1667266586826175000,0.740175048828125,-0.03901786729693413,-0.638029932975769,1.0669974088668823
1667266586828573000,0.742572998046875,-0.050013117492198944,-0.6264238357543945,1.099372386932373
1667266586830970600,0.744970703125,-0.061619218438863754,-0.6160394549369812,1.1305255889892578
1667266586833368600,0.74736865234375,-0.07505785673856735,-0.6050441861152649,1.1647330522537231
1667266586835766300,0.749766357421875,-0.08666395395994186,-0.5952706336975098,1.2001621723175049
1667266586838164200,0.752164306640625,-0.10010259598493576,-0.5897729992866516,1.2355912923812866
1667266586840562000,0.75456201171875,-0.11231953650712967,-0.5799994468688965,1.2685770988464355
1667266586842959600,0.756959716796875,-0.12514732778072357,-0.569004237651825,1.3040062189102173
1667266586845357600,0.759357666015625,-0.13675342500209808,-0.5580089688301086,1.3369919061660767
1667266586847755300,0.76175537109375,-0.14408360421657562,-0.5470137000083923,1.3718101978302002
1667266586850153200,0.7641533203125,-0.15080291032791138,-0.531742513179779,1.4066284894943237
1667266586852551000,0.766551025390625,-0.15752223134040833,-0.5170822143554688,1.436560034751892
1667266586854948900,0.768948974609375,-0.1605764776468277,-0.4950917065143585,1.4677132368087769
1667266586857346600,0.7713466796875,-0.1624090075492859,-0.4731011986732483,1.495812177658081
1667266586859744300,0.773744140625,-0.16607409715652466,-0.45233240723609924,1.5239112377166748
1667266586862142200,0.77614208984375,-0.16301986575126648,-0.42904382944107056,1.5507885217666626
1667266586864540000,0.778539794921875,-0.1605764776468277,-0.4088858962059021,1.575222373008728
1667266586866937900,0.780937744140625,-0.15752223134040833,-0.3850628435611725,1.6002670526504517
1667266586869335600,0.78333544921875,-0.15324631333351135,-0.36368319392204285,1.6185925006866455
1667266586871733200,0.785733154296875,-0.1465269923210144,-0.3459686040878296,1.6369179487228394
1667266586874131200,0.788131103515625,-0.13675342500209808,-0.32214558124542236,1.6521891355514526
1667266586876529000,0.79052880859375,-0.12697987258434296,-0.29893338680267334,1.6613517999649048
1667266586878926800,0.7929267578125,-0.11903885751962662,-0.2812187969684601,1.6656277179718018
1667266586881324500,0.795324462890625,-0.10437852889299393,-0.264725923538208,1.6686819791793823
1667266586883722500,0.797722412109375,-0.09277242422103882,-0.24823305010795593,1.667460322380066
1667266586886120200,0.8001201171875,-0.0811663269996643,-0.23418356478214264,1.6613517999649048
1667266586888518000,0.802517822265625,-0.06589514762163162,-0.2268534004688263,1.6527999639511108
1667266586890915800,0.804915771484375,-0.054899897426366806,-0.22196662425994873,1.644248127937317
1667266586893313500,0.8073134765625,-0.04146125912666321,-0.2244100123643875,1.6332528591156006
1667266586895711500,0.80971142578125,-0.029855160042643547,-0.23051849007606506,1.6210359334945679
1667266586898109200,0.812109130859375,-0.01763821393251419,-0.23662695288658142,1.608208179473877
1667266586900507100,0.814507080078125,-0.007253811229020357,-0.24640052020549774,1.5904935598373413
1667266586902904800,0.81690478515625,0.000687203137204051,-0.2561740577220917,1.5703356266021729
1667266586905302500,0.819302490234375,0.009239064529538155,-0.264725923538208,1.5501775741577148
1667266586907700500,0.821700439453125,0.018401773646473885,-0.2769428789615631,1.5269653797149658
1667266586910098200,0.82409814453125,0.022066857665777206,-0.28488388657569885,1.5043641328811646
1667266586912496000,0.82649609375,0.030007870867848396,-0.2934357523918152,1.4774868488311768
1667266586914893800,0.828893798828125,0.03489464893937111,-0.29954421520233154,1.4512203931808472
1667266586917291800,0.831291748046875,0.039170581847429276,-0.30931776762008667,1.4237322807312012
1667266586919689500,0.833689453125,0.04283566400408745,-0.3215347230434418,1.3992983102798462
1667266586922087400,0.83608740234375,0.048333290964365005,-0.3331408202648163,1.3736428022384644
1667266586924485000,0.838485107421875,0.05138752609491348,-0.3429143726825714,1.3504306077957153
1667266586926882800,0.8408828125,0.05688514932990074,-0.3575747013092041,1.3284400701522827
1667266586929280800,0.84328076171875,0.06055023521184921,-0.3728458881378174,1.3095037937164307
1667266586931678500,0.845678466796875,0.06665870547294617,-0.3856737017631531,1.2924001216888428
1667266586934076400,0.848076416015625,0.07215633243322372,-0.3985014855861664,1.2777397632598877
1667266586936474000,0.85047412109375,0.07826480269432068,-0.41377267241477966,1.261246919631958
1667266586938872000,0.8528720703125,0.08742751181125641,-0.419881135225296,1.2496408224105835
1667266586941269800,0.855269775390625,0.09720107167959213,-0.4259895980358124,1.2362021207809448
1667266586943667500,0.85766748046875,0.10941801220178604,-0.42660045623779297,1.2245960235595703
1667266586946065400,0.8600654296875,0.12285665422677994,-0.4211028218269348,1.2123790979385376
1667266586948463000,0.862463134765625,0.141182079911232,-0.4094967246055603,1.2001621723175049
1667266586950861000,0.864861083984375,0.16011834144592285,-0.3875062167644501,1.1824475526809692
1667266586953258800,0.8672587890625,0.1814979910850525,-0.36429402232170105,1.1635112762451172
1667266586955656700,0.86965673828125,0.20348849892616272,-0.3429143726825714,1.145185947418213
1667266586958054400,0.872054443359375,0.22425730526447296,-0.32581067085266113,1.1250278949737549
1667266586960452400,0.874452392578125,0.24380441009998322,-0.3190913498401642,1.1091458797454834
1667266586962850000,0.87685009765625,0.26701661944389343,-0.31359371542930603,1.093263864517212
1667266586965247700,0.879247802734375,0.2871745824813843,-0.3148154020309448,1.0786035060882568
1667266586967645700,0.881645751953125,0.30366745591163635,-0.320313036441803,1.0608890056610107
1667266586970043400,0.88404345703125,0.3201603293418884,-0.3313082754611969,1.0480611324310303
1667266586972441300,0.88644140625,0.3348206579685211,-0.34719032049179077,1.0352333784103394
1667266586974839000,0.888839111328125,0.3500918447971344,-0.3716242015361786,1.0217947959899902
1667266586977237000,0.891237060546875,0.3635304868221283,-0.3978906273841858,1.0089669227600098
1667266586979634700,0.893634765625,0.3751365840435028,-0.42660045623779297,0.9961391687393188
1667266586982032400,0.896032470703125,0.38613182306289673,-0.4608842432498932,0.9863656163215637
1667266586984430300,0.898430419921875,0.39529454708099365,-0.49325916171073914,0.9729269742965698
1667266586986828000,0.900828125,0.4038463830947876,-0.5292991399765015,0.9619317054748535
1667266586989226000,0.90322607421875,0.4160633385181427,-0.5671716928482056,0.950325608253479
1667266586991623700,0.905623779296875,0.4270585775375366,-0.6044333577156067,0.9399412274360657
1667266586994021400,0.908021484375,0.43683215975761414,-0.6398624777793884,0.92711341381073
1667266586996419300,0.91041943359375,0.44782739877700806,-0.6752916574478149,0.9167290329933167
1667266586998817000,0.912817138671875,0.4582118093967438,-0.7070556879043579,0.9051229357719421
1667266587001215000,0.915215087890625,0.4698179066181183,-0.7369872331619263,0.895349383354187
1667266587003612700,0.91761279296875,0.4795914590358734,-0.7632536292076111,0.8837432861328125
1667266587006010600,0.9200107421875,0.48936501145362854,-0.7876875400543213,0.8751913905143738
1667266587008408300,0.922408203125,0.4985277056694031,-0.8090671896934509,0.8666395545005798
1667266587010806300,0.92480615234375,0.5083012580871582,-0.8261709213256836,0.8574768304824829
1667266587013204000,0.927203857421875,0.516242265701294,-0.8408312797546387,0.8495358228683472
1667266587015601700,0.9296015625,0.5229616165161133,-0.8530482053756714,0.8415948152542114
1667266587017999600,0.93199951171875,0.5296809077262878,-0.8634325861930847,0.8305995464324951
1667266587020397300,0.934397216796875,0.535789430141449,-0.8683193922042847,0.82082599401474
1667266587022795300,0.936795166015625,0.5412870049476624,-0.8689302206039429,0.8110524415969849
1667266587025193000,0.93919287109375,0.5455629825592041,-0.8670976758003235,0.8000571727752686
1667266587027591000,0.9415908203125,0.5504497289657593,-0.8616000413894653,0.788451075553894
1667266587029988600,0.943988525390625,0.554114818572998,-0.8536590337753296,0.7768449783325195
1667266587032386600,0.946386474609375,0.5577799081802368,-0.8377770185470581,0.7634063363075256
1667266587034784300,0.9487841796875,0.5620558261871338,-0.8139539957046509,0.7487460374832153
1667266587037182000,0.951181884765625,0.5620558261871338,-0.7882983684539795,0.7346965670585632
1667266587039580000,0.953579833984375,0.5651100873947144,-0.7583668828010559,0.7230141162872314
1667266587041977600,0.9559775390625,0.5657209157943726,-0.7284353375434875,0.7095754742622375
1667266587044375600,0.95837548828125,0.5681642889976501,-0.694227933883667,0.6949151158332825
1667266587046773200,0.960773193359375,0.5669426321983337,-0.6606312990188599,0.6820873022079468
1667266587049171200,0.963171142578125,0.5644991993904114,-0.6300889253616333,0.6704812049865723
1667266587051569000,0.96556884765625,0.5651100873947144,-0.5989357233047485,0.6594859957695007
1667266587053966600,0.967966552734375,0.5638883709907532,-0.5696150660514832,0.6484907269477844
1667266587056364500,0.970364501953125,0.562666654586792,-0.540905237197876,0.6387171745300293
1667266587058762200,0.97276220703125,0.5614449977874756,-0.5066977739334106,0.6301652789115906
1667266587061160200,0.97516015625,0.5608341693878174,-0.4749337434768677,0.6228351593017578
1667266587063558000,0.977557861328125,0.558390736579895,-0.44072631001472473,0.6167266368865967
1667266587065955800,0.979955810546875,0.5571690797805786,-0.40338826179504395,0.6075639724731445
1667266587068353500,0.982353515625,0.5565581917762756,-0.36612656712532043,0.6038988828659058
1667266587070751200,0.984751220703125,0.5535039901733398,-0.3325299620628357,0.5996229648590088
1667266587073149200,0.987149169921875,0.5516714453697205,-0.29648998379707336,0.5984012484550476
1667266587075547000,0.989546875,0.5498389005661011,-0.26106083393096924,0.5947361588478088
1667266587077944800,0.99194482421875,0.5467846393585205,-0.22318831086158752,0.5929036140441895
1667266587080342500,0.994342529296875,0.5431195497512817,-0.1871483325958252,0.5910710692405701
1667266587082740500,0.996740478515625,0.539454460144043,-0.15477342903614044,0.5910710692405701
1667266587085138200,0.99913818359375,0.5364002585411072,-0.11995512992143631,0.5910710692405701
1667266587087535900,1.001535888671875,0.530902624130249,-0.08635853230953217,0.5922927856445312
1667266587089933800,1.003933837890625,0.5278483629226685,-0.05215108394622803,0.5916818976402283
1667266587092331500,1.00633154296875,0.5235724449157715,-0.02038702741265297,0.5929036140441895
1667266587094729500,1.0087294921875,0.5180748105049133,0.01382041908800602,0.5935144424438477
1667266587097127200,1.011127197265625,0.5144097208976746,0.04497363045811653,0.5941253304481506
1667266587099525000,1.013525146484375,0.5089121460914612,0.07368344813585281,0.5965687036514282
1667266587101922800,1.0159228515625,0.503414511680603,0.1023932695388794,0.5996229648590088
1667266587104320500,1.018320556640625,0.4979168772697449,0.1268271654844284,0.6038988828659058
1667266587106718500,1.020718505859375,0.4911975562572479,0.14881765842437744,0.6069530844688416
1667266587109116200,1.0231162109375,0.48753246665000916,0.17141900956630707,0.6100073456764221
1667266587111514000,1.02551416015625,0.4832565486431122,0.18852274119853973,0.6124507188796997
1667266587113911800,1.027911865234375,0.4795914590358734,0.20135052502155304,0.6142832636833191
1667266587116309800,1.030309814453125,0.47653722763061523,0.20990239083766937,0.619170069694519
1667266587118707500,1.03270751953125,0.47348299622535706,0.2184542566537857,0.6203917264938354
1667266587121105400,1.03510546875,0.4722612798213959,0.22273017466068268,0.6246677041053772
1667266587123503000,1.037503173828125,0.4722612798213959,0.22700610756874084,0.6252785325050354
1667266587125900800,1.03990087890625,0.4722612798213959,0.23067119717597961,0.6265002489089966
1667266587128298800,1.042298828125,0.47714805603027344,0.23739051818847656,0.6258893609046936
1667266587130696400,1.044696533203125,0.4795914590358734,0.24105559289455414,0.6252785325050354
1667266587133094400,1.047094482421875,0.4832565486431122,0.2471640706062317,0.6222242712974548
1667266587135492000,1.0494921875,0.48753246665000916,0.2569376230239868,0.6216134428977966
1667266587137890000,1.05189013671875,0.4924192428588867,0.26610034704208374,0.6179483532905579
1667266587140287700,1.054287841796875,0.4979168772697449,0.2825932204723358,0.6148941516876221
1667266587142685400,1.056685546875,0.5009710788726807,0.2978644073009491,0.6112290620803833
1667266587145083400,1.05908349609375,0.5064687132835388,0.31680065393447876,0.6069530844688416
1667266587147481000,1.061481201171875,0.5089121460914612,0.34184539318084717,0.5990120768547058
1667266587149879000,1.063879150390625,0.5125772356987,0.37238776683807373,0.5904602408409119
1667266587152276700,1.06627685546875,0.5125772356987,0.40903860330581665,0.5837408900260925
1667266587154674700,1.0686748046875,0.516242265701294,0.4536304473876953,0.577021598815918
1667266587157072400,1.071072265625,0.5156314373016357,0.4970006048679352,0.572745680809021
1667266587159470000,1.073469970703125,0.5168531537055969,0.549533486366272,0.5654155015945435
