time,seconds_elapsed,z,y,x
1667267010516181200,0.09218115234375,0.036039989441633224,0.2602209448814392,0.2620534598827362
1667267010518579000,0.094578857421875,0.04092676565051079,0.3158080279827118,0.2919849753379822
1667267010520976600,0.0969765625,0.04459185153245926,0.36284327507019043,0.31947311758995056
1667267010523374300,0.099374267578125,0.05070032179355621,0.4043808877468109,0.34451785683631897
1667267010525772300,0.101772216796875,0.054365407675504684,0.4343124032020569,0.35978904366493225
1667267010528170000,0.104169921875,0.05986303091049194,0.46302223205566406,0.37261682748794556
1667267010530567700,0.106567626953125,0.06719319522380829,0.4850127100944519,0.3811686933040619
1667267010532965400,0.10896533203125,0.07452336698770523,0.4990622103214264,0.38788801431655884
1667267010535363300,0.11136328125,0.08124268800020218,0.5076140761375427,0.38788801431655884
1667267010537761000,0.113760986328125,0.08979454636573792,0.5131117105484009,0.38483378291130066
1667267010540158700,0.11615869140625,0.09895725548267365,0.5125008225440979,0.3781144618988037
1667267010542556400,0.118556396484375,0.10811996459960938,0.5088357925415039,0.3671191930770874
1667267010544954400,0.120954345703125,0.11911521852016449,0.5021164417266846,0.3561239540576935
1667267010547352000,0.12335205078125,0.12888877093791962,0.49234288930892944,0.337798535823822
1667267010549749800,0.125749755859375,0.13988402485847473,0.4819584786891937,0.31886225938796997
1667267010552147500,0.1281474609375,0.15149012207984924,0.4691306948661804,0.3005368411540985
1667267010554545400,0.13054541015625,0.16492876410484314,0.45324867963790894,0.2773246467113495
1667267010556943000,0.132943115234375,0.17653486132621765,0.4343124032020569,0.2510582208633423
1667267010559340800,0.1353408203125,0.18936264514923096,0.41354358196258545,0.22601348161697388
1667267010561738500,0.137738525390625,0.20096874237060547,0.38849884271621704,0.20219044387340546
1667267010564136400,0.140136474609375,0.21623992919921875,0.3671191930770874,0.17470231652259827
1667267010566534100,0.1425341796875,0.23028941452503204,0.3408527672290802,0.15210096538066864
1667267010568931800,0.144931884765625,0.24128466844558716,0.3133646547794342,0.12583453953266144
1667267010571329500,0.14732958984375,0.25411245226860046,0.284654825925827,0.10201149433851242
1667267010573727500,0.1497275390625,0.265718549489975,0.258999228477478,0.0794101431965828
1667267010576125200,0.152125244140625,0.2767138183116913,0.23090025782585144,0.05619794875383377
1667267010578523000,0.15452294921875,0.2852656841278076,0.20341213047504425,0.033596597611904144
1667267010580920600,0.156920654296875,0.29565006494522095,0.17836740612983704,0.012827792204916477
1667267010583318500,0.159318603515625,0.3029802441596985,0.15026842057704926,-0.00916270911693573
1667267010585716200,0.16171630859375,0.30969956517219543,0.12400199472904205,-0.025655584409832954
1667267010588114000,0.164114013671875,0.314586341381073,0.09590301662683487,-0.042759306728839874
1667267010590511600,0.16651171875,0.3176405727863312,0.07085828483104706,-0.05803048983216286
1667267010592909600,0.16890966796875,0.31947311758995056,0.04214845970273018,-0.06902574002742767
1667267010595307300,0.171307373046875,0.32130566239356995,0.017714571207761765,-0.0794101431965828
1667267010597705000,0.173705078125,0.32191649079322815,-0.0018325417768210173,-0.08674030750989914
1667267010600102700,0.1761025390625,0.3176405727863312,-0.01710372418165207,-0.09407047927379608
1667267010602500600,0.17850048828125,0.3133646547794342,-0.02504473738372326,-0.09773556143045425
1667267010604898300,0.180898193359375,0.30786702036857605,-0.030542362481355667,-0.09956810623407364
1667267010607296000,0.1832958984375,0.2987042963504791,-0.03237490355968475,-0.10262233763933182
1667267010609693700,0.185693603515625,0.2907632887363434,-0.02748812735080719,-0.10262233763933182
1667267010612091600,0.188091552734375,0.27854636311531067,-0.01954711228609085,-0.10140064358711243
1667267010614489300,0.1904892578125,0.26632940769195557,-0.011606098152697086,-0.09834641218185425
1667267010616887000,0.192886962890625,0.2498365342617035,0,-0.09956810623407364
1667267010619284700,0.19528466796875,0.2345653474330902,0.010995250195264816,-0.09651386737823486
1667267010621682400,0.197682373046875,0.21501824259757996,0.022601349279284477,-0.09407047927379608
1667267010624080400,0.200080322265625,0.1973036676645279,0.034818295389413834,-0.09284878522157669
1667267010626478000,0.20247802734375,0.17897824943065643,0.04337015375494957,-0.0922379344701767
1667267010628875800,0.204875732421875,0.15943112969398499,0.04947862774133682,-0.09284878522157669
1667267010631273500,0.2072734375,0.13866232335567474,0.054365407675504684,-0.09529217332601547
1667267010633671400,0.20967138671875,0.12033691257238388,0.05619794875383377,-0.09773556143045425
1667267010636069000,0.212069091796875,0.10201149433851242,0.05619794875383377,-0.10140064358711243
1667267010638466800,0.214466796875,0.08612946420907974,0.05925218388438225,-0.10323318839073181
1667267010640864500,0.216864501953125,0.06841489672660828,0.05803048983216286,-0.10750912129878998
1667267010643262500,0.219262451171875,0.05497625470161438,0.056808795779943466,-0.11178504675626755
1667267010645660200,0.22166015625,0.04214845970273018,0.056808795779943466,-0.11606097966432571
1667267010648057900,0.224057861328125,0.033596597611904144,0.05925218388438225,-0.1185043677687645
1667267010650455600,0.22645556640625,0.02626643143594265,0.062306419014930725,-0.12216944992542267
1667267010652853500,0.228853515625,0.01710372418165207,0.06413896381855011,-0.12766708433628082
1667267010655251200,0.231251220703125,0.015271181240677834,0.06658235192298889,-0.1313321590423584
1667267010657649000,0.23364892578125,0.014049487188458443,0.06780404597520828,-0.13744063675403595
1667267010660046600,0.236046630859375,0.015271181240677834,0.06963659077882767,-0.14049486815929413
1667267010662444500,0.238444580078125,0.017714571207761765,0.06658235192298889,-0.1435490995645523
1667267010664842200,0.24084228515625,0.02076880633831024,0.06413896381855011,-0.14843589067459106
1667267010667240000,0.243239990234375,0.026877280324697495,0.054365407675504684,-0.15210096538066864
1667267010669637600,0.2456376953125,0.033596597611904144,0.04581354558467865,-0.1575985997915268
1667267010672035600,0.24803564453125,0.04153761267662048,0.033596597611904144,-0.16065283119678497
1667267010674433300,0.250433349609375,0.05131116881966591,0.018936265259981155,-0.16737215220928192
1667267010676831000,0.2528310546875,0.05925218388438225,0.004886778071522713,-0.16798299551010132
1667267010679228700,0.255228759765625,0.07146912813186646,-0.009773556143045425,-0.17225892841815948
1667267010681626600,0.257626708984375,0.08429691940546036,-0.023212196305394173,-0.1710372269153595
1667267010684024300,0.2600244140625,0.09651386737823486,-0.03542914241552353,-0.17286977171897888
1667267010686422000,0.262422119140625,0.1056765764951706,-0.045202698558568954,-0.16798299551010132
1667267010688819700,0.26481982421875,0.11667182296514511,-0.05008947476744652,-0.16737215220928192
1667267010691217700,0.2672177734375,0.12705622613430023,-0.051922015845775604,-0.16492876410484314
1667267010693615400,0.269615478515625,0.13682979345321655,-0.05497625470161438,-0.1582094430923462
1667267010696013000,0.272012939453125,0.1453816443681717,-0.055587101727724075,-0.15210096538066864
1667267010698410800,0.27441064453125,0.15332266688346863,-0.05619794875383377,-0.1441599577665329
1667267010700808700,0.27680859375,0.16004198789596558,-0.051922015845775604,-0.13682979345321655
1667267010703206400,0.279206298828125,0.16798299551010132,-0.05131116881966591,-0.1301104724407196
1667267010705604000,0.28160400390625,0.17531315982341766,-0.05070032179355621,-0.12155860662460327
1667267010708001800,0.284001708984375,0.183865025639534,-0.05131116881966591,-0.11606097966432571
1667267010710399700,0.286399658203125,0.18814095854759216,-0.04886778071522713,-0.10934165865182877
1667267010712797400,0.28879736328125,0.1979145109653473,-0.04886778071522713,-0.10262233763933182
1667267010715195100,0.291195068359375,0.20280128717422485,-0.04947862774133682,-0.09712471067905426
1667267010717592800,0.2935927734375,0.2089097648859024,-0.051922015845775604,-0.09040539711713791
1667267010719990800,0.29599072265625,0.21623992919921875,-0.05741964280605316,-0.08551861345767975
1667267010722388500,0.298388427734375,0.2223484069108963,-0.05986303091049194,-0.0794101431965828
1667267010724786200,0.3007861328125,0.22906772792339325,-0.06291726976633072,-0.07513421028852463
1667267010727184000,0.303183837890625,0.2351761907339096,-0.06658235192298889,-0.07085828483104706
1667267010729581800,0.305581787109375,0.24311721324920654,-0.07269082218408585,-0.06780404597520828
1667267010731979500,0.3079794921875,0.2473931461572647,-0.07757759839296341,-0.06780404597520828
1667267010734377200,0.310377197265625,0.25533416867256165,-0.08307522535324097,-0.06413896381855011
1667267010736775000,0.31277490234375,0.2608317732810974,-0.08674030750989914,-0.061084724962711334
1667267010739172900,0.3151728515625,0.26999449729919434,-0.09284878522157669,-0.062306419014930725
1667267010741570600,0.317570556640625,0.2748812735080719,-0.09712471067905426,-0.062306419014930725
1667267010743968300,0.31996826171875,0.28282228112220764,-0.1044548824429512,-0.06291726976633072
1667267010746366000,0.322365966796875,0.2877090573310852,-0.11361759155988693,-0.0653606578707695
1667267010748764000,0.324763916015625,0.291374146938324,-0.12400199472904205,-0.06841489672660828
1667267010751161600,0.32716162109375,0.29748260974884033,-0.13560809195041656,-0.07330167293548584
1667267010753559300,0.329559326171875,0.29748260974884033,-0.1453816443681717,-0.0787992998957634
1667267010755957000,0.33195703125,0.2987042963504791,-0.1557660549879074,-0.08368607610464096
1667267010758355000,0.33435498046875,0.29748260974884033,-0.16187451779842377,-0.09284878522157669
1667267010760752600,0.336752685546875,0.29626092314720154,-0.16553960740566254,-0.10140064358711243
1667267010763150300,0.339150390625,0.29259583353996277,-0.16798299551010132,-0.11117420345544815
1667267010765548000,0.341548095703125,0.2883199155330658,-0.16859383881092072,-0.11972606182098389
1667267010767946000,0.343946044921875,0.28404396772384644,-0.16309621930122375,-0.129499614238739
1667267010770343700,0.34634375,0.28098973631858826,-0.1588202863931656,-0.13988402485847473
1667267010772741400,0.348741455078125,0.2730487287044525,-0.15210096538066864,-0.15210096538066864
1667267010775139000,0.35113916015625,0.26632940769195557,-0.1447708010673523,-0.16187451779842377
1667267010777537000,0.353537109375,0.2638860046863556,-0.13927318155765533,-0.17592400312423706
1667267010779934700,0.355934814453125,0.25777754187583923,-0.13377554714679718,-0.18753011524677277
1667267010782332400,0.35833251953125,0.25350162386894226,-0.1313321590423584,-0.1985253542661667
1667267010784730000,0.360730224609375,0.2510582208633423,-0.12888877093791962,-0.2107423096895218
1667267010787128000,0.363128173828125,0.24556060135364532,-0.1301104724407196,-0.22479179501533508
1667267010789525800,0.36552587890625,0.24189551174640656,-0.1313321590423584,-0.23884128034114838
1667267010791923500,0.36792333984375,0.2363978922367096,-0.1435490995645523,-0.2522799074649811
1667267010794321200,0.370321044921875,0.23212195932865143,-0.1569877415895462,-0.26632940769195557
1667267010796719000,0.372718994140625,0.22906772792339325,-0.17286977171897888,-0.28098973631858826
1667267010799116800,0.37511669921875,0.22601348161697388,-0.19119518995285034,-0.29626092314720154
1667267010801514500,0.377514404296875,0.22051586210727692,-0.21379654109477997,-0.31031039357185364
1667267010803912200,0.379912109375,0.2211267054080963,-0.23823043704032898,-0.3268032968044281
1667267010806310000,0.382309814453125,0.21807247400283813,-0.2638860046863556,-0.3408527672290802
1667267010808707800,0.384707763671875,0.21685077250003815,-0.2877090573310852,-0.35795649886131287
1667267010811105500,0.38710546875,0.21501824259757996,-0.3151971995830536,-0.37506023049354553
1667267010813503200,0.389503173828125,0.21623992919921875,-0.3408527672290802,-0.38788801431655884
1667267010815901000,0.39190087890625,0.21379654109477997,-0.3646758198738098,-0.40132665634155273
1667267010818299000,0.394298828125,0.21562908589839935,-0.38849884271621704,-0.41415444016456604
1667267010820696600,0.396696533203125,0.21440738439559937,-0.41171106696128845,-0.42576053738594055
1667267010823094300,0.39909423828125,0.21501824259757996,-0.43858832120895386,-0.43797749280929565
1667267010825492000,0.401491943359375,0.21318569779396057,-0.4593571424484253,-0.45019441843032837
1667267010827890000,0.403889892578125,0.21257483959197998,-0.4856235682964325,-0.4618005156517029
1667267010830287600,0.40628759765625,0.21196399629116058,-0.5100574493408203,-0.474017471075058
1667267010832685300,0.408685302734375,0.2095206081867218,-0.5369347333908081,-0.4844018816947937
1667267010835083000,0.4110830078125,0.20707722008228302,-0.5668662786483765,-0.49295374751091003
1667267010837481000,0.41348095703125,0.20463383197784424,-0.5955760478973389,-0.5008947253227234
1667267010839878700,0.415878662109375,0.20219044387340546,-0.624896764755249,-0.5100574493408203
1667267010842276400,0.4182763671875,0.20096874237060547,-0.652384877204895,-0.517998456954956
1667267010844674000,0.420674072265625,0.1979145109653473,-0.6786513328552246,-0.5253286361694336
1667267010847072000,0.423072021484375,0.1973036676645279,-0.7012526392936707,-0.53143709897995
1667267010849469700,0.4254697265625,0.19363857805728912,-0.7226322889328003,-0.5369347333908081
1667267010851867400,0.427867431640625,0.19241689145565033,-0.7440119385719299,-0.5424323678016663
1667267010854265000,0.43026513671875,0.19180603325366974,-0.7617265582084656,-0.5467082858085632
1667267010856663000,0.4326630859375,0.19119518995285034,-0.7794411182403564,-0.5515950918197632
1667267010859060700,0.435060791015625,0.19119518995285034,-0.7965448498725891,-0.5564818382263184
1667267010861458400,0.43745849609375,0.19119518995285034,-0.8167027831077576,-0.5601469278335571
1667267010863856000,0.439856201171875,0.19363857805728912,-0.8344173431396484,-0.5650337338447571
1667267010866254000,0.442254150390625,0.1948602795600891,-0.8570187091827393,-0.5674771070480347
1667267010868651800,0.44465185546875,0.1966928243637085,-0.8845068216323853,-0.5717530250549316
1667267010871049500,0.447049560546875,0.20096874237060547,-0.9144383668899536,-0.5748072862625122
1667267010873447200,0.449447265625,0.20524467527866364,-0.9474241137504578,-0.5803049206733704
1667267010875845000,0.45184521484375,0.21257483959197998,-0.9871291518211365,-0.5833591222763062
1667267010878242800,0.454242919921875,0.21562908589839935,-1.0292776823043823,-0.5876350402832031
1667267010880640500,0.456640625,0.22479179501533508,-1.0787562131881714,-0.5894675850868225
1667267010883038200,0.4590380859375,0.23212195932865143,-1.1300674676895142,-0.5943543910980225
1667267010885436200,0.461436279296875,0.2345653474330902,-1.1795459985733032,-0.5900784730911255
1667267010887833900,0.463833740234375,0.21929416060447693,-1.2003148794174194,-0.5760289430618286
1667267010890231600,0.4662314453125,0.182643324136734,-1.159998893737793,-0.5369347333908081
1667267010892629200,0.468629150390625,0.13438639044761658,-1.0891406536102295,-0.4813476502895355
1667267010895027200,0.471027099609375,0.09468132257461548,-1.0537115335464478,-0.4294256269931793
1667267010897425000,0.4734248046875,0.06841489672660828,-1.0720369815826416,-0.395218163728714
1667267010899822600,0.475822509765625,0.053143709897994995,-1.1221264600753784,-0.37200596928596497
1667267010902220300,0.47822021484375,0.05008947476744652,-1.1764918565750122,-0.34940463304519653
1667267010904618200,0.4806181640625,0.05803048983216286,-1.2143644094467163,-0.32313820719718933
1667267010907016000,0.483015869140625,0.06963659077882767,-1.2369656562805176,-0.2883199155330658
1667267010909413600,0.48541357421875,0.08979454636573792,-1.2442958354949951,-0.24433889985084534
1667267010911811300,0.487811279296875,0.11545012891292572,-1.2418525218963623,-0.1960819661617279
1667267010914209300,0.490209228515625,0.1453816443681717,-1.2100883722305298,-0.13927318155765533
1667267010916607000,0.49260693359375,0.17470231652259827,-1.1019684076309204,-0.07085828483104706
1667267010919004700,0.495004638671875,0.20157960057258606,-0.8845068216323853,0.012827792204916477
1667267010921402400,0.49740234375,0.22906772792339325,-0.6413896083831787,0.09345962852239609
1667267010923800300,0.49980029296875,0.27915719151496887,-0.47585001587867737,0.13744063675403595
1667267010926198000,0.502197998046875,0.3506263196468353,-0.3781144618988037,0.13377554714679718
1667267010928595700,0.504595703125,0.4306473135948181,-0.32130566239356995,0.10140064358711243
1667267010930993400,0.506993408203125,0.4960079789161682,-0.3280249834060669,0.061084724962711334
1667267010933391400,0.509391357421875,0.5442649126052856,-0.38727715611457825,0.023212196305394173
1667267010935789000,0.5117890625,0.5803049206733704,-0.4715740978717804,-0.012216945178806782
1667267010938186800,0.514186767578125,0.5986303091049194,-0.5772506594657898,-0.042759306728839874
1667267010940584400,0.51658447265625,0.6047387719154358,-0.6804838180541992,-0.0653606578707695
1667267010942982400,0.518982421875,0.5949652194976807,-0.7647807598114014,-0.07757759839296341
1667267010945380000,0.521380126953125,0.5760289430618286,-0.8203678727149963,-0.08124268800020218
1667267010947777800,0.52377783203125,0.5522059202194214,-0.8356390595436096,-0.07696675509214401
1667267010950175500,0.526175537109375,0.5302154421806335,-0.8222004175186157,-0.07146912813186646
1667267010952573400,0.528573486328125,0.503948986530304,-0.7886037826538086,-0.06352811306715012
1667267010954971100,0.53097119140625,0.47890424728393555,-0.7409577369689941,-0.05864133685827255
1667267010957368800,0.533368896484375,0.45447036623954773,-0.6780404448509216,-0.05864133685827255
1667267010959766500,0.5357666015625,0.4355340898036957,-0.605960488319397,-0.06352811306715012
1667267010962164500,0.53816455078125,0.41537612676620483,-0.5369347333908081,-0.07635590434074402
1667267010964562200,0.540562255859375,0.3939964771270752,-0.4819584786891937,-0.09590301662683487
1667267010966959900,0.5429599609375,0.37383851408958435,-0.4428642690181732,-0.12094775587320328
1667267010969357600,0.545357666015625,0.3524588644504547,-0.4190412163734436,-0.14843589067459106
1667267010971755500,0.547755615234375,0.33169007301330566,-0.4062134325504303,-0.183865025639534
1667267010974153200,0.5501533203125,0.3115321099758148,-0.390942245721817,-0.21868331730365753
1667267010976551000,0.552551025390625,0.29687178134918213,-0.3793361485004425,-0.2596100866794586
1667267010978948600,0.554948486328125,0.28037887811660767,-0.3567348122596741,-0.3005368411540985
1667267010981346600,0.5573466796875,0.26877278089523315,-0.3292466700077057,-0.3396310806274414
1667267010983744300,0.559744140625,0.258999228477478,-0.2980934679508209,-0.3805578351020813
1667267010986142000,0.562141845703125,0.2516690790653229,-0.261442631483078,-0.41537612676620483
1667267010988539600,0.56453955078125,0.24311721324920654,-0.22601348161697388,-0.448361873626709
1667267010990937600,0.5669375,0.2339545041322708,-0.18814095854759216,-0.47707170248031616
1667267010993335300,0.569335205078125,0.2235700935125351,-0.15271180868148804,-0.5045598149299622
1667267010995733000,0.57173291015625,0.2113531529903412,-0.11911521852016449,-0.5234960913658142
1667267010998130700,0.574130615234375,0.1985253542661667,-0.08918370306491852,-0.5387672781944275
1667267011000528600,0.576528564453125,0.1844758689403534,-0.06169557198882103,-0.5467082858085632
1667267011002926300,0.57892626953125,0.1692046970129013,-0.03542914241552353,-0.5509842038154602
1667267011005324000,0.581323974609375,0.1575985997915268,-0.01038440316915512,-0.5485408306121826
1667267011007721700,0.5837216796875,0.14110571146011353,0.016492875292897224,-0.546097457408905
1667267011010119700,0.58611962890625,0.12766708433628082,0.04092676565051079,-0.5381564497947693
1667267011012517400,0.588517333984375,0.11545012891292572,0.062306419014930725,-0.5253286361694336
1667267011014915000,0.5909150390625,0.1044548824429512,0.08185353130102158,-0.5118899941444397
1667267011017312800,0.593312744140625,0.09712471067905426,0.10017894953489304,-0.4960079789161682
1667267011019710700,0.595710693359375,0.08979454636573792,0.10995250940322876,-0.48073679208755493
1667267011022108400,0.5981083984375,0.08307522535324097,0.11483928561210632,-0.4611896872520447
1667267011024506000,0.600506103515625,0.08063183724880219,0.1178935244679451,-0.43981003761291504
1667267011026903800,0.60290380859375,0.07574506103992462,0.1172826737165451,-0.4196520745754242
1667267011029301500,0.605301513671875,0.07391251623630524,0.1178935244679451,-0.39766156673431396
1667267011031699500,0.607699462890625,0.07146912813186646,0.12033691257238388,-0.37506023049354553
1667267011034097200,0.61009716796875,0.06841489672660828,0.12827792763710022,-0.34940463304519653
1667267011036494800,0.612494873046875,0.06047387793660164,0.15332266688346863,-0.3261924386024475
1667267011038892500,0.614892578125,0.04581354558467865,0.18630841374397278,-0.30664533376693726
1667267011041290500,0.61729052734375,0.02870982140302658,0.2229592502117157,-0.2858765125274658
1667267011043688200,0.619688232421875,0.010995250195264816,0.2626643180847168,-0.265718549489975
1667267011046086000,0.6220859375,-0.010995250195264816,0.2987042963504791,-0.24433889985084534
1667267011048483600,0.624483642578125,-0.033596597611904144,0.33291175961494446,-0.2229592502117157
1667267011050881500,0.626881591796875,-0.05619794875383377,0.3683409094810486,-0.20707722008228302
1667267011053279200,0.629279296875,-0.07696675509214401,0.39949411153793335,-0.19119518995285034
1667267011055677000,0.631677001953125,-0.09590301662683487,0.4300364851951599,-0.17714570462703705
1667267011058074600,0.63407470703125,-0.11178504675626755,0.4605788290500641,-0.16248537600040436
1667267011060472600,0.63647265625,-0.12766708433628082,0.4953971207141876,-0.15271180868148804
1667267011062870300,0.638870361328125,-0.1441599577665329,0.5344913601875305,-0.13988402485847473
1667267011065268000,0.64126806640625,-0.1588202863931656,0.5766398310661316,-0.129499614238739
1667267011067665700,0.643665771484375,-0.1704263836145401,0.6120689511299133,-0.12216944992542267
1667267011070063600,0.646063720703125,-0.1820324808359146,0.6426113247871399,-0.11606097966432571
1667267011072461300,0.64846142578125,-0.19241689145565033,0.6688777208328247,-0.11239589750766754
1667267011074859000,0.65085888671875,-0.20035789906978607,0.7006418108940125,-0.10750912129878998
1667267011077256700,0.653256591796875,-0.20463383197784424,0.7293516397476196,-0.10384403169155121
1667267011079654700,0.655654541015625,-0.208298921585083,0.7580614686012268,-0.10017894953489304
1667267011082052400,0.65805224609375,-0.2089097648859024,0.7898254990577698,-0.09712471067905426
1667267011084450000,0.660449951171875,-0.20463383197784424,0.8130376935005188,-0.09773556143045425
1667267011086847700,0.66284765625,-0.20035789906978607,0.8209787011146545,-0.10017894953489304
1667267011089245700,0.66524560546875,-0.1948602795600891,0.8130376935005188,-0.10140064358711243
1667267011091643400,0.667643310546875,-0.18630841374397278,0.7953231334686279,-0.10323318839073181
1667267011094041000,0.670041015625,-0.17592400312423706,0.7788302302360535,-0.10750912129878998
1667267011096438800,0.672438720703125,-0.16676130890846252,0.7684458494186401,-0.11056335270404816
1667267011098836700,0.674836669921875,-0.15332266688346863,0.7647807598114014,-0.10995250940322876
1667267011101234400,0.677234375,-0.1441599577665329,0.763559103012085,-0.11117420345544815
1667267011103632100,0.679632080078125,-0.13316470384597778,0.7598940134048462,-0.10811996459960938
1667267011106029800,0.68202978515625,-0.12583453953266144,0.7556180357933044,-0.10628741979598999
1667267011108427800,0.684427734375,-0.1185043677687645,0.7488987445831299,-0.10262233763933182
1667267011110825500,0.686825439453125,-0.10934165865182877,0.7336275577545166,-0.10017894953489304
1667267011113223200,0.68922314453125,-0.10017894953489304,0.7146912813186646,-0.09590301662683487
1667267011115620900,0.691620849609375,-0.0910162404179573,0.6927008032798767,-0.09040539711713791
1667267011118018800,0.694018798828125,-0.07757759839296341,0.6688777208328247,-0.08857285231351852
1667267011120416500,0.69641650390625,-0.0659715011715889,0.6462764143943787,-0.08002099394798279
1667267011122814200,0.698814208984375,-0.055587101727724075,0.6273401379585266,-0.07757759839296341
1667267011125212000,0.7012119140625,-0.04337015375494957,0.6090146899223328,-0.07513421028852463
1667267011127609900,0.70360986328125,-0.033596597611904144,0.5925218462944031,-0.07146912813186646
1667267011130007600,0.706007568359375,-0.023212196305394173,0.573585569858551,-0.07146912813186646
1667267011132405200,0.7084052734375,-0.013438640162348747,0.555260181427002,-0.07146912813186646
1667267011134803000,0.710802978515625,-0.004275931045413017,0.5369347333908081,-0.07207997888326645
1667267011137201000,0.713200927734375,0.0030542362947016954,0.5173876285552979,-0.07574506103992462
1667267011139598600,0.7155986328125,0.008551862090826035,0.497229665517807,-0.0787992998957634
1667267011141996300,0.717996337890625,0.016492875292897224,0.47829338908195496,-0.08674030750989914
1667267011144394000,0.72039404296875,0.025655584409832954,0.4605788290500641,-0.09468132257461548
1667267011146792000,0.7227919921875,0.029320668429136276,0.4428642690181732,-0.10873081535100937
1667267011149189600,0.725189697265625,0.03298575058579445,0.42637139558792114,-0.12033691257238388
1667267011151587300,0.72758740234375,0.03665083646774292,0.41110020875930786,-0.13621893525123596
1667267011153985000,0.729985107421875,0.0397050715982914,0.39643988013267517,-0.1563768982887268
1667267011156383000,0.732383056640625,0.04092676565051079,0.38544461131095886,-0.17714570462703705
1667267011158780700,0.73478076171875,0.038483377546072006,0.37322768568992615,-0.1979145109653473
1667267011161178400,0.737178466796875,0.03298575058579445,0.3665083646774292,-0.2217375487089157
1667267011163576000,0.739576171875,0.028098974376916885,0.37139514088630676,-0.2473931461572647
1667267011165974000,0.74197412109375,0.020157959312200546,0.38788801431655884,-0.26755109429359436
1667267011168371700,0.744371826171875,0.00916270911693573,0.420873761177063,-0.2907632887363434
1667267011170769400,0.746769287109375,0.0024433890357613564,0.4575245976448059,-0.3115321099758148
1667267011173167000,0.7491669921875,-0.004886778071522713,0.48989951610565186,-0.337798535823822
1667267011175565000,0.75156494140625,-0.007330167107284069,0.5155550837516785,-0.363454133272171
1667267011177962800,0.753962646484375,-0.012216945178806782,0.5381564497947693,-0.38727715611457825
1667267011180360400,0.7563603515625,-0.01588202826678753,0.5607577562332153,-0.41415444016456604
1667267011182758100,0.758758056640625,-0.016492875292897224,0.5888567566871643,-0.43797749280929565
1667267011185156000,0.761156005859375,-0.018936265259981155,0.6224533319473267,-0.46485477685928345
1667267011187553800,0.7635537109375,-0.02076880633831024,0.6597150564193726,-0.49112120270729065
1667267011189951500,0.765951416015625,-0.021990500390529633,0.7000309824943542,-0.5161659121513367
1667267011192349200,0.76834912109375,-0.026877280324697495,0.739736020565033,-0.5375455617904663
1667267011194747100,0.7707470703125,-0.02993151545524597,0.7769976854324341,-0.5583143830299377
1667267011197144800,0.773144775390625,-0.036039989441633224,0.8160919547080994,-0.5766398310661316
1667267011199542500,0.77554248046875,-0.04337015375494957,0.8472451567649841,-0.5955760478973389
1667267011201940200,0.777940185546875,-0.047646086663007736,0.8765658140182495,-0.6108472347259521
1667267011204338200,0.780338134765625,-0.053143709897994995,0.9003888368606567,-0.6273401379585266
1667267011206736000,0.78273583984375,-0.061084724962711334,0.9260444641113281,-0.6389462351799011
1667267011209133600,0.785133544921875,-0.06963659077882767,0.9571976661682129,-0.6529957056045532
1667267011211531500,0.787531494140625,-0.07635590434074402,0.9828532338142395,-0.660936713218689
1667267011213929200,0.78992919921875,-0.0787992998957634,1.0060654878616333,-0.6694886088371277
1667267011216327000,0.792326904296875,-0.08429691940546036,1.0292776823043823,-0.6725428104400635
1667267011218724600,0.794724609375,-0.08735115826129913,1.0512681007385254,-0.6780404448509216
1667267011221122600,0.79712255859375,-0.08735115826129913,1.0714260339736938,-0.6804838180541992
1667267011223520300,0.799520263671875,-0.08612946420907974,1.0952491760253906,-0.6810947060585022
1667267011225918000,0.80191796875,-0.08796200156211853,1.115407109260559,-0.6792621612548828
1667267011228315600,0.804315673828125,-0.08796200156211853,1.13800847530365,-0.6762079000473022
1667267011230713600,0.806713623046875,-0.08796200156211853,1.1624423265457153,-0.6713211536407471
1667267011233111300,0.809111328125,-0.0922379344701767,1.1874871253967285,-0.6664343476295471
1667267011235509000,0.811509033203125,-0.09895725548267365,1.2131426334381104,-0.6578825116157532
1667267011237906700,0.81390673828125,-0.10750912129878998,1.2381874322891235,-0.6474980711936951
1667267011240304600,0.8163046875,-0.11972606182098389,1.2613996267318726,-0.6346703171730042
1667267011242702300,0.818702392578125,-0.1325538605451584,1.2840009927749634,-0.6193991303443909
1667267011245100000,0.82110009765625,-0.15087927877902985,1.296217918395996,-0.6041279435157776
1667267011247497700,0.823497802734375,-0.16798299551010132,1.3023263216018677,-0.5839699506759644
1667267011249895700,0.825895751953125,-0.18630841374397278,1.2974395751953125,-0.5619794726371765
1667267011252293400,0.82829345703125,-0.20219044387340546,1.2846118211746216,-0.5344913601875305
1667267011254691000,0.830691162109375,-0.21868331730365753,1.2589561939239502,-0.5063923597335815
1667267011257088800,0.8330888671875,-0.2345653474330902,1.2235270738601685,-0.47768256068229675
1667267011259486700,0.83548681640625,-0.25533416867256165,1.1923738718032837,-0.45019441843032837
1667267011261884400,0.837884521484375,-0.2718270421028137,1.1490037441253662,-0.42331716418266296
1667267011264282000,0.8402822265625,-0.2864873707294464,1.0940274000167847,-0.3958290219306946
1667267011266679800,0.8426796875,-0.29320669174194336,1.0250016450881958,-0.37383851408958435
1667267011269077800,0.845077880859375,-0.2987042963504791,0.948034942150116,-0.3518480062484741
1667267011271475500,0.847475341796875,-0.29565006494522095,0.8661814332008362,-0.33169007301330566
1667267011273873200,0.849873046875,-0.28282228112220764,0.7745543122291565,-0.30908870697021484
1667267011276270800,0.852270751953125,-0.2651077210903168,0.6737645268440247,-0.2870981991291046
1667267011278668800,0.854668701171875,-0.24250635504722595,0.5589252710342407,-0.26632940769195557
1667267011281066500,0.85706640625,-0.21379654109477997,0.4330907166004181,-0.24311721324920654
1667267011283464200,0.859464111328125,-0.18019993603229523,0.3035911023616791,-0.2211267054080963
1667267011285862000,0.86186181640625,-0.1423274129629135,0.1704263836145401,-0.1979145109653473
1667267011288259800,0.864259765625,-0.09712471067905426,0.034818295389413834,-0.17409147322177887
1667267011290657500,0.866657470703125,-0.047646086663007736,-0.1044548824429512,-0.14843589067459106
1667267011293055200,0.86905517578125,0.0036650835536420345,-0.24250635504722595,-0.12155860662460327
1667267011295453000,0.871452880859375,0.06352811306715012,-0.3799470067024231,-0.09590301662683487
1667267011297851000,0.873850830078125,0.12522368133068085,-0.5131117105484009,-0.07269082218408585
1667267011300248600,0.87624853515625,0.19180603325366974,-0.6413896083831787,-0.051922015845775604
1667267011302646300,0.878646240234375,0.2620534598827362,-0.7598940134048462,-0.03665083646774292
1667267011305044000,0.8810439453125,0.3292466700077057,-0.869846522808075,-0.02748812735080719
1667267011307442000,0.88344189453125,0.40010493993759155,-0.9694145917892456,-0.028098974376916885
1667267011309839600,0.885839599609375,0.46668729186058044,-1.0573766231536865,-0.03542914241552353
1667267011312237300,0.8882373046875,0.53143709897995,-1.1349542140960693,-0.047646086663007736
1667267011314635000,0.890635009765625,0.5925218462944031,-1.199093222618103,-0.06352811306715012
1667267011317033000,0.893032958984375,0.6474980711936951,-1.2467392683029175,-0.08124268800020218
1667267011319430700,0.8954306640625,0.6957550048828125,-1.2809467315673828,-0.10201149433851242
1667267011321828400,0.897828369140625,0.735460102558136,-1.2980504035949707,-0.12155860662460327
1667267011324226000,0.90022607421875,0.7653915882110596,-1.3139324188232422,-0.13866232335567474
1667267011326624000,0.9026240234375,0.7837170362472534,-1.3255385160446167,-0.15515519678592682
1667267011329021700,0.905021728515625,0.7941014170646667,-1.332257866859436,-0.16859383881092072
1667267011331419400,0.90741943359375,0.7916580438613892,-1.3255385160446167,-0.18081079423427582
1667267011333817000,0.909817138671875,0.7800519466400146,-1.3139324188232422,-0.1960819661617279
1667267011336215000,0.912215087890625,0.758672297000885,-1.2907202243804932,-0.21196399629116058
1667267011338612700,0.91461279296875,0.7281299233436584,-1.254069447517395,-0.22784602642059326
1667267011341010400,0.917010498046875,0.6872031688690186,-1.2058124542236328,-0.24617144465446472
1667267011343408000,0.919408203125,0.6389462351799011,-1.1422843933105469,-0.26694026589393616
1667267011345806000,0.92180615234375,0.5870242118835449,-1.0714260339736938,-0.2858765125274658
1667267011348203800,0.924203857421875,0.5296045541763306,-0.9889616966247559,-0.3017585575580597
1667267011350601500,0.9266015625,0.46729815006256104,-0.8997780084609985,-0.32008397579193115
1667267011352999200,0.928999267578125,0.4068242609500885,-0.7941014170646667,-0.337798535823822
1667267011355397000,0.931397216796875,0.342074453830719,-0.6823163628578186,-0.3518480062484741
1667267011357794800,0.933794921875,0.28098973631858826,-0.5662553906440735,-0.3646758198738098
1667267011360192500,0.936192626953125,0.21501824259757996,-0.45080527663230896,-0.367730051279068
1667267011362590200,0.938590087890625,0.15454435348510742,-0.34512871503829956,-0.36162158846855164
1667267011364988200,0.94098828125,0.09529217332601547,-0.2480039894580841,-0.34757208824157715
1667267011367385900,0.9433857421875,0.042759306728839874,-0.16065283119678497,-0.32069480419158936
1667267011369783600,0.945783447265625,-0.004886778071522713,-0.0787992998957634,-0.288930743932724
1667267011372181200,0.94818115234375,-0.04947862774133682,0.004275931045413017,-0.25289076566696167
1667267011374579200,0.9505791015625,-0.08612946420907974,0.09712471067905426,-0.21562908589839935
1667267011376977000,0.952976806640625,-0.1172826737165451,0.17348061501979828,-0.17653486132621765
1667267011379374600,0.95537451171875,-0.1429382562637329,0.24311721324920654,-0.13805148005485535
1667267011381772300,0.957772216796875,-0.16187451779842377,0.3005368411540985,-0.09895725548267365
1667267011384170200,0.960170166015625,-0.1710372269153595,0.3524588644504547,-0.056808795779943466
1667267011386568000,0.96256787109375,-0.17348061501979828,0.3946073353290558,-0.014660334214568138
1667267011388965600,0.964965576171875,-0.16431790590286255,0.4312581717967987,0.02993151545524597
1667267011391363600,0.967363525390625,-0.14904673397541046,0.4618005156517029,0.07330167293548584
1667267011393761300,0.96976123046875,-0.12461283802986145,0.4850127100944519,0.11667182296514511
1667267011396159000,0.972158935546875,-0.09407047927379608,0.5033381581306458,0.16065283119678497
1667267011398556700,0.974556640625,-0.061084724962711334,0.5094466209411621,0.20219044387340546
1667267011400954600,0.97695458984375,-0.02076880633831024,0.5100574493408203,0.23884128034114838
1667267011403352300,0.979352294921875,0.01954711228609085,0.5100574493408203,0.27121618390083313
1667267011405750000,0.98175,0.05864133685827255,0.5100574493408203,0.29442837834358215
1667267011408147700,0.984147705078125,0.10078980028629303,0.5094466209411621,0.3115321099758148
1667267011410545700,0.986545654296875,0.1423274129629135,0.5125008225440979,0.32008397579193115
1667267011412943400,0.988943359375,0.183865025639534,0.5173876285552979,0.31886225938796997
1667267011415341000,0.991341064453125,0.22662433981895447,0.527161180973053,0.30603447556495667
1667267011417738800,0.99373876953125,0.2724378705024719,0.5308262705802917,0.2870981991291046
1667267011420136700,0.99613671875,0.3164188861846924,0.5320479869842529,0.25655585527420044
1667267011422534400,0.998534423828125,0.36162158846855164,0.5344913601875305,0.21868331730365753
1667267011424932000,1.00093212890625,0.4068242609500885,0.5326588153839111,0.17286977171897888
1667267011427329800,1.003329833984375,0.45202696323394775,0.5296045541763306,0.12216944992542267
1667267011429727700,1.005727783203125,0.4978405237197876,0.5302154421806335,0.06352811306715012
1667267011432125400,1.00812548828125,0.546097457408905,0.5088357925415039,0.009773556143045425
1667267011434523100,1.010523193359375,0.5961869359016418,0.4819584786891937,-0.04825693368911743
1667267011436920800,1.0129208984375,0.6432221531867981,0.4599680006504059,-0.10628741979598999
1667267011439318800,1.01531884765625,0.6859814524650574,0.4434750974178314,-0.16370706260204315
1667267011441716500,1.017716552734375,0.726908266544342,0.4459185004234314,-0.21929416060447693
1667267011444114200,1.0201142578125,0.763559103012085,0.4734066128730774,-0.2754921019077301
1667267011446511900,1.022511962890625,0.7922688722610474,0.5143333673477173,-0.3304683566093445
1667267011448909800,1.024909912109375,0.8191461563110352,0.5650337338447571,-0.3830012381076813
1667267011451307500,1.0273076171875,0.8423583507537842,0.6193991303443909,-0.4318690001964569
1667267011453705200,1.029705322265625,0.8612946271896362,0.6713211536407471,-0.47890424728393555
1667267011456103000,1.03210302734375,0.8771766424179077,0.7146912813186646,-0.5210527181625366
1667267011458500900,1.0345009765625,0.8906152844429016,0.7446228265762329,-0.5583143830299377
1667267011460898600,1.036898681640625,0.9064973592758179,0.7568397521972656,-0.5906893014907837
1667267011463296300,1.039296142578125,0.9248227477073669,0.7550072073936462,-0.6151232123374939
1667267011465694000,1.04169384765625,0.9370396733283997,0.7501204609870911,-0.6383354067802429
1667267011468092000,1.044091796875,0.9498674869537354,0.7488987445831299,-0.6572716236114502
1667267011470489600,1.046489501953125,0.9639169573783875,0.7440119385719299,-0.6774296164512634
1667267011472887300,1.04888720703125,0.9779664874076843,0.7360709309577942,-0.6920899152755737
1667267011475285000,1.051284912109375,0.9871291518211365,0.731184184551239,-0.707361102104187
1667267011477683000,1.053682861328125,0.994459331035614,0.7262973785400391,-0.7195780873298645
1667267011480080600,1.05608056640625,1.0005677938461304,0.7226322889328003,-0.7287407517433167
1667267011482478300,1.058478271484375,0.998735249042511,0.7201889157295227,-0.7409577369689941
1667267011484876000,1.0608759765625,0.9938485026359558,0.7165238261222839,-0.7476770281791687
1667267011487274000,1.06327392578125,0.9840749502182007,0.7183563709259033,-0.7574505805969238
1667267011489671700,1.065671630859375,0.9681929349899292,0.7171346545219421,-0.7611156702041626
1667267011492069400,1.0680693359375,0.9498674869537354,0.7140804529190063,-0.762948215007782
1667267011494467300,1.07046728515625,0.9290986657142639,0.7146912813186646,-0.762948215007782
1667267011496865000,1.072864990234375,0.9034430980682373,0.7116370797157288,-0.7598940134048462
1667267011499262700,1.0752626953125,0.8777875304222107,0.707361102104187,-0.7562289237976074
1667267011501660400,1.077660400390625,0.8490777015686035,0.7049177289009094,-0.7495095729827881
1667267011504058400,1.080058349609375,0.818535327911377,0.6994200944900513,-0.7434011101722717
1667267011506456000,1.0824560546875,0.7873821258544922,0.6908682584762573,-0.7336275577545166
1667267011508853800,1.084853759765625,0.7556180357933044,0.6786513328552246,-0.7244648337364197
1667267011511251500,1.08725146484375,0.7226322889328003,0.6652126908302307,-0.7159129977226257
1667267011513649400,1.0896494140625,0.6884248852729797,0.648108959197998,-0.707361102104187
1667267011516047000,1.092047119140625,0.6499415040016174,0.6285618543624878,-0.6988092660903931
1667267011518444800,1.09444482421875,0.6151232123374939,0.5998520255088806,-0.6920899152755737
1667267011520842500,1.096842529296875,0.5790832042694092,0.5680879354476929,-0.6835380792617798
1667267011523240400,1.099240478515625,0.5467082858085632,0.5308262705802917,-0.675597071647644
1667267011525638100,1.10163818359375,0.5149442553520203,0.4844018816947937,-0.6676560640335083
1667267011528035800,1.104035888671875,0.4856235682964325,0.42698222398757935,-0.6615476012229919
1667267011530433500,1.10643359375,0.4605788290500641,0.3671191930770874,-0.6554391384124756
1667267011532831500,1.10883154296875,0.43736663460731506,0.2999260127544403,-0.6456655263900757
1667267011535229200,1.111229248046875,0.4159869849681854,0.2223484069108963,-0.6395570635795593
1667267011537627000,1.113626953125,0.39643988013267517,0.15026842057704926,-0.6310052275657654
1667267011540024600,1.116024658203125,0.3817795515060425,0.08612946420907974,-0.6200099587440491
1667267011542422500,1.118422607421875,0.3695625960826874,0.017714571207761765,-0.6084038615226746
1667267011544820200,1.1208203125,0.3573456406593323,-0.04214845970273018,-0.5943543910980225
1667267011547218000,1.123218017578125,0.34818294644355774,-0.09651386737823486,-0.5772506594657898
1667267011549615600,1.12561572265625,0.3402419090270996,-0.1441599577665329,-0.5583143830299377
1667267011552013600,1.128013671875,0.33169007301330566,-0.1844758689403534,-0.5369347333908081
1667267011554411300,1.130411376953125,0.32252734899520874,-0.22051586210727692,-0.5106683373451233
1667267011556809000,1.13280908203125,0.31092125177383423,-0.2632751762866974,-0.4844018816947937
1667267011559206700,1.13520654296875,0.2999260127544403,-0.2895416021347046,-0.45385950803756714
1667267011561604600,1.1376044921875,0.2864873707294464,-0.30664533376693726,-0.4196520745754242
1667267011564002300,1.140002197265625,0.26755109429359436,-0.32130566239356995,-0.38605546951293945
1667267011566400000,1.14239990234375,0.2480039894580841,-0.33474430441856384,-0.34757208824157715
1667267011568797700,1.144797607421875,0.22540263831615448,-0.34818294644355774,-0.30603447556495667
1667267011571195600,1.147195556640625,0.19974705576896667,-0.35978904366493225,-0.2638860046863556
1667267011573593300,1.14959326171875,0.1692046970129013,-0.37322768568992615,-0.2217375487089157
1667267011575991000,1.151990966796875,0.13805148005485535,-0.37567105889320374,-0.17653486132621765
1667267011578389000,1.154388916015625,0.1056765764951706,-0.3781144618988037,-0.12888877093791962
1667267011580786700,1.15678662109375,0.07146912813186646,-0.38422292470932007,-0.08002099394798279
1667267011583184400,1.159184326171875,0.0390942245721817,-0.390942245721817,-0.034818295389413834
1667267011585582000,1.16158203125,0.006719320081174374,-0.390942245721817,0.01588202826678753
1667267011587980000,1.16397998046875,-0.023823043331503868,-0.3927747905254364,0.05986303091049194
1667267011590377700,1.166377685546875,-0.05497625470161438,-0.3921639323234558,0.10689827054738998
1667267011592775400,1.168775390625,-0.08185353130102158,-0.3903313875198364,0.15271180868148804
1667267011595173000,1.171173095703125,-0.10811996459960938,-0.3830012381076813,0.1960819661617279
1667267011597571000,1.173571044921875,-0.1301104724407196,-0.3701734244823456,0.2376195788383484
1667267011599968800,1.17596875,-0.15149012207984924,-0.3500154912471771,0.2779355049133301
1667267011602366500,1.178366455078125,-0.1704263836145401,-0.3158080279827118,0.3170297145843506
1667267011604764200,1.18076416015625,-0.18875180184841156,-0.28098973631858826,0.3561239540576935
1667267011607162000,1.183162109375,-0.20585553348064423,-0.25411245226860046,0.3946073353290558
1667267011609559800,1.185559814453125,-0.21746163070201874,-0.2363978922367096,0.4312581717967987
1667267011611957500,1.18795751953125,-0.22723518311977386,-0.22479179501533508,0.4709632396697998
1667267011614355200,1.190355224609375,-0.23334364593029022,-0.21501824259757996,0.5057815313339233
1667267011616753200,1.192753173828125,-0.2357870489358902,-0.21318569779396057,0.5405998229980469
1667267011619150800,1.19515087890625,-0.2339545041322708,-0.21257483959197998,0.573585569858551
1667267011621548500,1.197548583984375,-0.22723518311977386,-0.2107423096895218,0.6041279435157776
1667267011623946200,1.1999462890625,-0.21868331730365753,-0.21318569779396057,0.6316160559654236
1667267011626344200,1.20234423828125,-0.20524467527866364,-0.21929416060447693,0.6572716236114502
1667267011628742000,1.204741943359375,-0.18936264514923096,-0.22540263831615448,0.6780404448509216
1667267011631139600,1.2071396484375,-0.1698155403137207,-0.2376195788383484,0.6981984376907349
1667267011633537500,1.20953759765625,-0.14904673397541046,-0.25411245226860046,0.7134696245193481
1667267011635935200,1.211935302734375,-0.12888877093791962,-0.27060532569885254,0.7232431769371033
1667267011638333000,1.2143330078125,-0.10873081535100937,-0.2877090573310852,0.7342383861541748
1667267011640730600,1.216730712890625,-0.08490777015686035,-0.30969956517219543,0.7409577369689941
1667267011643128600,1.219128662109375,-0.06352811306715012,-0.33352261781692505,0.7434011101722717
1667267011645526300,1.2215263671875,-0.04459185153245926,-0.3561239540576935,0.7415685653686523
1667267011647924000,1.223924072265625,-0.024433890357613564,-0.3830012381076813,0.7403468489646912
1667267011650321700,1.22632177734375,-0.004886778071522713,-0.4092676639556885,0.7336275577545166
1667267011652719600,1.2287197265625,0.012216945178806782,-0.4330907166004181,0.7275190949440002
1667267011655117300,1.231117431640625,0.026877280324697495,-0.4587462842464447,0.7153021693229675
1667267011657515000,1.233514892578125,0.04031591862440109,-0.4831801950931549,0.7018635272979736
1667267011659912700,1.23591259765625,0.0525328628718853,-0.5027272701263428,0.6872031688690186
1667267011662310700,1.238310546875,0.06169557198882103,-0.5247178077697754,0.6694886088371277
1667267011664708400,1.240708251953125,0.07085828483104706,-0.5387672781944275,0.652384877204895
1667267011667106000,1.24310595703125,0.0787992998957634,-0.5534276366233826,0.6322268843650818
1667267011669503700,1.245503662109375,0.08612946420907974,-0.5625903010368347,0.6139014959335327
1667267011671901700,1.247901611328125,0.0910162404179573,-0.5686988234519958,0.5937435626983643
1667267011674299400,1.25029931640625,0.09345962852239609,-0.5711421966552734,0.5717530250549316
1667267011676697000,1.252697021484375,0.09529217332601547,-0.5729747414588928,0.5473191738128662
1667267011679094800,1.2550947265625,0.09712471067905426,-0.5717530250549316,0.522885262966156
1667267011681492700,1.25749267578125,0.09773556143045425,-0.5729747414588928,0.4984513521194458
1667267011683890400,1.259890380859375,0.09773556143045425,-0.5705313682556152,0.4752391576766968
1667267011686288100,1.2622880859375,0.09407047927379608,-0.5644228458404541,0.45385950803756714
1667267011688686000,1.26468603515625,0.0910162404179573,-0.554649293422699,0.4306473135948181
1667267011691083800,1.267083740234375,0.08551861345767975,-0.5412106513977051,0.41048935055732727
1667267011693481500,1.2694814453125,0.0794101431965828,-0.5222744345664978,0.390942245721817
1667267011695879200,1.271879150390625,0.07269082218408585,-0.4960079789161682,0.37506023049354553
1667267011698277000,1.274277099609375,0.06658235192298889,-0.46546560525894165,0.36162158846855164
1667267011700674800,1.2766748046875,0.05497625470161438,-0.4196520745754242,0.3524588644504547
1667267011703072500,1.279072509765625,0.0397050715982914,-0.3658975064754486,0.34635040163993835
1667267011705470200,1.28147021484375,0.024433890357613564,-0.3164188861846924,0.3384093940258026
1667267011707868200,1.2838681640625,0.009773556143045425,-0.2754921019077301,0.33352261781692505
1667267011710265900,1.286265869140625,-0.0012216945178806782,-0.2486148327589035,0.3261924386024475
1667267011712663600,1.28866357421875,-0.012827792204916477,-0.22906772792339325,0.32008397579193115
1667267011715061200,1.291061279296875,-0.021990500390529633,-0.21501824259757996,0.314586341381073
1667267011717459200,1.293459228515625,-0.030542362481355667,-0.20524467527866364,0.30664533376693726
1667267011719857000,1.29585693359375,-0.034818295389413834,-0.1966928243637085,0.30481278896331787
1667267011722254600,1.298254638671875,-0.04153761267662048,-0.18691925704479218,0.3017585575580597
1667267011724652300,1.30065234375,-0.04337015375494957,-0.17348061501979828,0.3011476993560791
1667267011727050200,1.30305029296875,-0.047646086663007736,-0.16126367449760437,0.3042019307613373
1667267011729448000,1.305447998046875,-0.0525328628718853,-0.15332266688346863,0.30664533376693726
1667267011731845600,1.307845703125,-0.054365407675504684,-0.1435490995645523,0.30908870697021484
1667267011734243300,1.310243408203125,-0.05803048983216286,-0.13499724864959717,0.30969956517219543
1667267011736641300,1.312641357421875,-0.05986303091049194,-0.12583453953266144,0.3133646547794342
1667267011739039000,1.3150390625,-0.062306419014930725,-0.1172826737165451,0.31886225938796997
1667267011741436700,1.317436767578125,-0.06658235192298889,-0.11056335270404816,0.32191649079322815
1667267011743834600,1.319834716796875,-0.06841489672660828,-0.1044548824429512,0.3280249834060669
1667267011746232300,1.322232421875,-0.06841489672660828,-0.09651386737823486,0.33413344621658325
1667267011748630000,1.324630126953125,-0.07024743407964706,-0.08796200156211853,0.3384093940258026
1667267011751027700,1.32702783203125,-0.07146912813186646,-0.08124268800020218,0.34757208824157715
1667267011753425700,1.32942578125,-0.07085828483104706,-0.07146912813186646,0.35978904366493225
1667267011755823400,1.3318232421875,-0.07085828483104706,-0.06352811306715012,0.37078428268432617
1667267011758221000,1.334220947265625,-0.07269082218408585,-0.05741964280605316,0.3836120665073395
1667267011760618800,1.33661865234375,-0.07024743407964706,-0.053143709897994995,0.39827242493629456
1667267011763016700,1.3390166015625,-0.07269082218408585,-0.05070032179355621,0.41415444016456604
1667267011765414400,1.341414306640625,-0.07452336698770523,-0.051922015845775604,0.4306473135948181
1667267011767812000,1.34381201171875,-0.07330167293548584,-0.05497625470161438,0.448361873626709
1667267011770209800,1.346209716796875,-0.07574506103992462,-0.06291726976633072,0.46424391865730286
1667267011772607700,1.348607666015625,-0.0781884491443634,-0.07269082218408585,0.48073679208755493
1667267011775005400,1.35100537109375,-0.08246438205242157,-0.08674030750989914,0.497229665517807
1667267011777403100,1.353403076171875,-0.08857285231351852,-0.1044548824429512,0.5143333673477173
1667267011779800800,1.35580078125,-0.09407047927379608,-0.12216944992542267,0.5289937257766724
1667267011782198800,1.35819873046875,-0.10078980028629303,-0.1447708010673523,0.5454866290092468
1667267011784596500,1.360596435546875,-0.10811996459960938,-0.1704263836145401,0.5601469278335571
1667267011786994200,1.362994140625,-0.11483928561210632,-0.1954711228609085,0.5760289430618286
1667267011789392100,1.36539208984375,-0.12339114397764206,-0.2217375487089157,0.5931326746940613
1667267011791789800,1.367789794921875,-0.1301104724407196,-0.2473931461572647,0.6096255779266357
1667267011794187500,1.3701875,-0.13805148005485535,-0.2736595869064331,0.6279509663581848
1667267011796585200,1.372585205078125,-0.1441599577665329,-0.3005368411540985,0.6487197875976562
1667267011798983200,1.374983154296875,-0.15026842057704926,-0.32313820719718933,0.6676560640335083
1667267011801380900,1.377380859375,-0.1557660549879074,-0.3426853120326996,0.6896465420722961
1667267011803778600,1.379778564453125,-0.16065283119678497,-0.35856732726097107,0.7128587365150452
1667267011806176300,1.38217626953125,-0.16492876410484314,-0.37200596928596497,0.7379034757614136
1667267011808574200,1.38457421875,-0.16859383881092072,-0.3811686933040619,0.762948215007782
1667267011810972000,1.386971923828125,-0.17348061501979828,-0.3915531039237976,0.7879929542541504
1667267011813369600,1.38936962890625,-0.17714570462703705,-0.40193748474121094,0.813648521900177
1667267011815767300,1.391767333984375,-0.1844758689403534,-0.40987852215766907,0.8405258059501648
1667267011818165200,1.394165283203125,-0.18875180184841156,-0.41415444016456604,0.8643488883972168
1667267011820563000,1.39656298828125,-0.1973036676645279,-0.416597843170166,0.8869501948356628
1667267011822960600,1.398960693359375,-0.20402298867702484,-0.4190412163734436,0.9107732772827148
1667267011825358300,1.4013583984375,-0.21257483959197998,-0.4196520745754242,0.9290986657142639
1667267011827756300,1.40375634765625,-0.2223484069108963,-0.4190412163734436,0.9468132257461548
1667267011830154000,1.406154052734375,-0.23212195932865143,-0.4159869849681854,0.9681929349899292
1667267011832551700,1.4085517578125,-0.24128466844558716,-0.40987852215766907,0.9840749502182007
1667267011834949600,1.41094970703125,-0.2516690790653229,-0.40193748474121094,1.0011786222457886
1667267011837347300,1.413347412109375,-0.2602209448814392,-0.38666632771492004,1.0146173238754272
1667267011839745000,1.4157451171875,-0.265718549489975,-0.367730051279068,1.0286667346954346
1667267011842142700,1.418142822265625,-0.2736595869064331,-0.3426853120326996,1.041494607925415
1667267011844540700,1.420540771484375,-0.27976804971694946,-0.31031039357185364,1.0518789291381836
1667267011846938400,1.4229384765625,-0.284654825925827,-0.2736595869064331,1.058598279953003
1667267011849336000,1.425336181640625,-0.2901524603366852,-0.22845686972141266,1.063485026359558
1667267011851733800,1.427733642578125,-0.29259583353996277,-0.182643324136734,1.0683718919754028
1667267011854131700,1.430131591796875,-0.29381752014160156,-0.12644538283348083,1.0683718919754028
1667267011856529400,1.432529296875,-0.2919849753379822,-0.06719319522380829,1.064706802368164
1667267011858927000,1.434927001953125,-0.2883199155330658,-0.0024433890357613564,1.058598279953003
1667267011861324800,1.43732470703125,-0.28098973631858826,0.0647498071193695,1.045770525932312
1667267011863722800,1.43972265625,-0.2724378705024719,0.130721315741539,1.02683424949646
1667267011866120400,1.442120361328125,-0.2638860046863556,0.18936264514923096,1.0048437118530273
1667267011868518100,1.44451806640625,-0.2522799074649811,0.24128466844558716,0.9816315174102783
1667267011870915800,1.446915771484375,-0.23884128034114838,0.28037887811660767,0.9529217481613159
1667267011873313800,1.449313720703125,-0.2229592502117157,0.30786702036857605,0.9242119193077087
1667267011875711500,1.45171142578125,-0.2089097648859024,0.3268032968044281,0.8948912620544434
1667267011878109200,1.454109130859375,-0.1954711228609085,0.33535513281822205,0.8667922616004944
1667267011880507100,1.456507080078125,-0.18569757044315338,0.3439069986343384,0.8356390595436096
1667267011882904800,1.45890478515625,-0.17286977171897888,0.3561239540576935,0.8050966858863831
1667267011885302500,1.461302490234375,-0.16248537600040436,0.36101073026657104,0.7715001106262207
1667267011887700200,1.4637001953125,-0.15454435348510742,0.3500154912471771,0.7385143637657166
1667267011890098200,1.46609814453125,-0.1435490995645523,0.3249707520008087,0.7067502737045288
1667267011892496000,1.468495849609375,-0.13499724864959717,0.2919849753379822,0.6743753552436829
1667267011894893600,1.4708935546875,-0.12827792763710022,0.25533416867256165,0.6401679515838623
1667267011897291300,1.473291259765625,-0.11911521852016449,0.2229592502117157,0.6035171151161194
1667267011899689200,1.475689208984375,-0.11545012891292572,0.19302773475646973,0.5674771070480347
1667267011902087000,1.4780869140625,-0.10811996459960938,0.16859383881092072,0.5308262705802917
1667267011904484600,1.480484619140625,-0.10140064358711243,0.15210096538066864,0.4966188073158264
1667267011906882300,1.48288232421875,-0.09590301662683487,0.13805148005485535,0.46302223205566406
1667267011909280300,1.4852802734375,-0.0916270911693573,0.12278030067682266,0.4300364851951599
1667267011911678000,1.487677978515625,-0.08612946420907974,0.11056335270404816,0.3958290219306946
1667267011914075600,1.49007568359375,-0.08063183724880219,0.09712471067905426,0.3646758198738098
1667267011916473600,1.4924736328125,-0.07452336698770523,0.08368607610464096,0.33291175961494446
1667267011918871300,1.494871337890625,-0.07269082218408585,0.06352811306715012,0.3023693859577179
1667267011921269000,1.49726904296875,-0.07085828483104706,0.04337015375494957,0.2730487287044525
1667267011923666700,1.499666748046875,-0.07085828483104706,0.021990500390529633,0.24556060135364532
1667267011926064600,1.502064697265625,-0.07269082218408585,0.0024433890357613564,0.2229592502117157
1667267011928462300,1.50446240234375,-0.07452336698770523,-0.010995250195264816,0.19913621246814728
1667267011930860000,1.506860107421875,-0.0787992998957634,-0.030542362481355667,0.1820324808359146
1667267011933257700,1.5092578125,-0.08429691940546036,-0.04031591862440109,0.16309621930122375
1667267011935655700,1.51165576171875,-0.09284878522157669,-0.04825693368911743,0.1453816443681717
1667267011938053400,1.514053466796875,-0.10262233763933182,-0.053143709897994995,0.129499614238739
1667267011940451000,1.516451171875,-0.11056335270404816,-0.055587101727724075,0.11483928561210632
1667267011942848800,1.518848876953125,-0.11911521852016449,-0.056808795779943466,0.09712471067905426
1667267011945246700,1.521246826171875,-0.1325538605451584,-0.05497625470161438,0.0781884491443634
1667267011947644400,1.52364453125,-0.1429382562637329,-0.053143709897994995,0.05925218388438225
1667267011950042000,1.5260419921875,-0.16065283119678497,-0.051922015845775604,0.038483377546072006
1667267011952439800,1.528439697265625,-0.17348061501979828,-0.051922015845775604,0.02076880633831024
1667267011954837800,1.530837646484375,-0.1850867122411728,-0.0525328628718853,0.0006108472589403391
1667267011957235500,1.5332353515625,-0.1973036676645279,-0.05986303091049194,-0.022601349279284477
1667267011959633200,1.535633056640625,-0.21196399629116058,-0.06352811306715012,-0.046424392610788345
1667267011962031000,1.538031005859375,-0.22906772792339325,-0.06047387793660164,-0.07207997888326645
1667267011964428800,1.5404287109375,-0.24678228795528412,-0.05008947476744652,-0.09773556143045425
1667267011966826500,1.542826416015625,-0.26632940769195557,-0.022601349279284477,-0.12400199472904205
1667267011969224200,1.54522412109375,-0.2852656841278076,0.021990500390529633,-0.14843589067459106
1667267011971622100,1.5476220703125,-0.3023693859577179,0.07635590434074402,-0.1698155403137207
1667267011974019800,1.550019775390625,-0.314586341381073,0.1301104724407196,-0.18936264514923096
1667267011976417500,1.55241748046875,-0.32069480419158936,0.18142163753509521,-0.2113531529903412
1667267011978815200,1.554815185546875,-0.32008397579193115,0.21868331730365753,-0.23090025782585144
1667267011981213200,1.557213134765625,-0.3170297145843506,0.2492256760597229,-0.2492256760597229
1667267011983611000,1.55961083984375,-0.30969956517219543,0.2730487287044525,-0.2724378705024719
1667267011986008600,1.562008544921875,-0.29687178134918213,0.291374146938324,-0.29442837834358215
1667267011988406300,1.56440625,-0.28343313932418823,0.31031039357185364,-0.3158080279827118
1667267011990804200,1.56680419921875,-0.26816195249557495,0.3268032968044281,-0.337798535823822
1667267011993202000,1.569201904296875,-0.25533416867256165,0.3396310806274414,-0.3567348122596741
1667267011995599600,1.571599609375,-0.23884128034114838,0.3542914092540741,-0.37322768568992615
1667267011997997300,1.573997314453125,-0.2241809368133545,0.3646758198738098,-0.38727715611457825
1667267012000395300,1.576395263671875,-0.21501824259757996,0.37200596928596497,-0.39949411153793335
1667267012002793000,1.57879296875,-0.20585553348064423,0.37506023049354553,-0.4062134325504303
1667267012005190700,1.581190673828125,-0.20096874237060547,0.3793361485004425,-0.4074351191520691
1667267012007588400,1.58358837890625,-0.1966928243637085,0.37567105889320374,-0.40193748474121094
1667267012009986300,1.585986328125,-0.19913621246814728,0.365286648273468,-0.3946073353290558
1667267012012384000,1.588384033203125,-0.20280128717422485,0.3530697226524353,-0.3793361485004425
1667267012014781700,1.59078173828125,-0.208298921585083,0.33474430441856384,-0.3567348122596741
1667267012017179400,1.593179443359375,-0.21868331730365753,0.3127537965774536,-0.3280249834060669
1667267012019577300,1.595577392578125,-0.22967857122421265,0.2883199155330658,-0.29503923654556274
1667267012021975000,1.59797509765625,-0.24250635504722595,0.25777754187583923,-0.2492256760597229
1667267012024372700,1.600372802734375,-0.25716668367385864,0.22967857122421265,-0.20096874237060547
1667267012026770400,1.6027705078125,-0.2724378705024719,0.2101314514875412,-0.1435490995645523
1667267012029168400,1.60516845703125,-0.2895416021347046,0.1966928243637085,-0.08307522535324097
1667267012031566000,1.607566162109375,-0.30725616216659546,0.19180603325366974,-0.01832541823387146
1667267012033963800,1.6099638671875,-0.32374903559684753,0.18997350335121155,0.047646086663007736
1667267012036361700,1.61236181640625,-0.34512871503829956,0.1954711228609085,0.1172826737165451
1667267012038759400,1.614759521484375,-0.35978904366493225,0.20646637678146362,0.18691925704479218
1667267012041157000,1.6171572265625,-0.3683409094810486,0.21746163070201874,0.2608317732810974
1667267012043554800,1.619554931640625,-0.3793361485004425,0.23151111602783203,0.33352261781692505
1667267012045952800,1.621952880859375,-0.38666632771492004,0.24556060135364532,0.4049917459487915
1667267012048350500,1.6243505859375,-0.3921639323234558,0.25594499707221985,0.47585001587867737
1667267012050748200,1.626748046875,-0.3921639323234558,0.2632751762866974,0.5473191738128662
1667267012053145900,1.629145751953125,-0.390942245721817,0.26999449729919434,0.6163448691368103
1667267012055543800,1.631543701171875,-0.38727715611457825,0.27121618390083313,0.6817055344581604
1667267012057941500,1.63394140625,-0.3805578351020813,0.2644968628883362,0.7488987445831299
1667267012060339200,1.636339111328125,-0.37383851408958435,0.25655585527420044,0.8130376935005188
1667267012062737200,1.638737060546875,-0.36284327507019043,0.24433889985084534,0.873511552810669
1667267012065134800,1.641134765625,-0.3518480062484741,0.23028941452503204,0.9303203821182251
1667267012067532500,1.643532470703125,-0.3402419090270996,0.21685077250003815,0.9834640622138977
1667267012069930200,1.64593017578125,-0.3286358118057251,0.20402298867702484,1.0323318243026733
1667267012072328200,1.648328125,-0.31947311758995056,0.19119518995285034,1.077534556388855
1667267012074726000,1.650725830078125,-0.3133646547794342,0.18142163753509521,1.1141854524612427
1667267012077123600,1.65312353515625,-0.30847787857055664,0.1716480851173401,1.1459494829177856
1667267012079521300,1.655521240234375,-0.3054236173629761,0.16859383881092072,1.174659252166748
1667267012081919200,1.657919189453125,-0.3042019307613373,0.16676130890846252,1.199093222618103
1667267012084317000,1.66031689453125,-0.30481278896331787,0.1692046970129013,1.2174185514450073
1667267012086714600,1.662714599609375,-0.30725616216659546,0.17225892841815948,1.2375766038894653
1667267012089112300,1.6651123046875,-0.3127537965774536,0.17775654792785645,1.2516260147094727
1667267012091510300,1.66751025390625,-0.31825143098831177,0.18691925704479218,1.2601778507232666
1667267012093908000,1.669907958984375,-0.32313820719718933,0.1985253542661667,1.266897201538086
1667267012096305700,1.6723056640625,-0.3268032968044281,0.2095206081867218,1.2693406343460083
1667267012098703600,1.67470361328125,-0.33230090141296387,0.21990501880645752,1.2644537687301636
1667267012101101300,1.677101318359375,-0.33474430441856384,0.2339545041322708,1.2577345371246338
1667267012103499000,1.6794990234375,-0.337798535823822,0.24617144465446472,1.2479609251022339
1667267012105896700,1.681896728515625,-0.3414636254310608,0.25655585527420044,1.2326897382736206
1667267012108294700,1.684294677734375,-0.3414636254310608,0.2644968628883362,1.2149752378463745
1667267012110692400,1.6866923828125,-0.34451785683631897,0.26938363909721375,1.1899304389953613
1667267012113090000,1.689090087890625,-0.34635040163993835,0.2724378705024719,1.1648857593536377
1667267012115487700,1.69148779296875,-0.34635040163993835,0.2748812735080719,1.1331216096878052
1667267012117885700,1.6938857421875,-0.34757208824157715,0.2736595869064331,1.0995250940322876
1667267012120283400,1.696283447265625,-0.34573954343795776,0.26938363909721375,1.0653176307678223
1667267012122681000,1.69868115234375,-0.3408527672290802,0.2644968628883362,1.0262234210968018
1667267012125078800,1.701078857421875,-0.33718767762184143,0.25411245226860046,0.9822424054145813
1667267012127476700,1.703476806640625,-0.3274141252040863,0.24250635504722595,0.9400939345359802
1667267012129874400,1.70587451171875,-0.3164188861846924,0.22845686972141266,0.8955020904541016
1667267012132272000,1.708272216796875,-0.30847787857055664,0.21196399629116058,0.8509102463722229
1667267012134670000,1.710670166015625,-0.29381752014160156,0.1954711228609085,0.8069292306900024
1667267012137067800,1.71306787109375,-0.2779355049133301,0.17348061501979828,0.7653915882110596
1667267012139465500,1.715465576171875,-0.2626643180847168,0.14721418917179108,0.7238540053367615
1667267012141863200,1.71786328125,-0.24372805655002594,0.11911521852016449,0.684759795665741
1667267012144261000,1.72026123046875,-0.22601348161697388,0.08674030750989914,0.6456655263900757
1667267012146658800,1.722658935546875,-0.20463383197784424,0.05070032179355621,0.6065713167190552
1667267012149056500,1.725056396484375,-0.18630841374397278,0.01588202826678753,0.5723638534545898
1667267012151454200,1.7274541015625,-0.16798299551010132,-0.02504473738372326,0.5393781065940857
1667267012153852200,1.72985205078125,-0.15026842057704926,-0.06719319522380829,0.5088357925415039
1667267012156249900,1.732249755859375,-0.13805148005485535,-0.10750912129878998,0.47829338908195496
1667267012158647600,1.7346474609375,-0.12888877093791962,-0.14721418917179108,0.45385950803756714
1667267012161045200,1.737045166015625,-0.12400199472904205,-0.183865025639534,0.4294256269931793
1667267012163443200,1.739443115234375,-0.12583453953266144,-0.21807247400283813,0.4086568057537079
1667267012165841000,1.7418408203125,-0.12888877093791962,-0.24678228795528412,0.38605546951293945
1667267012168238600,1.744238525390625,-0.13499724864959717,-0.2718270421028137,0.365286648273468
1667267012170636500,1.746636474609375,-0.14049486815929413,-0.29259583353996277,0.34512871503829956
1667267012173034200,1.7490341796875,-0.1453816443681717,-0.3054236173629761,0.3243598937988281
1667267012175432000,1.751431884765625,-0.15271180868148804,-0.3139754831790924,0.3011476993560791
1667267012177829600,1.75382958984375,-0.1569877415895462,-0.3176405727863312,0.2742704153060913
1667267012180227600,1.7562275390625,-0.16004198789596558,-0.3164188861846924,0.2473931461572647
1667267012182625300,1.758625244140625,-0.16248537600040436,-0.3115321099758148,0.21501824259757996
1667267012185023000,1.76102294921875,-0.16248537600040436,-0.30908870697021484,0.18081079423427582
1667267012187420700,1.763420654296875,-0.16309621930122375,-0.30481278896331787,0.14660334587097168
1667267012189818600,1.765818603515625,-0.16431790590286255,-0.30786702036857605,0.10628741979598999
1667267012192216300,1.76821630859375,-0.16248537600040436,-0.31031039357185364,0.0647498071193695
1667267012194614000,1.770614013671875,-0.1588202863931656,-0.3176405727863312,0.017714571207761765
1667267012197011700,1.77301171875,-0.15454435348510742,-0.3249707520008087,-0.031153209507465363
1667267012199409700,1.77540966796875,-0.14965757727622986,-0.33230090141296387,-0.0781884491443634
1667267012201807400,1.777807373046875,-0.13927318155765533,-0.337798535823822,-0.12522368133068085
1667267012204205000,1.780205078125,-0.12827792763710022,-0.3426853120326996,-0.1704263836145401
1667267012206603000,1.78260302734375,-0.1178935244679451,-0.3439069986343384,-0.21196399629116058
1667267012209000700,1.785000732421875,-0.1050657257437706,-0.3426853120326996,-0.2510582208633423
1667267012211398400,1.7873984375,-0.09345962852239609,-0.3384093940258026,-0.28404396772384644
1667267012213796000,1.789796142578125,-0.08307522535324097,-0.33169007301330566,-0.3133646547794342
1667267012216194000,1.792194091796875,-0.07024743407964706,-0.3243598937988281,-0.3384093940258026
1667267012218591700,1.794591796875,-0.06169557198882103,-0.3151971995830536,-0.35856732726097107
1667267012220989400,1.796989501953125,-0.054365407675504684,-0.30725616216659546,-0.37261682748794556
1667267012223387100,1.79938720703125,-0.04337015375494957,-0.2980934679508209,-0.3811686933040619
1667267012225785000,1.80178515625,-0.03542914241552353,-0.2870981991291046,-0.38605546951293945
1667267012228182800,1.804182861328125,-0.028098974376916885,-0.2754921019077301,-0.38483378291130066
1667267012230580500,1.80658056640625,-0.02626643143594265,-0.2626643180847168,-0.3793361485004425
1667267012232978400,1.808978515625,-0.021379653364419937,-0.24494975805282593,-0.3683409094810486
1667267012235376000,1.811376220703125,-0.016492875292897224,-0.22540263831615448,-0.3530697226524353
1667267012237773800,1.81377392578125,-0.014049487188458443,-0.20219044387340546,-0.33352261781692505
1667267012240171500,1.816171630859375,-0.010995250195264816,-0.17225892841815948,-0.30969956517219543
1667267012242569500,1.818569580078125,-0.01038440316915512,-0.14171656966209412,-0.2864873707294464
1667267012244967200,1.82096728515625,-0.006719320081174374,-0.1050657257437706,-0.25777754187583923
1667267012247364900,1.82336474609375,-0.0024433890357613564,-0.06719319522380829,-0.23212195932865143
1667267012249762600,1.825762451171875,0.0018325417768210173,-0.024433890357613564,-0.20402298867702484
1667267012252160500,1.828160400390625,0.006108472589403391,0.021379653364419937,-0.17836740612983704
1667267012254558200,1.83055810546875,0.013438640162348747,0.0647498071193695,-0.15271180868148804
1667267012256956000,1.832955810546875,0.01954711228609085,0.1044548824429512,-0.12827792763710022
1667267012259353600,1.835353515625,0.02626643143594265,0.1435490995645523,-0.1050657257437706
1667267012261751600,1.83775146484375,0.03298575058579445,0.182643324136734,-0.08246438205242157
1667267012264149200,1.840149169921875,0.038483377546072006,0.21807247400283813,-0.05864133685827255
1667267012266547000,1.842546875,0.04153761267662048,0.2486148327589035,-0.037261683493852615
1667267012268945000,1.84494482421875,0.045202698558568954,0.2761029601097107,-0.016492875292897224
1667267012271342600,1.847342529296875,0.04825693368911743,0.2999260127544403,0.0018325417768210173
1667267012273740300,1.849740234375,0.051922015845775604,0.31947311758995056,0.021990500390529633
1667267012276138000,1.852137939453125,0.054365407675504684,0.33352261781692505,0.0390942245721817
1667267012278536000,1.854535888671875,0.05497625470161438,0.3390202224254608,0.05497625470161438
1667267012280933600,1.85693359375,0.056808795779943466,0.3414636254310608,0.0659715011715889
1667267012283331300,1.859331298828125,0.056808795779943466,0.3414636254310608,0.0781884491443634
1667267012285729000,1.86172900390625,0.054365407675504684,0.33352261781692505,0.08490777015686035
1667267012288127000,1.864126953125,0.05375456064939499,0.32130566239356995,0.08918370306491852
1667267012290524700,1.866524658203125,0.05375456064939499,0.30664533376693726,0.09284878522157669
1667267012292922400,1.86892236328125,0.05008947476744652,0.2877090573310852,0.09040539711713791
1667267012295320000,1.871320068359375,0.047646086663007736,0.26877278089523315,0.08918370306491852
1667267012297718000,1.873718017578125,0.04459185153245926,0.2492256760597229,0.08429691940546036
1667267012300115700,1.87611572265625,0.04031591862440109,0.22967857122421265,0.07696675509214401
1667267012302513400,1.878513427734375,0.0390942245721817,0.21562908589839935,0.06841489672660828
1667267012304911400,1.880911376953125,0.03420744836330414,0.20402298867702484,0.05803048983216286
1667267012307309000,1.88330908203125,0.03176405653357506,0.19424942135810852,0.04581354558467865
1667267012309706800,1.885706787109375,0.02993151545524597,0.18691925704479218,0.03420744836330414
1667267012312104400,1.8881044921875,0.02748812735080719,0.1832541823387146,0.017714571207761765
1667267012314502400,1.89050244140625,0.025655584409832954,0.183865025639534,0.0036650835536420345
1667267012316900000,1.892900146484375,0.025655584409832954,0.182643324136734,-0.012216945178806782
1667267012319297800,1.8952978515625,0.022601349279284477,0.1820324808359146,-0.02870982140302658
1667267012321695500,1.897695556640625,0.018936265259981155,0.1832541823387146,-0.045202698558568954
1667267012324093400,1.900093505859375,0.015271181240677834,0.18630841374397278,-0.06413896381855011
1667267012326491100,1.9024912109375,0.011606098152697086,0.18691925704479218,-0.08124268800020218
1667267012328888800,1.904888916015625,0.007330167107284069,0.18936264514923096,-0.10078980028629303
1667267012331286500,1.90728662109375,0.004275931045413017,0.1979145109653473,-0.1178935244679451
1667267012333684500,1.9096845703125,-0.0006108472589403391,0.20157960057258606,-0.13927318155765533
1667267012336082200,1.912082275390625,-0.008551862090826035,0.2089097648859024,-0.16004198789596558
1667267012338479900,1.91447998046875,-0.015271181240677834,0.21562908589839935,-0.17836740612983704
1667267012340877600,1.916877685546875,-0.021990500390529633,0.22540263831615448,-0.20096874237060547
1667267012343275500,1.919275634765625,-0.026877280324697495,0.23273280262947083,-0.2217375487089157
1667267012345673200,1.921673095703125,-0.034818295389413834,0.2376195788383484,-0.24617144465446472
1667267012348071000,1.92407080078125,-0.04031591862440109,0.2486148327589035,-0.26877278089523315
1667267012350468900,1.92646875,-0.04459185153245926,0.25655585527420044,-0.2907632887363434
1667267012352866600,1.928866455078125,-0.047646086663007736,0.2651077210903168,-0.30969956517219543
1667267012355264300,1.93126416015625,-0.04825693368911743,0.2718270421028137,-0.3268032968044281
1667267012357662000,1.933661865234375,-0.04703523963689804,0.27915719151496887,-0.3414636254310608
1667267012360060000,1.936059814453125,-0.043981000781059265,0.2895416021347046,-0.3518480062484741
1667267012362457600,1.93845751953125,-0.04214845970273018,0.29748260974884033,-0.36284327507019043
1667267012364855300,1.940855224609375,-0.0397050715982914,0.3023693859577179,-0.3695625960826874
1667267012367253000,1.9432529296875,-0.037261683493852615,0.30664533376693726,-0.37506023049354553
1667267012369651000,1.94565087890625,-0.03542914241552353,0.31092125177383423,-0.3781144618988037
1667267012372048600,1.948048583984375,-0.034818295389413834,0.31092125177383423,-0.3787252902984619
1667267012374446300,1.9504462890625,-0.03298575058579445,0.30969956517219543,-0.3805578351020813
1667267012376844000,1.952843994140625,-0.031153209507465363,0.3042019307613373,-0.3793361485004425
1667267012379242000,1.955241943359375,-0.03176405653357506,0.2987042963504791,-0.3762819170951843
1667267012381639700,1.9576396484375,-0.03176405653357506,0.2907632887363434,-0.3701734244823456
1667267012384037400,1.960037353515625,-0.03542914241552353,0.27915719151496887,-0.3658975064754486
1667267012386435300,1.962435302734375,-0.037261683493852615,0.26694026589393616,-0.35917818546295166
1667267012388833000,1.9648330078125,-0.04031591862440109,0.2516690790653229,-0.3518480062484741
1667267012391230700,1.967230712890625,-0.045202698558568954,0.2345653474330902,-0.3432961702346802
1667267012393628400,1.96962841796875,-0.05008947476744652,0.22051586210727692,-0.33474430441856384
1667267012396026400,1.9720263671875,-0.054365407675504684,0.20280128717422485,-0.3249707520008087
1667267012398424000,1.974424072265625,-0.05925218388438225,0.183865025639534,-0.3158080279827118
1667267012400821800,1.97682177734375,-0.062306419014930725,0.16492876410484314,-0.3054236173629761
1667267012403219500,1.979219482421875,-0.06352811306715012,0.14904673397541046,-0.2987042963504791
1667267012405617400,1.981617431640625,-0.06719319522380829,0.1313321590423584,-0.2907632887363434
1667267012408015000,1.98401513671875,-0.06719319522380829,0.11422843486070633,-0.28404396772384644
1667267012410412800,1.986412841796875,-0.06719319522380829,0.09529217332601547,-0.28098973631858826
1667267012412810500,1.988810546875,-0.06780404597520828,0.0787992998957634,-0.2767138183116913
1667267012415208400,1.99120849609375,-0.0659715011715889,0.05864133685827255,-0.2724378705024719
1667267012417606100,1.993606201171875,-0.06413896381855011,0.03665083646774292,-0.26938363909721375
1667267012420003800,1.99600390625,-0.062306419014930725,0.012827792204916477,-0.27060532569885254
1667267012422401800,1.99840185546875,-0.05803048983216286,-0.0018325417768210173,-0.2718270421028137
1667267012424799500,2.000799560546875,-0.05070032179355621,-0.017714571207761765,-0.27121618390083313
1667267012427197200,2.003197265625,-0.04153761267662048,-0.02748812735080719,-0.2730487287044525
1667267012429595000,2.005594970703125,-0.031153209507465363,-0.033596597611904144,-0.26999449729919434
1667267012431992800,2.007992919921875,-0.01710372418165207,-0.033596597611904144,-0.265718549489975
1667267012434390500,2.010390625,-0.004886778071522713,-0.03420744836330414,-0.2602209448814392
1667267012436788200,2.012788330078125,0.007330167107284069,-0.02870982140302658,-0.2522799074649811
1667267012439186000,2.01518603515625,0.02076880633831024,-0.022601349279284477,-0.23945212364196777
1667267012441583900,2.017583984375,0.03542914241552353,-0.017714571207761765,-0.22662433981895447
1667267012443981600,2.019981689453125,0.04703523963689804,-0.012216945178806782,-0.2095206081867218
1667267012446379300,2.022379150390625,0.05497625470161438,-0.004275931045413017,-0.1960819661617279
1667267012448777000,2.02477685546875,0.0653606578707695,0.0012216945178806782,-0.18142163753509521
1667267012451175000,2.0271748046875,0.07391251623630524,0.009773556143045425,-0.16615045070648193
1667267012453572600,2.029572509765625,0.08063183724880219,0.02076880633831024,-0.15393351018428802
1667267012455970300,2.03197021484375,0.08551861345767975,0.028098974376916885,-0.1435490995645523
1667267012458368300,2.0343681640625,0.08735115826129913,0.03665083646774292,-0.13621893525123596
1667267012460766000,2.036765869140625,0.0910162404179573,0.038483377546072006,-0.1325538605451584
1667267012463163600,2.03916357421875,0.0922379344701767,0.037261683493852615,-0.129499614238739
1667267012465561300,2.041561279296875,0.0922379344701767,0.036039989441633224,-0.129499614238739
1667267012467959300,2.043959228515625,0.08979454636573792,0.025655584409832954,-0.129499614238739
1667267012470357000,2.04635693359375,0.08918370306491852,0.014049487188458443,-0.13499724864959717
1667267012472754700,2.048754638671875,0.08735115826129913,-0.0030542362947016954,-0.1441599577665329
1667267012475152400,2.05115234375,0.08857285231351852,-0.022601349279284477,-0.15026842057704926
1667267012477550300,2.05355029296875,0.08796200156211853,-0.04703523963689804,-0.16187451779842377
1667267012479948000,2.055947998046875,0.09040539711713791,-0.06902574002742767,-0.17531315982341766
1667267012482345700,2.058345703125,0.09529217332601547,-0.09345962852239609,-0.18936264514923096
1667267012484743700,2.06074365234375,0.09651386737823486,-0.1178935244679451,-0.20463383197784424
1667267012487141400,2.063141357421875,0.10017894953489304,-0.13988402485847473,-0.2223484069108963
1667267012489539000,2.0655390625,0.10628741979598999,-0.16065283119678497,-0.24128466844558716
1667267012491936800,2.067936767578125,0.10811996459960938,-0.17714570462703705,-0.2620534598827362
1667267012494334700,2.070334716796875,0.11239589750766754,-0.1954711228609085,-0.28221142292022705
1667267012496732400,2.072732421875,0.11422843486070633,-0.20707722008228302,-0.3029802441596985
1667267012499130000,2.075130126953125,0.1172826737165451,-0.22051586210727692,-0.3274141252040863
1667267012501527800,2.07752783203125,0.11972606182098389,-0.23028941452503204,-0.34818294644355774
1667267012503925800,2.07992578125,0.12155860662460327,-0.237008735537529,-0.3701734244823456
1667267012506323500,2.082323486328125,0.12278030067682266,-0.237008735537529,-0.38849884271621704
1667267012508721200,2.08472119140625,0.12583453953266144,-0.237008735537529,-0.4062134325504303
1667267012511119000,2.087119140625,0.12827792763710022,-0.23273280262947083,-0.42331716418266296
1667267012513516800,2.089516845703125,0.129499614238739,-0.2241809368133545,-0.43614494800567627
1667267012515914500,2.09191455078125,0.129499614238739,-0.21562908589839935,-0.448361873626709
1667267012518312200,2.094312255859375,0.129499614238739,-0.20280128717422485,-0.45385950803756714
1667267012520710100,2.096710205078125,0.1301104724407196,-0.19302773475646973,-0.4611896872520447
