time,seconds_elapsed,z,y,x
1667267010516181200,0.09218115234375,0.026342788711190224,0.2575484812259674,0.2734304964542389
1667267010518579000,0.094578857421875,0.031229566782712936,0.31313556432724,0.30336201190948486
1667267010520976600,0.0969765625,0.03489464893937111,0.36017081141471863,0.33085015416145325
1667267010523374300,0.099374267578125,0.04100312292575836,0.4017084240913391,0.35589489340782166
1667267010525772300,0.101772216796875,0.044668205082416534,0.4316399395465851,0.37116608023643494
1667267010528170000,0.104169921875,0.05016583204269409,0.46034976840019226,0.38399386405944824
1667267010530567700,0.106567626953125,0.057496000081300735,0.4823402762413025,0.3925457298755646
1667267010532965400,0.10896533203125,0.06482616811990738,0.4963897466659546,0.3992650508880615
1667267010535363300,0.11136328125,0.07154548168182373,0.5049416422843933,0.3992650508880615
1667267010537761000,0.113760986328125,0.08009734749794006,0.5104392170906067,0.39621078968048096
1667267010540158700,0.11615869140625,0.0892600566148758,0.5098283886909485,0.389491468667984
1667267010542556400,0.118556396484375,0.09842276573181152,0.5061632990837097,0.3784962296485901
1667267010544954400,0.120954345703125,0.10941801220178604,0.49944397807121277,0.36750099062919617
1667267010547352000,0.12335205078125,0.11919157207012177,0.48967042565345764,0.3491755723953247
1667267010549749800,0.125749755859375,0.13018682599067688,0.4792860448360443,0.33023929595947266
1667267010552147500,0.1281474609375,0.1417929232120514,0.4664582312107086,0.3119138777256012
1667267010554545400,0.13054541015625,0.1552315652370453,0.45057621598243713,0.2887016832828522
1667267010556943000,0.132943115234375,0.1668376624584198,0.4316399395465851,0.26243525743484497
1667267010559340800,0.1353408203125,0.1796654462814331,0.41087114810943604,0.23739051818847656
1667267010561738500,0.137738525390625,0.19127154350280762,0.3858264088630676,0.21356746554374695
1667267010564136400,0.140136474609375,0.2065427303314209,0.364446759223938,0.18607935309410095
1667267010566534100,0.1425341796875,0.2205922156572342,0.3381803035736084,0.16347800195217133
1667267010568931800,0.144931884765625,0.2315874695777893,0.3106921911239624,0.13721156120300293
1667267010571329500,0.14732958984375,0.2444152534008026,0.2819823622703552,0.11338852345943451
1667267010573727500,0.1497275390625,0.2560213506221771,0.2563267946243286,0.09078717231750488
1667267010576125200,0.152125244140625,0.26701661944389343,0.22822780907154083,0.06757497787475586
1667267010578523000,0.15452294921875,0.2755684554576874,0.20073968172073364,0.04497363045811653
1667267010580920600,0.156920654296875,0.2859528660774231,0.17569494247436523,0.02420482225716114
1667267010583318500,0.159318603515625,0.29328304529190063,0.14759597182273865,0.0022143214009702206
1667267010585716200,0.16171630859375,0.3000023663043976,0.12132953852415085,-0.014278554357588291
1667267010588114000,0.164114013671875,0.30488914251327515,0.09323056042194366,-0.031382277607917786
1667267010590511600,0.16651171875,0.3079433739185333,0.06818582862615585,-0.04665346071124077
1667267010592909600,0.16890966796875,0.3097759187221527,0.039476003497838974,-0.057648710906505585
1667267010595307300,0.171307373046875,0.3116084635257721,0.015042114071547985,-0.0680331140756607
1667267010597705000,0.173705078125,0.3122192919254303,-0.004504998680204153,-0.07536327838897705
1667267010600102700,0.1761025390625,0.3079433739185333,-0.019776180386543274,-0.08269345015287399
1667267010602500600,0.17850048828125,0.30366745591163635,-0.027717193588614464,-0.08635853230953217
1667267010604898300,0.180898193359375,0.2981698215007782,-0.03321481868624687,-0.08819106966257095
1667267010607296000,0.1832958984375,0.2890070974826813,-0.03504735976457596,-0.09124530851840973
1667267010609693700,0.185693603515625,0.28106608986854553,-0.030160583555698395,-0.09124530851840973
1667267010612091600,0.188091552734375,0.2688491642475128,-0.022219568490982056,-0.09002361446619034
1667267010614489300,0.1904892578125,0.2566322088241577,-0.014278554357588291,-0.08696937561035156
1667267010616887000,0.192886962890625,0.24013933539390564,-0.002672456670552492,-0.08819106966257095
1667267010619284700,0.19528466796875,0.22486814856529236,0.008322793990373611,-0.08513683825731277
1667267010621682400,0.197682373046875,0.2053210288286209,0.019928891211748123,-0.08269345015287399
1667267010624080400,0.200080322265625,0.18760646879673004,0.03214583545923233,-0.0814717561006546
1667267010626478000,0.20247802734375,0.16928105056285858,0.040697697550058365,-0.08086090534925461
1667267010628875800,0.204875732421875,0.14973393082618713,0.04680617153644562,-0.0814717561006546
1667267010631273500,0.2072734375,0.1289651244878769,0.05169294774532318,-0.08391514420509338
1667267010633671400,0.20967138671875,0.11063970625400543,0.053525492548942566,-0.08635853230953217
1667267010636069000,0.212069091796875,0.09231429547071457,0.053525492548942566,-0.09002361446619034
1667267010638466800,0.214466796875,0.07643226534128189,0.05657972767949104,-0.09185615926980972
1667267010640864500,0.216864501953125,0.058717694133520126,0.05535803362727165,-0.09613208472728729
1667267010643262500,0.219262451171875,0.04527905210852623,0.05413633957505226,-0.10040801763534546
1667267010645660200,0.22166015625,0.03245126083493233,0.05413633957505226,-0.10468395054340363
1667267010648057900,0.224057861328125,0.023899398744106293,0.05657972767949104,-0.10712733864784241
1667267010650455600,0.22645556640625,0.0165692325681448,0.05963396281003952,-0.11079242080450058
1667267010652853500,0.228853515625,0.007406522985547781,0.06146650388836861,-0.11629004776477814
1667267010655251200,0.231251220703125,0.005573981441557407,0.06390989571809769,-0.11995512992143631
1667267010657649000,0.23364892578125,0.004352286923676729,0.06513158977031708,-0.12606360018253326
1667267010660046600,0.236046630859375,0.005573981441557407,0.06696412712335587,-0.12911784648895264
1667267010662444500,0.238444580078125,0.008017370477318764,0.06390989571809769,-0.13217207789421082
1667267010664842200,0.24084228515625,0.011071606539189816,0.06146650388836861,-0.13705885410308838
1667267010667240000,0.243239990234375,0.017180079594254494,0.05169294774532318,-0.14072394371032715
1667267010669637600,0.2456376953125,0.023899398744106293,0.043141089379787445,-0.1462215632200241
1667267010672035600,0.24803564453125,0.03184041380882263,0.03092414326965809,-0.1492757946252823
1667267010674433300,0.250433349609375,0.04161396995186806,0.01626380905508995,-0.15599511563777924
1667267010676831000,0.2528310546875,0.049554985016584396,0.0022143214009702206,-0.15660595893859863
1667267010679228700,0.255228759765625,0.061771929264068604,-0.012446013279259205,-0.1608818918466568
1667267010681626600,0.257626708984375,0.0745997205376625,-0.025884652510285378,-0.159660205245018
1667267010684024300,0.2600244140625,0.08681666851043701,-0.038101598620414734,-0.1614927500486374
1667267010686422000,0.262422119140625,0.09597937762737274,-0.04787515476346016,-0.15660595893859863
1667267010688819700,0.26481982421875,0.10697462409734726,-0.05276193097233772,-0.15599511563777924
1667267010691217700,0.2672177734375,0.11735902726650238,-0.05459447205066681,-0.15355172753334045
1667267010693615400,0.269615478515625,0.1271325796842575,-0.057648710906505585,-0.1468324065208435
1667267010696013000,0.272012939453125,0.13568444550037384,-0.05825955793261528,-0.14072394371032715
1667267010698410800,0.27441064453125,0.14362546801567078,-0.058870404958724976,-0.1327829211950302
1667267010700808700,0.27680859375,0.15034478902816772,-0.05459447205066681,-0.12545275688171387
1667267010703206400,0.279206298828125,0.15828579664230347,-0.053983625024557114,-0.11873343586921692
1667267010705604000,0.28160400390625,0.1656159609556198,-0.05337277799844742,-0.11018157750368118
1667267010708001800,0.284001708984375,0.17416782677173615,-0.053983625024557114,-0.10468395054340363
1667267010710399700,0.286399658203125,0.1784437596797943,-0.05154023692011833,-0.09796462953090668
1667267010712797400,0.28879736328125,0.18821731209754944,-0.05154023692011833,-0.09124530851840973
1667267010715195100,0.291195068359375,0.193104088306427,-0.05215108394622803,-0.08574768155813217
1667267010717592800,0.2935927734375,0.19921256601810455,-0.05459447205066681,-0.07902836054563522
1667267010719990800,0.29599072265625,0.2065427303314209,-0.060092099010944366,-0.07414158433675766
1667267010722388500,0.298388427734375,0.21265120804309845,-0.06253548711538315,-0.0680331140756607
1667267010724786200,0.3007861328125,0.2193705290555954,-0.06558972597122192,-0.06375718116760254
1667267010727184000,0.303183837890625,0.22547899186611176,-0.0692548081278801,-0.05948125198483467
1667267010729581800,0.305581787109375,0.2334200143814087,-0.07536327838897705,-0.056427016854286194
1667267010731979500,0.3079794921875,0.23769593238830566,-0.08025006204843521,-0.056427016854286194
1667267010734377200,0.310377197265625,0.2456369549036026,-0.08574768155813217,-0.05276193097233772
1667267010736775000,0.31277490234375,0.25113457441329956,-0.08941277116537094,-0.049707695841789246
1667267010739172900,0.3151728515625,0.2602972984313965,-0.0955212414264679,-0.050929389894008636
1667267010741570600,0.317570556640625,0.26518407464027405,-0.09979717433452606,-0.050929389894008636
1667267010743968300,0.31996826171875,0.2731250822544098,-0.10712733864784241,-0.05154023692011833
1667267010746366000,0.322365966796875,0.27801185846328735,-0.11629004776477814,-0.053983625024557114
1667267010748764000,0.324763916015625,0.2816769480705261,-0.12667444348335266,-0.05703786388039589
1667267010751161600,0.32716162109375,0.2877854108810425,-0.13828055560588837,-0.06192464008927345
1667267010753559300,0.329559326171875,0.2877854108810425,-0.1480541080236435,-0.06742226332426071
1667267010755957000,0.33195703125,0.2890070974826813,-0.15843850374221802,-0.07230904698371887
1667267010758355000,0.33435498046875,0.2877854108810425,-0.16454698145389557,-0.0814717561006546
1667267010760752600,0.336752685546875,0.2865637242794037,-0.16821207106113434,-0.09002361446619034
1667267010763150300,0.339150390625,0.2828986346721649,-0.17065545916557312,-0.09979717433452606
1667267010765548000,0.341548095703125,0.27862271666526794,-0.17126630246639252,-0.1083490327000618
1667267010767946000,0.343946044921875,0.2743467688560486,-0.16576866805553436,-0.11812258511781693
1667267010770343700,0.34634375,0.2712925374507904,-0.1614927500486374,-0.12850698828697205
1667267010772741400,0.348741455078125,0.26335152983665466,-0.15477342903614044,-0.14072394371032715
1667267010775139000,0.35113916015625,0.2566322088241577,-0.1474432498216629,-0.15049749612808228
1667267010777537000,0.353537109375,0.25418880581855774,-0.14194563031196594,-0.16454698145389557
1667267010779934700,0.355934814453125,0.24808034300804138,-0.13644801080226898,-0.17615307867527008
1667267010782332400,0.35833251953125,0.24380441009998322,-0.1340046226978302,-0.1871483325958252
1667267010784730000,0.360730224609375,0.24136102199554443,-0.13156123459339142,-0.1993652731180191
1667267010787128000,0.363128173828125,0.23586340248584747,-0.1327829211950302,-0.2134147584438324
1667267010789525800,0.36552587890625,0.2321983128786087,-0.1340046226978302,-0.2274642437696457
1667267010791923500,0.36792333984375,0.22670069336891174,-0.1462215632200241,-0.2409028857946396
1667267010794321200,0.370321044921875,0.22242476046085358,-0.159660205245018,-0.2549523711204529
1667267010796719000,0.372718994140625,0.2193705290555954,-0.17554223537445068,-0.26961269974708557
1667267010799116800,0.37511669921875,0.21631628274917603,-0.19386765360832214,-0.28488388657569885
1667267010801514500,0.377514404296875,0.21081866323947906,-0.21646900475025177,-0.29893338680267334
1667267010803912200,0.379912109375,0.21142950654029846,-0.2409028857946396,-0.3154262602329254
1667267010806310000,0.382309814453125,0.20837527513504028,-0.2665584683418274,-0.3294757306575775
1667267010808707800,0.384707763671875,0.2071535736322403,-0.290381520986557,-0.3465794622898102
1667267010811105500,0.38710546875,0.2053210288286209,-0.317869633436203,-0.36368319392204285
1667267010813503200,0.389503173828125,0.2065427303314209,-0.343525230884552,-0.37651097774505615
1667267010815901000,0.39190087890625,0.20409934222698212,-0.3673482835292816,-0.38994961977005005
1667267010818299000,0.394298828125,0.2059318870306015,-0.39117130637168884,-0.40277740359306335
1667267010820696600,0.396696533203125,0.2047101855278015,-0.41438350081443787,-0.41438350081443787
1667267010823094300,0.39909423828125,0.2053210288286209,-0.44133713841438293,-0.42660045623779297
1667267010825492000,0.401491943359375,0.20348849892616272,-0.46210595965385437,-0.43881741166114807
1667267010827890000,0.403889892578125,0.20287764072418213,-0.4883723855018616,-0.4504235088825226
1667267010830287600,0.40628759765625,0.20226679742336273,-0.5128062963485718,-0.4626404345035553
1667267010832685300,0.408685302734375,0.19982340931892395,-0.5396835803985596,-0.473024845123291
1667267010835083000,0.4110830078125,0.19738002121448517,-0.5696150660514832,-0.48157671093940735
1667267010837481000,0.41348095703125,0.1949366331100464,-0.5983248949050903,-0.4895177185535431
1667267010839878700,0.415878662109375,0.1924932450056076,-0.6276455521583557,-0.49868044257164
1667267010842276400,0.4182763671875,0.19127154350280762,-0.6551336646080017,-0.5066214203834534
1667267010844674000,0.420674072265625,0.18821731209754944,-0.6814001202583313,-0.5139515995979309
1667267010847072000,0.423072021484375,0.18760646879673004,-0.7040014863014221,-0.5200600624084473
1667267010849469700,0.4254697265625,0.18394137918949127,-0.7253811359405518,-0.5255576968193054
1667267010851867400,0.427867431640625,0.18271969258785248,-0.7467607855796814,-0.5310553312301636
1667267010854265000,0.43026513671875,0.1821088343858719,-0.7644753456115723,-0.5353312492370605
1667267010856663000,0.4326630859375,0.1814979910850525,-0.7821899056434631,-0.5402180552482605
1667267010859060700,0.435060791015625,0.1814979910850525,-0.7992936372756958,-0.5451048016548157
1667267010861458400,0.43745849609375,0.1814979910850525,-0.8194515705108643,-0.5487698912620544
1667267010863856000,0.439856201171875,0.18394137918949127,-0.8371661901473999,-0.5536566972732544
1667267010866254000,0.442254150390625,0.18516308069229126,-0.859767496585846,-0.556100070476532
1667267010868651800,0.44465185546875,0.18699561059474945,-0.8872556686401367,-0.560375988483429
1667267010871049500,0.447049560546875,0.19127154350280762,-0.9171871542930603,-0.5634302496910095
1667267010873447200,0.449447265625,0.19554747641086578,-0.9501729011535645,-0.5689278841018677
1667267010875845000,0.45184521484375,0.20287764072418213,-0.9898779988288879,-0.5719820857048035
1667267010878242800,0.454242919921875,0.2059318870306015,-1.0320264101028442,-0.5762580037117004
1667267010880640500,0.456640625,0.21509459614753723,-1.0815050601959229,-0.5780905485153198
1667267010883038200,0.4590380859375,0.22242476046085358,-1.132816195487976,-0.5829773545265198
1667267010885436200,0.461436279296875,0.22486814856529236,-1.1822948455810547,-0.5787014365196228
1667267010887833900,0.463833740234375,0.20959696173667908,-1.203063726425171,-0.5646519064903259
1667267010890231600,0.4662314453125,0.17294612526893616,-1.1627477407455444,-0.5255576968193054
1667267010892629200,0.468629150390625,0.12468919903039932,-1.091889500617981,-0.46997061371803284
1667267010895027200,0.471027099609375,0.08498412370681763,-1.0564603805541992,-0.41804859042167664
1667267010897425000,0.4734248046875,0.058717694133520126,-1.0747857093811035,-0.3838411569595337
1667267010899822600,0.475822509765625,0.043446511030197144,-1.1248751878738403,-0.36062896251678467
1667267010902220300,0.47822021484375,0.040392275899648666,-1.1792405843734741,-0.33802759647369385
1667267010904618200,0.4806181640625,0.048333290964365005,-1.2171131372451782,-0.31176117062568665
1667267010907016000,0.483015869140625,0.05993938818573952,-1.239714503288269,-0.2769428789615631
1667267010909413600,0.48541357421875,0.08009734749794006,-1.2470446825027466,-0.23296187818050385
1667267010911811300,0.487811279296875,0.10575293004512787,-1.2446012496948242,-0.1847049444913864
1667267010914209300,0.490209228515625,0.13568444550037384,-1.2128372192382812,-0.12789614498615265
1667267010916607000,0.49260693359375,0.16500511765480042,-1.1047172546386719,-0.05948125198483467
1667267010919004700,0.495004638671875,0.1918824017047882,-0.8872556686401367,0.02420482225716114
1667267010921402400,0.49740234375,0.2193705290555954,-0.6441384553909302,0.10483665764331818
1667267010923800300,0.49980029296875,0.269459992647171,-0.47859883308410645,0.14881765842437744
1667267010926198000,0.502197998046875,0.3409291207790375,-0.3807868957519531,0.14515258371829987
1667267010928595700,0.504595703125,0.42095011472702026,-0.32397812604904175,0.11277767270803452
1667267010930993400,0.506993408203125,0.48631078004837036,-0.3306974470615387,0.07246175408363342
1667267010933391400,0.509391357421875,0.5345677137374878,-0.38994961977005005,0.03458922728896141
1667267010935789000,0.5117890625,0.5706077218055725,-0.4743228852748871,-0.0008399150101467967
1667267010938186800,0.514186767578125,0.5889331102371216,-0.5799994468688965,-0.031382277607917786
1667267010940584400,0.51658447265625,0.5950415730476379,-0.6832326650619507,-0.053983625024557114
1667267010942982400,0.518982421875,0.5852680206298828,-0.7675296068191528,-0.06620056927204132
1667267010945380000,0.521380126953125,0.5663317441940308,-0.823116660118103,-0.06986565887928009
1667267010947777800,0.52377783203125,0.5425087213516235,-0.8383878469467163,-0.06558972597122192
1667267010950175500,0.526175537109375,0.5205182433128357,-0.8249492049217224,-0.060092099010944366
1667267010952573400,0.528573486328125,0.4942517876625061,-0.7913526296615601,-0.05215108394622803
1667267010954971100,0.53097119140625,0.4692070484161377,-0.7437065243721008,-0.047264307737350464
1667267010957368800,0.533368896484375,0.4447731673717499,-0.6807892918586731,-0.047264307737350464
1667267010959766500,0.5357666015625,0.4258368909358978,-0.6087092757225037,-0.05215108394622803
1667267010962164500,0.53816455078125,0.405678927898407,-0.5396835803985596,-0.06497887521982193
1667267010964562200,0.540562255859375,0.38429927825927734,-0.4847072958946228,-0.08452598750591278
1667267010966959900,0.5429599609375,0.3641413152217865,-0.4456130862236023,-0.10957072675228119
1667267010969357600,0.545357666015625,0.34276166558265686,-0.4217136800289154,-0.13705885410308838
1667267010971755500,0.547755615234375,0.3219928741455078,-0.4088858962059021,-0.1724879890680313
1667267010974153200,0.5501533203125,0.30183491110801697,-0.3936147093772888,-0.20730629563331604
1667267010976551000,0.552551025390625,0.2871745824813843,-0.3820086121559143,-0.24823305010795593
1667267010978948600,0.554948486328125,0.2706816792488098,-0.3594072461128235,-0.2891598343849182
1667267010981346600,0.5573466796875,0.2590755820274353,-0.3319191336631775,-0.3282540440559387
1667267010983744300,0.559744140625,0.24930204451084137,-0.3007659316062927,-0.3691807985305786
1667267010986142000,0.562141845703125,0.24197186529636383,-0.2641150951385498,-0.40399911999702454
1667267010988539600,0.56453955078125,0.2334200143814087,-0.22868594527244568,-0.4369848668575287
1667267010990937600,0.5669375,0.22425730526447296,-0.19081340730190277,-0.4656946659088135
1667267010993335300,0.569335205078125,0.21387289464473724,-0.15538427233695984,-0.49318280816078186
1667267010995733000,0.57173291015625,0.20165595412254333,-0.1217876747250557,-0.5121190547943115
1667267010998130700,0.574130615234375,0.18882815539836884,-0.09185615926980972,-0.5273902416229248
1667267011000528600,0.576528564453125,0.17477867007255554,-0.06436803191900253,-0.5353312492370605
1667267011002926300,0.57892626953125,0.15950748324394226,-0.038101598620414734,-0.5396072268486023
1667267011005324000,0.581323974609375,0.14790138602256775,-0.0130568603053689,-0.5371637940406799
1667267011007721700,0.5837216796875,0.13140851259231567,0.01382041908800602,-0.5347204208374023
1667267011010119700,0.58611962890625,0.11796987801790237,0.03825430944561958,-0.5267794132232666
1667267011012517400,0.588517333984375,0.10575293004512787,0.05963396281003952,-0.5139515995979309
1667267011014915000,0.5909150390625,0.09475768357515335,0.07918107509613037,-0.500512957572937
1667267011017312800,0.593312744140625,0.08742751181125641,0.09750649333000183,-0.4846309423446655
1667267011019710700,0.595710693359375,0.08009734749794006,0.10728005319833755,-0.46935975551605225
1667267011022108400,0.5981083984375,0.07337802648544312,0.11216682940721512,-0.449812650680542
1667267011024506000,0.600506103515625,0.07093463838100433,0.1152210608124733,-0.42843300104141235
1667267011026903800,0.60290380859375,0.06604786217212677,0.1146102175116539,-0.4082750380039215
1667267011029301500,0.605301513671875,0.06421531736850739,0.1152210608124733,-0.3862845301628113
1667267011031699500,0.607699462890625,0.061771929264068604,0.11766445636749268,-0.36368319392204285
1667267011034097200,0.61009716796875,0.058717694133520126,0.12560546398162842,-0.33802759647369385
1667267011036494800,0.612494873046875,0.05077667906880379,0.15065020322799683,-0.3148154020309448
1667267011038892500,0.614892578125,0.0361163429915905,0.18363595008850098,-0.29526829719543457
1667267011041290500,0.61729052734375,0.01901262067258358,0.2202867865562439,-0.27449947595596313
1667267011043688200,0.619688232421875,0.00129805039614439,0.259991854429245,-0.2543415129184723
1667267011046086000,0.6220859375,-0.020692450925707817,0.2960318624973297,-0.23296187818050385
1667267011048483600,0.624483642578125,-0.043293800204992294,0.33023929595947266,-0.211582213640213
1667267011050881500,0.626881591796875,-0.06589514762163162,0.3656684458255768,-0.19570018351078033
1667267011053279200,0.629279296875,-0.08666395395994186,0.39682164788246155,-0.17981816828250885
1667267011055677000,0.631677001953125,-0.10560022294521332,0.4273640215396881,-0.16576866805553436
1667267011058074600,0.63407470703125,-0.1214822456240654,0.4579063653945923,-0.15110833942890167
1667267011060472600,0.63647265625,-0.13736428320407867,0.4927246570587158,-0.14133478701114655
1667267011062870300,0.638870361328125,-0.15385715663433075,0.5318188667297363,-0.12850698828697205
1667267011065268000,0.64126806640625,-0.16851748526096344,0.5739673376083374,-0.11812258511781693
1667267011067665700,0.643665771484375,-0.18012358248233795,0.6093965172767639,-0.11079242080450058
1667267011070063600,0.646063720703125,-0.19172967970371246,0.6399388313293457,-0.10468395054340363
1667267011072461300,0.64846142578125,-0.20211409032344818,0.6662052869796753,-0.10101886838674545
1667267011074859000,0.65085888671875,-0.21005509793758392,0.697969377040863,-0.09613208472728729
1667267011077256700,0.653256591796875,-0.2143310308456421,0.7266791462898254,-0.09246700257062912
1667267011079654700,0.655654541015625,-0.21799612045288086,0.7553889751434326,-0.08880192041397095
1667267011082052400,0.65805224609375,-0.21860696375370026,0.7871530652046204,-0.08574768155813217
1667267011084450000,0.660449951171875,-0.2143310308456421,0.8103652596473694,-0.08635853230953217
1667267011086847700,0.66284765625,-0.21005509793758392,0.8183062672615051,-0.08880192041397095
1667267011089245700,0.66524560546875,-0.20455747842788696,0.8103652596473694,-0.09002361446619034
1667267011091643400,0.667643310546875,-0.19600561261177063,0.7926506996154785,-0.09185615926980972
1667267011094041000,0.670041015625,-0.1856212168931961,0.776157796382904,-0.09613208472728729
1667267011096438800,0.672438720703125,-0.17645850777626038,0.7657734155654907,-0.09918632358312607
1667267011098836700,0.674836669921875,-0.16301986575126648,0.762108325958252,-0.09857547283172607
1667267011101234400,0.677234375,-0.15385715663433075,0.7608866095542908,-0.09979717433452606
1667267011103632100,0.679632080078125,-0.14286190271377563,0.757221519947052,-0.09674293547868729
1667267011106029800,0.68202978515625,-0.1355317384004593,0.752945601940155,-0.0949103906750679
1667267011108427800,0.684427734375,-0.12820157408714294,0.7462263107299805,-0.09124530851840973
1667267011110825500,0.686825439453125,-0.11903885751962662,0.7309551239013672,-0.08880192041397095
1667267011113223200,0.68922314453125,-0.10987614840269089,0.7120188474655151,-0.08452598750591278
1667267011115620900,0.691620849609375,-0.10071343928575516,0.6900283098220825,-0.07902836054563522
1667267011118018800,0.694018798828125,-0.08727480471134186,0.6662052869796753,-0.07719582319259644
1667267011120416500,0.69641650390625,-0.07566870748996735,0.6436039209365845,-0.0686439573764801
1667267011122814200,0.698814208984375,-0.06528430432081223,0.6246677041053772,-0.06620056927204132
1667267011125212000,0.7012119140625,-0.05306735634803772,0.6063422560691833,-0.06375718116760254
1667267011127609900,0.70360986328125,-0.043293800204992294,0.5898494124412537,-0.060092099010944366
1667267011130007600,0.706007568359375,-0.03290939703583717,0.5709131360054016,-0.060092099010944366
1667267011132405200,0.7084052734375,-0.0231358390301466,0.5525876879692078,-0.060092099010944366
1667267011134803000,0.710802978515625,-0.013973130844533443,0.5342622995376587,-0.06070294603705406
1667267011137201000,0.713200927734375,-0.006642963737249374,0.5147151947021484,-0.06436803191900253
1667267011139598600,0.7155986328125,-0.0011453386396169662,0.4945572018623352,-0.06742226332426071
1667267011141996300,0.717996337890625,0.0067956759594380856,0.47562095522880554,-0.07536327838897705
1667267011144394000,0.72039404296875,0.015958385542035103,0.4579063653945923,-0.08330429345369339
1667267011146792000,0.7227919921875,0.019623467698693275,0.4401918053627014,-0.09735377877950668
1667267011149189600,0.725189697265625,0.023288551717996597,0.42369893193244934,-0.10895988345146179
1667267011151587300,0.72758740234375,0.02695363573729992,0.40842774510383606,-0.12484190613031387
1667267011153985000,0.729985107421875,0.030007870867848396,0.39376741647720337,-0.14499986171722412
1667267011156383000,0.732383056640625,0.031229566782712936,0.38277217745780945,-0.16576866805553436
1667267011158780700,0.73478076171875,0.028786176815629005,0.37055522203445435,-0.1865374743938446
1667267011161178400,0.737178466796875,0.023288551717996597,0.3638359010219574,-0.21036052703857422
1667267011163576000,0.739576171875,0.018401773646473885,0.36872267723083496,-0.23601610958576202
1667267011165974000,0.74197412109375,0.01046075951308012,0.38521555066108704,-0.2561740577220917
1667267011168371700,0.744371826171875,-0.0005344913806766272,0.4182012975215912,-0.2793862521648407
1667267011170769400,0.746769287109375,-0.007253811229020357,0.4548521339893341,-0.30015507340431213
1667267011173167000,0.7491669921875,-0.014583977870643139,0.48722705245018005,-0.32642149925231934
1667267011175565000,0.75156494140625,-0.017027366906404495,0.512882649898529,-0.35207709670066833
1667267011177962800,0.753962646484375,-0.021914144977927208,0.5354839563369751,-0.37590011954307556
1667267011180360400,0.7563603515625,-0.02557922899723053,0.5580853223800659,-0.40277740359306335
1667267011182758100,0.758758056640625,-0.026190076023340225,0.5861843228340149,-0.42660045623779297
1667267011185156000,0.761156005859375,-0.028633465990424156,0.6197808980941772,-0.45347774028778076
1667267011187553800,0.7635537109375,-0.030466007068753242,0.6570425629615784,-0.47974416613578796
1667267011189951500,0.765951416015625,-0.03168770298361778,0.6973584890365601,-0.504788875579834
1667267011192349200,0.76834912109375,-0.036574479192495346,0.7370635867118835,-0.5261685848236084
1667267011194747100,0.7707470703125,-0.03962871432304382,0.7743252515792847,-0.5469373464584351
1667267011197144800,0.773144775390625,-0.045737188309431076,0.8134194612503052,-0.5652627944946289
1667267011199542500,0.77554248046875,-0.05306735634803772,0.8445726633071899,-0.584199070930481
1667267011201940200,0.777940185546875,-0.05734328553080559,0.8738933801651001,-0.5994702577590942
1667267011204338200,0.780338134765625,-0.06284090876579285,0.8977164030075073,-0.6159631013870239
1667267011206736000,0.78273583984375,-0.07078192383050919,0.9233719706535339,-0.6275691986083984
1667267011209133600,0.785133544921875,-0.07933378964662552,0.9545251727104187,-0.6416186690330505
1667267011211531500,0.787531494140625,-0.08605311065912247,0.9801807999610901,-0.6495596766471863
1667267011213929200,0.78992919921875,-0.08849649876356125,1.0033929347991943,-0.658111572265625
1667267011216327000,0.792326904296875,-0.09399411827325821,1.0266051292419434,-0.6611657738685608
1667267011218724600,0.794724609375,-0.09704835712909698,1.048595666885376,-0.666663408279419
1667267011221122600,0.79712255859375,-0.09704835712909698,1.0687536001205444,-0.6691068410873413
1667267011223520300,0.799520263671875,-0.0958266630768776,1.0925766229629517,-0.6697176694869995
1667267011225918000,0.80191796875,-0.09765920788049698,1.1127346754074097,-0.6678851246833801
1667267011228315600,0.804315673828125,-0.09765920788049698,1.1353360414505005,-0.6648308634757996
1667267011230713600,0.806713623046875,-0.09765920788049698,1.159769892692566,-0.6599441170692444
1667267011233111300,0.809111328125,-0.10193513333797455,1.1848145723342896,-0.6550573110580444
1667267011235509000,0.811509033203125,-0.1086544543504715,1.210470199584961,-0.6465054750442505
1667267011237906700,0.81390673828125,-0.11720632016658783,1.2355148792266846,-0.6361210346221924
1667267011240304600,0.8163046875,-0.12942326068878174,1.2587270736694336,-0.6232932806015015
1667267011242702300,0.818702392578125,-0.14225105941295624,1.2813284397125244,-0.6080220937728882
1667267011245100000,0.82110009765625,-0.1605764776468277,1.2935454845428467,-0.5927509069442749
1667267011247497700,0.823497802734375,-0.17768019437789917,1.2996538877487183,-0.5725929737091064
1667267011249895700,0.825895751953125,-0.19600561261177063,1.294767141342163,-0.5506024360656738
1667267011252293400,0.82829345703125,-0.2118876427412033,1.2819393873214722,-0.5231143236160278
1667267011254691000,0.830691162109375,-0.22838051617145538,1.2562837600708008,-0.49501535296440125
1667267011257088800,0.8330888671875,-0.24426254630088806,1.220854640007019,-0.46630552411079407
1667267011259486700,0.83548681640625,-0.2650313675403595,1.1897014379501343,-0.43881741166114807
1667267011261884400,0.837884521484375,-0.2815242409706116,1.1463311910629272,-0.4119401276111603
1667267011264282000,0.8402822265625,-0.29618456959724426,1.0913549661636353,-0.3844519853591919
1667267011266679800,0.8426796875,-0.3029802441596985,1.0223292112350464,-0.36246147751808167
1667267011269077800,0.845077880859375,-0.30847787857055664,0.9453625082969666,-0.3404709994792938
1667267011271475500,0.847475341796875,-0.3054236173629761,0.863508939743042,-0.320313036441803
1667267011273873200,0.849873046875,-0.2925194799900055,0.7718818783760071,-0.29771167039871216
1667267011276270800,0.852270751953125,-0.2748049199581146,0.6710920929908752,-0.2757211923599243
1667267011278668800,0.854668701171875,-0.2522035539150238,0.5562527775764465,-0.2549523711204529
1667267011281066500,0.85706640625,-0.22349373996257782,0.4304182529449463,-0.23174017667770386
1667267011283464200,0.859464111328125,-0.18989713490009308,0.3009186387062073,-0.20974968373775482
1667267011285862000,0.86186181640625,-0.15202461183071136,0.1677539348602295,-0.1865374743938446
1667267011288259800,0.864259765625,-0.10682191699743271,0.03214583545923233,-0.16271443665027618
1667267011290657500,0.866657470703125,-0.05734328553080559,-0.10712733864784241,-0.13705885410308838
1667267011293055200,0.86905517578125,-0.006032116711139679,-0.24517881870269775,-0.11018157750368118
1667267011295453000,0.871452880859375,0.053830914199352264,-0.3826194405555725,-0.08452598750591278
1667267011297851000,0.873850830078125,0.11552648991346359,-0.5158604979515076,-0.06131379306316376
1667267011300248600,0.87624853515625,0.1821088343858719,-0.6441384553909302,-0.040544986724853516
1667267011302646300,0.878646240234375,0.25235626101493835,-0.7626428008079529,-0.025273805484175682
1667267011305044000,0.8810439453125,0.31954947113990784,-0.8725953102111816,-0.016111096367239952
1667267011307442000,0.88344189453125,0.3904077410697937,-0.9721634387969971,-0.016721943393349648
1667267011309839600,0.885839599609375,0.4569900929927826,-1.060125470161438,-0.02405211143195629
1667267011312237300,0.8882373046875,0.5217399001121521,-1.1377030611038208,-0.03626905754208565
1667267011314635000,0.890635009765625,0.5828246474266052,-1.201841950416565,-0.05215108394622803
1667267011317033000,0.893032958984375,0.6378008723258972,-1.249488115310669,-0.06986565887928009
1667267011319430700,0.8954306640625,0.6860578060150146,-1.2836954593658447,-0.09063446521759033
1667267011321828400,0.897828369140625,0.7257629036903381,-1.3007992506027222,-0.11018157750368118
1667267011324226000,0.90022607421875,0.7556943893432617,-1.3166812658309937,-0.12728530168533325
1667267011326624000,0.9026240234375,0.7740198373794556,-1.3282873630523682,-0.14377817511558533
1667267011329021700,0.905021728515625,0.7844042181968689,-1.3350067138671875,-0.15721681714057922
1667267011331419400,0.90741943359375,0.7819608449935913,-1.3282873630523682,-0.16943375766277313
1667267011333817000,0.909817138671875,0.7703547477722168,-1.3166812658309937,-0.1847049444913864
1667267011336215000,0.912215087890625,0.7489750981330872,-1.2934690713882446,-0.2005869746208191
1667267011338612700,0.91461279296875,0.7184327244758606,-1.2568182945251465,-0.21646900475025177
1667267011341010400,0.917010498046875,0.6775059700012207,-1.2085613012313843,-0.23479440808296204
1667267011343408000,0.919408203125,0.6292490363121033,-1.1450332403182983,-0.25556322932243347
1667267011345806000,0.92180615234375,0.5773270130157471,-1.0741748809814453,-0.27449947595596313
1667267011348203800,0.924203857421875,0.5199073553085327,-0.9917105436325073,-0.290381520986557
1667267011350601500,0.9266015625,0.4576009511947632,-0.9025267958641052,-0.30870693922042847
1667267011352999200,0.928999267578125,0.39712706208229065,-0.7968502640724182,-0.32642149925231934
1667267011355397000,0.931397216796875,0.33237725496292114,-0.6850652098655701,-0.3404709994792938
1667267011357794800,0.933794921875,0.2712925374507904,-0.569004237651825,-0.35329878330230713
1667267011360192500,0.936192626953125,0.2053210288286209,-0.45355409383773804,-0.3563530147075653
1667267011362590200,0.938590087890625,0.14484715461730957,-0.347801148891449,-0.35024455189704895
1667267011364988200,0.94098828125,0.08559497445821762,-0.2506764531135559,-0.33619505167007446
1667267011367385900,0.9433857421875,0.03306210786104202,-0.16332527995109558,-0.30931776762008667
1667267011369783600,0.945783447265625,-0.014583977870643139,-0.0814717561006546,-0.2775537371635437
1667267011372181200,0.94818115234375,-0.059175826609134674,0.0016034740256145597,-0.24151372909545898
1667267011374579200,0.9505791015625,-0.0958266630768776,0.09445225447416306,-0.20425204932689667
1667267011376977000,0.952976806640625,-0.12697987258434296,0.17080816626548767,-0.16515782475471497
1667267011379374600,0.95537451171875,-0.15263545513153076,0.24044474959373474,-0.12667444348335266
1667267011381772300,0.957772216796875,-0.17157171666622162,0.2978644073009491,-0.08758022636175156
1667267011384170200,0.960170166015625,-0.18073442578315735,0.3497864007949829,-0.04543176665902138
1667267011386568000,0.96256787109375,-0.18317782878875732,0.391934871673584,-0.0032833039294928312
1667267011388965600,0.964965576171875,-0.1740151196718216,0.4285857081413269,0.04130854457616806
1667267011391363600,0.967363525390625,-0.1587439328432083,0.45912808179855347,0.08467870205640793
1667267011393761300,0.96976123046875,-0.1343100368976593,0.4823402762413025,0.1280488520860672
1667267011396159000,0.972158935546875,-0.10376767814159393,0.5006656646728516,0.17202985286712646
1667267011398556700,0.974556640625,-0.07078192383050919,0.5067741274833679,0.21356746554374695
1667267011400954600,0.97695458984375,-0.030466007068753242,0.5073850154876709,0.25021830201148987
1667267011403352300,0.979352294921875,0.009849912486970425,0.5073850154876709,0.2825932204723358
1667267011405750000,0.98175,0.0489441379904747,0.5073850154876709,0.30580541491508484
1667267011408147700,0.984147705078125,0.09109259396791458,0.5067741274833679,0.3229091465473175
1667267011410545700,0.986545654296875,0.13263021409511566,0.5098283886909485,0.33146098256111145
1667267011412943400,0.988943359375,0.17416782677173615,0.5147151947021484,0.33023929595947266
1667267011415341000,0.991341064453125,0.21692712604999542,0.5244887471199036,0.31741151213645935
1667267011417738800,0.99373876953125,0.2627406716346741,0.5281538367271423,0.2984752357006073
1667267011420136700,0.99613671875,0.30672168731689453,0.5293754935264587,0.2679328918457031
1667267011422534400,0.998534423828125,0.3519243896007538,0.5318188667297363,0.23006035387516022
1667267011424932000,1.00093212890625,0.39712706208229065,0.5299863815307617,0.18424680829048157
1667267011427329800,1.003329833984375,0.4423297643661499,0.5269321203231812,0.13354648649692535
1667267011429727700,1.005727783203125,0.48814332485198975,0.5275429487228394,0.0749051421880722
1667267011432125400,1.00812548828125,0.5364002585411072,0.5061632990837097,0.021150587126612663
1667267011434523100,1.010523193359375,0.586489737033844,0.4792860448360443,-0.03687990456819534
1667267011436920800,1.0129208984375,0.6335249543190002,0.4572955369949341,-0.0949103906750679
1667267011439318800,1.01531884765625,0.6762842535972595,0.440802663564682,-0.15233004093170166
1667267011441716500,1.017716552734375,0.7172110676765442,0.4432460367679596,-0.20791713893413544
1667267011444114200,1.0201142578125,0.7538618445396423,0.470734179019928,-0.2641150951385498
1667267011446511900,1.022511962890625,0.7825716733932495,0.5116609334945679,-0.3190913498401642
1667267011448909800,1.024909912109375,0.8094489574432373,0.5623612403869629,-0.3716242015361786
1667267011451307500,1.0273076171875,0.8326611518859863,0.6167266368865967,-0.4204919934272766
1667267011453705200,1.029705322265625,0.8515974283218384,0.6686486601829529,-0.46752721071243286
1667267011456103000,1.03210302734375,0.8674794435501099,0.7120188474655151,-0.5096756815910339
1667267011458500900,1.0345009765625,0.8809180855751038,0.7419503331184387,-0.5469373464584351
1667267011460898600,1.036898681640625,0.89680016040802,0.7541673183441162,-0.579312264919281
1667267011463296300,1.039296142578125,0.9151255488395691,0.7523347735404968,-0.6037461757659912
1667267011465694000,1.04169384765625,0.9273424744606018,0.7474479675292969,-0.6269583702087402
1667267011468092000,1.044091796875,0.9401702880859375,0.7462263107299805,-0.6458946466445923
1667267011470489600,1.046489501953125,0.9542197585105896,0.7413395047187805,-0.6660525798797607
1667267011472887300,1.04888720703125,0.9682692885398865,0.7333984971046448,-0.6807129383087158
1667267011475285000,1.051284912109375,0.9774319529533386,0.7285116910934448,-0.6959841251373291
1667267011477683000,1.053682861328125,0.9847621321678162,0.7236249446868896,-0.7082010507583618
1667267011480080600,1.05608056640625,0.9908705949783325,0.7199598550796509,-0.7173637747764587
1667267011482478300,1.058478271484375,0.9890380501747131,0.7175164818763733,-0.7295807003974915
1667267011484876000,1.0608759765625,0.984151303768158,0.7138513922691345,-0.736299991607666
1667267011487274000,1.06327392578125,0.9743777513504028,0.7156839370727539,-0.7460735440254211
1667267011489671700,1.065671630859375,0.9584956765174866,0.7144622206687927,-0.7497386336326599
1667267011492069400,1.0680693359375,0.9401702880859375,0.7114079594612122,-0.7515711784362793
1667267011494467300,1.07046728515625,0.9194014668464661,0.7120188474655151,-0.7515711784362793
1667267011496865000,1.072864990234375,0.8937458992004395,0.7089645862579346,-0.7485169768333435
1667267011499262700,1.0752626953125,0.8680903315544128,0.7046886682510376,-0.7448518872261047
1667267011501660400,1.077660400390625,0.8393805027008057,0.70224529504776,-0.7381325364112854
1667267011504058400,1.080058349609375,0.8088381290435791,0.6967476606369019,-0.732024073600769
1667267011506456000,1.0824560546875,0.7776849269866943,0.6881957650184631,-0.7222505211830139
1667267011508853800,1.084853759765625,0.7459208369255066,0.6759788393974304,-0.713087797164917
1667267011511251500,1.08725146484375,0.7129350900650024,0.6625401973724365,-0.704535961151123
1667267011513649400,1.0896494140625,0.6787276864051819,0.6454364657402039,-0.6959841251373291
1667267011516047000,1.092047119140625,0.6402443051338196,0.6258893609046936,-0.6874322295188904
1667267011518444800,1.09444482421875,0.605426013469696,0.5971795320510864,-0.6807129383087158
1667267011520842500,1.096842529296875,0.5693860054016113,0.5654155015945435,-0.6721610426902771
1667267011523240400,1.099240478515625,0.5370110869407654,0.5281538367271423,-0.6642200350761414
1667267011525638100,1.10163818359375,0.5052470564842224,0.4817294180393219,-0.6562790274620056
1667267011528035800,1.104035888671875,0.47592636942863464,0.42430979013442993,-0.6501705646514893
1667267011530433500,1.10643359375,0.45088163018226624,0.364446759223938,-0.6440621018409729
1667267011532831500,1.10883154296875,0.4276694357395172,0.2972535490989685,-0.6342885494232178
1667267011535229200,1.111229248046875,0.4062897861003876,0.2196759432554245,-0.6281800270080566
1667267011537627000,1.113626953125,0.3867426812648773,0.14759597182273865,-0.6196281909942627
1667267011540024600,1.116024658203125,0.37208232283592224,0.08345700800418854,-0.6086329221725464
1667267011542422500,1.118422607421875,0.3598653972148895,0.015042114071547985,-0.5970268249511719
1667267011544820200,1.1208203125,0.3476484417915344,-0.044820915907621384,-0.5829773545265198
1667267011547218000,1.123218017578125,0.3384857475757599,-0.09918632358312607,-0.5658736228942871
1667267011549615600,1.12561572265625,0.33054471015930176,-0.1468324065208435,-0.5469373464584351
1667267011552013600,1.128013671875,0.3219928741455078,-0.1871483325958252,-0.5255576968193054
1667267011554411300,1.130411376953125,0.3128301501274109,-0.22318831086158752,-0.4992912709712982
1667267011556809000,1.13280908203125,0.3012240529060364,-0.2659476399421692,-0.473024845123291
1667267011559206700,1.13520654296875,0.29022881388664246,-0.2922140657901764,-0.44248247146606445
1667267011561604600,1.1376044921875,0.27679017186164856,-0.30931776762008667,-0.4082750380039215
1667267011564002300,1.140002197265625,0.2578538954257965,-0.32397812604904175,-0.37467843294143677
1667267011566400000,1.14239990234375,0.23830679059028625,-0.33741676807403564,-0.33619505167007446
1667267011568797700,1.144797607421875,0.21570543944835663,-0.35085538029670715,-0.294657438993454
1667267011571195600,1.147195556640625,0.19004985690116882,-0.36246147751808167,-0.2525089979171753
1667267011573593300,1.14959326171875,0.15950748324394226,-0.37590011954307556,-0.21036052703857422
1667267011575991000,1.151990966796875,0.1283542811870575,-0.37834352254867554,-0.16515782475471497
1667267011578389000,1.154388916015625,0.09597937762737274,-0.3807868957519531,-0.11751174181699753
1667267011580786700,1.15678662109375,0.061771929264068604,-0.38689538836479187,-0.0686439573764801
1667267011583184400,1.159184326171875,0.0293970238417387,-0.3936147093772888,-0.023441264405846596
1667267011585582000,1.16158203125,-0.0029778804164379835,-0.3936147093772888,0.027259059250354767
1667267011587980000,1.16397998046875,-0.03352024406194687,-0.3954472541809082,0.07124006003141403
1667267011590377700,1.166377685546875,-0.06467345356941223,-0.3948363959789276,0.11827529966831207
1667267011592775400,1.168775390625,-0.09155073016881943,-0.3930038511753082,0.16408884525299072
1667267011595173000,1.171173095703125,-0.11781716346740723,-0.3856737017631531,0.2074590027332306
1667267011597571000,1.173571044921875,-0.13980767130851746,-0.3728458881378174,0.24899661540985107
1667267011599968800,1.17596875,-0.1611873209476471,-0.35268792510032654,0.28931254148483276
1667267011602366500,1.178366455078125,-0.18012358248233795,-0.3184804916381836,0.32840675115585327
1667267011604764200,1.18076416015625,-0.1984490007162094,-0.28366219997406006,0.36750099062919617
1667267011607162000,1.183162109375,-0.21555273234844208,-0.25678491592407227,0.40598437190055847
1667267011609559800,1.185559814453125,-0.2271588295698166,-0.2390703409910202,0.4426352083683014
1667267011611957500,1.18795751953125,-0.23693238198757172,-0.2274642437696457,0.4823402762413025
1667267011614355200,1.190355224609375,-0.24304085969924927,-0.21769069135189056,0.517158567905426
1667267011616753200,1.192753173828125,-0.24548424780368805,-0.21585814654827118,0.5519768595695496
1667267011619150800,1.19515087890625,-0.24365170300006866,-0.21524730324745178,0.5849626064300537
1667267011621548500,1.197548583984375,-0.23693238198757172,-0.2134147584438324,0.6155049800872803
1667267011623946200,1.1999462890625,-0.22838051617145538,-0.21585814654827118,0.6429930925369263
1667267011626344200,1.20234423828125,-0.2149418741464615,-0.22196662425994873,0.6686486601829529
1667267011628742000,1.204741943359375,-0.1990598440170288,-0.22807510197162628,0.6894174814224243
1667267011631139600,1.2071396484375,-0.17951273918151855,-0.2402920424938202,0.7095754742622375
1667267011633537500,1.20953759765625,-0.1587439328432083,-0.25678491592407227,0.724846601486206
1667267011635935200,1.211935302734375,-0.13858596980571747,-0.27327778935432434,0.7346965670585632
1667267011638333000,1.2143330078125,-0.11842801421880722,-0.290381520986557,0.7456917762756348
1667267011640730600,1.216730712890625,-0.0946049690246582,-0.31237202882766724,0.7524111270904541
1667267011643128600,1.219128662109375,-0.07322531193494797,-0.33619505167007446,0.7548545002937317
1667267011645526300,1.2215263671875,-0.05428905040025711,-0.3587964177131653,0.7530219554901123
1667267011647924000,1.223924072265625,-0.034131091088056564,-0.3856737017631531,0.7518002390861511
1667267011650321700,1.22632177734375,-0.014583977870643139,-0.4119401276111603,0.7450809478759766
1667267011652719600,1.2287197265625,0.0025197449140250683,-0.43583953380584717,0.7389724850654602
1667267011655117300,1.231117431640625,0.017180079594254494,-0.4614951014518738,0.7266791462898254
1667267011657515000,1.233514892578125,0.03061871975660324,-0.4859289824962616,0.7132405042648315
1667267011659912700,1.23591259765625,0.04283566400408745,-0.5054761171340942,0.6985802054405212
1667267011662310700,1.238310546875,0.05199837312102318,-0.5274665951728821,0.6808656454086304
1667267011664708400,1.240708251953125,0.06116108223795891,-0.5415160655975342,0.6637619137763977
1667267011667106000,1.24310595703125,0.06910209357738495,-0.5561764240264893,0.6436039209365845
1667267011669503700,1.245503662109375,0.07643226534128189,-0.5653391480445862,0.6252785325050354
1667267011671901700,1.247901611328125,0.08131904155015945,-0.5714476108551025,0.6051205396652222
1667267011674299400,1.25029931640625,0.08376242965459824,-0.5738909840583801,0.5831300616264343
1667267011676697000,1.252697021484375,0.08559497445821762,-0.5757235288619995,0.5586961507797241
1667267011679094800,1.2550947265625,0.08742751181125641,-0.5745018720626831,0.5342622995376587
1667267011681492700,1.25749267578125,0.0880383625626564,-0.5757235288619995,0.5098283886909485
1667267011683890400,1.259890380859375,0.0880383625626564,-0.5732801556587219,0.48661619424819946
1667267011686288100,1.2622880859375,0.08437328040599823,-0.5671716928482056,0.4652365446090698
1667267011688686000,1.26468603515625,0.08131904155015945,-0.5573981404304504,0.4420243501663208
1667267011691083800,1.267083740234375,0.0758214145898819,-0.5439594984054565,0.42186638712882996
1667267011693481500,1.2694814453125,0.06971294432878494,-0.5250232219696045,0.4023192822933197
1667267011695879200,1.271879150390625,0.062993623316288,-0.4987567961215973,0.38643723726272583
1667267011698277000,1.274277099609375,0.05688514932990074,-0.4682144224643707,0.37299859523773193
1667267011700674800,1.2766748046875,0.04527905210852623,-0.422324538230896,0.3638359010219574
1667267011703072500,1.279072509765625,0.030007870867848396,-0.3685699701309204,0.35772743821144104
1667267011705470200,1.28147021484375,0.014736690558493137,-0.3190913498401642,0.3497864007949829
1667267011707868200,1.2838681640625,0.00007635590736754239,-0.2781645655632019,0.34489962458610535
1667267011710265900,1.286265869140625,-0.010918894782662392,-0.2512872815132141,0.3375694751739502
1667267011712663600,1.28866357421875,-0.022524992004036903,-0.23174017667770386,0.33146098256111145
1667267011715061200,1.291061279296875,-0.03168770298361778,-0.21769069135189056,0.3259633779525757
1667267011717459200,1.293459228515625,-0.04023956134915352,-0.20791713893413544,0.31802234053611755
1667267011719857000,1.29585693359375,-0.044515494257211685,-0.1993652731180191,0.31618982553482056
1667267011722254600,1.298254638671875,-0.05123481526970863,-0.18959172070026398,0.31313556432724
1667267011724652300,1.30065234375,-0.05306735634803772,-0.17615307867527008,0.3125247359275818
1667267011727050200,1.30305029296875,-0.05734328553080559,-0.16393613815307617,0.31557896733283997
1667267011729448000,1.305447998046875,-0.06223006546497345,-0.15599511563777924,0.31802234053611755
1667267011731845600,1.307845703125,-0.06406260281801224,-0.1462215632200241,0.32046574354171753
1667267011734243300,1.310243408203125,-0.06772769242525101,-0.13766969740390778,0.3210766017436981
1667267011736641300,1.312641357421875,-0.0695602297782898,-0.12850698828697205,0.3247416615486145
1667267011739039000,1.3150390625,-0.07200361788272858,-0.11995512992143631,0.33023929595947266
1667267011741436700,1.317436767578125,-0.07627955079078674,-0.11323580890893936,0.33329352736473083
1667267011743834600,1.319834716796875,-0.07811209559440613,-0.10712733864784241,0.3394020199775696
1667267011746232300,1.322232421875,-0.07811209559440613,-0.09918632358312607,0.34551048278808594
1667267011748630000,1.324630126953125,-0.07994463294744492,-0.09063446521759033,0.3497864007949829
1667267011751027700,1.32702783203125,-0.0811663269996643,-0.08391514420509338,0.35894912481307983
1667267011753425700,1.32942578125,-0.08055548369884491,-0.07414158433675766,0.37116608023643494
1667267011755823400,1.3318232421875,-0.08055548369884491,-0.06620056927204132,0.38216131925582886
1667267011758221000,1.334220947265625,-0.0823880210518837,-0.060092099010944366,0.39498910307884216
1667267011760618800,1.33661865234375,-0.07994463294744492,-0.0558161698281765,0.40964943170547485
1667267011763016700,1.3390166015625,-0.0823880210518837,-0.05337277799844742,0.4255314767360687
1667267011765414400,1.341414306640625,-0.08422056585550308,-0.05459447205066681,0.4420243501663208
1667267011767812000,1.34381201171875,-0.08299887180328369,-0.057648710906505585,0.45973891019821167
1667267011770209800,1.346209716796875,-0.08544225990772247,-0.06558972597122192,0.47562095522880554
1667267011772607700,1.348607666015625,-0.08788564801216125,-0.07536327838897705,0.4921138286590576
1667267011775005400,1.35100537109375,-0.09216158092021942,-0.08941277116537094,0.5086066722869873
1667267011777403100,1.353403076171875,-0.09827005118131638,-0.10712733864784241,0.52571040391922
1667267011779800800,1.35580078125,-0.10376767814159393,-0.12484190613031387,0.540370762348175
1667267011782198800,1.35819873046875,-0.11048699915409088,-0.1474432498216629,0.5568636059761047
1667267011784596500,1.360596435546875,-0.11781716346740723,-0.1730988472700119,0.5715239644050598
1667267011786994200,1.362994140625,-0.12453648447990417,-0.1981435865163803,0.5874059796333313
1667267011789392100,1.36539208984375,-0.1330883502960205,-0.2244100123643875,0.604509711265564
1667267011791789800,1.367789794921875,-0.13980767130851746,-0.2500655949115753,0.6210026144981384
1667267011794187500,1.3701875,-0.1477486789226532,-0.2763320207595825,0.6393280029296875
1667267011796585200,1.372585205078125,-0.15385715663433075,-0.3032093048095703,0.6600968241691589
1667267011798983200,1.374983154296875,-0.1599656194448471,-0.32581067085266113,0.679033100605011
1667267011801380900,1.377380859375,-0.16546325385570526,-0.3453577756881714,0.7010235786437988
1667267011803778600,1.379778564453125,-0.17035003006458282,-0.36123979091644287,0.7242357730865479
1667267011806176300,1.38217626953125,-0.174625962972641,-0.37467843294143677,0.7493568658828735
1667267011808574200,1.38457421875,-0.17829103767871857,-0.3838411569595337,0.7744016051292419
1667267011810972000,1.386971923828125,-0.18317782878875732,-0.394225537776947,0.7994463443756104
1667267011813369600,1.38936962890625,-0.1868429034948349,-0.40460994839668274,0.825101912021637
1667267011815767300,1.391767333984375,-0.19417306780815125,-0.4125509560108185,0.8519791960716248
1667267011818165200,1.394165283203125,-0.1984490007162094,-0.41682690382003784,0.8758022785186768
1667267011820563000,1.39656298828125,-0.20700086653232574,-0.41927027702331543,0.8984035849571228
1667267011822960600,1.398960693359375,-0.2137201875448227,-0.4217136800289154,0.9222266674041748
1667267011825358300,1.4013583984375,-0.22227205336093903,-0.422324538230896,0.9405520558357239
1667267011827756300,1.40375634765625,-0.23204560577869415,-0.4217136800289154,0.9582666158676147
1667267011830154000,1.406154052734375,-0.24181915819644928,-0.4186594486236572,0.9796462655067444
1667267011832551700,1.4085517578125,-0.250981867313385,-0.4125509560108185,0.9955283403396606
1667267011834949600,1.41094970703125,-0.2613662779331207,-0.40460994839668274,1.0126320123672485
1667267011837347300,1.413347412109375,-0.26991814374923706,-0.38933876156806946,1.0260707139968872
1667267011839745000,1.4157451171875,-0.2754157483577728,-0.3704025149345398,1.0401201248168945
1667267011842142700,1.418142822265625,-0.28335678577423096,-0.3453577756881714,1.052947998046875
1667267011844540700,1.420540771484375,-0.2894652485847473,-0.31298285722732544,1.0633323192596436
1667267011846938400,1.4229384765625,-0.2943520247936249,-0.2763320207595825,1.070051670074463
1667267011849336000,1.425336181640625,-0.29984965920448303,-0.23112933337688446,1.074938416481018
1667267011851733800,1.427733642578125,-0.3023693859577179,-0.1853157877922058,1.0798252820968628
1667267011854131700,1.430131591796875,-0.3035911023616791,-0.12911784648895264,1.0798252820968628
1667267011856529400,1.432529296875,-0.3017585575580597,-0.06986565887928009,1.076160192489624
1667267011858927000,1.434927001953125,-0.29801711440086365,-0.0051158457063138485,1.070051670074463
1667267011861324800,1.43732470703125,-0.2906869351863861,0.0620773509144783,1.057223916053772
1667267011863722800,1.43972265625,-0.2821350693702698,0.1280488520860672,1.03828763961792
1667267011866120400,1.442120361328125,-0.27358320355415344,0.18669019639492035,1.0162971019744873
1667267011868518100,1.44451806640625,-0.26197710633277893,0.23861220479011536,0.9930849075317383
1667267011870915800,1.446915771484375,-0.24853847920894623,0.27770644426345825,0.9643751382827759
1667267011873313800,1.449313720703125,-0.23265644907951355,0.30519455671310425,0.9356653094291687
1667267011875711500,1.45171142578125,-0.21860696375370026,0.3241308331489563,0.9063445925712585
1667267011878109200,1.454109130859375,-0.20516832172870636,0.33268269896507263,0.8782456517219543
1667267011880507100,1.456507080078125,-0.19539476931095123,0.34123456478118896,0.8470924496650696
1667267011882904800,1.45890478515625,-0.18256697058677673,0.3534514904022217,0.816550076007843
1667267011885302500,1.461302490234375,-0.1721825748682022,0.35833826661109924,0.7829535007476807
1667267011887700200,1.4637001953125,-0.16424155235290527,0.3473430275917053,0.7499676942825317
1667267011890098200,1.46609814453125,-0.15324631333351135,0.3222982883453369,0.7181273102760315
1667267011892496000,1.468495849609375,-0.14469444751739502,0.28931254148483276,0.6857523918151855
1667267011894893600,1.4708935546875,-0.13797512650489807,0.25266170501708984,0.6515449285507202
1667267011897291300,1.473291259765625,-0.12881241738796234,0.2202867865562439,0.6148941516876221
1667267011899689200,1.475689208984375,-0.12514732778072357,0.19035527110099792,0.5788541436195374
1667267011902087000,1.4780869140625,-0.11781716346740723,0.1659213900566101,0.5422033071517944
1667267011904484600,1.480484619140625,-0.11109784245491028,0.14942851662635803,0.5079958438873291
1667267011906882300,1.48288232421875,-0.10560022294521332,0.13537901639938354,0.47439923882484436
1667267011909280300,1.4852802734375,-0.10132429003715515,0.12010784447193146,0.4414134919643402
1667267011911678000,1.487677978515625,-0.0958266630768776,0.10789089649915695,0.40720605850219727
1667267011914075600,1.49007568359375,-0.09032903611660004,0.09445225447416306,0.3760528564453125
1667267011916473600,1.4924736328125,-0.08422056585550308,0.08101361989974976,0.34428879618644714
1667267011918871300,1.494871337890625,-0.0823880210518837,0.06085565686225891,0.3137464225292206
1667267011921269000,1.49726904296875,-0.08055548369884491,0.040697697550058365,0.2844257652759552
1667267011923666700,1.499666748046875,-0.08055548369884491,0.019318044185638428,0.2569376230239868
1667267011926064600,1.502064697265625,-0.0823880210518837,-0.00022906772210262716,0.23433628678321838
1667267011928462300,1.50446240234375,-0.08422056585550308,-0.013667707331478596,0.21051323413848877
1667267011930860000,1.506860107421875,-0.08849649876356125,-0.03321481868624687,0.1934095174074173
1667267011933257700,1.5092578125,-0.09399411827325821,-0.0429883748292923,0.17447324097156525
1667267011935655700,1.51165576171875,-0.10254598408937454,-0.050929389894008636,0.15675868093967438
1667267011938053400,1.514053466796875,-0.11231953650712967,-0.0558161698281765,0.1408766508102417
1667267011940451000,1.516451171875,-0.12026055157184601,-0.05825955793261528,0.126216322183609
1667267011942848800,1.518848876953125,-0.12881241738796234,-0.05948125198483467,0.10850174725055695
1667267011945246700,1.521246826171875,-0.14225105941295624,-0.057648710906505585,0.08956547826528549
1667267011947644400,1.52364453125,-0.15263545513153076,-0.0558161698281765,0.07062921673059464
1667267011950042000,1.5260419921875,-0.17035003006458282,-0.05459447205066681,0.049860406666994095
1667267011952439800,1.528439697265625,-0.18317782878875732,-0.05459447205066681,0.03214583545923233
1667267011954837800,1.530837646484375,-0.19478392601013184,-0.0552053228020668,0.011987877078354359
1667267011957235500,1.5332353515625,-0.20700086653232574,-0.06253548711538315,-0.01122431829571724
1667267011959633200,1.535633056640625,-0.22166119515895844,-0.06620056927204132,-0.03504735976457596
1667267011962031000,1.538031005859375,-0.2387649267911911,-0.06314633786678314,-0.06070294603705406
1667267011964428800,1.5404287109375,-0.25647950172424316,-0.05276193097233772,-0.08635853230953217
1667267011966826500,1.542826416015625,-0.2760266065597534,-0.025273805484175682,-0.11262496560811996
1667267011969224200,1.54522412109375,-0.29496288299560547,0.019318044185638428,-0.13705885410308838
1667267011971622100,1.5476220703125,-0.312142938375473,0.07368344813585281,-0.15843850374221802
1667267011974019800,1.550019775390625,-0.3243598937988281,0.1274380087852478,-0.17798562347888947
1667267011976417500,1.55241748046875,-0.3304683566093445,0.1787491738796234,-0.1999761164188385
1667267011978815200,1.554815185546875,-0.3298575282096863,0.21601086854934692,-0.21952323615550995
1667267011981213200,1.557213134765625,-0.3268032968044281,0.2465532273054123,-0.2378486543893814
1667267011983611000,1.55961083984375,-0.31947311758995056,0.2703762650489807,-0.26106083393096924
1667267011986008600,1.562008544921875,-0.30664533376693726,0.2887016832828522,-0.28305134177207947
1667267011988406300,1.56440625,-0.2931303381919861,0.3076379597187042,-0.3044309914112091
1667267011990804200,1.56680419921875,-0.2778591513633728,0.3241308331489563,-0.32642149925231934
1667267011993202000,1.569201904296875,-0.2650313675403595,0.3369586169719696,-0.3453577756881714
1667267011995599600,1.571599609375,-0.24853847920894623,0.3516189455986023,-0.36185064911842346
1667267011997997300,1.573997314453125,-0.23387815058231354,0.362003356218338,-0.37590011954307556
1667267012000395300,1.576395263671875,-0.2247154414653778,0.36933353543281555,-0.38811707496643066
1667267012002793000,1.57879296875,-0.21555273234844208,0.37238776683807373,-0.3948363959789276
1667267012005190700,1.581190673828125,-0.21066594123840332,0.3766636848449707,-0.3960580825805664
1667267012007588400,1.58358837890625,-0.20639002323150635,0.37299859523773193,-0.39056047797203064
1667267012009986300,1.585986328125,-0.20883341133594513,0.3626142144203186,-0.3832302987575531
1667267012012384000,1.588384033203125,-0.2124984860420227,0.3503972589969635,-0.3679591119289398
1667267012014781700,1.59078173828125,-0.21799612045288086,0.33207184076309204,-0.3453577756881714
1667267012017179400,1.593179443359375,-0.22838051617145538,0.3100813329219818,-0.3166479468345642
1667267012019577300,1.595577392578125,-0.2393757700920105,0.285647451877594,-0.28366219997406006
1667267012021975000,1.59797509765625,-0.2522035539150238,0.25510507822036743,-0.2378486543893814
1667267012024372700,1.600372802734375,-0.2668638825416565,0.22700610756874084,-0.18959172070026398
1667267012026770400,1.6027705078125,-0.2821350693702698,0.2074590027332306,-0.13217207789421082
1667267012029168400,1.60516845703125,-0.29923880100250244,0.1940203607082367,-0.07169819623231888
1667267012031566000,1.607566162109375,-0.3170297145843506,0.18913358449935913,-0.006948387715965509
1667267012033963800,1.6099638671875,-0.33352261781692505,0.18730103969573975,0.059023115783929825
1667267012036361700,1.61236181640625,-0.3549022674560547,0.1927986592054367,0.1286597102880478
1667267012038759400,1.614759521484375,-0.3695625960826874,0.20379391312599182,0.19829629361629486
1667267012041157000,1.6171572265625,-0.3781144618988037,0.21478916704654694,0.2722088098526001
1667267012043554800,1.619554931640625,-0.38910970091819763,0.22883865237236023,0.34489962458610535
1667267012045952800,1.621952880859375,-0.39643988013267517,0.24288813769817352,0.4163687527179718
1667267012048350500,1.6243505859375,-0.40193748474121094,0.25327253341674805,0.48722705245018005
1667267012050748200,1.626748046875,-0.40193748474121094,0.2606027126312256,0.5586961507797241
1667267012053145900,1.629145751953125,-0.40071579813957214,0.26732203364372253,0.627721905708313
1667267012055543800,1.631543701171875,-0.3970507085323334,0.26854372024536133,0.6930825710296631
1667267012057941500,1.63394140625,-0.3903313875198364,0.2618243992328644,0.7603521347045898
1667267012060339200,1.636339111328125,-0.3836120665073395,0.25388339161872864,0.8244910836219788
1667267012062737200,1.638737060546875,-0.37261682748794556,0.24166645109653473,0.8849649429321289
1667267012065134800,1.641134765625,-0.36162158846855164,0.22761696577072144,0.9417737722396851
1667267012067532500,1.643532470703125,-0.3500154912471771,0.21417832374572754,0.9949174523353577
1667267012069930200,1.64593017578125,-0.3384093940258026,0.20135052502155304,1.0437852144241333
1667267012072328200,1.648328125,-0.3292466700077057,0.18852274119853973,1.088987946510315
1667267012074726000,1.650725830078125,-0.32313820719718933,0.1787491738796234,1.1256388425827026
1667267012077123600,1.65312353515625,-0.31825143098831177,0.1689756214618683,1.1574028730392456
1667267012079521300,1.655521240234375,-0.3151971995830536,0.1659213900566101,1.186112642288208
1667267012081919200,1.657919189453125,-0.3139754831790924,0.16408884525299072,1.210546612739563
1667267012084317000,1.66031689453125,-0.314586341381073,0.1665322333574295,1.2288719415664673
1667267012086714600,1.662714599609375,-0.3170297145843506,0.16958646476268768,1.2490298748016357
1667267012089112300,1.6651123046875,-0.32252734899520874,0.17508409917354584,1.2630794048309326
1667267012091510300,1.66751025390625,-0.3280249834060669,0.18424680829048157,1.2716312408447266
1667267012093908000,1.669907958984375,-0.33291175961494446,0.19585290551185608,1.278350591659546
1667267012096305700,1.6723056640625,-0.3365768492221832,0.2068481594324112,1.2807940244674683
1667267012098703600,1.67470361328125,-0.342074453830719,0.21723255515098572,1.2759071588516235
1667267012101101300,1.677101318359375,-0.34451785683631897,0.231282040476799,1.2691879272460938
1667267012103499000,1.6794990234375,-0.34757208824157715,0.2434989959001541,1.2594143152236938
1667267012105896700,1.681896728515625,-0.3512371778488159,0.25388339161872864,1.2441431283950806
1667267012108294700,1.684294677734375,-0.3512371778488159,0.2618243992328644,1.2264286279678345
1667267012110692400,1.6866923828125,-0.3542914092540741,0.26671117544174194,1.2013838291168213
1667267012113090000,1.689090087890625,-0.3561239540576935,0.2697654068470001,1.1763391494750977
1667267012115487700,1.69148779296875,-0.3561239540576935,0.2722088098526001,1.1445749998092651
1667267012117885700,1.6938857421875,-0.3573456406593323,0.2709871232509613,1.1109784841537476
1667267012120283400,1.696283447265625,-0.3555130958557129,0.26671117544174194,1.0767710208892822
1667267012122681000,1.69868115234375,-0.3506263196468353,0.2618243992328644,1.0376768112182617
1667267012125078800,1.701078857421875,-0.34696123003959656,0.25143998861312866,0.9936957955360413
1667267012127476700,1.703476806640625,-0.33718767762184143,0.23983390629291534,0.9515473246574402
1667267012129874400,1.70587451171875,-0.3261924386024475,0.22578442096710205,0.9069554805755615
1667267012132272000,1.708272216796875,-0.31825143098831177,0.20929154753684998,0.8623636364936829
1667267012134670000,1.710670166015625,-0.3035911023616791,0.1927986592054367,0.8183826208114624
1667267012137067800,1.71306787109375,-0.28763270378112793,0.17080816626548767,0.7768449783325195
1667267012139465500,1.715465576171875,-0.27236151695251465,0.14454172551631927,0.7353073954582214
1667267012141863200,1.71786328125,-0.253425270318985,0.11644276231527328,0.6961368322372437
1667267012144261000,1.72026123046875,-0.23571068048477173,0.08406785130500793,0.6570425629615784
1667267012146658800,1.722658935546875,-0.2143310308456421,0.04802786558866501,0.6179483532905579
1667267012149056500,1.725056396484375,-0.19600561261177063,0.013209572061896324,0.5837408900260925
1667267012151454200,1.7274541015625,-0.17768019437789917,-0.027717193588614464,0.5507551431655884
1667267012153852200,1.72985205078125,-0.1599656194448471,-0.06986565887928009,0.5202127695083618
1667267012156249900,1.732249755859375,-0.1477486789226532,-0.11018157750368118,0.48967042565345764
1667267012158647600,1.7346474609375,-0.13858596980571747,-0.14988665282726288,0.4652365446090698
1667267012161045200,1.737045166015625,-0.1336991935968399,-0.1865374743938446,0.440802663564682
1667267012163443200,1.739443115234375,-0.1355317384004593,-0.22074492275714874,0.42003384232521057
1667267012165841000,1.7418408203125,-0.13858596980571747,-0.24945475161075592,0.39743250608444214
1667267012168238600,1.744238525390625,-0.14469444751739502,-0.27449947595596313,0.3766636848449707
1667267012170636500,1.746636474609375,-0.15019206702709198,-0.29526829719543457,0.35650572180747986
1667267012173034200,1.7490341796875,-0.15507884323596954,-0.3080960810184479,0.3357369303703308
1667267012175432000,1.751431884765625,-0.1624090075492859,-0.3166479468345642,0.3125247359275818
1667267012177829600,1.75382958984375,-0.16668494045734406,-0.320313036441803,0.285647451877594
1667267012180227600,1.7562275390625,-0.16973918676376343,-0.3190913498401642,0.2587701678276062
1667267012182625300,1.758625244140625,-0.1721825748682022,-0.3142045736312866,0.22639526426792145
1667267012185023000,1.76102294921875,-0.1721825748682022,-0.31176117062568665,0.1921878159046173
1667267012187420700,1.763420654296875,-0.1727934181690216,-0.3074852526187897,0.15798036754131317
1667267012189818600,1.765818603515625,-0.1740151196718216,-0.31053948402404785,0.11766445636749268
1667267012192216300,1.76821630859375,-0.1721825748682022,-0.31298285722732544,0.0761268362402916
1667267012194614000,1.770614013671875,-0.16851748526096344,-0.320313036441803,0.029091600328683853
1667267012197011700,1.77301171875,-0.16424155235290527,-0.32764318585395813,-0.019776180386543274
1667267012199409700,1.77540966796875,-0.1593547761440277,-0.33497336506843567,-0.06681142002344131
1667267012201807400,1.777807373046875,-0.14897038042545319,-0.3404709994792938,-0.11384665966033936
1667267012204205000,1.780205078125,-0.13797512650489807,-0.3453577756881714,-0.1590493619441986
1667267012206603000,1.78260302734375,-0.12759071588516235,-0.3465794622898102,-0.2005869746208191
1667267012209000700,1.785000732421875,-0.11476293206214905,-0.3453577756881714,-0.2396811991930008
1667267012211398400,1.7873984375,-0.10315682739019394,-0.341081827878952,-0.27266693115234375
1667267012213796000,1.789796142578125,-0.09277242422103882,-0.3343625068664551,-0.3019876182079315
1667267012216194000,1.792194091796875,-0.07994463294744492,-0.3270323574542999,-0.3270323574542999
1667267012218591700,1.794591796875,-0.07139277458190918,-0.317869633436203,-0.34719032049179077
1667267012220989400,1.796989501953125,-0.06406260281801224,-0.30992862582206726,-0.36123979091644287
1667267012223387100,1.79938720703125,-0.05306735634803772,-0.3007659316062927,-0.3697916567325592
1667267012225785000,1.80178515625,-0.04512634128332138,-0.2897706627845764,-0.37467843294143677
1667267012228182800,1.804182861328125,-0.03779617324471474,-0.2781645655632019,-0.373456746339798
1667267012230580500,1.80658056640625,-0.03596363216638565,-0.2653367817401886,-0.3679591119289398
1667267012232978400,1.808978515625,-0.031076854094862938,-0.24762220680713654,-0.3569638729095459
1667267012235376000,1.811376220703125,-0.026190076023340225,-0.22807510197162628,-0.3416926860809326
1667267012237773800,1.81377392578125,-0.023746687918901443,-0.20486289262771606,-0.32214558124542236
1667267012240171500,1.816171630859375,-0.020692450925707817,-0.1749313771724701,-0.29832252860069275
1667267012242569500,1.818569580078125,-0.02008160389959812,-0.14438901841640472,-0.2751103341579437
1667267012244967200,1.82096728515625,-0.0164165198802948,-0.1077381819486618,-0.24640052020549774
1667267012247364900,1.82336474609375,-0.012140588834881783,-0.06986565887928009,-0.22074492275714874
1667267012249762600,1.825762451171875,-0.00786465872079134,-0.02710634656250477,-0.19264595210552216
1667267012252160500,1.828160400390625,-0.0035887276753783226,0.018707197159528732,-0.16699036955833435
1667267012254558200,1.83055810546875,0.0037414394319057465,0.0620773509144783,-0.14133478701114655
1667267012256956000,1.832955810546875,0.009849912486970425,0.10178242623806,-0.11690089106559753
1667267012259353600,1.835353515625,0.0165692325681448,0.1408766508102417,-0.09368869662284851
1667267012261751600,1.83775146484375,0.023288551717996597,0.1799708753824234,-0.07108735293149948
1667267012264149200,1.840149169921875,0.028786176815629005,0.21540001034736633,-0.047264307737350464
1667267012266547000,1.842546875,0.03184041380882263,0.2459423840045929,-0.025884652510285378
1667267012268945000,1.84494482421875,0.035505495965480804,0.2734304964542389,-0.0051158457063138485
1667267012271342600,1.847342529296875,0.03855973482131958,0.2972535490989685,0.013209572061896324
1667267012273740300,1.849740234375,0.04222481697797775,0.31680065393447876,0.03336753323674202
1667267012276138000,1.852137939453125,0.044668205082416534,0.33085015416145325,0.05047125369310379
1667267012278536000,1.854535888671875,0.04527905210852623,0.336347758769989,0.06635328382253647
1667267012280933600,1.85693359375,0.047111593186855316,0.338791161775589,0.07734853774309158
1667267012283331300,1.859331298828125,0.047111593186855316,0.338791161775589,0.08956547826528549
1667267012285729000,1.86172900390625,0.044668205082416534,0.33085015416145325,0.09628479927778244
1667267012288127000,1.864126953125,0.04405735805630684,0.31863319873809814,0.1005607321858406
1667267012290524700,1.866524658203125,0.04405735805630684,0.30397287011146545,0.10422581434249878
1667267012292922400,1.86892236328125,0.040392275899648666,0.2850365936756134,0.10178242623806
1667267012295320000,1.871320068359375,0.037948887795209885,0.26610034704208374,0.1005607321858406
1667267012297718000,1.873718017578125,0.03489464893937111,0.2465532273054123,0.09567394852638245
1667267012300115700,1.87611572265625,0.03061871975660324,0.22700610756874084,0.0883437842130661
1667267012302513400,1.878513427734375,0.0293970238417387,0.21295662224292755,0.07979192584753036
1667267012304911400,1.880911376953125,0.024510245770215988,0.20135052502155304,0.06940752267837524
1667267012307309000,1.88330908203125,0.022066857665777206,0.1915769726037979,0.05719057470560074
1667267012309706800,1.885706787109375,0.02023431472480297,0.18424680829048157,0.04558447748422623
1667267012312104400,1.8881044921875,0.01779092662036419,0.1805817186832428,0.029091600328683853
1667267012314502400,1.89050244140625,0.015958385542035103,0.1811925619840622,0.015042114071547985
1667267012316900000,1.892900146484375,0.015958385542035103,0.1799708753824234,-0.0008399150101467967
1667267012319297800,1.8952978515625,0.012904148548841476,0.179360032081604,-0.017332790419459343
1667267012321695500,1.897695556640625,0.009239064529538155,0.1805817186832428,-0.03382566571235657
1667267012324093400,1.900093505859375,0.005573981441557407,0.18363595008850098,-0.05276193097233772
1667267012326491100,1.9024912109375,0.0019088976550847292,0.18424680829048157,-0.06986565887928009
1667267012328888800,1.904888916015625,-0.0023670331574976444,0.18669019639492035,-0.08941277116537094
1667267012331286500,1.90728662109375,-0.005421269219368696,0.19524206221103668,-0.10651648789644241
1667267012333684500,1.9096845703125,-0.010308047756552696,0.19890713691711426,-0.12789614498615265
1667267012336082200,1.912082275390625,-0.018249060958623886,0.2062373012304306,-0.1486649513244629
1667267012338479900,1.91447998046875,-0.024968381971120834,0.21295662224292755,-0.16699036955833435
1667267012340877600,1.916877685546875,-0.03168770298361778,0.22273017466068268,-0.18959172070026398
1667267012343275500,1.919275634765625,-0.036574479192495346,0.23006035387516022,-0.21036052703857422
1667267012345673200,1.921673095703125,-0.044515494257211685,0.23494713008403778,-0.23479440808296204
1667267012348071000,1.92407080078125,-0.050013117492198944,0.2459423840045929,-0.25739577412605286
1667267012350468900,1.92646875,-0.05428905040025711,0.25388339161872864,-0.2793862521648407
1667267012352866600,1.928866455078125,-0.05734328553080559,0.26243525743484497,-0.29832252860069275
1667267012355264300,1.93126416015625,-0.05795413255691528,0.2691545784473419,-0.3154262602329254
1667267012357662000,1.933661865234375,-0.05673243850469589,0.27648472785949707,-0.3300865888595581
1667267012360060000,1.936059814453125,-0.053678203374147415,0.2868691384792328,-0.3404709994792938
1667267012362457600,1.93845751953125,-0.05184566229581833,0.29481014609336853,-0.35146623849868774
1667267012364855300,1.940855224609375,-0.04940227046608925,0.2996969223022461,-0.3581855595111847
1667267012367253000,1.9432529296875,-0.04695888236165047,0.30397287011146545,-0.36368319392204285
1667267012369651000,1.94565087890625,-0.04512634128332138,0.3082487881183624,-0.366737425327301
1667267012372048600,1.948048583984375,-0.044515494257211685,0.3082487881183624,-0.3673482835292816
1667267012374446300,1.9504462890625,-0.0426829531788826,0.30702710151672363,-0.3691807985305786
1667267012376844000,1.952843994140625,-0.04085041210055351,0.3015294671058655,-0.3679591119289398
1667267012379242000,1.955241943359375,-0.04146125912666321,0.2960318624973297,-0.36490488052368164
1667267012381639700,1.9576396484375,-0.04146125912666321,0.2880908250808716,-0.3587964177131653
1667267012384037400,1.960037353515625,-0.04512634128332138,0.27648472785949707,-0.3545204699039459
1667267012386435300,1.962435302734375,-0.04695888236165047,0.26426780223846436,-0.347801148891449
1667267012388833000,1.9648330078125,-0.050013117492198944,0.24899661540985107,-0.3404709994792938
1667267012391230700,1.967230712890625,-0.054899897426366806,0.2318928837776184,-0.3319191336631775
1667267012393628400,1.96962841796875,-0.05978667363524437,0.21784339845180511,-0.32336726784706116
1667267012396026400,1.9720263671875,-0.06406260281801224,0.20012883841991425,-0.31359371542930603
1667267012398424000,1.974424072265625,-0.0689493864774704,0.1811925619840622,-0.3044309914112091
1667267012400821800,1.97682177734375,-0.07200361788272858,0.16225630044937134,-0.2940466105937958
1667267012403219500,1.979219482421875,-0.07322531193494797,0.14637427031993866,-0.28732728958129883
1667267012405617400,1.981617431640625,-0.07689040154218674,0.1286597102880478,-0.2793862521648407
1667267012408015000,1.98401513671875,-0.07689040154218674,0.11155597865581512,-0.27266693115234375
1667267012410412800,1.986412841796875,-0.07689040154218674,0.09261971712112427,-0.26961269974708557
1667267012412810500,1.988810546875,-0.07750124484300613,0.0761268362402916,-0.2653367817401886
1667267012415208400,1.99120849609375,-0.07566870748996735,0.05596888065338135,-0.26106083393096924
1667267012417606100,1.993606201171875,-0.07383616268634796,0.033978380262851715,-0.25800660252571106
1667267012420003800,1.99600390625,-0.07200361788272858,0.010155336000025272,-0.25922831892967224
1667267012422401800,1.99840185546875,-0.06772769242525101,-0.004504998680204153,-0.26045000553131104
1667267012424799500,2.000799560546875,-0.06039752438664436,-0.02038702741265297,-0.25983914732933044
1667267012427197200,2.003197265625,-0.05123481526970863,-0.030160583555698395,-0.26167169213294983
1667267012429595000,2.005594970703125,-0.04085041210055351,-0.03626905754208565,-0.25861746072769165
1667267012431992800,2.007992919921875,-0.02680092304944992,-0.03626905754208565,-0.2543415129184723
1667267012434390500,2.010390625,-0.014583977870643139,-0.03687990456819534,-0.24884390830993652
1667267012436788200,2.012788330078125,-0.0023670331574976444,-0.031382277607917786,-0.2409028857946396
1667267012439186000,2.01518603515625,0.011071606539189816,-0.025273805484175682,-0.22807510197162628
1667267012441583900,2.017583984375,0.025731941685080528,-0.02038702741265297,-0.21524730324745178
1667267012443981600,2.019981689453125,0.03733803704380989,-0.014889402315020561,-0.1981435865163803
1667267012446379300,2.022379150390625,0.04527905210852623,-0.006948387715965509,-0.1847049444913864
1667267012448777000,2.02477685546875,0.05566345527768135,-0.0014507622690871358,-0.17004460096359253
1667267012451175000,2.0271748046875,0.06421531736850739,0.007101099472492933,-0.15477342903614044
1667267012453572600,2.029572509765625,0.07093463838100433,0.018096350133419037,-0.14255647361278534
1667267012455970300,2.03197021484375,0.0758214145898819,0.02542651630938053,-0.13217207789421082
1667267012458368300,2.0343681640625,0.07765395939350128,0.033978380262851715,-0.12484190613031387
1667267012460766000,2.036765869140625,0.08131904155015945,0.0358109213411808,-0.1211768239736557
1667267012463163600,2.03916357421875,0.08254073560237885,0.03458922728896141,-0.11812258511781693
1667267012465561300,2.041561279296875,0.08254073560237885,0.03336753323674202,-0.11812258511781693
1667267012467959300,2.043959228515625,0.08009734749794006,0.02298312820494175,-0.11812258511781693
1667267012470357000,2.04635693359375,0.07948649674654007,0.011377030052244663,-0.12362021207809448
1667267012472754700,2.048754638671875,0.07765395939350128,-0.005726693198084831,-0.1327829211950302
1667267012475152400,2.05115234375,0.07887565344572067,-0.025273805484175682,-0.13889139890670776
1667267012477550300,2.05355029296875,0.07826480269432068,-0.049707695841789246,-0.15049749612808228
1667267012479948000,2.055947998046875,0.08070819079875946,-0.07169819623231888,-0.16393613815307617
1667267012482345700,2.058345703125,0.08559497445821762,-0.09613208472728729,-0.17798562347888947
1667267012484743700,2.06074365234375,0.08681666851043701,-0.1205659806728363,-0.19325679540634155
1667267012487141400,2.063141357421875,0.09048175066709518,-0.14255647361278534,-0.21097137033939362
1667267012489539000,2.0655390625,0.09659022092819214,-0.16332527995109558,-0.22990763187408447
1667267012491936800,2.067936767578125,0.09842276573181152,-0.17981816828250885,-0.2506764531135559
1667267012494334700,2.070334716796875,0.10269869863986969,-0.1981435865163803,-0.27083441615104675
1667267012496732400,2.072732421875,0.10453123599290848,-0.20974968373775482,-0.2916032075881958
1667267012499130000,2.075130126953125,0.10758547484874725,-0.22318831086158752,-0.3160370886325836
1667267012501527800,2.07752783203125,0.11002886295318604,-0.23296187818050385,-0.33680590987205505
1667267012503925800,2.07992578125,0.11186140775680542,-0.2396811991930008,-0.3587964177131653
1667267012506323500,2.082323486328125,0.11308310180902481,-0.2396811991930008,-0.37712183594703674
1667267012508721200,2.08472119140625,0.11613733321428299,-0.2396811991930008,-0.3948363959789276
1667267012511119000,2.087119140625,0.11858072131872177,-0.23540526628494263,-0.4119401276111603
1667267012513516800,2.089516845703125,0.11980241537094116,-0.2268534004688263,-0.4247679114341736
1667267012515914500,2.09191455078125,0.11980241537094116,-0.21830153465270996,-0.4369848668575287
1667267012518312200,2.094312255859375,0.11980241537094116,-0.20547375082969666,-0.44248247146606445
1667267012520710100,2.096710205078125,0.12041326612234116,-0.19570018351078033,-0.449812650680542
