time,seconds_elapsed,z,y,x
1667266091333097500,0.065097412109375,0.0018325417768210173,0.009773556143045425,0.6181774139404297
1667266091335495400,0.067495361328125,0.01038440316915512,0.04153761267662048,0.6224533319473267
1667266091337893000,0.06989306640625,0.01710372418165207,0.07146912813186646,0.6187883019447327
1667266091340290800,0.072290771484375,0.02748812735080719,0.1050657257437706,0.6071822047233582
1667266091342688800,0.074688720703125,0.03787253051996231,0.1301104724407196,0.5900784730911255
1667266091345086500,0.07708642578125,0.047646086663007736,0.14721418917179108,0.5686988234519958
1667266091347484400,0.079484375,0.05925218388438225,0.1575985997915268,0.5418215394020081
1667266091349882000,0.081882080078125,0.06963659077882767,0.16187451779842377,0.5118899941444397
1667266091352280000,0.084280029296875,0.08124268800020218,0.1582094430923462,0.47646087408065796
1667266091354677800,0.086677734375,0.0916270911693573,0.15149012207984924,0.43736663460731506
1667266091357075500,0.089075439453125,0.10262233763933182,0.13805148005485535,0.3970507085323334
1667266091359473400,0.091473388671875,0.11422843486070633,0.12400199472904205,0.3530697226524353
1667266091361871000,0.09387109375,0.12461283802986145,0.10628741979598999,0.30664533376693726
1667266091364269000,0.09626904296875,0.13499724864959717,0.08796200156211853,0.2602209448814392
1667266091366666800,0.098666748046875,0.1453816443681717,0.06963659077882767,0.2113531529903412
1667266091369064700,0.101064697265625,0.15210096538066864,0.05131116881966591,0.16370706260204315
1667266091371462400,0.10346240234375,0.1563768982887268,0.03420744836330414,0.11361759155988693
1667266091373860000,0.105860107421875,0.16248537600040436,0.01832541823387146,0.0659715011715889
1667266091376258000,0.108258056640625,0.16431790590286255,-0.0012216945178806782,0.021379653364419937
1667266091378655700,0.11065576171875,0.16737215220928192,-0.020157959312200546,-0.021379653364419937
1667266091381053700,0.1130537109375,0.16431790590286255,-0.043981000781059265,-0.062306419014930725
1667266091383451400,0.115451416015625,0.16126367449760437,-0.06902574002742767,-0.09590301662683487
1667266091385849300,0.117849365234375,0.16126367449760437,-0.09651386737823486,-0.12827792763710022
1667266091388247000,0.1202470703125,0.15393351018428802,-0.12766708433628082,-0.1557660549879074
1667266091390644700,0.122644775390625,0.14782503247261047,-0.1569877415895462,-0.17714570462703705
1667266091393042700,0.125042724609375,0.13866232335567474,-0.18569757044315338,-0.1973036676645279
1667266091395440400,0.1274404296875,0.1301104724407196,-0.21562908589839935,-0.20768806338310242
1667266091397838300,0.12983837890625,0.12339114397764206,-0.24006296694278717,-0.21807247400283813
1667266091400236000,0.132236083984375,0.11422843486070633,-0.2638860046863556,-0.2211267054080963
1667266091402634000,0.134634033203125,0.1056765764951706,-0.2864873707294464,-0.2217375487089157
1667266091405031700,0.13703173828125,0.09590301662683487,-0.3017585575580597,-0.21562908589839935
1667266091407429600,0.1394296875,0.08857285231351852,-0.3133646547794342,-0.20768806338310242
1667266091409827300,0.141827392578125,0.08124268800020218,-0.32252734899520874,-0.1973036676645279
1667266091412225000,0.14422509765625,0.07391251623630524,-0.3249707520008087,-0.18630841374397278
1667266091414623000,0.146623046875,0.06780404597520828,-0.32130566239356995,-0.1698155403137207
1667266091417020700,0.149020751953125,0.06291726976633072,-0.3139754831790924,-0.15271180868148804
1667266091419418600,0.151418701171875,0.05619794875383377,-0.2987042963504791,-0.13316470384597778
1667266091421816300,0.15381640625,0.05070032179355621,-0.2730487287044525,-0.11667182296514511
1667266091424214300,0.15621435546875,0.043981000781059265,-0.24617144465446472,-0.09590301662683487
1667266091426612000,0.158612060546875,0.037261683493852615,-0.21562908589839935,-0.07513421028852463
1667266091429009700,0.161009765625,0.034818295389413834,-0.18753011524677277,-0.05375456064939499
1667266091431407600,0.16340771484375,0.02870982140302658,-0.1582094430923462,-0.02993151545524597
1667266091433805300,0.165805419921875,0.023212196305394173,-0.1313321590423584,-0.004275931045413017
1667266091436203300,0.168203369140625,0.01954711228609085,-0.10628741979598999,0.018936265259981155
1667266091438601000,0.17060107421875,0.014049487188458443,-0.08124268800020218,0.04581354558467865
1667266091440999000,0.1729990234375,0.006108472589403391,-0.05864133685827255,0.07024743407964706
1667266091443396600,0.175396728515625,0,-0.033596597611904144,0.09407047927379608
1667266091445794300,0.177794189453125,-0.006108472589403391,-0.01038440316915512,0.11667182296514511
1667266091448192300,0.180192138671875,-0.013438640162348747,0.015271181240677834,0.14110571146011353
1667266091450590000,0.18258984375,-0.01832541823387146,0.03787253051996231,0.16065283119678497
1667266091452988000,0.18498779296875,-0.02748812735080719,0.062306419014930725,0.17897824943065643
1667266091455385600,0.187385498046875,-0.03176405653357506,0.08368607610464096,0.1979145109653473
1667266091457783600,0.189783447265625,-0.0390942245721817,0.1050657257437706,0.21440738439559937
1667266091460181200,0.19218115234375,-0.045202698558568954,0.12155860662460327,0.22601348161697388
1667266091462579000,0.194578857421875,-0.04703523963689804,0.13744063675403595,0.2357870489358902
1667266091464977000,0.196976806640625,-0.051922015845775604,0.15087927877902985,0.24372805655002594
1667266091467374600,0.19937451171875,-0.054365407675504684,0.1582094430923462,0.2473931461572647
1667266091469772500,0.2017724609375,-0.055587101727724075,0.16309621930122375,0.2473931461572647
1667266091472170200,0.204170166015625,-0.055587101727724075,0.16859383881092072,0.24617144465446472
1667266091474568000,0.20656787109375,-0.0525328628718853,0.16859383881092072,0.24067382514476776
1667266091476966000,0.2089658203125,-0.051922015845775604,0.16615045070648193,0.23090025782585144
1667266091479363600,0.211363525390625,-0.05131116881966591,0.16065283119678497,0.21990501880645752
1667266091481761500,0.213761474609375,-0.047646086663007736,0.15271180868148804,0.20585553348064423
1667266091484159200,0.2161591796875,-0.04825693368911743,0.1423274129629135,0.18997350335121155
1667266091486557200,0.21855712890625,-0.04703523963689804,0.129499614238739,0.1716480851173401
1667266091488955000,0.220954833984375,-0.04825693368911743,0.11667182296514511,0.15271180868148804
1667266091491352600,0.2233525390625,-0.047646086663007736,0.10384403169155121,0.1319430023431778
1667266091493750500,0.22575048828125,-0.05131116881966591,0.09040539711713791,0.11239589750766754
1667266091496148200,0.228148193359375,-0.054365407675504684,0.07635590434074402,0.0922379344701767
1667266091498546200,0.230546142578125,-0.05803048983216286,0.05925218388438225,0.07391251623630524
1667266091500944000,0.23294384765625,-0.06413896381855011,0.038483377546072006,0.05864133685827255
1667266091503341800,0.235341796875,-0.07207997888326645,0.014660334214568138,0.047646086663007736
1667266091505739500,0.237739501953125,-0.0781884491443634,-0.012827792204916477,0.037261683493852615
1667266091508137200,0.24013720703125,-0.08246438205242157,-0.0397050715982914,0.03176405653357506
1667266091510535200,0.24253515625,-0.08918370306491852,-0.0659715011715889,0.029320668429136276
1667266091512932900,0.244932861328125,-0.09468132257461548,-0.08674030750989914,0.030542362481355667
1667266091515330800,0.247330810546875,-0.09895725548267365,-0.10323318839073181,0.03176405653357506
1667266091517728500,0.249728515625,-0.1056765764951706,-0.11300674080848694,0.0390942245721817
1667266091520126500,0.25212646484375,-0.10873081535100937,-0.12033691257238388,0.04825693368911743
1667266091522524200,0.254524169921875,-0.11056335270404816,-0.12400199472904205,0.05803048983216286
1667266091524921900,0.256921875,-0.11178504675626755,-0.12033691257238388,0.06841489672660828
1667266091527319800,0.25931982421875,-0.11178504675626755,-0.11361759155988693,0.08063183724880219
1667266091529717500,0.261717529296875,-0.11117420345544815,-0.10750912129878998,0.09407047927379608
1667266091532115500,0.264115478515625,-0.10811996459960938,-0.09834641218185425,0.10750912129878998
1667266091534513200,0.26651318359375,-0.1056765764951706,-0.08735115826129913,0.11972606182098389
1667266091536911000,0.2689111328125,-0.09834641218185425,-0.07207997888326645,0.1313321590423584
1667266091539308800,0.271308837890625,-0.09040539711713791,-0.05497625470161438,0.1423274129629135
1667266091541706500,0.27370654296875,-0.08124268800020218,-0.036039989441633224,0.15454435348510742
1667266091544104400,0.2761044921875,-0.07513421028852463,-0.012827792204916477,0.16065283119678497
1667266091546502100,0.278502197265625,-0.06902574002742767,0.012827792204916477,0.16676130890846252
1667266091548900000,0.280900146484375,-0.0653606578707695,0.03176405653357506,0.1692046970129013
1667266091551297800,0.2832978515625,-0.05741964280605316,0.04581354558467865,0.17225892841815948
1667266091553695500,0.285695556640625,-0.04703523963689804,0.04947862774133682,0.17348061501979828
1667266091556093400,0.288093505859375,-0.03787253051996231,0.043981000781059265,0.17409147322177887
1667266091558491100,0.2904912109375,-0.024433890357613564,0.02993151545524597,0.17531315982341766
1667266091560889000,0.29288916015625,-0.010995250195264816,0.008551862090826035,0.17653486132621765
1667266091563286800,0.295286865234375,0.008551862090826035,-0.016492875292897224,0.17470231652259827
1667266091565684700,0.297684814453125,0.02993151545524597,-0.04459185153245926,0.17286977171897888
1667266091568082400,0.30008251953125,0.05131116881966591,-0.06658235192298889,0.17348061501979828
1667266091570480000,0.302480224609375,0.07696675509214401,-0.08612946420907974,0.1710372269153595
1667266091572878000,0.304878173828125,0.1044548824429512,-0.10262233763933182,0.1716480851173401
1667266091575275800,0.30727587890625,0.1313321590423584,-0.11606097966432571,0.16798299551010132
1667266091577673700,0.309673828125,0.16065283119678497,-0.12339114397764206,0.16492876410484314
1667266091580071400,0.312071533203125,0.19180603325366974,-0.12888877093791962,0.16187451779842377
1667266091582469400,0.314469482421875,0.2235700935125351,-0.129499614238739,0.16004198789596558
1667266091584867000,0.3168671875,0.25716668367385864,-0.12644538283348083,0.1557660549879074
1667266091587265000,0.31926513671875,0.2877090573310852,-0.12094775587320328,0.15087927877902985
1667266091589662700,0.321662841796875,0.3176405727863312,-0.11056335270404816,0.14904673397541046
1667266091592060400,0.324060302734375,0.34635040163993835,-0.09590301662683487,0.1447708010673523
1667266091594458400,0.326458251953125,0.3787252902984619,-0.08368607610464096,0.1429382562637329
1667266091596856000,0.32885595703125,0.41171106696128845,-0.07574506103992462,0.13927318155765533
1667266091599254000,0.33125390625,0.4477510452270508,-0.07330167293548584,0.13744063675403595
1667266091601651700,0.333651611328125,0.4844018816947937,-0.07696675509214401,0.13744063675403595
1667266091604049700,0.336049560546875,0.5241069197654724,-0.08857285231351852,0.13682979345321655
1667266091606447400,0.338447265625,0.5680879354476929,-0.1044548824429512,0.14171656966209412
1667266091608845000,0.340844970703125,0.6139014959335327,-0.12888877093791962,0.15026842057704926
1667266091611243000,0.343242919921875,0.660936713218689,-0.16004198789596558,0.16065283119678497
1667266091613640700,0.345640625,0.7128587365150452,-0.19302773475646973,0.17470231652259827
1667266091616038700,0.34803857421875,0.7678350210189819,-0.22967857122421265,0.1954711228609085
1667266091618436400,0.350436279296875,0.8307522535324097,-0.26632940769195557,0.21562908589839935
1667266091620834300,0.352834228515625,0.8948912620544434,-0.30481278896331787,0.2363978922367096
1667266091623232000,0.35523193359375,0.9504783153533936,-0.3414636254310608,0.2596100866794586
1667266091625629700,0.357629638671875,1.0005677938461304,-0.3762819170951843,0.2870981991291046
1667266091628027600,0.360027587890625,1.045770525932312,-0.41354358196258545,0.32069480419158936
1667266091630425300,0.36242529296875,1.086086392402649,-0.45141613483428955,0.3555130958557129
1667266091632823300,0.3648232421875,1.1227372884750366,-0.49356457591056824,0.3927747905254364
1667266091635221000,0.367220947265625,1.1538904905319214,-0.5320479869842529,0.4337015450000763
1667266091637619000,0.369618896484375,1.1838220357894897,-0.569309651851654,0.47646087408065796
1667266091640016600,0.3720166015625,1.2058124542236328,-0.5961869359016418,0.5198310017585754
1667266091642414600,0.37441455078125,1.220472812652588,-0.6053496599197388,0.5650337338447571
1667266091644812300,0.376812255859375,1.2302464246749878,-0.5906893014907837,0.6071822047233582
1667266091647210000,0.3792099609375,1.2278029918670654,-0.5509842038154602,0.6493306159973145
1667266091649608000,0.38160791015625,1.2168077230453491,-0.49112120270729065,0.6908682584762573
1667266091652005600,0.384005615234375,1.1997040510177612,-0.41537612676620483,0.7262973785400391
1667266091654403600,0.386403564453125,1.175881028175354,-0.3304683566093445,0.7605048418045044
1667266091656801300,0.38880126953125,1.1502254009246826,-0.24372805655002594,0.7922688722610474
1667266091659199000,0.391198974609375,1.1190721988677979,-0.15515519678592682,0.8148702383041382
1667266091661597000,0.393596923828125,1.0848647356033325,-0.07207997888326645,0.8338065147399902
1667266091663994600,0.39599462890625,1.0506572723388672,0.0024433890357613564,0.8466343283653259
1667266091666392600,0.398392578125,1.014006495475769,0.07635590434074402,0.8515210747718811
1667266091668790300,0.400790283203125,0.9736905097961426,0.14110571146011353,0.8484668135643005
1667266091671188200,0.403188232421875,0.9339854717254639,0.19974705576896667,0.8411366939544678
1667266091673586000,0.4055859375,0.8942803740501404,0.25716668367385864,0.8283088803291321
1667266091675983600,0.407983642578125,0.8594620823860168,0.30969956517219543,0.809983491897583
1667266091678381600,0.410381591796875,0.8215895891189575,0.3561239540576935,0.7892146706581116
1667266091680779300,0.412779296875,0.7886037826538086,0.39888325333595276,0.7623373866081238
1667266091683177200,0.41517724609375,0.7598940134048462,0.43614494800567627,0.7366818189620972
1667266091685575000,0.417574951171875,0.7336275577545166,0.4691306948661804,0.70797199010849
1667266091687972900,0.419972900390625,0.7159129977226257,0.5045598149299622,0.6835380792617798
1667266091690370600,0.42237060546875,0.7006418108940125,0.5405998229980469,0.6584933400154114
1667266091692768300,0.424768310546875,0.6914790868759155,0.5815265774726868,0.6383354067802429
1667266091695166200,0.427166259765625,0.6872031688690186,0.6200099587440491,0.6187883019447327
1667266091697564000,0.42956396484375,0.6835380792617798,0.6584933400154114,0.6041279435157776
1667266091699961900,0.4319619140625,0.6878139972686768,0.6914790868759155,0.5925218462944031
1667266091702359600,0.434359619140625,0.6994200944900513,0.7214106321334839,0.5845808386802673
1667266091704757500,0.436757568359375,0.7159129977226257,0.7464553713798523,0.577861487865448
1667266091707155200,0.4391552734375,0.7391251921653748,0.7702783942222595,0.5741963982582092
1667266091709553000,0.441552978515625,0.7666133046150208,0.7898254990577698,0.5748072862625122
1667266091711950800,0.443950927734375,0.7953231334686279,0.8075400590896606,0.578472375869751
1667266091714348500,0.4463486328125,0.8264763355255127,0.8167027831077576,0.5882459282875061
1667266091716746500,0.44874658203125,0.8570187091827393,0.8209787011146545,0.6016845703125
1667266091719144200,0.451144287109375,0.892447829246521,0.8203678727149963,0.6206207871437073
1667266091721542100,0.453542236328125,0.9272661209106445,0.8179244995117188,0.6401679515838623
1667266091723939800,0.45593994140625,0.9590302109718323,0.8112051486968994,0.6664343476295471
1667266091726337500,0.458337646484375,0.9938485026359558,0.8075400590896606,0.6933116316795349
1667266091728735500,0.460735595703125,1.0262234210968018,0.8057075142860413,0.7281299233436584
1667266091731133200,0.46313330078125,1.0537115335464478,0.8057075142860413,0.7605048418045044
1667266091733531100,0.46553125,1.0824213027954102,0.8057075142860413,0.7959339618682861
1667266091735928800,0.4679287109375,1.106244444847107,0.8002098798751831,0.8319739699363708
1667266091738326800,0.470326904296875,1.1306782960891724,0.7959339618682861,0.8704573512077332
1667266091740724500,0.472724365234375,1.151447057723999,0.7928797602653503,0.9089407324790955
1667266091743122200,0.4751220703125,1.1716049909591675,0.7922688722610474,0.9486457705497742
1667266091745520000,0.47752001953125,1.1923738718032837,0.786160409450531,0.9883508682250977
1667266091747917800,0.479917724609375,1.2125318050384521,0.7794411182403564,1.02683424949646
1667266091750315800,0.482315673828125,1.2339115142822266,0.7745543122291565,1.0640959739685059
1667266091752713500,0.48471337890625,1.2534586191177368,0.762948215007782,1.1031901836395264
1667266091755111400,0.487111328125,1.2717839479446411,0.7501204609870911,1.1416735649108887
1667266091757509000,0.489509033203125,1.2894985675811768,0.7379034757614136,1.1783243417739868
1667266091759906800,0.49190673828125,1.309045672416687,0.7262973785400391,1.2168077230453491
1667266091762304800,0.4943046875,1.326149344444275,0.7171346545219421,1.2577345371246338
1667266091764702500,0.496702392578125,1.345162034034729,0.7055285573005676,1.295607089996338
1667266091767100400,0.499100341796875,1.35798978805542,0.6896465420722961,1.3255385160446167
1667266091769498000,0.501498046875,1.3671525716781616,0.6676560640335083,1.3506596088409424
1667266091771896000,0.50389599609375,1.383034586906433,0.6420004963874817,1.3720393180847168
1667266091774293800,0.506293701171875,1.3921972513198853,0.6132906675338745,1.385477900505066
1667266091776691700,0.508691650390625,1.4038033485412598,0.5833591222763062,1.3946406841278076
1667266091779089400,0.51108935546875,1.4160202741622925,0.5528167486190796,1.3983057737350464
1667266091781487000,0.513487060546875,1.4257938861846924,0.5167768001556396,1.3983057737350464
1667266091783885000,0.515885009765625,1.438010811805725,0.4819584786891937,1.3934189081192017
1667266091786282800,0.51828271484375,1.450838565826416,0.4434750974178314,1.3860887289047241
1667266091788680700,0.5206806640625,1.4636664390563965,0.4037700295448303,1.376926064491272
1667266091791078400,0.523078369140625,1.4789376258850098,0.35917818546295166,1.3665416240692139
1667266091793476400,0.525476318359375,1.4923762083053589,0.31825143098831177,1.3549355268478394
1667266091795874000,0.5278740234375,1.505814790725708,0.28221142292022705,1.340886116027832
1667266091798271700,0.530271728515625,1.5180318355560303,0.24433889985084534,1.3273711204528809
1667266091800669700,0.532669677734375,1.5290271043777466,0.21257483959197998,1.3157650232315063
1667266091803067400,0.5350673828125,1.5363571643829346,0.17958909273147583,1.2998830080032349
1667266091805465300,0.53746533203125,1.540633201599121,0.15026842057704926,1.2833900451660156
1667266091807863000,0.539863037109375,1.543687343597412,0.12766708433628082,1.2699514627456665
1667266091810261000,0.542260986328125,1.544909119606018,0.11117420345544815,1.2546802759170532
1667266091812658700,0.54465869140625,1.5394114255905151,0.09529217332601547,1.23940908908844
1667266091815056400,0.547056396484375,1.530248761177063,0.08490777015686035,1.2180293798446655
1667266091817454300,0.549454345703125,1.5174208879470825,0.07635590434074402,1.1972606182098389
1667266091819852000,0.55185205078125,1.5021498203277588,0.0647498071193695,1.1813786029815674
1667266091822250000,0.55425,1.4832135438919067,0.053143709897994995,1.1624423265457153
1667266091824647700,0.556647705078125,1.4673315286636353,0.043981000781059265,1.1441168785095215
1667266091827045600,0.559045654296875,1.4447301626205444,0.036039989441633224,1.1264023780822754
1667266091829443300,0.561443359375,1.4251830577850342,0.029320668429136276,1.111131191253662
1667266091831841000,0.563841064453125,1.404414176940918,0.023823043331503868,1.0946383476257324
1667266091834239000,0.566239013671875,1.3805911540985107,0.021990500390529633,1.0799779891967773
1667266091836636700,0.56863671875,1.3586006164550781,0.02504473738372326,1.064706802368164
1667266091839034600,0.57103466796875,1.3328686952590942,0.02626643143594265,1.0463813543319702
1667266091841432300,0.573432373046875,1.3096565008163452,0.02870982140302658,1.035386085510254
1667266091843830300,0.575830322265625,1.2870551347732544,0.029320668429136276,1.0237799882888794
1667266091846228000,0.57822802734375,1.2662863731384277,0.024433890357613564,1.012784719467163
1667266091848625700,0.580625732421875,1.2473500967025757,0.01710372418165207,1.0054545402526855
1667266091851023600,0.583023681640625,1.2290246486663818,0.0006108472589403391,0.9981244206428528
1667266091853421300,0.58542138671875,1.2131426334381104,-0.020157959312200546,0.9907942414283752
1667266091855819300,0.5878193359375,1.199093222618103,-0.04459185153245926,0.9846857786178589
1667266091858217000,0.590217041015625,1.1874871253967285,-0.07757759839296341,0.9779664874076843
1667266091860614700,0.59261474609375,1.1740484237670898,-0.1185043677687645,0.9700254201889038
1667266091863012600,0.5950126953125,1.1593880653381348,-0.16370706260204315,0.9608627557754517
1667266091865410300,0.597410400390625,1.1465603113174438,-0.21196399629116058,0.9535325765609741
1667266091867808300,0.599808349609375,1.1318999528884888,-0.2626643180847168,0.9431481957435608
1667266091870206000,0.6022060546875,1.1160179376602173,-0.3115321099758148,0.9309312105178833
1667266091872604000,0.60460400390625,1.0989142656326294,-0.36039987206459045,0.9187142848968506
1667266091875001600,0.607001708984375,1.0830321311950684,-0.4080459773540497,0.9064973592758179
1667266091877399300,0.6093994140625,1.0671501159667969,-0.45508119463920593,0.893058717250824
1667266091879797200,0.61179736328125,1.0439379215240479,-0.4966188073158264,0.8729007244110107
1667266091882195000,0.61419482421875,1.0237799882888794,-0.5344913601875305,0.8527427911758423
1667266091884593000,0.616593017578125,0.9981244206428528,-0.5619794726371765,0.8289197087287903
1667266091886990600,0.618990478515625,0.9743013978004456,-0.5815265774726868,0.8020424246788025
1667266091889388500,0.621388427734375,0.9504783153533936,-0.5876350402832031,0.7696675658226013
1667266091891786200,0.6237861328125,0.9272661209106445,-0.5870242118835449,0.7379034757614136
1667266091894184200,0.62618408203125,0.9058864712715149,-0.5729747414588928,0.7006418108940125
1667266091896582000,0.628581787109375,0.8863393664360046,-0.5485408306121826,0.6578825116157532
1667266091898979600,0.6309794921875,0.869846522808075,-0.5149442553520203,0.6090146899223328
1667266091901377500,0.63337744140625,0.8551861643791199,-0.4709632396697998,0.555260181427002
1667266091903775200,0.635775146484375,0.8448017835617065,-0.4196520745754242,0.4978405237197876
1667266091906173200,0.638173095703125,0.8393041491508484,-0.36101073026657104,0.43797749280929565
1667266091908571000,0.64057080078125,0.8405258059501648,-0.29748260974884033,0.37567105889320374
1667266091910968800,0.64296875,0.8454126119613647,-0.23151111602783203,0.31031039357185364
1667266091913366500,0.645366455078125,0.8557969927787781,-0.16126367449760437,0.24433889985084534
1667266091915764500,0.647764404296875,0.8722898960113525,-0.08490777015686035,0.17836740612983704
1667266091918162200,0.650162109375,0.892447829246521,-0.006108472589403391,0.1172826737165451
1667266091920559900,0.652559814453125,0.916270911693573,0.08185353130102158,0.051922015845775604
1667266091922957800,0.654957763671875,0.9419264793395996,0.1716480851173401,-0.006108472589403391
1667266091925355500,0.65735546875,0.9718579649925232,0.2583884000778198,-0.05925218388438225
1667266091927753500,0.65975341796875,1.007897973060608,0.33535513281822205,-0.1056765764951706
1667266091930151200,0.662151123046875,1.0421054363250732,0.40132665634155273,-0.1459924876689911
1667266091932549000,0.664549072265625,1.073258638381958,0.4556920528411865,-0.17897824943065643
1667266091934946800,0.66694677734375,1.1025793552398682,0.49417543411254883,-0.20096874237060547
1667266091937344500,0.669344482421875,1.12823486328125,0.518609344959259,-0.21501824259757996
1667266091939742500,0.671742431640625,1.151447057723999,0.5332696437835693,-0.2217375487089157
1667266091942140200,0.67414013671875,1.1697725057601929,0.5430431962013245,-0.21929416060447693
1667266091944538000,0.6765380859375,1.1813786029815674,0.5448757410049438,-0.2107423096895218
1667266091946935800,0.678935791015625,1.1893196105957031,0.5430431962013245,-0.19058434665203094
1667266091949333800,0.681333740234375,1.1942063570022583,0.53143709897995,-0.16492876410484314
1667266091951731500,0.6837314453125,1.1935955286026,0.5192201733589172,-0.13499724864959717
1667266091954129200,0.686129150390625,1.1905412673950195,0.5167768001556396,-0.0916270911693573
1667266091956527000,0.688527099609375,1.1813786029815674,0.5149442553520203,-0.045202698558568954
1667266091958924800,0.6909248046875,1.174659252166748,0.5137225389480591,0.0030542362947016954
1667266091961322800,0.69332275390625,1.159998893737793,0.5173876285552979,0.05619794875383377
1667266091963720400,0.695720458984375,1.1422843933105469,0.5247178077697754,0.10628741979598999
1667266091966118100,0.6981181640625,1.1221264600753784,0.5344913601875305,0.15271180868148804
1667266091968516000,0.70051611328125,1.0989142656326294,0.5442649126052856,0.19913621246814728
1667266091970913800,0.702913818359375,1.0763128995895386,0.554649293422699,0.24128466844558716
1667266091973311700,0.705311767578125,1.0494356155395508,0.5638120174407959,0.28160059452056885
1667266091975709400,0.70770947265625,1.02683424949646,0.5705313682556152,0.31092125177383423
1667266091978107400,0.710107421875,1.0072871446609497,0.5729747414588928,0.33413344621658325
1667266091980505000,0.712505126953125,0.9871291518211365,0.5790832042694092,0.3506263196468353
1667266091982903000,0.714903076171875,0.971247136592865,0.5772506594657898,0.36223241686820984
1667266091985300700,0.71730078125,0.9590302109718323,0.5748072862625122,0.3658975064754486
1667266091987698400,0.719698486328125,0.9523108601570129,0.5741963982582092,0.36101073026657104
1667266091990096400,0.722096435546875,0.9468132257461548,0.5815265774726868,0.34818294644355774
1667266091992494000,0.724494140625,0.9455915689468384,0.5949652194976807,0.3286358118057251
1667266091994892000,0.72689208984375,0.9504783153533936,0.6145123243331909,0.3017585575580597
1667266091997289700,0.729289794921875,0.9590302109718323,0.6395570635795593,0.2724378705024719
1667266091999687700,0.731687744140625,0.9700254201889038,0.6627692580223083,0.24006296694278717
1667266092002085400,0.73408544921875,0.9877400398254395,0.6835380792617798,0.20646637678146362
1667266092004483000,0.736483154296875,1.0048437118530273,0.7000309824943542,0.1710372269153595
1667266092006881000,0.738881103515625,1.0219475030899048,0.7128587365150452,0.1319430023431778
1667266092009278700,0.74127880859375,1.041494607925415,0.7201889157295227,0.0916270911693573
1667266092011676700,0.7436767578125,1.0598199367523193,0.7189671993255615,0.04703523963689804
1667266092014074400,0.746074462890625,1.0781453847885132,0.7049177289009094,0.0030542362947016954
1667266092016472300,0.748472412109375,1.0940274000167847,0.6884248852729797,-0.04153761267662048
1667266092018870000,0.7508701171875,1.1129636764526367,0.6639909744262695,-0.08796200156211853
1667266092021268000,0.75326806640625,1.1312891244888306,0.6297835111618042,-0.13316470384597778
1667266092023665700,0.755665771484375,1.1502254009246826,0.5864133834838867,-0.17836740612983704
1667266092026063400,0.7580634765625,1.1709941625595093,0.5338805317878723,-0.2217375487089157
1667266092028461300,0.76046142578125,1.188708782196045,0.4752391576766968,-0.2602209448814392
1667266092030859000,0.76285888671875,1.2082558870315552,0.4172086715698242,-0.2980934679508209
1667266092033257000,0.765257080078125,1.2247487306594849,0.3549022674560547,-0.33291175961494446
1667266092035654700,0.767654541015625,1.23940908908844,0.2895416021347046,-0.36284327507019043
1667266092038052600,0.770052490234375,1.2516260147094727,0.2235700935125351,-0.38666632771492004
1667266092040450300,0.7724501953125,1.2613996267318726,0.15454435348510742,-0.4062134325504303
1667266092042848000,0.774847900390625,1.2675080299377441,0.08124268800020218,-0.4196520745754242
1667266092045246000,0.777245849609375,1.2717839479446411,0.010995250195264816,-0.4202629029750824
1667266092047643600,0.7796435546875,1.2675080299377441,-0.05619794875383377,-0.418430358171463
1667266092050041600,0.78204150390625,1.2607887983322144,-0.11483928561210632,-0.4062134325504303
1667266092052439300,0.784439208984375,1.2491827011108398,-0.16615045070648193,-0.38605546951293945
1667266092054837200,0.786837158203125,1.235133171081543,-0.20219044387340546,-0.3573456406593323
1667266092057235000,0.78923486328125,1.2137534618377686,-0.2241809368133545,-0.32130566239356995
1667266092059632600,0.791632568359375,1.1911520957946777,-0.23212195932865143,-0.2767138183116913
1667266092062030600,0.794030517578125,1.1624423265457153,-0.23090025782585144,-0.22784602642059326
1667266092064428300,0.79642822265625,1.1288456916809082,-0.2241809368133545,-0.17531315982341766
1667266092066826200,0.798826171875,1.0934165716171265,-0.21746163070201874,-0.12216944992542267
1667266092069224000,0.801223876953125,1.0567657947540283,-0.2107423096895218,-0.0659715011715889
1667266092071622000,0.803621826171875,1.0201148986816406,-0.208298921585083,-0.012827792204916477
1667266092074019600,0.80601953125,0.9810206890106201,-0.208298921585083,0.0397050715982914
1667266092076417300,0.808417236328125,0.9449806809425354,-0.21562908589839935,0.08490777015686035
1667266092078815200,0.810815185546875,0.9126058220863342,-0.23212195932865143,0.12522368133068085
1667266092081213000,0.813212890625,0.8808417320251465,-0.2644968628883362,0.15515519678592682
1667266092083611000,0.81561083984375,0.8496885299682617,-0.3133646547794342,0.17531315982341766
1667266092086008600,0.818008544921875,0.8234221339225769,-0.3781144618988037,0.1844758689403534
1667266092088406500,0.820406494140625,0.7995990514755249,-0.4587462842464447,0.1850867122411728
1667266092090804200,0.82280419921875,0.7776085734367371,-0.5381564497947693,0.1820324808359146
1667266092093202200,0.8252021484375,0.7550072073936462,-0.610236406326294,0.17286977171897888
1667266092095599900,0.827599853515625,0.7336275577545166,-0.6700994372367859,0.16370706260204315
1667266092097997800,0.829997802734375,0.7146912813186646,-0.7061394453048706,0.15210096538066864
1667266092100395500,0.8323955078125,0.6902574300765991,-0.7165238261222839,0.1435490995645523
1667266092102793200,0.834793212890625,0.6688777208328247,-0.7024743556976318,0.13621893525123596
1667266092105191200,0.837191162109375,0.6468872427940369,-0.6627692580223083,0.12644538283348083
1667266092107588900,0.8395888671875,0.6224533319473267,-0.601073682308197,0.12339114397764206
1667266092109986800,0.84198681640625,0.601073682308197,-0.5106683373451233,0.12094775587320328
1667266092112384500,0.844384521484375,0.5796940326690674,-0.40071579813957214,0.11972606182098389
1667266092114782200,0.8467822265625,0.5619794726371765,-0.26938363909721375,0.11911521852016449
1667266092117180200,0.84918017578125,0.5473191738128662,-0.12094775587320328,0.1185043677687645
1667266092119577900,0.851577880859375,0.5338805317878723,0.04092676565051079,0.11606097966432571
1667266092121975800,0.853975830078125,0.5277720093727112,0.21318569779396057,0.11361759155988693
1667266092124373500,0.85637353515625,0.5234960913658142,0.3915531039237976,0.11056335270404816
1667266092126771500,0.858771484375,0.5204418897628784,0.569309651851654,0.10262233763933182
1667266092129169200,0.861169189453125,0.5222744345664978,0.7458444833755493,0.09956810623407364
1667266092131566800,0.86356689453125,0.5259394645690918,0.9144383668899536,0.09284878522157669
1667266092133964800,0.86596484375,0.5320479869842529,1.0677610635757446,0.0916270911693573
1667266092136362500,0.868362548828125,0.5405998229980469,1.207645058631897,0.0910162404179573
1667266092138760400,0.870760498046875,0.5509842038154602,1.332257866859436,0.09284878522157669
1667266092141158100,0.873158203125,0.5662553906440735,1.4392324686050415,0.09834641218185425
1667266092143556000,0.87555615234375,0.5888567566871643,1.5265836715698242,0.11300674080848694
1667266092145953800,0.877953857421875,0.6169557571411133,1.5943876504898071,0.1301104724407196
1667266092148351700,0.880351806640625,0.6542174220085144,1.6475313901901245,0.15332266688346863
1667266092150749400,0.88274951171875,0.6975875496864319,1.6829605102539062,0.183865025639534
1667266092153147400,0.8851474609375,0.7495095729827881,1.705561876296997,0.21746163070201874
1667266092155545000,0.887545166015625,0.8057075142860413,1.7092269659042358,0.258999228477478
1667266092157942800,0.88994287109375,0.8631271719932556,1.700675129890442,0.3023693859577179
1667266092160340700,0.8923408203125,0.9290986657142639,1.6786845922470093,0.34879377484321594
1667266092162738400,0.894738525390625,0.9975135922431946,1.6420338153839111,0.39827242493629456
1667266092165136400,0.897136474609375,1.0720369815826416,1.6023286581039429,0.4575245976448059
1667266092167534000,0.8995341796875,1.1490037441253662,1.557736873626709,0.5173876285552979
1667266092169932000,0.90193212890625,1.2302464246749878,1.505814790725708,0.582748293876648
1667266092172329700,0.904329833984375,1.317597508430481,1.4477843046188354,0.6529957056045532
1667266092174727400,0.9067275390625,1.4093009233474731,1.3799803256988525,0.7183563709259033
1667266092177125400,0.90912548828125,1.5021498203277588,1.2974395751953125,0.7855495810508728
1667266092179523000,0.911523193359375,1.5974419116973877,1.211920976638794,0.856407880783081
1667266092181921000,0.913921142578125,1.6951775550842285,1.119683027267456,0.9333745837211609
1667266092184318700,0.916318603515625,1.7947455644607544,1.0207257270812988,1.0121738910675049
1667266092186716700,0.918716552734375,1.8924812078475952,0.9132166504859924,1.0934165716171265
1667266092189114400,0.9211142578125,1.9841082096099854,0.8020424246788025,1.1764918565750122
1667266092191512000,0.923511962890625,2.0677943229675293,0.684759795665741,1.2601778507232666
1667266092193910000,0.925909912109375,2.1441502571105957,0.5638120174407959,1.3427186012268066
1667266092196307700,0.9283076171875,2.2076783180236816,0.43736663460731506,1.4221287965774536
1667266092198705700,0.93070556640625,2.2620437145233154,0.30725616216659546,1.4960412979125977
1667266092201103400,0.933103271484375,2.3060247898101807,0.17348061501979828,1.5675103664398193
1667266092203501300,0.935501220703125,2.33901047706604,0.04092676565051079,1.6298168897628784
1667266092205899000,0.93789892578125,2.3634443283081055,-0.08002099394798279,1.6860147714614868
1667266092208296700,0.940296630859375,2.3781046867370605,-0.1948602795600891,1.7318283319473267
1667266092210694700,0.942694580078125,2.3866565227508545,-0.2919849753379822,1.7776418924331665
1667266092213092400,0.94509228515625,2.390932559967041,-0.37200596928596497,1.8155144453048706
1667266092215490300,0.947490234375,2.390932559967041,-0.4330907166004181,1.8460568189620972
1667266092217888000,0.949887939453125,2.3836023807525635,-0.47585001587867737,1.871712327003479
1667266092220286000,0.952285888671875,2.373218059539795,-0.5021164417266846,1.8875943422317505
1667266092222683600,0.95468359375,2.3579468727111816,-0.5137225389480591,1.8979787826538086
1667266092225081600,0.95708154296875,2.338399648666382,-0.5167768001556396,1.9010330438613892
1667266092227479300,0.959479248046875,2.3090789318084717,-0.5082249045372009,1.8985896110534668
1667266092229877200,0.961877197265625,2.2767040729522705,-0.4831801950931549,1.8924812078475952
1667266092232275000,0.96427490234375,2.2363882064819336,-0.444085955619812,1.8845402002334595
1667266092234672600,0.966672607421875,2.1924071311950684,-0.38849884271621704,1.8723231554031372
1667266092237070600,0.969070556640625,2.1441502571105957,-0.3158080279827118,1.8619388341903687
1667266092239468300,0.97146826171875,2.083676338195801,-0.23028941452503204,1.8503327369689941
1667266092241866200,0.9738662109375,2.020148277282715,-0.1325538605451584,1.8368940353393555
1667266092244264000,0.976263916015625,1.946846604347229,-0.024433890357613564,1.821012020111084
1667266092246661600,0.97866162109375,1.8698798418045044,0.08551861345767975,1.803908348083496
1667266092249059600,0.9810595703125,1.7868045568466187,0.1960819661617279,1.7843612432479858
1667266092251457300,0.983457275390625,1.7037293910980225,0.30664533376693726,1.7599272727966309
1667266092253855200,0.985855224609375,1.6206541061401367,0.41171106696128845,1.7348825931549072
1667266092256253000,0.9882529296875,1.543076515197754,0.5112791657447815,1.7086161375045776
1667266092258651000,0.99065087890625,1.4673315286636353,0.5937435626983643,1.6744086742401123
1667266092261048600,0.993048583984375,1.3976948261260986,0.6621584296226501,1.640201210975647
1667266092263446500,0.995446533203125,1.3384426832199097,0.7189671993255615,1.6029396057128906
1667266092265844200,0.99784423828125,1.2840009927749634,0.7623373866081238,1.5650670528411865
1667266092268242000,1.000241943359375,1.2418525218963623,0.7989882230758667,1.5241402387619019
1667266092270639900,1.002639892578125,1.2070342302322388,0.8252546191215515,1.4819917678833008
1667266092273037600,1.00503759765625,1.1838220357894897,0.8429692387580872,1.4435083866119385
1667266092275435500,1.007435546875,1.1679399013519287,0.8545753359794617,1.404414176940918
1667266092277833200,1.009833251953125,1.1648857593536377,0.8576295375823975,1.364098310470581
1667266092280231200,1.012231201171875,1.1685508489608765,0.8496885299682617,1.327981948852539
1667266092282628900,1.01462890625,1.174659252166748,0.8319739699363708,1.2937744855880737
1667266092285026800,1.01702685546875,1.1905412673950195,0.8026533126831055,1.2589561939239502
1667266092287424500,1.019424560546875,1.2088667154312134,0.7598940134048462,1.2284138202667236
1667266092289822200,1.021822265625,1.2320789098739624,0.7043069005012512,1.1984822750091553
1667266092292220200,1.02422021484375,1.2565127611160278,0.6328377723693848,1.170383334159851
1667266092294617900,1.026617919921875,1.277281641960144,0.546097457408905,1.1453386545181274
1667266092297015800,1.029015869140625,1.296217918395996,0.4459185004234314,1.1227372884750366
1667266092299413500,1.03141357421875,1.3084348440170288,0.33535513281822205,1.1001359224319458
1667266092301811500,1.0338115234375,1.3163758516311646,0.22479179501533508,1.081810474395752
1667266092304209200,1.036209228515625,1.3200409412384033,0.10995250940322876,1.0683718919754028
1667266092306606800,1.03860693359375,1.3182083368301392,-0.004275931045413017,1.0573766231536865
1667266092309004800,1.0410048828125,1.3114891052246094,-0.11545012891292572,1.0482138395309448
1667266092311402500,1.043402587890625,1.3017154932022095,-0.22845686972141266,1.0408837795257568
1667266092313800400,1.045800537109375,1.2894985675811768,-0.337798535823822,1.0335536003112793
1667266092316198100,1.0481982421875,1.276059865951538,-0.4434750974178314,1.0250016450881958
1667266092318596000,1.05059619140625,1.2595670223236084,-0.5448757410049438,1.0176715850830078
1667266092320993800,1.052993896484375,1.2418525218963623,-0.6395570635795593,1.0066763162612915
1667266092323391700,1.055391845703125,1.2247487306594849,-0.7299624681472778,0.9962918758392334
1667266092325789400,1.05778955078125,1.2052016258239746,-0.813648521900177,0.9846857786178589
1667266092328187400,1.0601875,1.1856545209884644,-0.8900044560432434,0.9706363081932068
1667266092330585000,1.062585205078125,1.1685508489608765,-0.9590302109718323,0.9529217481613159
1667266092332982800,1.064982666015625,1.1496145725250244,-1.0207257270812988,0.9321529269218445
1667266092335380700,1.067380615234375,1.12823486328125,-1.0738694667816162,0.9095515608787537
1667266092337778400,1.0697783203125,1.1080769300460815,-1.119683027267456,0.8826742768287659
1667266092340176400,1.07217626953125,1.0848647356033325,-1.156944751739502,0.8509102463722229
1667266092342574000,1.074573974609375,1.064706802368164,-1.183211088180542,0.8197570443153381
1667266092344972000,1.076971923828125,1.0463813543319702,-1.1997040510177612,0.7892146706581116
1667266092347369700,1.07936962890625,1.0243908166885376,-1.2009257078170776,0.7592831254005432
1667266092349767400,1.081767333984375,1.0066763162612915,-1.1917630434036255,0.7299624681472778
1667266092352165400,1.084165283203125,0.9889616966247559,-1.170383334159851,0.70308518409729
1667266092354563000,1.08656298828125,0.9743013978004456,-1.1392301321029663,0.6762079000473022
1667266092356961000,1.0889609375,0.9608627557754517,-1.1019684076309204,0.6511631608009338
1667266092359358700,1.091358642578125,0.9504783153533936,-1.0537115335464478,0.6236750483512878
1667266092361756700,1.093756591796875,0.9425373077392578,-0.9975135922431946,0.5974085927009583
1667266092364154400,1.096154296875,0.9419264793395996,-0.9364288449287415,0.569309651851654
1667266092366552000,1.098552001953125,0.939483106136322,-0.8704573512077332,0.5381564497947693
1667266092368950000,1.100949951171875,0.9449806809425354,-0.8002098798751831,0.5051707029342651
1667266092371347700,1.10334765625,0.9529217481613159,-0.7330167293548584,0.4715740978717804
1667266092373745700,1.10574560546875,0.9633061289787292,-0.6713211536407471,0.44042086601257324
1667266092376143400,1.108143310546875,0.9785773158073425,-0.6151232123374939,0.4062134325504303
1667266092378541300,1.110541259765625,0.9969027042388916,-0.5815265774726868,0.3793361485004425
1667266092380939000,1.11293896484375,1.0158389806747437,-0.555260181427002,0.3506263196468353
1667266092383337000,1.1153369140625,1.0390511751174927,-0.5259394645690918,0.32313820719718933
1667266092385734700,1.117734619140625,1.060430884361267,-0.5008947253227234,0.29687178134918213
1667266092388132600,1.120132568359375,1.0824213027954102,-0.4831801950931549,0.2748812735080719
1667266092390530300,1.1225302734375,1.105022668838501,-0.47585001587867737,0.2492256760597229
1667266092392928000,1.124927978515625,1.1251806020736694,-0.47646087408065796,0.22479179501533508
1667266092395326000,1.127325927734375,1.1459494829177856,-0.48989951610565186,0.20157960057258606
1667266092397723600,1.1297236328125,1.161220669746399,-0.5265503525733948,0.17653486132621765
1667266092400121600,1.13212158203125,1.178935170173645,-0.5748072862625122,0.15271180868148804
1667266092402519300,1.134519287109375,1.1948171854019165,-0.6413896083831787,0.12461283802986145
1667266092404917200,1.136917236328125,1.2100883722305298,-0.7281299233436584,0.09895725548267365
1667266092407315000,1.13931494140625,1.226581335067749,-0.8264763355255127,0.07574506103992462
1667266092409712600,1.141712646484375,1.2442958354949951,-0.9376505613327026,0.04886778071522713
1667266092412110600,1.144110595703125,1.2613996267318726,-1.060430884361267,0.028098974376916885
1667266092414508300,1.14650830078125,1.2852226495742798,-1.1868761777877808,0.006719320081174374
1667266092416906200,1.14890625,1.3120999336242676,-1.3182083368301392,-0.011606098152697086
1667266092419304000,1.151303955078125,1.3457728624343872,-1.4435083866119385,-0.028098974376916885
1667266092421702000,1.153701904296875,1.38731050491333,-1.562012791633606,-0.04031591862440109
1667266092424099600,1.156099609375,1.4367891550064087,-1.6719653606414795,-0.05008947476744652
1667266092426497500,1.15849755859375,1.497262954711914,-1.7727551460266113,-0.05925218388438225
1667266092428895200,1.160895263671875,1.5589585304260254,-1.8552194833755493,-0.0653606578707695
1667266092431293200,1.163293212890625,1.6310385465621948,-1.9242452383041382,-0.07146912813186646
1667266092433691000,1.16569091796875,1.706783652305603,-1.9767780303955078,-0.07635590434074402
1667266092436088600,1.168088623046875,1.7770310640335083,-2.011596441268921,-0.08124268800020218
1667266092438486500,1.170486572265625,1.8472784757614136,-2.023202419281006,-0.08612946420907974
1667266092440884200,1.17288427734375,1.9071414470672607,-1.9993793964385986,-0.08918370306491852
1667266092443282200,1.1752822265625,1.9590635299682617,-1.9352405071258545,-0.09468132257461548
1667266092445679900,1.177679931640625,1.997546911239624,-1.8240662813186646,-0.10262233763933182
1667266092448077800,1.180077880859375,2.0225915908813477,-1.673797845840454,-0.11361759155988693
1667266092450475500,1.1824755859375,2.0360302925109863,-1.4771050214767456,-0.129499614238739
1667266092452873200,1.184873291015625,2.0372519493103027,-1.2381874322891235,-0.15026842057704926
1667266092455271200,1.187271240234375,2.0256459712982178,-0.9645278453826904,-0.183865025639534
1667266092457668900,1.1896689453125,1.9969360828399658,-0.6536065936088562,-0.2241809368133545
1667266092460066800,1.19206689453125,1.9560092687606812,-0.32313820719718933,-0.2748812735080719
1667266092462464500,1.194464599609375,1.903476357460022,0.01588202826678753,-0.3298575282096863
1667266092464862200,1.1968623046875,1.8436133861541748,0.3524588644504547,-0.3836120665073395
1667266092467260200,1.19926025390625,1.7800853252410889,0.6768187880516052,-0.43919917941093445
1667266092469657900,1.201657958984375,1.7147246599197388,0.9859074950218201,-0.49356457591056824
1667266092472055800,1.204055908203125,1.6475313901901245,1.266897201538086,-0.5479300022125244
1667266092474453500,1.20645361328125,1.5815598964691162,1.5180318355560303,-0.6041279435157776
1667266092476851500,1.2088515625,1.5174208879470825,1.7367150783538818,-0.6627692580223083
1667266092479249200,1.211249267578125,1.455114483833313,1.9218018054962158,-0.7220214605331421
1667266092481647000,1.213647216796875,1.4019708633422852,2.0690159797668457,-0.786160409450531
1667266092484044800,1.216044921875,1.3549355268478394,2.182633638381958,-0.8527427911758423
1667266092486442800,1.21844287109375,1.318819284439087,2.2644870281219482,-0.9126058220863342
1667266092488840400,1.22084033203125,1.2974395751953125,2.313354969024658,-0.9688037633895874
1667266092491238100,1.223238037109375,1.2840009927749634,2.3377888202667236,-1.0152281522750854
1667266092493636000,1.225635986328125,1.2846118211746216,2.3408429622650146,-1.0518789291381836
1667266092496033800,1.22803369140625,1.2925528287887573,2.326793670654297,-1.077534556388855
1667266092498431700,1.230431640625,1.309045672416687,2.3005270957946777,-1.0940274000167847
1667266092500829400,1.232829345703125,1.3285927772521973,2.2687630653381348,-1.0958600044250488
1667266092503227400,1.235227294921875,1.3488271236419678,2.238220691680908,-1.0836430788040161
1667266092505625000,1.237625,1.368374228477478,2.205845832824707,-1.0622633695602417
1667266092508022800,1.240022705078125,1.3836454153060913,2.1698057651519775,-1.0274450778961182
1667266092510420700,1.242420654296875,1.3909755945205688,2.118494749069214,-0.9871291518211365
1667266092512818400,1.244818359375,1.3921972513198853,2.0647401809692383,-0.9364288449287415
1667266092515216400,1.24721630859375,1.3928080797195435,2.006098747253418,-0.8686248064041138
1667266092517614000,1.249614013671875,1.3836454153060913,1.9382946491241455,-0.790436327457428
1667266092520012000,1.252011962890625,1.3708176612854004,1.8625496625900269,-0.6975875496864319
1667266092522409700,1.25440966796875,1.3506596088409424,1.7843612432479858,-0.5980194807052612
1667266092524807700,1.2568076171875,1.3298144340515137,1.6970100402832031,-0.48928865790367126
1667266092527205400,1.259205322265625,1.3023263216018677,1.6059937477111816,-0.37506023049354553
1667266092529603300,1.261603271484375,1.271173119544983,1.511312484741211,-0.25411245226860046
1667266092532001000,1.2640009765625,1.2387982606887817,1.4154094457626343,-0.1319430023431778
1667266092534398700,1.266398681640625,1.2039799690246582,1.3212625980377197,-0.011606098152697086
1667266092536796700,1.268796630859375,1.166107416152954,1.2339115142822266,0.10995250940322876
1667266092539194400,1.2711943359375,1.1276240348815918,1.151447057723999,0.22723518311977386
1667266092541592300,1.27359228515625,1.0909732580184937,1.0769237279891968,0.342074453830719
1667266092543990000,1.275989990234375,1.0537115335464478,1.0133955478668213,0.45080527663230896
1667266092546388000,1.278387939453125,1.022558331489563,0.9602518677711487,0.5540384650230408
1667266092548785700,1.28078564453125,0.9938485026359558,0.9132166504859924,0.6499415040016174
1667266092551183400,1.283183349609375,0.9700254201889038,0.8667922616004944,0.735460102558136
1667266092553581300,1.285581298828125,0.9474241137504578,0.8228112459182739,0.8087617754936218
1667266092555979000,1.28797900390625,0.9272661209106445,0.7806627750396729,0.8710681796073914
1667266092558377000,1.290376953125,0.9119949340820312,0.7421793937683105,0.9229902029037476
1667266092560774700,1.292774658203125,0.897334635257721,0.7055285573005676,0.9602518677711487
1667266092563172600,1.295172607421875,0.8820634484291077,0.6725428104400635,0.9834640622138977
1667266092565570300,1.2975703125,0.8686248064041138,0.6426113247871399,1.0011786222457886
1667266092567968300,1.29996826171875,0.8515210747718811,0.6163448691368103,1.007897973060608
1667266092570366000,1.302365966796875,0.8380824327468872,0.5931326746940613,1.0005677938461304
1667266092572764000,1.304763916015625,0.8252546191215515,0.5741963982582092,0.9852966070175171
1667266092575161600,1.30716162109375,0.8112051486968994,0.5577035546302795,0.9565867781639099
1667266092577559300,1.309559326171875,0.8002098798751831,0.5418215394020081,0.9187142848968506
1667266092579957200,1.311957275390625,0.7892146706581116,0.5320479869842529,0.8729007244110107
1667266092582355000,1.31435498046875,0.7843278646469116,0.5247178077697754,0.8173136115074158
1667266092584753000,1.3167529296875,0.7824953198432922,0.5216635465621948,0.7568397521972656
1667266092587150600,1.319150634765625,0.7843278646469116,0.5204418897628784,0.6878139972686768
1667266092589548500,1.321548583984375,0.7941014170646667,0.5338805317878723,0.6193991303443909
1667266092591946200,1.3239462890625,0.8069292306900024,0.5491516590118408,0.5473191738128662
1667266092594344000,1.326343994140625,0.8234221339225769,0.5748072862625122,0.474017471075058
1667266092596742000,1.328741943359375,0.8441908955574036,0.6065713167190552,0.40254834294319153
1667266092599139600,1.3311396484375,0.8643488883972168,0.6444438695907593,0.33169007301330566
1667266092601537500,1.33353759765625,0.8845068216323853,0.6853706240653992,0.265718549489975
1667266092603935200,1.335935302734375,0.9064973592758179,0.7336275577545166,0.19974705576896667
1667266092606333200,1.338333251953125,0.9242119193077087,0.7824953198432922,0.13866232335567474
1667266092608731000,1.34073095703125,0.9382613897323608,0.8362498879432678,0.0794101431965828
1667266092611128800,1.34312890625,0.9498674869537354,0.8936695456504822,0.022601349279284477
1667266092613526500,1.345526611328125,0.9523108601570129,0.9553651213645935,-0.029320668429136276
1667266092615924500,1.347924560546875,0.9455915689468384,1.0158389806747437,-0.07452336698770523
1667266092618322200,1.350322265625,0.9327637553215027,1.0750911235809326,-0.11422843486070633
1667266092620719900,1.352719970703125,0.9132166504859924,1.1270132064819336,-0.15087927877902985
1667266092623117800,1.355117919921875,0.8893936276435852,1.1734375953674316,-0.18019993603229523
1667266092625515500,1.357515625,0.8600729703903198,1.2131426334381104,-0.20646637678146362
1667266092627913500,1.35991357421875,0.8252546191215515,1.2473500967025757,-0.23028941452503204
1667266092630311200,1.362311279296875,0.7898254990577698,1.2797249555587769,-0.25472331047058105
1667266092632709000,1.364709228515625,0.7476770281791687,1.3114891052246094,-0.2718270421028137
1667266092635106800,1.36710693359375,0.7085828185081482,1.3433294296264648,-0.2877090573310852
1667266092637504500,1.36950439453125,0.6682668924331665,1.3757044076919556,-0.2999260127544403
1667266092639902500,1.37190234375,0.6297835111618042,1.4080792665481567,-0.30603447556495667
1667266092642300200,1.374300048828125,0.5949652194976807,1.4386216402053833,-0.31092125177383423
1667266092644698000,1.376697998046875,0.5680879354476929,1.4703856706619263,-0.314586341381073
1667266092647095800,1.379095703125,0.546097457408905,1.5052039623260498,-0.3158080279827118
1667266092649493800,1.38149365234375,0.5375455617904663,1.5351355075836182,-0.3164188861846924
1667266092651891500,1.383891357421875,0.5363239049911499,1.5668995380401611,-0.3164188861846924
1667266092654289400,1.386289306640625,0.5467082858085632,1.598052740097046,-0.3151971995830536
1667266092656687000,1.38868701171875,0.5662553906440735,1.6243191957473755,-0.3151971995830536
1667266092659085000,1.3910849609375,0.5913001298904419,1.6450880765914917,-0.31825143098831177
1667266092661482800,1.393482666015625,0.6255075931549072,1.6621917486190796,-0.32191649079322815
1667266092663880400,1.39588037109375,0.6652126908302307,1.6707435846328735,-0.3243598937988281
1667266092666278400,1.3982783203125,0.7098045349121094,1.6725761890411377,-0.3304683566093445
1667266092668676000,1.400676025390625,0.7598940134048462,1.6628025770187378,-0.33718767762184143
1667266092671074000,1.403073974609375,0.81425940990448,1.644477128982544,-0.34451785683631897
1667266092673471700,1.4054716796875,0.8710681796073914,1.6139347553253174,-0.3512371778488159
1667266092675869700,1.40786962890625,0.9303203821182251,1.5705646276474,-0.35795649886131287
1667266092678267400,1.410267333984375,0.990183413028717,1.5253620147705078,-0.36162158846855164
1667266092680665000,1.4126650390625,1.0488247871398926,1.4777158498764038,-0.3658975064754486
1667266092683063000,1.41506298828125,1.1074661016464233,1.4251830577850342,-0.3671191930770874
1667266092685460700,1.417460693359375,1.1642749309539795,1.3689850568771362,-0.3695625960826874
1667266092687858700,1.419858642578125,1.2186403274536133,1.3078240156173706,-0.37078428268432617
1667266092690256400,1.42225634765625,1.2613996267318726,1.221083641052246,-0.38483378291130066
1667266092692654300,1.424654296875,1.298661231994629,1.1270132064819336,-0.39827242493629456
1667266092695052000,1.427052001953125,1.3310362100601196,1.035386085510254,-0.41110020875930786
1667266092697450000,1.429449951171875,1.3616548776626587,0.9443698525428772,-0.4178195297718048
1667266092699847700,1.43184765625,1.3866996765136719,0.8619054555892944,-0.4214846193790436
1667266092702245600,1.43424560546875,1.4117443561553955,0.7794411182403564,-0.4202629029750824
1667266092704643300,1.436643310546875,1.4325132369995117,0.7036960124969482,-0.41293275356292725
1667266092707041000,1.439041015625,1.4514493942260742,0.6267293095588684,-0.40132665634155273
1667266092709439000,1.44143896484375,1.4642772674560547,0.5454866290092468,-0.38544461131095886
1667266092711836700,1.443836669921875,1.4685531854629517,0.4587462842464447,-0.37261682748794556
1667266092714234600,1.446234619140625,1.4618338346481323,0.3683409094810486,-0.35856732726097107
1667266092716632300,1.44863232421875,1.450838565826416,0.2773246467113495,-0.34696123003959656
1667266092719030300,1.4510302734375,1.4270155429840088,0.18019993603229523,-0.3390202224254608
1667266092721428000,1.453427978515625,1.3970839977264404,0.08368607610464096,-0.33230090141296387
1667266092723825700,1.45582568359375,1.3573789596557617,-0.012216945178806782,-0.3286358118057251
1667266092726223600,1.4582236328125,1.3072131872177124,-0.10995250940322876,-0.3274141252040863
1667266092728621300,1.460621337890625,1.2522368431091309,-0.20280128717422485,-0.3261924386024475
1667266092731019300,1.463019287109375,1.1899304389953613,-0.29259583353996277,-0.3292466700077057
1667266092733417000,1.4654169921875,1.123958945274353,-0.3805578351020813,-0.33169007301330566
1667266092735815000,1.46781494140625,1.0567657947540283,-0.46241137385368347,-0.33413344621658325
1667266092738212600,1.470212646484375,0.9804098606109619,-0.5436540842056274,-0.3384093940258026
1667266092740610600,1.472610595703125,0.9034430980682373,-0.6187883019447327,-0.3414636254310608
1667266092743008300,1.47500830078125,0.8264763355255127,-0.6890357136726379,-0.3414636254310608
1667266092745406200,1.47740625,0.7470661997795105,-0.7537854909896851,-0.33352261781692505
1667266092747804000,1.479803955078125,0.6676560640335083,-0.8063184022903442,-0.32191649079322815
1667266092750201600,1.48220166015625,0.5900784730911255,-0.8338065147399902,-0.30481278896331787
1667266092752599600,1.484599609375,0.5167768001556396,-0.8362498879432678,-0.28098973631858826
1667266092754997200,1.486997314453125,0.448361873626709,-0.8173136115074158,-0.2504473626613617
1667266092757395200,1.489395263671875,0.3836120665073395,-0.7751652002334595,-0.21623992919921875
1667266092759793000,1.49179296875,0.3249707520008087,-0.7128587365150452,-0.17897824943065643
1667266092762190600,1.494190673828125,0.26938363909721375,-0.6322268843650818,-0.13927318155765533
1667266092764588500,1.496588623046875,0.22051586210727692,-0.5424323678016663,-0.09773556143045425
1667266092766986200,1.498986328125,0.17225892841815948,-0.446529358625412,-0.05619794875383377
1667266092769384200,1.50138427734375,0.13438639044761658,-0.3555130958557129,-0.02504473738372326
1667266092771782000,1.503781982421875,0.09712471067905426,-0.265718549489975,0.0018325417768210173
1667266092774179800,1.506179931640625,0.06413896381855011,-0.15943112969398499,0.02626643143594265
1667266092776577500,1.50857763671875,0.0397050715982914,-0.05375456064939499,0.05070032179355621
1667266092778975500,1.5109755859375,0.02504473738372326,0.055587101727724075,0.07085828483104706
1667266092781373200,1.513373291015625,0.014049487188458443,0.1582094430923462,0.08124268800020218
1667266092783771100,1.515771240234375,0.00916270911693573,0.25594499707221985,0.09040539711713791
1667266092786168800,1.5181689453125,0.008551862090826035,0.3390202224254608,0.09345962852239609
1667266092788566500,1.52056640625,0.00916270911693573,0.4092676639556885,0.09040539711713791
1667266092790964500,1.522964599609375,0.012827792204916477,0.46241137385368347,0.08307522535324097
1667266092793362200,1.525362060546875,0.016492875292897224,0.5002838969230652,0.07207997888326645
1667266092795760000,1.527760009765625,0.021990500390529633,0.5216635465621948,0.05619794875383377
1667266092798157800,1.53015771484375,0.02748812735080719,0.5302154421806335,0.037261683493852615
1667266092800555800,1.5325556640625,0.033596597611904144,0.5259394645690918,0.01710372418165207
1667266092802953500,1.534953369140625,0.0390942245721817,0.5125008225440979,-0.0030542362947016954
1667266092805351200,1.53735107421875,0.04459185153245926,0.4947862923145294,-0.022601349279284477
1667266092807749000,1.5397490234375,0.04886778071522713,0.4752391576766968,-0.042759306728839874
1667266092810146800,1.542146728515625,0.053143709897994995,0.45263782143592834,-0.06291726976633072
1667266092812544800,1.544544677734375,0.05864133685827255,0.4324798583984375,-0.0794101431965828
1667266092814942500,1.5469423828125,0.0659715011715889,0.41293275356292725,-0.09895725548267365
1667266092817340400,1.54934033203125,0.06780404597520828,0.3921639323234558,-0.11972606182098389
1667266092819738000,1.551738037109375,0.07024743407964706,0.3701734244823456,-0.13499724864959717
1667266092822136000,1.554135986328125,0.07085828483104706,0.3518480062484741,-0.15332266688346863
1667266092824533800,1.55653369140625,0.06291726976633072,0.33535513281822205,-0.1710372269153595
1667266092826931700,1.558931640625,0.053143709897994995,0.32191649079322815,-0.18814095854759216
1667266092829329400,1.561329345703125,0.03542914241552353,0.3127537965774536,-0.20585553348064423
1667266092831727000,1.56372705078125,0.01038440316915512,0.30969956517219543,-0.21929416060447693
1667266092834125000,1.566125,-0.016492875292897224,0.3127537965774536,-0.23273280262947083
1667266092836522800,1.568522705078125,-0.05008947476744652,0.32191649079322815,-0.24494975805282593
1667266092838920700,1.570920654296875,-0.08735115826129913,0.33535513281822205,-0.25594499707221985
1667266092841318400,1.573318359375,-0.12888877093791962,0.3524588644504547,-0.26755109429359436
1667266092843716400,1.57571630859375,-0.17286977171897888,0.3658975064754486,-0.27915719151496887
1667266092846114000,1.578114013671875,-0.21807247400283813,0.37506023049354553,-0.2907632887363434
1667266092848511700,1.58051171875,-0.2638860046863556,0.3781144618988037,-0.30664533376693726
1667266092850909700,1.58290966796875,-0.31031039357185364,0.37200596928596497,-0.32130566239356995
1667266092853307400,1.585307373046875,-0.3524588644504547,0.3542914092540741,-0.3414636254310608
1667266092855705300,1.587705322265625,-0.3970507085323334,0.3274141252040863,-0.36101073026657104
1667266092858103000,1.59010302734375,-0.4422534108161926,0.29320669174194336,-0.3799470067024231
1667266092860501000,1.5925009765625,-0.48806697130203247,0.2522799074649811,-0.40071579813957214
1667266092862898700,1.594898681640625,-0.5357130169868469,0.208298921585083,-0.4190412163734436
1667266092865296600,1.597296630859375,-0.5839699506759644,0.16248537600040436,-0.43736663460731506
1667266092867694300,1.5996943359375,-0.6371136903762817,0.11667182296514511,-0.45385950803756714
1667266092870092300,1.60209228515625,-0.6945333480834961,0.08063183724880219,-0.469741553068161
1667266092872490000,1.604489990234375,-0.7556180357933044,0.051922015845775604,-0.4813476502895355
1667266092874887700,1.6068876953125,-0.8148702383041382,0.02870982140302658,-0.49234288930892944
1667266092877285600,1.60928564453125,-0.8802309036254883,0.016492875292897224,-0.5015056133270264
1667266092879683300,1.611683349609375,-0.9449806809425354,0.00916270911693573,-0.5112791657447815
1667266092882081300,1.614081298828125,-1.0091196298599243,0.013438640162348747,-0.5198310017585754
1667266092884479000,1.61647900390625,-1.0726478099822998,0.021990500390529633,-0.5259394645690918
1667266092886877000,1.618876953125,-1.1306782960891724,0.05131116881966591,-0.5357130169868469
1667266092889274600,1.621274658203125,-1.1838220357894897,0.09529217332601547,-0.5442649126052856
1667266092891672300,1.62367236328125,-1.2284138202667236,0.15149012207984924,-0.5540384650230408
1667266092894070300,1.6260703125,-1.2644537687301636,0.2235700935125351,-0.5656445622444153
1667266092896468000,1.628468017578125,-1.2931636571884155,0.30786702036857605,-0.573585569858551
1667266092898866000,1.630865966796875,-1.3127107620239258,0.4056025743484497,-0.5796940326690674
1667266092901263600,1.633263671875,-1.323706030845642,0.5094466209411621,-0.582748293876648
1667266092903661600,1.63566162109375,-1.321873426437378,0.6206207871437073,-0.5851916670799255
1667266092906059300,1.638059326171875,-1.3114891052246094,0.7330167293548584,-0.5803049206733704
1667266092908457200,1.640457275390625,-1.2882769107818604,0.8393041491508484,-0.577861487865448
1667266092910855000,1.64285498046875,-1.2577345371246338,0.9382613897323608,-0.5723638534545898
1667266092913252900,1.6452529296875,-1.2174185514450073,1.0274450778961182,-0.5656445622444153
1667266092915650600,1.647650634765625,-1.1691616773605347,1.1031901836395264,-0.5558710098266602
1667266092918048300,1.65004833984375,-1.1129636764526367,1.1648857593536377,-0.5454866290092468
1667266092920446200,1.6524462890625,-1.0524898767471313,1.211920976638794,-0.5320479869842529
1667266092922844000,1.654843994140625,-0.9920159578323364,1.2412415742874146,-0.5161659121513367
1667266092925241900,1.657241943359375,-0.9278770089149475,1.258345365524292,-0.4978405237197876
1667266092927639600,1.6596396484375,-0.8680139780044556,1.2662863731384277,-0.4721849262714386
1667266092930037500,1.66203759765625,-0.80937260389328,1.266897201538086,-0.4422534108161926
1667266092932435200,1.664435302734375,-0.7574505805969238,1.2656755447387695,-0.4074351191520691
1667266092934833000,1.6668330078125,-0.7128587365150452,1.2607887983322144,-0.3689517378807068
1667266092937230800,1.66923095703125,-0.6768187880516052,1.2552911043167114,-0.3274141252040863
1667266092939628500,1.671628662109375,-0.656660795211792,1.2442958354949951,-0.28037887811660767
1667266092942026500,1.674026611328125,-0.6444438695907593,1.235133171081543,-0.23212195932865143
1667266092944424200,1.676424072265625,-0.6432221531867981,1.2216944694519043,-0.18569757044315338
1667266092946822100,1.678822265625,-0.652384877204895,1.2045907974243164,-0.1429382562637329
1667266092949219800,1.6812197265625,-0.6762079000473022,1.1813786029815674,-0.10262233763933182
1667266092951617800,1.68361767578125,-0.7049177289009094,1.1538904905319214,-0.06963659077882767
1667266092954015500,1.686015380859375,-0.7427902817726135,1.1172395944595337,-0.04214845970273018
1667266092956413400,1.688413330078125,-0.7855495810508728,1.0750911235809326,-0.022601349279284477
1667266092958811100,1.69081103515625,-0.832584798336029,1.0274450778961182,-0.006719320081174374
1667266092961208800,1.693208740234375,-0.8869501948356628,0.9767447710037231,0.0018325417768210173
1667266092963606800,1.695606689453125,-0.938872218132019,0.9174925684928894,0.0036650835536420345
1667266092966004500,1.69800439453125,-0.9956810474395752,0.8582404255867004,0.0006108472589403391
1667266092968402400,1.70040234375,-1.050046443939209,0.7953231334686279,-0.009773556143045425
1667266092970800000,1.702800048828125,-1.1068552732467651,0.7220214605331421,-0.02504473738372326
1667266092973198000,1.705197998046875,-1.1636639833450317,0.6420004963874817,-0.04459185153245926
1667266092975595800,1.707595703125,-1.2192511558532715,0.5522059202194214,-0.06780404597520828
1667266092977993500,1.709993408203125,-1.2766708135604858,0.446529358625412,-0.09407047927379608
1667266092980391400,1.712391357421875,-1.3310362100601196,0.3304683566093445,-0.12339114397764206
1667266092982789000,1.7147890625,-1.389753818511963,0.1985253542661667,-0.1575985997915268
1667266092985187000,1.71718701171875,-1.4471734762191772,0.061084724962711334,-0.18936264514923096
1667266092987584800,1.719584716796875,-1.505814790725708,-0.08063183724880219,-0.22540263831615448
1667266092989982700,1.721982666015625,-1.5650670528411865,-0.22723518311977386,-0.2638860046863556
1667266092992380400,1.72438037109375,-1.6249300241470337,-0.367730051279068,-0.3017585575580597
1667266092994778000,1.726778076171875,-1.683571457862854,-0.5057815313339233,-0.3426853120326996
1667266092997176000,1.729176025390625,-1.7403801679611206,-0.6377245187759399,-0.3799470067024231
1667266092999574000,1.731573974609375,-1.7941347360610962,-0.758672297000885,-0.4190412163734436
1667266093001971700,1.7339716796875,-1.8478893041610718,-0.8667922616004944,-0.4593571424484253
1667266093004369400,1.736369384765625,-1.8998113870620728,-0.9639169573783875,-0.4978405237197876
1667266093006767400,1.738767333984375,-1.9499008655548096,-1.0427162647247314,-0.5363239049911499
1667266093009165000,1.7411650390625,-1.9981577396392822,-1.105022668838501,-0.5729747414588928
1667266093011563000,1.74356298828125,-2.0427496433258057,-1.1538904905319214,-0.6071822047233582
1667266093013960700,1.745960693359375,-2.0861196517944336,-1.180156946182251,-0.6395570635795593
1667266093016358700,1.748358642578125,-2.1227705478668213,-1.1862653493881226,-0.6707102656364441
1667266093018756400,1.75075634765625,-2.1557562351226807,-1.1667182445526123,-0.6994200944900513
1667266093021154000,1.753154052734375,-2.1838552951812744,-1.1215155124664307,-0.7238540053367615
1667266093023552000,1.755552001953125,-2.2046241760253906,-1.050046443939209,-0.7470661997795105
1667266093025949700,1.75794970703125,-2.2162301540374756,-0.9559759497642517,-0.767224133014679
1667266093028347600,1.76034765625,-2.219895362854004,-0.8356390595436096,-0.7837170362472534
1667266093030745300,1.762745361328125,-2.2156193256378174,-0.6951441764831543,-0.7995990514755249
1667266093033143300,1.765143310546875,-2.2040133476257324,-0.5381564497947693,-0.80937260389328
1667266093035541000,1.767541015625,-2.183244466781616,-0.36223241686820984,-0.8167027831077576
1667266093037939000,1.76993896484375,-2.1581997871398926,-0.17592400312423706,-0.8197570443153381
1667266093040336600,1.772336669921875,-2.125213861465454,0.013438640162348747,-0.8209787011146545
1667266093042734600,1.774734619140625,-2.084287166595459,0.20402298867702484,-0.8167027831077576
1667266093045132300,1.77713232421875,-2.0415279865264893,0.38849884271621704,-0.809983491897583
1667266093047530000,1.779530029296875,-1.9957143068313599,0.5644228458404541,-0.8008207678794861
1667266093049928000,1.781927978515625,-1.9486790895462036,0.7232431769371033,-0.7879929542541504
1667266093052325600,1.78432568359375,-1.8985896110534668,0.8643488883972168,-0.7751652002334595
1667266093054723600,1.7867236328125,-1.849721908569336,0.9852966070175171,-0.762948215007782
1667266093057121300,1.789121337890625,-1.8045191764831543,1.0824213027954102,-0.7458444833755493
1667266093059519000,1.79151904296875,-1.761759877204895,1.1532796621322632,-0.7299624681472778
1667266093061917000,1.7939169921875,-1.7208330631256104,1.2003148794174194,-0.7116370797157288
1667266093064314600,1.796314697265625,-1.6860147714614868,1.226581335067749,-0.6945333480834961
1667266093066712600,1.798712646484375,-1.6493639945983887,1.22963547706604,-0.6743753552436829
1667266093069110300,1.8011103515625,-1.616989016532898,1.211920976638794,-0.6554391384124756
1667266093071508200,1.80350830078125,-1.5840033292770386,1.174659252166748,-0.6316160559654236
1667266093073906000,1.805906005859375,-1.553460955619812,1.1184613704681396,-0.6090146899223328
1667266093076304000,1.808303955078125,-1.5253620147705078,1.0531007051467896,-0.5882459282875061
1667266093078701600,1.81070166015625,-1.5003172159194946,0.9779664874076843,-0.5662553906440735
1667266093081099500,1.813099609375,-1.4832135438919067,0.897334635257721,-0.546097457408905
1667266093083497200,1.815497314453125,-1.4691640138626099,0.8118160367012024,-0.5283828973770142
1667266093085895200,1.817895263671875,-1.460612177848816,0.7232431769371033,-0.5106683373451233
1667266093088292900,1.82029296875,-1.4624446630477905,0.6383354067802429,-0.497229665517807
1667266093090690600,1.822690673828125,-1.4673315286636353,0.554649293422699,-0.4850127100944519
1667266093093088500,1.825088623046875,-1.4801592826843262,0.4721849262714386,-0.47890424728393555
1667266093095486200,1.827486328125,-1.5009280443191528,0.3927747905254364,-0.4734066128730774
1667266093097884200,1.82988427734375,-1.5284161567687988,0.3158080279827118,-0.474017471075058
1667266093100281900,1.83228173828125,-1.5614019632339478,0.24006296694278717,-0.47829338908195496
1667266093102679600,1.834679443359375,-1.5949985980987549,0.16676130890846252,-0.49112120270729065
1667266093105077500,1.837077392578125,-1.6389795541763306,0.0922379344701767,-0.5057815313339233
1667266093107475200,1.83947509765625,-1.6896798610687256,0.015271181240677834,-0.5289937257766724
1667266093109873200,1.841873046875,-1.7434344291687012,-0.062306419014930725,-0.5583143830299377
1667266093112270800,1.844270751953125,-1.7996324300765991,-0.13621893525123596,-0.5906893014907837
1667266093114668800,1.846668701171875,-1.8582737445831299,-0.20341213047504425,-0.6273401379585266
1667266093117066500,1.84906640625,-1.9199693202972412,-0.26877278089523315,-0.6658235192298889
1667266093119464400,1.85146435546875,-1.9798322916030884,-0.33352261781692505,-0.70797199010849
1667266093121862100,1.853862060546875,-2.037862777709961,-0.39643988013267517,-0.7476770281791687
1667266093124260000,1.856260009765625,-2.0946714878082275,-0.46424391865730286,-0.7849387526512146
1667266093126657800,1.85865771484375,-2.1465935707092285,-0.5320479869842529,-0.8215895891189575
1667266093129055500,1.861055419921875,-2.194239616394043,-0.5974085927009583,-0.8521319031715393
1667266093131453400,1.863453369140625,-2.238220691680908,-0.6597150564193726,-0.8814526200294495
1667266093133851100,1.86585107421875,-2.2791473865509033,-0.7165238261222839,-0.9064973592758179
1667266093136249000,1.8682490234375,-2.3145766258239746,-0.7690566778182983,-0.9278770089149475
1667266093138646800,1.870646728515625,-2.341453790664673,-0.8203678727149963,-0.9455915689468384
1667266093141044700,1.873044677734375,-2.36833119392395,-0.8704573512077332,-0.9633061289787292
1667266093143442400,1.8754423828125,-2.3897109031677246,-0.9193251132965088,-0.9767447710037231
1667266093145840000,1.877840087890625,-2.4062037467956543,-0.966971218585968,-0.9883508682250977
1667266093148238000,1.880238037109375,-2.416588068008423,-1.0103414058685303,-0.9932376146316528
1667266093150635800,1.8826357421875,-2.422696590423584,-1.0488247871398926,-0.9956810474395752
1667266093153033700,1.88503369140625,-2.4214749336242676,-1.0763128995895386,-0.9975135922431946
1667266093155431400,1.887431396484375,-2.416588068008423,-1.0915840864181519,-0.9956810474395752
1667266093157829400,1.889829345703125,-2.404982089996338,-1.0891406536102295,-0.9889616966247559
1667266093160227000,1.89222705078125,-2.3891000747680664,-1.0708152055740356,-0.9804098606109619
1667266093162625000,1.894625,-2.365277051925659,-1.0390511751174927,-0.9633061289787292
1667266093165022700,1.897022705078125,-2.3341238498687744,-0.9981244206428528,-0.9468132257461548
1667266093167420700,1.899420654296875,-2.2938077449798584,-0.9529217481613159,-0.9272661209106445
1667266093169818400,1.901818359375,-2.2498269081115723,-0.8942803740501404,-0.9028322696685791
1667266093172216000,1.904216064453125,-2.2021806240081787,-0.8234221339225769,-0.8716790676116943
1667266093174614000,1.906614013671875,-2.1496479511260986,-0.7440119385719299,-0.8393041491508484
1667266093177011700,1.90901171875,-2.0971150398254395,-0.656660795211792,-0.8002098798751831
1667266093179409700,1.91140966796875,-2.0421388149261475,-0.5632011890411377,-0.758672297000885
1667266093181807400,1.913807373046875,-1.9853299856185913,-0.46607646346092224,-0.7128587365150452
1667266093184205300,1.916205322265625,-1.9254668951034546,-0.3665083646774292,-0.6670452356338501
1667266093186603000,1.91860302734375,-1.8692690134048462,-0.27060532569885254,-0.6181774139404297
1667266093189000700,1.921000732421875,-1.8130710124969482,-0.1704263836145401,-0.5662553906440735
1667266093191398700,1.923398681640625,-1.7593164443969727,-0.07330167293548584,-0.5143333673477173
1667266093193796400,1.92579638671875,-1.7104486227035522,0.016492875292897224,-0.46241137385368347
1667266093196194300,1.9281943359375,-1.6609700918197632,0.10689827054738998,-0.4080459773540497
1667266093198592000,1.930592041015625,-1.618210792541504,0.19180603325366974,-0.35795649886131287
1667266093200990000,1.932989990234375,-1.5791164636611938,0.2773246467113495,-0.30725616216659546
1667266093203387600,1.9353876953125,-1.5442981719970703,0.3567348122596741,-0.258999228477478
1667266093205785600,1.93778564453125,-1.5143667459487915,0.4330907166004181,-0.21318569779396057
1667266093208183300,1.940183349609375,-1.4874894618988037,0.5021164417266846,-0.16737215220928192
1667266093210581200,1.942581298828125,-1.45939040184021,0.5595360994338989,-0.12705622613430023
1667266093212979000,1.94497900390625,-1.43312406539917,0.6004628539085388,-0.08735115826129913
1667266093215376600,1.947376708984375,-1.4050250053405762,0.6261184215545654,-0.05070032179355621
1667266093217774600,1.949774658203125,-1.3775368928909302,0.6328377723693848,-0.01832541823387146
1667266093220172300,1.95217236328125,-1.3488271236419678,0.6163448691368103,0.010995250195264816
1667266093222570200,1.9545703125,-1.3163758516311646,0.578472375869751,0.03420744836330414
1667266093224968000,1.956968017578125,-1.2785032987594604,0.5198310017585754,0.053143709897994995
1667266093227366000,1.959365966796875,-1.2387982606887817,0.4434750974178314,0.06841489672660828
1667266093229763600,1.961763671875,-1.199093222618103,0.3512371778488159,0.08002099394798279
1667266093232161300,1.964161376953125,-1.155722975730896,0.2504473626613617,0.08674030750989914
1667266093234559200,1.966559326171875,-1.1117420196533203,0.1447708010673523,0.09407047927379608
1667266093236957000,1.96895703125,-1.064706802368164,0.04031591862440109,0.09773556143045425
1667266093239355000,1.97135498046875,-1.0207257270812988,-0.05803048983216286,0.09956810623407364
1667266093241752600,1.973752685546875,-0.9779664874076843,-0.1441599577665329,0.09834641218185425
1667266093244150500,1.976150634765625,-0.9376505613327026,-0.21623992919921875,0.09895725548267365
1667266093246548200,1.97854833984375,-0.9028322696685791,-0.2742704153060913,0.09651386737823486
1667266093248946200,1.9809462890625,-0.8710681796073914,-0.3158080279827118,0.09284878522157669
1667266093251344000,1.98334375,-0.8484668135643005,-0.34940463304519653,0.08796200156211853
1667266093253741800,1.985741943359375,-0.8307522535324097,-0.3695625960826874,0.08002099394798279
1667266093256139500,1.988139404296875,-0.8191461563110352,-0.3762819170951843,0.07391251623630524
1667266093258537200,1.990537109375,-0.80937260389328,-0.3781144618988037,0.0653606578707695
1667266093260935200,1.99293505859375,-0.8038749694824219,-0.3775036036968231,0.06047387793660164
1667266093263332900,1.995332763671875,-0.8069292306900024,-0.37506023049354553,0.054365407675504684
1667266093265730800,1.997730712890625,-0.8118160367012024,-0.3665083646774292,0.04703523963689804
1667266093268128500,2.00012841796875,-0.8173136115074158,-0.35795649886131287,0.0397050715982914
1667266093270526500,2.0025263671875,-0.8313631415367126,-0.34818294644355774,0.036039989441633224
1667266093272924200,2.004924072265625,-0.8429692387580872,-0.33413344621658325,0.03298575058579445
1667266093275321900,2.00732177734375,-0.8594620823860168,-0.3164188861846924,0.02870982140302658
1667266093277719800,2.0097197265625,-0.8790091872215271,-0.29259583353996277,0.026877280324697495
1667266093280117500,2.012117431640625,-0.8979454636573792,-0.2596100866794586,0.028098974376916885
1667266093282515500,2.014515380859375,-0.9217684864997864,-0.2211267054080963,0.03237490355968475
1667266093284913200,2.0169130859375,-0.9455915689468384,-0.17531315982341766,0.03665083646774292
1667266093287311000,2.01931103515625,-0.9657495021820068,-0.12827792763710022,0.04581354558467865
1667266093289708800,2.021708740234375,-0.9895725846290588,-0.08124268800020218,0.056808795779943466
1667266093292106800,2.024106689453125,-1.0121738910675049,-0.034818295389413834,0.07146912813186646
1667266093294504400,2.02650439453125,-1.037218689918518,0.011606098152697086,0.08124268800020218
1667266093296902400,2.02890234375,-1.0598199367523193,0.06413896381855011,0.09651386737823486
1667266093299300000,2.031300048828125,-1.0793671607971191,0.10628741979598999,0.11361759155988693
1667266093301697800,2.03369775390625,-1.0976924896240234,0.1447708010673523,0.1325538605451584
1667266093304095700,2.036095703125,-1.110520362854004,0.17348061501979828,0.14843589067459106
1667266093306493400,2.038493408203125,-1.1209046840667725,0.19241689145565033,0.16553960740566254
1667266093308891400,2.040891357421875,-1.1245697736740112,0.20585553348064423,0.182643324136734
1667266093311289000,2.0432890625,-1.1215155124664307,0.208298921585083,0.1979145109653473
1667266093313687000,2.04568701171875,-1.115407109260559,0.20219044387340546,0.21501824259757996
1667266093316084700,2.048084716796875,-1.1031901836395264,0.19241689145565033,0.23028941452503204
1667266093318482400,2.050482421875,-1.0836430788040161,0.17836740612983704,0.24678228795528412
1667266093320880400,2.05288037109375,-1.0622633695602417,0.1588202863931656,0.2620534598827362
1667266093323278000,2.055278076171875,-1.035996913909912,0.1313321590423584,0.2767138183116913
1667266093325676000,2.057676025390625,-1.0054545402526855,0.10628741979598999,0.29259583353996277
1667266093328073700,2.06007373046875,-0.9743013978004456,0.07330167293548584,0.30725616216659546
1667266093330471700,2.0624716796875,-0.9364288449287415,0.04031591862440109,0.32069480419158936
1667266093332869400,2.064869384765625,-0.8979454636573792,0.007330167107284069,0.33352261781692505
1667266093335267300,2.067267333984375,-0.8570187091827393,-0.02870982140302658,0.3500154912471771
1667266093337665000,2.0696650390625,-0.813648521900177,-0.0659715011715889,0.3640649616718292
