time,seconds_elapsed,z,y,x
1667266091301949700,0.03394970703125,11.599507331848145,-0.675075113773346,1.561017632484436
1667266091350412300,0.082412353515625,8.66889762878418,-0.5673980712890625,1.4533406496047974
1667266091352810000,0.08481005859375,8.482256889343262,-0.5506483316421509,1.4174482822418213
1667266091355207700,0.087207763671875,8.30997371673584,-0.5171487927436829,1.3764712810516357
1667266091357605600,0.089605712890625,8.142476081848145,-0.4860421121120453,1.415055513381958
1667266091360003300,0.09200341796875,7.989036560058594,-0.4621138870716095,1.4054841995239258
1667266091362401300,0.0944013671875,7.857431411743164,-0.42382872104644775,1.407876968383789
1667266091364799000,0.096799072265625,7.752147197723389,-0.3975076675415039,1.4198411703109741
1667266091367197000,0.099197021484375,7.680362701416016,-0.35443684458732605,1.438983678817749
1667266091369594600,0.1015947265625,7.634898662567139,-0.28983065485954285,1.477268934249878
1667266091371992300,0.103992431640625,7.622934818267822,-0.24406790733337402,1.5346965789794922
1667266091374390300,0.106390380859375,7.64447021484375,-0.19381862878799438,1.6016956567764282
1667266091376788000,0.1087880859375,7.670791149139404,-0.1459621787071228,1.6639090776443481
1667266091379186000,0.11118603515625,7.7353973388671875,-0.09571290761232376,1.6998014450073242
1667266091381583600,0.11358349609375,7.840681552886963,-0.06939185410737991,1.7428722381591797
1667266091383981600,0.115981689453125,7.974679470062256,-0.04307080805301666,1.781157374382019
1667266091386379300,0.118379150390625,8.120641708374023,-0.04546362906694412,1.8170497417449951
1667266091388777000,0.12077685546875,8.293224334716797,-0.02632104977965355,1.8553348779678345
1667266091391175000,0.1231748046875,8.460721969604492,-0.03349951654672623,1.9175482988357544
1667266091393572600,0.125572509765625,8.66171932220459,-0.031106693670153618,1.9776679277420044
1667266091395970600,0.127970458984375,8.85344409942627,-0.02632104977965355,2.032702922821045
1667266091398368300,0.1303681640625,9.032905578613281,-0.05503492057323456,2.0757737159729004
1667266091400766200,0.13276611328125,9.22433090209961,-0.06699903309345245,2.104487419128418
1667266091403164000,0.135163818359375,9.418449401855469,-0.08135596662759781,2.14516544342041
1667266091405561600,0.1375615234375,9.583553314208984,-0.09810572862625122,2.1882362365722656
1667266091407959600,0.13995947265625,9.767801284790039,-0.11006984114646912,2.221735715866089
1667266091410357200,0.142357177734375,9.918848037719727,-0.12442677468061447,2.2791635990142822
1667266091412755200,0.144755126953125,10.081560134887695,-0.11246266216039658,2.3461625576019287
1667266091415153000,0.14715283203125,10.225129127502441,-0.12442677468061447,2.386840581893921
1667266091417550600,0.149550537109375,10.339984893798828,-0.14356936514377594,2.4466612339019775
1667266091419948500,0.151948486328125,10.457531929016113,-0.14356936514377594,2.520838737487793
1667266091422346200,0.15434619140625,10.560423851013184,-0.16271193325519562,2.612065076828003
1667266091424744200,0.156744140625,10.651350975036621,-0.1746760457754135,2.700599431991577
1667266091427142000,0.159141845703125,10.71834945678711,-0.1866401731967926,2.7508487701416016
1667266091429539800,0.161539794921875,10.766206741333008,-0.20817556977272034,2.801098108291626
1667266091431937500,0.1639375,10.773385047912598,-0.22971096634864807,2.817847728729248
1667266091434335200,0.166335205078125,10.780563354492188,-0.23688943684101105,2.8202404975891113
1667266091436733200,0.168733154296875,10.761421203613281,-0.23449662327766418,2.8130621910095215
1667266091439131000,0.171130859375,10.723135948181152,-0.21296121180057526,2.7987051010131836
1667266091441528800,0.17352880859375,10.692028999328613,-0.21774685382843018,2.7340989112854004
1667266091443926500,0.175926513671875,10.622636795043945,-0.20817556977272034,2.6886353492736816
1667266091446324500,0.178324462890625,10.553245544433594,-0.19381862878799438,2.643171787261963
1667266091448722200,0.18072216796875,10.505388259887695,-0.19621145725250244,2.580958366394043
1667266091451119900,0.183119873046875,10.419246673583984,-0.20099709928035736,2.5232315063476562
1667266091453517800,0.185517822265625,10.318449020385742,-0.20338992774486542,2.475374937057495
1667266091455915500,0.18791552734375,10.225129127502441,-0.2153540402650833,2.4155545234680176
1667266091458313500,0.1903134765625,10.110274314880371,-0.20338992774486542,2.3509483337402344
1667266091460711200,0.192711181640625,10.000204086303711,-0.21296121180057526,2.33180570602417
1667266091463109000,0.195109130859375,9.897313117980957,-0.20338992774486542,2.2983062267303467
1667266091465506800,0.1975068359375,9.76062297821045,-0.18903298676013947,2.2265214920043945
1667266091467904500,0.199904541015625,9.652945518493652,-0.17706887423992157,2.166700839996338
1667266091470302500,0.202302490234375,9.533304214477539,-0.16031911969184875,2.11405873298645
1667266091472700200,0.2047001953125,9.420842170715332,-0.1579262912273407,2.0925233364105225
1667266091475098000,0.20709814453125,9.310771942138672,-0.14117653667926788,2.0614166259765625
1667266091477495800,0.209495849609375,9.221938133239746,-0.11006984114646912,2.025524377822876
1667266091479893800,0.211893798828125,9.131011009216309,-0.08614161610603333,2.0135602951049805
1667266091482291500,0.21429150390625,9.087940216064453,-0.04307080805301666,2.0135602951049805
1667266091484689200,0.216689208984375,9.059226989746094,0.014356935396790504,2.0135602951049805
1667266091487087000,0.219087158203125,9.016156196594238,0.059820566326379776,2.0207388401031494
1667266091489484800,0.22148486328125,8.987442016601562,0.11246266216039658,2.035095691680908
1667266091491882800,0.2238828125,8.989834785461426,0.15553347766399384,2.0398812294006348
1667266091494280400,0.226280517578125,9.006584167480469,0.19381862878799438,2.0374884605407715
1667266091496678400,0.228678466796875,9.044869422912598,0.21296121180057526,2.0518453121185303
1667266091499076000,0.231076171875,9.090332984924316,0.22492532432079315,2.063809633255005
1667266091501473800,0.233473876953125,9.142974853515625,0.24406790733337402,2.087737798690796
1667266091503871700,0.235871826171875,9.212367057800293,0.2225325107574463,2.104487419128418
1667266091506269400,0.23826953125,9.27727222442627,0.1746760457754135,2.11405873298645
1667266091508667400,0.24066748046875,9.384949684143066,0.16031911969184875,2.1619153022766113
1667266091511065000,0.243065185546875,9.468698501586914,0.13160525262355804,2.190629243850708
1667266091513463000,0.245463134765625,9.542876243591309,0.11006984114646912,2.1954147815704346
1667266091515860700,0.24786083984375,9.640981674194336,0.08135596662759781,2.20737886428833
1667266091518258400,0.250258544921875,9.707980155944824,0.05742774158716202,2.20737886428833
1667266091520656400,0.252656494140625,9.755837440490723,0.014356935396790504,2.1930220127105713
1667266091523054000,0.25505419921875,9.786943435668945,-0.035892341285943985,2.173879384994507
1667266091525452000,0.2574521484375,9.815657615661621,-0.07178468257188797,2.169093608856201
1667266091527849700,0.259849609375,9.835099220275879,-0.10767702013254166,2.1379871368408203
1667266091530247700,0.26224755859375,9.861420631408691,-0.15553347766399384,2.094916343688965
1667266091532645400,0.264645263671875,9.885348320007324,-0.20099709928035736,2.0542383193969727
1667266091535043300,0.267043212890625,9.916455268859863,-0.24167509377002716,2.0063817501068115
1667266091537441000,0.26944091796875,9.947562217712402,-0.23449662327766418,1.9486548900604248
1667266091539838700,0.271838623046875,9.990633010864258,-0.22492532432079315,1.8625133037567139
1667266091542236700,0.274236572265625,10.03848934173584,-0.2153540402650833,1.8194425106048584
1667266091544634400,0.27663427734375,10.067203521728516,-0.2105683982372284,1.7596219778060913
1667266091547032300,0.2790322265625,10.071989059448242,-0.20578274130821228,1.7189439535140991
1667266091549430000,0.281429931640625,10.064809799194336,-0.2153540402650833,1.695015788078308
1667266091551828000,0.283827880859375,10.069596290588379,-0.2392822653055191,1.695015788078308
1667266091554225700,0.2862255859375,10.043274879455566,-0.23210379481315613,1.6854444742202759
1667266091556623400,0.288623291015625,10.036096572875977,-0.2225325107574463,1.6878372430801392
1667266091559021300,0.291021240234375,10.02173900604248,-0.20099709928035736,1.6663018465042114
1667266091561419000,0.2934189453125,10.012167930603027,-0.18424734473228455,1.6256239414215088
1667266091563817000,0.29581689453125,9.995418548583984,-0.15314064919948578,1.572981834411621
1667266091566214700,0.298214599609375,9.988240242004395,-0.12681959569454193,1.501197099685669
1667266091568612600,0.300612548828125,9.981060981750488,-0.0933200865983963,1.4437693357467651
1667266091571010300,0.30301025390625,9.937990188598633,-0.1052841991186142,1.3860424757003784
1667266091573408000,0.305407958984375,9.909276962280273,-0.14835500717163086,1.2903295755386353
1667266091575806000,0.307805908203125,9.885348320007324,-0.2225325107574463,1.2472587823867798
1667266091578203600,0.31020361328125,9.870991706848145,-0.2584248483181,1.2352946996688843
1667266091580601600,0.3126015625,9.89013385772705,-0.27038896083831787,1.2089736461639404
1667266091582999300,0.314999267578125,9.933204650878906,-0.2874378263950348,1.1850453615188599
1667266091585397200,0.317397216796875,10.03131103515625,-0.30658039450645447,1.1563315391540527
1667266091587795000,0.319794921875,10.150951385498047,-0.31854450702667236,1.0941181182861328
1667266091590192600,0.322192626953125,10.3016996383667,-0.3281157910823822,1.0965110063552856
1667266091592590600,0.324590576171875,10.445568084716797,-0.3113660514354706,1.0701899528503418
1667266091594988300,0.32698828125,10.59631633758545,-0.2922234535217285,1.0223335027694702
1667266091597386200,0.32938623046875,10.775777816772461,-0.2512463629245758,0.9864411354064941
1667266091599784000,0.331783935546875,10.953145980834961,-0.20578274130821228,0.9457631707191467
1667266091602181600,0.334181640625,11.118250846862793,-0.1459621787071228,0.8859425783157349
1667266091604579600,0.33657958984375,11.300105094909668,-0.05503492057323456,0.7540382146835327
1667266091606977300,0.338977294921875,11.50857925415039,0.035892341285943985,0.6296114325523376
1667266091609375200,0.341375244140625,11.697612762451172,0.10767702013254166,0.4692923426628113
1667266091611773000,0.34377294921875,11.90578842163086,0.18424734473228455,0.36640095710754395
1667266091614171000,0.3461708984375,12.095120429992676,0.22013968229293823,0.22971096634864807
1667266091616568600,0.348568603515625,12.279367446899414,0.18903298676013947,0.12681959569454193
1667266091618966300,0.35096630859375,12.470793724060059,0.2273181527853012,0.031106693670153618
1667266091621364200,0.3533642578125,12.727124214172363,0.33768710494041443,-0.038285162299871445
1667266091623762000,0.355761962890625,12.968799591064453,0.4453641176223755,-0.05503492057323456
1667266091626159900,0.358159912109375,13.167404174804688,0.5410770177841187,0.031106693670153618
1667266091628557600,0.3605576171875,13.344772338867188,0.6655037999153137,0.18424734473228455
1667266091630955500,0.36295556640625,13.466805458068848,0.7899305820465088,0.3807578980922699
1667266091633353200,0.365353271484375,13.584053993225098,0.8835497498512268,0.5937191247940063
1667266091635751000,0.3677509765625,13.72523021697998,1.012762188911438,0.7923234105110168
1667266091638148900,0.37014892578125,13.907383918762207,1.2113664150238037,0.9888339638710022
1667266091640546600,0.372546630859375,14.115559577941895,1.434198021888733,1.170688509941101
1667266091642944500,0.374944580078125,14.364712715148926,1.6926229000091553,1.342971682548523
1667266091645342200,0.37734228515625,14.618351936340332,1.9776679277420044,1.5131611824035645
1667266091647740200,0.379740234375,14.843276977539062,2.2121646404266357,1.651944875717163
1667266091650137900,0.382137939453125,15.01107406616211,2.4155545234680176,1.7620147466659546
1667266091652535600,0.38453564453125,15.116357803344727,2.588136672973633,1.8553348779678345
1667266091654933500,0.38693359375,15.149857521057129,2.7508487701416016,1.9486548900604248
1667266091657331200,0.389331298828125,15.152250289916992,2.8920252323150635,2.0374884605407715
1667266091659729200,0.391729248046875,15.113965034484863,3.028416156768799,2.097309112548828
1667266091662126800,0.394126953125,14.996716499328613,3.145963668823242,2.1714866161346436
1667266091664524800,0.39652490234375,14.860026359558105,3.2751760482788086,2.23848557472229
1667266091666922500,0.398922607421875,14.68535041809082,3.366103172302246,2.2887349128723145
1667266091669320200,0.4013203125,14.491532325744629,3.435495138168335,2.293520450592041
1667266091671718100,0.40371826171875,14.297414779663086,3.5048868656158447,2.276770830154419
1667266091674115800,0.40611572265625,14.094024658203125,3.5718860626220703,2.262413740158081
1667266091676513800,0.408513671875,13.90977668762207,3.5958142280578613,2.23848557472229
1667266091678911500,0.410911376953125,13.706088066101074,3.5359935760498047,2.2719850540161133
1667266091681309400,0.413309326171875,13.502697944641113,3.5264222621917725,2.2719850540161133
1667266091683707100,0.41570703125,13.37587833404541,3.483351469039917,2.2600209712982178
1667266091686104800,0.418104736328125,13.280165672302246,3.4331023693084717,2.2480568885803223
1667266091688502800,0.420502685546875,13.198809623718262,3.3756744861602783,2.204986095428467
1667266091690900500,0.422900390625,13.167404174804688,3.287140130996704,2.1714866161346436
1667266091693298400,0.42529833984375,13.107583045959473,3.2129626274108887,2.104487419128418
1667266091695696100,0.427696044921875,13.023834228515625,3.0957143306732178,2.1236300468444824
1667266091698094000,0.430093994140625,12.944870948791504,3.0164520740509033,2.056631088256836
1667266091700491800,0.43249169921875,12.868301391601562,2.966202735900879,1.9728822708129883
1667266091702889500,0.434889404296875,12.815658569335938,2.9638099670410156,1.8625133037567139
1667266091705287400,0.437287353515625,12.794123649597168,2.966202735900879,1.7548363208770752
1667266091707685000,0.43968505859375,12.806087493896484,2.968595504760742,1.628016710281372
1667266091710083000,0.4420830078125,12.813265800476074,2.9638099670410156,1.5227324962615967
1667266091712480800,0.444480712890625,12.84915828704834,2.9805595874786377,1.4054841995239258
1667266091714878700,0.446878662109375,12.853943824768066,3.004487991333008,1.2831511497497559
1667266091717276400,0.4492763671875,12.868301391601562,3.02123761177063,1.1850453615188599
1667266091719674400,0.45167431640625,12.889836311340332,3.0403802394866943,1.0917253494262695
1667266091722072000,0.454072021484375,12.932907104492188,3.0714869499206543,1.0342975854873657
1667266091724469800,0.4564697265625,12.98076343536377,3.0714869499206543,0.981655478477478
1667266091726867700,0.45886767578125,13.016655921936035,3.0643084049224854,0.9577272534370422
1667266091729265400,0.461265380859375,13.035799026489258,3.0236306190490723,0.9361918568611145
1667266091731663400,0.463663330078125,13.031013488769531,2.99013090133667,0.9361918568611145
1667266091734061000,0.46606103515625,13.002299308776855,2.9877381324768066,0.9409775137901306
1667266091736459000,0.468458984375,12.940085411071777,2.9398818016052246,0.9720842242240906
1667266091738856700,0.470856689453125,12.892229080200195,2.8848466873168945,0.9960124492645264
1667266091741254400,0.47325439453125,12.82044506072998,2.8298118114471436,0.97926265001297
1667266091743652400,0.47565234375,12.727124214172363,2.755634307861328,0.9529415965080261
1667266091746050000,0.478050048828125,12.643375396728516,2.6814568042755127,0.9074779748916626
1667266091748448000,0.480447998046875,12.578470230102539,2.6024937629699707,0.8401798605918884
1667266091750845700,0.482845703125,12.492328643798828,2.5283162593841553,0.7707880139350891
1667266091753243600,0.48524365234375,12.422937393188477,2.472982168197632,0.6966105103492737
1667266091755641300,0.487641357421875,12.372687339782715,2.4227328300476074,0.6320042610168457
1667266091758039000,0.4900390625,12.29372501373291,2.3820550441741943,0.5650052428245544
1667266091760437000,0.49243701171875,12.305688858032227,2.3437697887420654,0.5434698462486267
1667266091762834700,0.494834716796875,12.233903884887695,2.293520450592041,0.5171487927436829
1667266091765232600,0.497232666015625,12.085549354553223,2.2480568885803223,0.5003990530967712
1667266091767630300,0.49963037109375,11.893823623657227,2.183450698852539,0.46450668573379517
1667266091770028300,0.5020283203125,11.695219993591309,2.1308085918426514,0.44775694608688354
1667266091772426000,0.504426025390625,11.48674488067627,2.097309112548828,0.4286143481731415
1667266091774823700,0.50682373046875,11.245070457458496,2.059023857116699,0.385543555021286
1667266091777221600,0.5092216796875,11.022537231445312,2.0685951709747314,0.32572299242019653
1667266091779619300,0.511619384765625,10.799705505371094,2.0997018814086914,0.21296121180057526
1667266091782017300,0.514017333984375,10.615458488464355,2.1547367572784424,0.09571290761232376
1667266091784415000,0.5164150390625,10.474282264709473,2.2408783435821533,-0.04546362906694412
1667266091786813000,0.51881298828125,10.328021049499512,2.317448616027832,-0.1698904037475586
1667266091789210600,0.521210693359375,10.210772514343262,2.396411895751953,-0.2994019389152527
1667266091791608300,0.5236083984375,10.12463092803955,2.4993033409118652,-0.41186460852622986
1667266091794006300,0.52600634765625,10.064809799194336,2.590529680252075,-0.49322056770324707
1667266091796404000,0.528404052734375,10.02413272857666,2.693420886993408,-0.5362913608551025
1667266091798802000,0.530802001953125,9.978668212890625,2.793919563293457,-0.5171487927436829
1667266091801199600,0.53319970703125,9.952347755432129,2.8704898357391357,-0.4668995141983032
1667266091803597300,0.535597412109375,9.916455268859863,2.95184588432312,-0.4334000051021576
1667266091805995300,0.537995361328125,9.892526626586914,3.0236306190490723,-0.36640095710754395
1667266091808393000,0.54039306640625,9.847063064575195,3.085843801498413,-0.26560330390930176
1667266091810791000,0.542791015625,9.794121742248535,3.1435706615448,-0.11964113265275955
1667266091813188600,0.545188720703125,9.7366943359375,3.2057840824127197,0.031106693670153618
1667266091815586600,0.547586669921875,9.681659698486328,3.2416765689849854,0.1746760457754135
1667266091817984300,0.549984375,9.662516593933105,3.2823543548583984,0.2994019389152527
1667266091820382000,0.5523818359375,9.6433744430542,3.2991042137145996,0.40229329466819763
1667266091822780000,0.55477978515625,9.617053031921387,3.3278181552886963,0.5027918815612793
1667266091825177600,0.557177490234375,9.602696418762207,3.380460262298584,0.579362154006958
1667266091827575600,0.559575439453125,9.614660263061523,3.397209882736206,0.6176473498344421
1667266091829973200,0.56197314453125,9.602696418762207,3.4019956588745117,0.6870391964912415
1667266091832371200,0.56437109375,9.569196701049805,3.421138286590576,0.7253243923187256
1667266091834769000,0.566768798828125,9.547661781311035,3.442673683166504,0.7420741319656372
1667266091837166600,0.56916650390625,9.509376525878906,3.4498519897460938,0.7420741319656372
1667266091839564500,0.571564453125,9.442377090454102,3.4546377658843994,0.7181459069252014
1667266091841962200,0.573962158203125,9.377771377563477,3.466601848602295,0.6942176818847656
1667266091844360200,0.576360107421875,9.286844253540039,3.435495138168335,0.610468864440918
1667266091846758000,0.5787578125,9.183652877807617,3.435495138168335,0.47647079825401306
1667266091849155800,0.58115576171875,9.056833267211914,3.418745279312134,0.35922250151634216
1667266091851553500,0.583553466796875,8.903693199157715,3.4331023693084717,0.26081767678260803
1667266091853951500,0.585951416015625,8.731410026550293,3.4307093620300293,0.15553347766399384
1667266091856349200,0.58834912109375,8.554041862487793,3.4259238243103027,0.062213387340307236
1667266091858747000,0.590746826171875,8.391329765319824,3.4019956588745117,-0.040677983313798904
1667266091861144800,0.593144775390625,8.20947551727295,3.421138286590576,-0.14117653667926788
1667266091863542500,0.59554248046875,8.063214302062988,3.4235310554504395,-0.24167509377002716
1667266091865940500,0.5979404296875,7.957930088043213,3.4618160724639893,-0.3400799036026001
1667266091868338200,0.600338134765625,7.840681552886963,3.490530014038086,-0.4166502356529236
1667266091870736100,0.602736083984375,7.730611801147461,3.521636724472046,-0.4549354016780853
1667266091873133800,0.6051337890625,7.63729190826416,3.562314748764038,-0.4740779995918274
1667266091875531500,0.607531494140625,7.567600727081299,3.5814573764801025,-0.47168517112731934
1667266091877929500,0.609929443359375,7.519744396209717,3.562314748764038,-0.4262215197086334
1667266091880327200,0.6123271484375,7.479066371917725,3.521636724472046,-0.34725838899612427
1667266091882725000,0.61472509765625,7.45274543762207,3.421138286590576,-0.2560320198535919
1667266091885122800,0.617122802734375,7.443173885345459,3.2967114448547363,-0.20817556977272034
1667266091887520800,0.619520751953125,7.426424026489258,3.129213809967041,-0.14117653667926788
1667266091889918500,0.62191845703125,7.402495861053467,2.9374887943267822,-0.08135596662759781
1667266091892316400,0.62431640625,7.368996620178223,2.755634307861328,-0.02871387079358101
1667266091894714000,0.626714111328125,7.325925827026367,2.5618157386779785,0.040677983313798904
1667266091897111800,0.62911181640625,7.290033340454102,2.379662036895752,0.02871387079358101
1667266091899509800,0.631509765625,7.239784240722656,2.214557409286499,-0.016749758273363113
1667266091901907500,0.633907470703125,7.189534664154053,2.035095691680908,-0.08135596662759781
1667266091904305400,0.636305419921875,7.146463871002197,1.86729896068573,-0.16749759018421173
1667266091906703000,0.638703125,7.1249284744262695,1.695015788078308,-0.26560330390930176
1667266091909100800,0.641100830078125,7.1488566398620605,1.529910922050476,-0.4142574071884155
1667266091911498800,0.643498779296875,7.196712970733643,1.3549357652664185,-0.5721837282180786
1667266091913896400,0.645896484375,7.254140853881836,1.2041879892349243,-0.7372884750366211
1667266091916294400,0.64829443359375,7.345067977905273,1.0534402132034302,-0.893121063709259
1667266091918692000,0.650692138671875,7.416852951049805,0.9170492887496948,-1.0558329820632935
1667266091921090000,0.653090087890625,7.488637447357178,0.8138588070869446,-1.189831018447876
1667266091923487700,0.65548779296875,7.567600727081299,0.734895646572113,-1.3286148309707642
1667266091925885400,0.657885498046875,7.642077445983887,0.7061817646026611,-1.4724832773208618
1667266091928283400,0.660283447265625,7.752147197723389,0.7109674215316772,-1.5753746032714844
1667266091930681000,0.66268115234375,7.89332389831543,0.7372884750366211,-1.651944875717163
1667266091933079000,0.6650791015625,8.029714584350586,0.8066803216934204,-1.6974085569381714
1667266091935476700,0.667476806640625,8.190332412719727,0.9026923179626465,-1.7237296104431152
1667266091937874700,0.669874755859375,8.360222816467285,1.0223335027694702,-1.7261223793029785
1667266091940272400,0.6722724609375,8.577970504760742,1.1371889114379883,-1.6974085569381714
1667266091942670000,0.674670166015625,8.810373306274414,1.280758261680603,-1.6399807929992676
1667266091945068000,0.677068115234375,9.08554744720459,1.407876968383789,-1.561017632484436
1667266091947465700,0.6794658203125,9.3490571975708,1.5131611824035645,-1.4724832773208618
1667266091949863700,0.68186376953125,9.506983757019043,1.5705889463424683,-1.3453645706176758
1667266091952261400,0.684261474609375,9.810872077941895,1.7309080362319946,-1.2759727239608765
1667266091954659300,0.686659423828125,10.057631492614746,1.8409779071807861,-1.2185449600219727
1667266091957057000,0.68905712890625,10.25623607635498,1.9776679277420044,-1.1252248287200928
1667266091959455000,0.691455078125,10.397711753845215,2.118844509124756,-1.017547845840454
1667266091961852700,0.693852783203125,10.474282264709473,2.2408783435821533,-0.8548358678817749
1667266091964250400,0.69625048828125,10.500602722167969,2.36291241645813,-0.732502818107605
1667266091966648300,0.6986484375,10.46471118927002,2.4634108543395996,-0.610468864440918
1667266091969046000,0.7010458984375,10.335199356079102,2.525923490524292,-0.5338985323905945
1667266091971444000,0.70344384765625,10.14616584777832,2.5594229698181152,-0.5027918815612793
1667266091973841700,0.705841552734375,9.916455268859863,2.597707986831665,-0.4692923426628113
1667266091976239600,0.708239501953125,9.63619613647461,2.5929224491119385,-0.43579283356666565
1667266091978637300,0.71063720703125,9.334700584411621,2.5546371936798096,-0.3975076675415039
1667266091981035300,0.71303515625,9.006584167480469,2.5184457302093506,-0.368793785572052
1667266091983433000,0.715432861328125,8.685647010803223,2.4849462509155273,-0.37597227096557617
1667266091985830700,0.71783056640625,8.4200439453125,2.4299113750457764,-0.38793638348579407
1667266091988228600,0.720228515625,8.199904441833496,2.338984251022339,-0.3975076675415039
1667266091990626300,0.722626220703125,7.998608112335205,2.2432711124420166,-0.4453641176223755
1667266091993024300,0.725024169921875,7.8287177085876465,2.142772674560547,-0.5147559642791748
1667266091995422000,0.727421875,7.680362701416016,2.0135602951049805,-0.5721837282180786
1667266091997820000,0.72981982421875,7.524529933929443,1.9079769849777222,-0.6152545213699341
1667266092000217600,0.732217529296875,7.392924785614014,1.8098711967468262,-0.6607181429862976
1667266092002615300,0.734615234375,7.251748085021973,1.690230131149292,-0.7085745930671692
1667266092005013200,0.73701318359375,7.115357398986816,1.6040884256362915,-0.7492526173591614
1667266092007411000,0.739410888671875,7.000202655792236,1.5275181531906128,-0.7827520966529846
1667266092009809000,0.741808837890625,6.918846607208252,1.4629119634628296,-0.7827520966529846
1667266092012206600,0.74420654296875,6.892525672912598,1.410269856452942,-0.797109067440033
1667266092014604300,0.746604248046875,6.8997039794921875,1.3812568187713623,-0.8668000102043152
1667266092017002200,0.749002197265625,6.952346324920654,1.3812568187713623,-0.9577272534370422
1667266092019400000,0.75139990234375,7.0292158126831055,1.4003994464874268,-1.0223335027694702
1667266092021798000,0.7537978515625,7.081857681274414,1.40279221534729,-1.0510473251342773
1667266092024195600,0.756195556640625,7.172784805297852,1.4126626253128052,-1.0414760112762451
1667266092026593500,0.758593505859375,7.325925827026367,1.4318052530288696,-1.0079765319824219
1667266092028991200,0.7609912109375,7.498208999633789,1.4485549926757812,-0.97926265001297
1667266092031389200,0.76338916015625,7.71386194229126,1.5155540704727173,-0.9553344249725342
1667266092033787000,0.765786865234375,7.929215908050537,1.6112669706344604,-0.9625129103660583
1667266092036184600,0.7681845703125,8.223832130432129,1.678265929222107,-0.9122636318206787
1667266092038582500,0.77058251953125,8.525327682495117,1.7548363208770752,-0.8162516355514526
1667266092040980200,0.772980224609375,8.851051330566406,1.8266209363937378,-0.6942176818847656
1667266092043378200,0.775378173828125,9.20279598236084,1.9199410676956177,-0.5578267574310303
1667266092045776000,0.77777587890625,9.595518112182617,1.9800606966018677,-0.40229329466819763
1667266092048173800,0.780173828125,9.997811317443848,2.0518453121185303,-0.2273181527853012
1667266092050571500,0.782571533203125,10.445568084716797,2.17627215385437,-0.07178468257188797
1667266092052969200,0.78496923828125,10.9002046585083,2.2671995162963867,0.08853443711996078
1667266092055367200,0.7873671875,11.33360481262207,2.3700907230377197,0.25363919138908386
1667266092057764900,0.789764892578125,11.714362144470215,2.465803623199463,0.42382872104644775
1667266092060162800,0.792162841796875,12.035000801086426,2.5474588871002197,0.5602195858955383
1667266092062560500,0.794560546875,12.28415298461914,2.6096723079681396,0.6942176818847656
1667266092064958500,0.79695849609375,12.463615417480469,2.659921407699585,0.8234301209449768
1667266092067356200,0.799356201171875,12.552149772644043,2.6862425804138184,0.9266205430030823
1667266092069754000,0.801754150390625,12.583255767822266,2.674278497695923,0.9960124492645264
1667266092072151800,0.80415185546875,12.504292488098145,2.676671266555786,1.0223335027694702
1667266092074549500,0.806549560546875,12.346366882324219,2.652743101119995,0.9888339638710022
1667266092076947500,0.808947509765625,12.078370094299316,2.676671266555786,0.893121063709259
1667266092079345200,0.81134521484375,11.778968811035156,2.676671266555786,0.7731808423995972
1667266092081743000,0.8137431640625,11.467602729797363,2.6862425804138184,0.6990033388137817
1667266092084140800,0.816140869140625,11.199605941772461,2.691028118133545,0.6846463680267334
1667266092086538800,0.818538818359375,11.034502029418945,2.6479573249816895,0.6894320249557495
1667266092088936400,0.8209365234375,11.00578784942627,2.590529680252075,0.7253243923187256
1667266092091334100,0.823334228515625,11.101500511169434,2.533101797103882,0.766002357006073
1667266092093732000,0.825732177734375,11.34796142578125,2.449054002761841,0.7899305820465088
1667266092096129800,0.8281298828125,11.683255195617676,2.365305185317993,0.8500502705574036
1667266092098527700,0.83052783203125,12.09033489227295,2.2959132194519043,0.9385846853256226
1667266092100925400,0.832925537109375,12.53300666809082,2.231307029724121,1.0295119285583496
1667266092103323400,0.835323486328125,12.990335464477539,2.169093608856201,1.1084750890731812
1667266092105721000,0.83772119140625,13.445270538330078,2.056631088256836,1.1826525926589966
1667266092108118800,0.840118896484375,13.904991149902344,1.953440546989441,1.2472587823867798
1667266092110516700,0.842516845703125,14.355141639709473,1.8457635641098022,1.2329018115997314
1667266092112914400,0.84491455078125,14.81695556640625,1.7045869827270508,1.1994023323059082
1667266092115312400,0.8473125,15.21207046508789,1.5825530290603638,1.1084750890731812
1667266092117710000,0.8497099609375,15.571293830871582,1.4605190753936768,0.9314061999320984
1667266092120108000,0.85210791015625,15.87996768951416,1.3357932567596436,0.7372884750366211
1667266092122505700,0.854505615234375,16.172191619873047,1.2329018115997314,0.579362154006958
1667266092124903700,0.856903564453125,16.380367279052734,1.134796142578125,0.44775694608688354
1667266092127301400,0.85930126953125,16.523935317993164,1.0462616682052612,0.31375887989997864
1667266092129699000,0.861698974609375,16.63430404663086,0.9696913957595825,0.1986042857170105
1667266092132097000,0.864096923828125,16.698911666870117,0.9218349456787109,0.064606212079525
1667266092134494700,0.86649462890625,16.710874557495117,0.859621524810791,-0.07896314561367035
1667266092136892700,0.868892578125,16.715660095214844,0.7707880139350891,-0.20578274130821228
1667266092139290400,0.871290283203125,16.667804718017578,0.6415755748748779,-0.33050861954689026
1667266092141688300,0.873688232421875,16.596019744873047,0.48843491077423096,-0.4621138870716095
1667266092144086000,0.8760859375,16.50000762939453,0.33529427647590637,-0.5889334678649902
1667266092146484000,0.87848388671875,16.392330169677734,0.13160525262355804,-0.701396107673645
1667266092148881700,0.880881591796875,16.248762130737305,-0.05503492057323456,-0.7995018362998962
1667266092151279400,0.883279296875,16.100406646728516,-0.2632105052471161,-0.8739784955978394
1667266092153677300,0.88567724609375,15.954145431518555,-0.4501497745513916,-0.9170492887496948
1667266092156075000,0.888074951171875,15.812968254089355,-0.6391827464103699,-0.9361918568611145
1667266092158473000,0.890472900390625,15.66222095489502,-0.8114659786224365,-0.9314061999320984
1667266092160870700,0.89287060546875,15.410675048828125,-1.036690354347229,-0.8763712644577026
1667266092163268400,0.895268310546875,15.334104537963867,-1.158724308013916,-0.893121063709259
1667266092165666300,0.897666259765625,15.192928314208984,-1.319043517112732,-0.9050851464271545
1667266092168064000,0.90006396484375,15.023037910461426,-1.4557334184646606,-0.9385846853256226
1667266092170462000,0.9024619140625,14.828920364379883,-1.5466607809066772,-0.924227774143219
1667266092172859600,0.904859619140625,14.572888374328613,-1.6447664499282837,-0.8883354067802429
1667266092175257600,0.907257568359375,14.199308395385742,-1.7644076347351074,-0.7827520966529846
1667266092177655300,0.9096552734375,13.995918273925781,-1.7237296104431152,-0.7277171611785889
1667266092180053200,0.91205322265625,13.857134819030762,-1.6663018465042114,-0.6918248534202576
1667266092182451000,0.914450927734375,13.694124221801758,-1.5825530290603638,-0.6152545213699341
1667266092184848600,0.9168486328125,13.526626586914062,-1.4413765668869019,-0.47168517112731934
1667266092187246600,0.91924658203125,13.332807540893555,-1.2831511497497559,-0.28983065485954285
1667266092189644300,0.921644287109375,13.131511688232422,-1.1084750890731812,-0.04307080805301666
1667266092192042200,0.924042236328125,12.873086929321289,-0.9457631707191467,0.23210379481315613
1667266092194440000,0.92643994140625,12.590434074401855,-0.7707880139350891,0.5338985323905945
1667266092196838000,0.928837890625,12.243474960327148,-0.6080760359764099,0.8787640929222107
1667266092199235600,0.931235595703125,11.891430854797363,-0.4573282301425934,1.2400803565979004
1667266092201633500,0.933633544921875,11.601900100708008,-0.33050861954689026,1.5586248636245728
1667266092204031200,0.93603125,11.357532501220703,-0.1986042857170105,1.8409779071807861
1667266092206429000,0.938428955078125,11.194820404052734,-0.05742774158716202,2.0685951709747314
1667266092208827000,0.940826904296875,11.09910774230957,0.04785645380616188,2.245664119720459
1667266092211224600,0.943224609375,11.029715538024902,0.15074782073497772,2.39401912689209
1667266092213622500,0.94562255859375,10.996216773986816,0.24406790733337402,2.5160529613494873
1667266092216020200,0.948020263671875,11.003395080566406,0.3568296730518341,2.6168506145477295
1667266092218418200,0.950418212890625,11.008180618286133,0.47168517112731934,2.707777976989746
1667266092220816000,0.95281591796875,11.08475112915039,0.5985047817230225,2.8154549598693848
1667266092223213600,0.955213623046875,11.163714408874512,0.7396813035011292,2.913560628890991
1667266092225611500,0.957611572265625,11.297712326049805,0.8401798605918884,3.030808925628662
1667266092228009200,0.96000927734375,11.477173805236816,0.9337990283966064,3.193819999694824
1667266092230407200,0.9624072265625,11.685648918151855,1.0055837631225586,3.339782238006592
1667266092232804900,0.964804931640625,11.910573959350586,1.1515458822250366,3.4570305347442627
1667266092235202800,0.967202880859375,12.147762298583984,1.256830096244812,3.569493293762207
1667266092237600500,0.9696005859375,12.332009315490723,1.252044439315796,3.76361083984375
1667266092239998200,0.971998291015625,12.437294006347656,1.225723385810852,4.01246452331543
1667266092242396200,0.974396240234375,12.466008186340332,1.197009563446045,4.268795490264893
1667266092244793900,0.9767939453125,12.40140151977539,1.158724308013916,4.47697114944458
1667266092247191800,0.97919189453125,12.260225296020508,1.0941181182861328,4.67078971862793
1667266092249589500,0.981589599609375,12.051750183105469,1.0271191596984863,4.78594446182251
1667266092251987500,0.983987548828125,11.78136157989502,0.9577272534370422,4.812265396118164
1667266092254385200,0.98638525390625,11.474781036376953,0.8739784955978394,4.7931227684021
1667266092256783000,0.988783203125,11.108678817749023,0.8042874932289124,4.711467742919922
1667266092259180800,0.991180908203125,10.70399284362793,0.7157530784606934,4.622933387756348
1667266092261578800,0.993578857421875,10.253843307495117,0.6559324860572815,4.438685894012451
1667266092263976400,0.9959765625,9.866206169128418,0.6224330067634583,4.208974838256836
1667266092266374100,0.9983740234375,9.499805450439453,0.5913262963294983,3.880859136581421
1667266092268772000,1.000772216796875,9.150154113769531,0.5530411601066589,3.5264222621917725
1667266092271169800,1.003169677734375,8.805587768554688,0.5506483316421509,3.1435706615448
1667266092273567700,1.005567626953125,8.503792762756348,0.5386841893196106,2.7580273151397705
1667266092275965400,1.00796533203125,8.228617668151855,0.5554339289665222,2.389233350753784
1667266092278363400,1.01036328125,7.969893932342529,0.5817549824714661,2.0446670055389404
1667266092280761000,1.012760986328125,7.704290866851807,0.6008976101875305,1.709372639656067
1667266092283158800,1.01515869140625,7.445566654205322,0.612861692905426,1.3860424757003784
1667266092285556700,1.017556640625,7.170392036437988,0.6032904386520386,1.1204391717910767
1667266092287954400,1.019954345703125,6.894918441772461,0.6008976101875305,0.8979067206382751
1667266092290352400,1.022352294921875,6.607779502868652,0.5889334678649902,0.766002357006073
1667266092292750000,1.02475,6.3442702293396,0.5913262963294983,0.7205387353897095
1667266092295148000,1.02714794921875,6.1002020835876465,0.5937191247940063,0.7492526173591614
1667266092297545700,1.029545654296875,5.90159797668457,0.6056832075119019,0.8066803216934204
1667266092299943400,1.031943359375,5.757729530334473,0.6176473498344421,0.9146564602851868
1667266092302341400,1.03434130859375,5.621338367462158,0.610468864440918,1.0319048166275024
1667266092304739000,1.036739013671875,5.518447399139404,0.6056832075119019,1.1539387702941895
1667266092307137000,1.039136962890625,5.434698581695557,0.6272186636924744,1.2855439186096191
1667266092309534700,1.04153466796875,5.341378211975098,0.643968403339386,1.4054841995239258
1667266092311932700,1.0439326171875,5.25254487991333,0.643968403339386,1.4916257858276367
1667266092314330400,1.046330322265625,5.161617755889893,0.6583253145217896,1.5705889463424683
1667266092316728300,1.048728271484375,5.075475692749023,0.6248258352279663,1.623231053352356
1667266092319126000,1.0511259765625,5.025226593017578,0.6391827464103699,1.6423736810684204
1667266092321524000,1.05352392578125,4.970191955566406,0.6511468887329102,1.6710875034332275
1667266092323921700,1.055921630859375,4.931906700134277,0.646361231803894,1.683051586151123
1667266092326319400,1.0583193359375,4.874478816986084,0.643968403339386,1.683051586151123
1667266092328717300,1.06071728515625,4.824229717254639,0.6726822853088379,1.695015788078308
1667266092331115000,1.063114990234375,4.795515537261963,0.6822535395622253,1.695015788078308
1667266092333513000,1.065512939453125,4.8074798583984375,0.6990033388137817,1.6926229000091553
1667266092335910700,1.06791064453125,4.824229717254639,0.6870391964912415,1.7045869827270508
1667266092338308400,1.070308349609375,4.876871585845947,0.6726822853088379,1.6998014450073242
1667266092340706300,1.072706298828125,4.958227634429932,0.6391827464103699,1.7189439535140991
1667266092343104000,1.07510400390625,5.101797103881836,0.5985047817230225,1.7021942138671875
1667266092345502000,1.077501953125,5.257330417633057,0.5626124143600464,1.6734803915023804
1667266092347899600,1.079899658203125,5.425127029418945,0.5123631358146667,1.6639090776443481
1667266092350297600,1.082297607421875,5.590231895446777,0.45972105860710144,1.6639090776443481
1667266092352695300,1.0846953125,5.712265968322754,0.3975076675415039,1.6423736810684204
1667266092355093200,1.08709326171875,5.796014785766602,0.33768710494041443,1.6375880241394043
1667266092357491000,1.089490966796875,5.855835437774658,0.2560320198535919,1.6064813137054443
1667266092359889000,1.091888916015625,5.8749775886535645,0.18424734473228455,1.572981834411621
1667266092362286600,1.09428662109375,5.8749775886535645,0.08614161610603333,1.5227324962615967
1667266092364684300,1.096684326171875,5.796014785766602,-0.014356935396790504,1.477268934249878
1667266092367082200,1.099082275390625,5.707480430603027,-0.12442677468061447,1.4485549926757812
1667266092369480000,1.10147998046875,5.56869649887085,-0.1986042857170105,1.3860424757003784
1667266092371878000,1.1038779296875,5.38205623626709,-0.27756741642951965,1.3405789136886597
1667266092374275600,1.106275634765625,5.199902534484863,-0.35443684458732605,1.287936806678772
1667266092376673500,1.108673583984375,5.0347981452941895,-0.36640095710754395,1.3214362859725952
1667266092379071200,1.1110712890625,4.9175496101379395,-0.35922250151634216,1.350150227546692
1667266092381469000,1.113468994140625,4.809872627258301,-0.385543555021286,1.2281162738800049
1667266092383867000,1.115866943359375,4.649254322052002,-0.41186460852622986,1.1012966632843018
1667266092386264600,1.1182646484375,4.46979284286499,-0.4573282301425934,1.017547845840454
1667266092388662500,1.12066259765625,4.264009952545166,-0.49322056770324707,0.9361918568611145
1667266092391060200,1.123060302734375,4.048357009887695,-0.5291129350662231,0.8644071817398071
1667266092393458200,1.125458251953125,3.7612180709838867,-0.5745765566825867,0.8258228898048401
1667266092395856000,1.12785595703125,3.4713873863220215,-0.6224330067634583,0.8282157182693481
1667266092398253600,1.130253662109375,3.1435706615448,-0.6966105103492737,0.8377870321273804
1667266092400651500,1.132651611328125,2.7963123321533203,-0.7707880139350891,0.8787640929222107
1667266092403049200,1.13504931640625,2.480160713195801,-0.8452646136283875,0.8835497498512268
1667266092405447200,1.137447265625,2.1571295261383057,-0.9194421172142029,0.9050851464271545
1667266092407844900,1.139844970703125,1.8577276468276978,-0.9936196208000183,0.8859425783157349
1667266092410242800,1.142242919921875,1.5897315740585327,-1.0007981061935425,0.8668000102043152
1667266092412640500,1.144640625,1.3645070791244507,-1.0773683786392212,0.8090731501579285
1667266092415038500,1.14703857421875,1.2185449600219727,-1.1850453615188599,0.6678966283798218
1667266092417436200,1.149436279296875,1.1635099649429321,-1.3214362859725952,0.4860421121120453
1667266092419834000,1.151834228515625,1.1539387702941895,-1.4365909099578857,0.24167509377002716
1667266092422231800,1.154231689453125,1.1922239065170288,-1.529910922050476,0.02871387079358101
1667266092424629500,1.15662939453125,1.2855439186096191,-1.5945172309875488,-0.16510476171970367
1667266092427027500,1.15902734375,1.4676976203918457,-1.6615161895751953,-0.31375887989997864
1667266092429425200,1.161425048828125,1.6926229000091553,-1.690230131149292,-0.4094717800617218
1667266092431823000,1.163822998046875,1.9872392416000366,-1.7045869827270508,-0.43579283356666565
1667266092434220800,1.166220703125,2.39401912689209,-1.6615161895751953,-0.3161516785621643
1667266092436618800,1.16861865234375,2.913560628890991,-1.5897315740585327,-0.08374879509210587
1667266092439016400,1.171016357421875,3.5336008071899414,-1.4653047323226929,0.19381862878799438
1667266092441414100,1.1734140625,4.191926002502441,-1.3286148309707642,0.5434698462486267
1667266092443812000,1.17581201171875,4.869693279266357,-1.1754741668701172,0.9314061999320984
1667266092446209800,1.178209716796875,5.482554912567139,-0.9768698215484619,1.342971682548523
1667266092448607700,1.180607666015625,6.016453266143799,-0.7755736112594604,1.7524434328079224
1667266092451005400,1.18300537109375,6.476174354553223,-0.5410770177841187,2.087737798690796
1667266092453403400,1.1854033203125,6.8279194831848145,-0.34725838899612427,2.4466612339019775
1667266092455801000,1.187801025390625,7.096214771270752,-0.2153540402650833,2.839383125305176
1667266092458199000,1.190198974609375,7.290033340454102,-0.10767702013254166,3.200998544692993
1667266092460596700,1.1925966796875,7.373782157897949,-0.04546362906694412,3.5407793521881104
1667266092462994700,1.19499462890625,7.366603374481201,-0.007178467698395252,3.842574119567871
1667266092465392400,1.197392333984375,7.263712406158447,0.035892341285943985,4.108177185058594
1667266092467790000,1.1997900390625,7.065107822418213,0.059820566326379776,4.350151538848877
1667266092470188000,1.20218798828125,6.80159854888916,0.13160525262355804,4.534399032592773
1667266092472585700,1.204585693359375,6.485745906829834,0.20817556977272034,4.591826438903809
1667266092474983700,1.206983642578125,6.148058891296387,0.34725838899612427,4.553541660308838
1667266092477381400,1.20938134765625,5.78644323348999,0.5123631358146667,4.426722049713135
1667266092479779300,1.211779296875,5.439484119415283,0.7229315638542175,4.179962158203125
1667266092482177000,1.214177001953125,5.142475128173828,0.9744769930839539,3.828217029571533
1667266092484574700,1.21657470703125,4.936692237854004,1.2137593030929565,3.397209882736206
1667266092486972700,1.21897265625,4.752145767211914,1.4557334184646606,2.9063823223114014
1667266092489370400,1.221370361328125,4.6301116943359375,1.695015788078308,2.4299113750457764
1667266092491768300,1.223768310546875,4.575077056884766,1.9414764642715454,1.9752750396728516
1667266092494166000,1.226166015625,4.599005222320557,2.1547367572784424,1.55623197555542
1667266092496564000,1.22856396484375,4.692325115203857,2.3461625576019287,1.1826525926589966
1667266092498961700,1.230961669921875,4.84815788269043,2.535494804382324,0.9074779748916626
1667266092501359600,1.233359619140625,5.056333541870117,2.7508487701416016,0.7061817646026611
1667266092503757300,1.23575732421875,5.298008441925049,2.9374887943267822,0.5171487927436829
1667266092506155000,1.238155029296875,5.537590026855469,3.1004998683929443,0.41186460852622986
1667266092508553000,1.240552978515625,5.590231895446777,3.1316065788269043,0.4860421121120453
1667266092510950700,1.24295068359375,5.733801364898682,3.232105255126953,0.5410770177841187
1667266092513348600,1.2453486328125,5.96381139755249,3.342175006866455,0.6080760359764099
1667266092515746300,1.247746337890625,6.133701801300049,3.334996461868286,0.7707880139350891
1667266092518144300,1.250144287109375,6.279664039611816,3.342175006866455,0.9409775137901306
1667266092520542000,1.2525419921875,6.432804584503174,3.339782238006592,1.0701899528503418
1667266092522940000,1.25493994140625,6.557530403137207,3.332603693008423,1.1874382495880127
1667266092525337600,1.257337646484375,6.634100914001465,3.301496982574463,1.2903295755386353
1667266092527735300,1.2597353515625,6.679564476013184,3.284747362136841,1.3956137895584106
1667266092530133200,1.26213330078125,6.725028038024902,3.263211965560913,1.470090389251709
1667266092532531000,1.264531005859375,6.7657060623168945,3.2297122478485107,1.5394822359085083
1667266092534929000,1.266928955078125,6.777669906616211,3.224926710128784,1.55623197555542
1667266092537326600,1.26932666015625,6.720242500305176,3.1866414546966553,1.568196177482605
1667266092539724500,1.271724609375,6.6939215660095215,3.1387851238250732,1.5634105205535889
1667266092542122200,1.274122314453125,6.686742782592773,3.1148569583892822,1.5346965789794922
1667266092544520000,1.27652001953125,6.619743824005127,3.0643084049224854,1.4676976203918457
1667266092546918000,1.27891796875,6.480959892272949,2.968595504760742,1.4198411703109741
1667266092549315600,1.281315673828125,6.27487850189209,2.8848466873168945,1.378864049911499
1667266092551713500,1.283713623046875,6.030810356140137,2.753241539001465,1.3692927360534668
1667266092554111200,1.286111328125,5.736194133758545,2.621636390686035,1.3692927360534668
1667266092556509200,1.28850927734375,5.434698581695557,2.427518606185913,1.3668999671936035
1667266092558907000,1.290906982421875,5.161617755889893,2.2480568885803223,1.3908281326293945
1667266092561304800,1.293304931640625,4.8792643547058105,2.042274236679077,1.4126626253128052
1667266092563702500,1.29570263671875,4.627718925476074,1.83619225025177,1.446162223815918
1667266092566100500,1.2981005859375,4.412364959716797,1.6447664499282837,1.4676976203918457
1667266092568498200,1.300498291015625,4.213760852813721,1.4940186738967896,1.4724832773208618
1667266092570896000,1.302895751953125,4.007678985595703,1.3381860256195068,1.4557334184646606
1667266092573293800,1.3052939453125,3.828217029571533,1.194616675376892,1.434198021888733
1667266092575691500,1.30769140625,3.660719633102417,1.0606186389923096,1.40279221534729
1667266092578089500,1.31008935546875,3.4881372451782227,0.9361918568611145,1.3836497068405151
1667266092580487200,1.312487060546875,3.3708889484405518,0.797109067440033,1.3668999671936035
1667266092582885000,1.314885009765625,3.279961585998535,0.6798607110977173,1.3214362859725952
1667266092585282800,1.31728271484375,3.239283561706543,0.5841478109359741,1.2711870670318604
1667266092587680500,1.319680419921875,3.277568817138672,0.49322056770324707,1.252044439315796
1667266092590078500,1.322078369140625,3.332603693008423,0.4405784606933594,1.2424731254577637
1667266092592476200,1.32447607421875,3.4474592208862305,0.39990049600601196,1.2281162738800049
1667266092594874000,1.3268740234375,3.600599765777588,0.39511483907699585,1.256830096244812
1667266092597271800,1.329271728515625,3.7923247814178467,0.4094717800617218,1.323829174041748
1667266092599669800,1.331669677734375,4.017250061035156,0.4740779995918274,1.4174482822418213
1667266092602067500,1.3340673828125,4.247260093688965,0.5506483316421509,1.529910922050476
1667266092604465400,1.33646533203125,4.510470867156982,0.6224330067634583,1.6854444742202759
1667266092606863000,1.338863037109375,4.771587371826172,0.6607181429862976,1.8744773864746094
1667266092609260800,1.3412607421875,5.044369220733643,0.7396813035011292,2.1092731952667236
1667266092611658800,1.34365869140625,5.283651351928711,0.8018946647644043,2.365305185317993
1667266092614056400,1.346056396484375,5.508875846862793,0.8476574420928955,2.6479573249816895
1667266092616454400,1.348454345703125,5.726622581481934,0.8835497498512268,2.935096025466919
1667266092618852000,1.35085205078125,5.923133373260498,0.8620143532752991,3.208176851272583
1667266092621250000,1.35325,6.097809314727783,0.8353942036628723,3.4857444763183594
1667266092623647700,1.355647705078125,6.2413787841796875,0.8090731501579285,3.73250412940979
1667266092626045400,1.35804541015625,6.3825554847717285,0.7755736112594604,3.911965847015381
1667266092628443400,1.360443359375,6.538387775421143,0.7588238716125488,4.060320854187012
1667266092630841000,1.362841064453125,6.7106709480285645,0.7229315638542175,4.177569389343262
1667266092633239000,1.365239013671875,6.94038200378418,0.6966105103492737,4.230510234832764
1667266092635636700,1.36763671875,7.139285564422607,0.6607181429862976,4.268795490264893
1667266092638034700,1.37003466796875,7.349853992462158,0.6176473498344421,4.223331928253174
1667266092640432400,1.372432373046875,7.546065330505371,0.5985047817230225,4.148855209350586
1667266092642830300,1.374830322265625,7.70668363571167,0.5673980712890625,3.976572036743164
1667266092645228000,1.37722802734375,7.874181270599365,0.5458626747131348,3.7205400466918945
1667266092647626000,1.3796259765625,8.041678428649902,0.5338985323905945,3.4139597415924072
1667266092650023700,1.382023681640625,8.185546875,0.4788636267185211,3.1004998683929443
1667266092652421400,1.38442138671875,8.30997371673584,0.4094717800617218,2.786741018295288
1667266092654819300,1.3868193359375,8.39611530303955,0.3448655605316162,2.4705893993377686
1667266092657217000,1.389217041015625,8.451150894165039,0.2826521694660187,2.183450698852539
1667266092659615000,1.391614990234375,8.453543663024902,0.17946170270442963,2.001596212387085
1667266092662012700,1.3940126953125,8.42722225189209,0.062213387340307236,1.83619225025177
1667266092664410600,1.39641064453125,8.379365921020508,-0.064606212079525,1.7261223793029785
1667266092666808300,1.398808349609375,8.31715202331543,-0.1746760457754135,1.6423736810684204
1667266092669206000,1.4012060546875,8.238189697265625,-0.2946162819862366,1.6256239414215088
1667266092671604000,1.40360400390625,8.140083312988281,-0.40707895159721375,1.6567305326461792
1667266092674001700,1.406001708984375,8.084749221801758,-0.4956133961677551,1.7165511846542358
1667266092676399600,1.408399658203125,8.053643226623535,-0.5697908997535706,1.807478427886963
1667266092678797300,1.41079736328125,8.034500122070312,-0.5913262963294983,1.896012783050537
1667266092681195300,1.4131953125,8.041678428649902,-0.6008976101875305,2.025524377822876
1667266092683593000,1.415593017578125,8.072785377502441,-0.5817549824714661,2.204986095428467
1667266092685991000,1.417990966796875,8.094321250915527,-0.4956133961677551,2.3820550441741943
1667266092688388600,1.420388671875,7.850253105163574,-0.4812564551830292,2.691028118133545
1667266092690786600,1.42278662109375,7.6636128425598145,-0.38793638348579407,3.0020952224731445
1667266092693184300,1.425184326171875,7.666005611419678,-0.21296121180057526,3.1818559169769287
1667266092695582000,1.42758203125,7.773682594299316,-0.01196411345154047,3.3373894691467285
1667266092697980000,1.42997998046875,7.919644832611084,0.23449662327766418,3.4402806758880615
1667266092700377600,1.432377685546875,8.089534759521484,0.4692923426628113,3.545564889907837
1667266092702775600,1.434775634765625,8.293224334716797,0.7205387353897095,3.586242914199829
1667266092705173200,1.43717333984375,8.532505989074707,0.9768698215484619,3.6894333362579346
1667266092707571200,1.4395712890625,8.709874153137207,1.1994023323059082,3.8760735988616943
1667266092709969000,1.441968994140625,8.839086532592773,1.410269856452942,4.096213340759277
1667266092712366600,1.44436669921875,8.925228118896484,1.5705889463424683,4.34536600112915
1667266092714764500,1.4467646484375,8.994620323181152,1.7261223793029785,4.589433670043945
1667266092717162200,1.449162353515625,9.028120040893555,1.872084617614746,4.843372344970703
1667266092719560200,1.451560302734375,9.080761909484863,1.9606190919876099,5.104189872741699
1667266092721958000,1.4539580078125,9.123832702636719,2.0279171466827393,5.3557353019714355
1667266092724355800,1.45635595703125,9.193224906921387,2.090130567550659,5.6309099197387695
1667266092726753500,1.45875341796875,9.28445053100586,2.135594129562378,5.872584819793701
1667266092729151500,1.4611513671875,9.377771377563477,2.1475582122802734,6.066702842712402
1667266092731549200,1.463549072265625,9.475876808166504,2.1619153022766113,6.284449577331543
1667266092733947100,1.465947021484375,9.59791088104248,2.1619153022766113,6.468996047973633
1667266092736344800,1.4683447265625,9.777372360229492,2.1332013607025146,6.653243541717529
1667266092738742500,1.470742431640625,9.988240242004395,2.0997018814086914,6.81595516204834
1667266092741140500,1.473140380859375,10.261021614074707,2.035095691680908,7.0097737312316895
1667266092743538200,1.4755380859375,10.651350975036621,1.9728822708129883,7.194320201873779
1667266092745936100,1.47793603515625,11.1373929977417,1.89840567111969,7.316354274749756
1667266092748333800,1.480333740234375,11.726326942443848,1.807478427886963,7.316354274749756
1667266092750731800,1.482731689453125,12.348759651184082,1.7069798707962036,7.232605457305908
1667266092753129500,1.48512939453125,12.961621284484863,1.5945172309875488,7.065107822418213
1667266092755527200,1.487527099609375,13.545768737792969,1.4868401288986206,6.914061069488525
1667266092757925000,1.489925048828125,14.01266860961914,1.3956137895584106,6.782455921173096
1667266092760322800,1.49232275390625,14.414961814880371,1.2616157531738281,6.679564476013184
1667266092762720800,1.494720703125,14.730813980102539,1.1204391717910767,6.5766730308532715
1667266092765118500,1.497118408203125,14.948860168457031,0.9601200819015503,6.464210510253906
1667266092767516400,1.499516357421875,14.996716499328613,0.7731808423995972,6.356234073638916
1667266092769914000,1.5019140625,14.80259895324707,0.5315057039260864,6.222236156463623
1667266092772312000,1.50431201171875,14.81695556640625,0.36640095710754395,6.021239280700684
1667266092774709800,1.506709716796875,14.79542064666748,0.20578274130821228,5.791228771209717
1667266092777107700,1.509107666015625,14.706886291503906,0.06699903309345245,5.56151819229126
1667266092779505400,1.51150537109375,14.548959732055664,-0.0526420995593071,5.307579517364502
1667266092781903000,1.513903076171875,14.345569610595703,-0.12681959569454193,5.0826544761657715
1667266092784301000,1.516301025390625,14.120345115661621,-0.13639089465141296,4.862514495849609
1667266092786698800,1.51869873046875,13.881063461303711,-0.12681959569454193,4.642076015472412
1667266092789096700,1.5210966796875,13.619946479797363,-0.09571290761232376,4.398007869720459
1667266092791494400,1.523494384765625,13.359128952026367,-0.04785645380616188,4.206283092498779
1667266092793892400,1.525892333984375,13.09083366394043,0.01196411345154047,4.017250061035156
1667266092796290000,1.5282900390625,12.815658569335938,0.07657032459974289,3.85693097114563
1667266092798687700,1.530687744140625,12.57129192352295,0.12681959569454193,3.7205400466918945
1667266092801085700,1.533085693359375,12.346366882324219,0.17706887423992157,3.5982069969177246
1667266092803483400,1.5354833984375,12.147762298583984,0.22013968229293823,3.4713873863220215
1667266092805881300,1.53788134765625,11.972786903381348,0.2560320198535919,3.380460262298584
1667266092808279000,1.540279052734375,11.848360061645508,0.2922234535217285,3.2679975032806396
1667266092810677000,1.542677001953125,11.793325424194336,0.33529427647590637,3.1435706615448
1667266092813074700,1.54507470703125,11.778968811035156,0.39990049600601196,3.0260233879089355
1667266092815472600,1.54747265625,11.805289268493652,0.47647079825401306,2.95184588432312
1667266092817870300,1.549870361328125,11.855539321899414,0.5721837282180786,2.9470601081848145
1667266092820268300,1.552268310546875,11.927323341369629,0.6990033388137817,2.9614171981811523
1667266092822666000,1.554666015625,12.003893852233887,0.8186444640159607,2.999702215194702
1667266092825063700,1.557063720703125,12.099905967712402,0.9744769930839539,3.069094181060791
1667266092827461600,1.559461669921875,12.202796936035156,1.1156535148620605,3.16749906539917
1667266092829859300,1.561859375,12.310474395751953,1.2233306169509888,3.308675527572632
1667266092832257300,1.56425732421875,12.3942232131958,1.3022937774658203,3.4546377658843994
1667266092834655000,1.566655029296875,12.442079544067383,1.3716856241226196,3.586242914199829
1667266092837053000,1.569052978515625,12.434901237487793,1.4246268272399902,3.7109687328338623
1667266092839450600,1.57145068359375,12.40857982635498,1.4581263065338135,3.82582426071167
1667266092841848300,1.573848388671875,12.32961654663086,1.4868401288986206,3.9000017642974854
1667266092844246300,1.576246337890625,12.209976196289062,1.4844473600387573,3.9574296474456787
1667266092846644000,1.57864404296875,12.078370094299316,1.4868401288986206,4.024428367614746
1667266092849042000,1.5810419921875,11.936894416809082,1.505982756614685,4.050749778747559
1667266092851439600,1.583439697265625,11.855539321899414,1.592124342918396,4.062713623046875
1667266092853837600,1.585837646484375,11.78136157989502,1.6399807929992676,4.079463481903076
1667266092856235300,1.5882353515625,11.740683555603027,1.7285152673721313,4.091427803039551
1667266092858633200,1.59063330078125,11.731112480163574,1.8505492210388184,4.117748737335205
1667266092861031000,1.593031005859375,11.75025463104248,1.953440546989441,4.163212299346924
1667266092863428900,1.595428955078125,11.831610679626465,2.049452543258667,4.179962158203125
1667266092865826600,1.59782666015625,11.944073677062988,2.118844509124756,4.230510234832764
1667266092868224300,1.600224365234375,12.087942123413086,2.17627215385437,4.285545349121094
1667266092870622200,1.602622314453125,12.265010833740234,2.190629243850708,4.350151538848877
1667266092873020000,1.60502001953125,12.444472312927246,2.169093608856201,4.390829563140869
1667266092875417900,1.60741796875,12.583255767822266,2.1020946502685547,4.436293125152588
1667266092877815600,1.609815673828125,12.71037483215332,2.0470597743988037,4.455435752868652
1667266092880213200,1.612213134765625,12.873086929321289,1.9175482988357544,4.462614059448242
1667266092882611200,1.614611083984375,13.081262588500977,1.7356936931610107,4.395615100860596
1667266092885009000,1.6170087890625,13.351950645446777,1.501197099685669,4.256831645965576
1667266092887406800,1.61940673828125,13.665410041809082,1.2089736461639404,4.0435709953308105
1667266092889804500,1.621804443359375,14.003097534179688,0.8787640929222107,3.770789384841919
1667266092892202500,1.624202392578125,14.383854866027832,0.4956133961677551,3.468994617462158
1667266092894600200,1.62660009765625,14.785849571228027,0.09092725813388824,3.153141975402832
1667266092896998100,1.628998046875,15.185750007629395,-0.3041875660419464,2.8585257530212402
1667266092899395800,1.631395751953125,15.511472702026367,-0.6272186636924744,2.4921247959136963
1667266092901793800,1.633793701171875,15.781861305236816,-0.9194421172142029,2.066202402114868
1667266092904191500,1.63619140625,16.028621673583984,-1.1730812788009644,1.5825530290603638
1667266092906589200,1.638589111328125,16.215261459350586,-1.4003994464874268,1.1060823202133179
1667266092908987100,1.640987060546875,16.339689254760742,-1.5825530290603638,0.6343970894813538
1667266092911384800,1.643384765625,16.41147232055664,-1.709372639656067,0.16749759018421173
1667266092913782800,1.64578271484375,16.46172332763672,-1.7931214570999146,-0.3041875660419464
1667266092916180500,1.648180419921875,16.526329040527344,-1.807478427886963,-0.7205387353897095
1667266092918578400,1.650578369140625,16.581663131713867,-1.7787644863128662,-1.067797064781189
1667266092920976100,1.65297607421875,16.648662567138672,-1.7045869827270508,-1.3357932567596436
1667266092923373800,1.655373779296875,16.710874557495117,-1.5897315740585327,-1.5083755254745483
1667266092925771800,1.657771728515625,16.80898094177246,-1.4676976203918457,-1.6016956567764282
1667266092928169500,1.66016943359375,16.895122528076172,-1.3286148309707642,-1.5945172309875488
1667266092930567400,1.6625673828125,16.993228912353516,-1.1802598237991333,-1.5083755254745483
1667266092932965000,1.664965087890625,17.045869827270508,-1.0247262716293335,-1.3405789136886597
1667266092935363000,1.667363037109375,17.062620162963867,-0.8835497498512268,-1.1324033737182617
1667266092937760800,1.6697607421875,17.04347801208496,-0.7612167000770569,-0.8620143532752991
1667266092940158700,1.67215869140625,16.964513778686523,-0.6296114325523376,-0.5578267574310303
1667266092942556400,1.674556396484375,16.82333755493164,-0.5099703073501587,-0.2153540402650833
1667266092944954400,1.676954345703125,16.61994743347168,-0.385543555021286,0.15074782073497772
1667266092947352000,1.67935205078125,16.35643768310547,-0.24646073579788208,0.490827739238739
1667266092949749800,1.681749755859375,16.03101348876953,-0.09092725813388824,0.8018946647644043
1667266092952147700,1.684147705078125,15.6765775680542,0.064606212079525,1.0606186389923096
1667266092954545400,1.68654541015625,15.295819282531738,0.2392822653055191,1.2616157531738281
1667266092956943400,1.688943359375,14.908182144165039,0.43579283356666565,1.4413765668869019
1667266092959341000,1.691341064453125,14.520245552062988,0.6415755748748779,1.5394822359085083
1667266092961739000,1.693739013671875,14.122737884521484,0.859621524810791,1.6016956567764282
1667266092964136700,1.69613671875,13.759029388427734,1.1012966632843018,1.6160526275634766
1667266092966534400,1.698534423828125,13.383056640625,1.3094722032546997,1.6016956567764282
1667266092968932400,1.700932373046875,13.014263153076172,1.5131611824035645,1.5658032894134521
1667266092971330000,1.703330078125,12.633804321289062,1.7117655277252197,1.4940186738967896
1667266092973728000,1.70572802734375,12.269796371459961,1.8864415884017944,1.4174482822418213
1667266092976125700,1.708125732421875,11.932108879089355,2.0303099155426025,1.3405789136886597
1667266092978523600,1.710523681640625,11.647363662719727,2.1714866161346436,1.2616157531738281
1667266092980921300,1.71292138671875,11.414960861206055,2.26959228515625,1.189831018447876
1667266092983319300,1.7153193359375,11.240283966064453,2.3270199298858643,1.1563315391540527
1667266092985717000,1.717717041015625,11.118250846862793,2.3198416233062744,1.103689432144165
1667266092988115000,1.720114990234375,11.08475112915039,2.286342144012451,1.0390832424163818
1667266092990512600,1.7225126953125,11.125429153442383,2.2265214920043945,0.9649057388305664
1667266092992910300,1.724910400390625,11.23789119720459,2.1475582122802734,0.893121063709259
1667266092995308300,1.727308349609375,11.424531936645508,2.032702922821045,0.8258228898048401
1667266092997706000,1.7297060546875,11.642578125,1.9079769849777222,0.7731808423995972
1667266093000104000,1.73210400390625,11.87468147277832,1.7835501432418823,0.7540382146835327
1667266093002501600,1.734501708984375,12.18365478515625,1.678265929222107,0.734895646572113
1667266093004899600,1.736899658203125,12.552149772644043,1.5442678928375244,0.6918248534202576
1667266093007297300,1.73929736328125,12.975977897644043,1.4003994464874268,0.6224330067634583
1667266093009695000,1.741695068359375,13.447663307189941,1.2400803565979004,0.5602195858955383
1667266093012093000,1.744093017578125,13.945669174194336,1.0151549577713013,0.4621138870716095
1667266093014490600,1.74649072265625,14.501103401184082,0.766002357006073,0.35443684458732605
1667266093016888600,1.748888671875,15.094822883605957,0.5075774788856506,0.2273181527853012
1667266093019286300,1.751286376953125,15.681363105773926,0.16749759018421173,0.08853443711996078
1667266093021684200,1.753684326171875,16.255939483642578,-0.17228323221206665,-0.019142581149935722
1667266093024082000,1.75608203125,16.80658721923828,-0.5003990530967712,-0.12203395366668701
1667266093026479900,1.75847998046875,17.340486526489258,-0.7899305820465088,-0.30179476737976074
1667266093028877600,1.760877685546875,17.82413673400879,-1.0295119285583496,-0.49322056770324707
1667266093031275500,1.763275634765625,18.267107009887695,-1.2448660135269165,-0.6846463680267334
1667266093033673200,1.765673095703125,18.66910171508789,-1.3908281326293945,-0.9002995491027832
1667266093036071000,1.76807080078125,18.997217178344727,-1.4964114427566528,-1.1276177167892456
1667266093038468900,1.77046875,19.231714248657227,-1.5634105205535889,-1.3310075998306274
1667266093040866600,1.772866455078125,19.377975463867188,-1.5945172309875488,-1.5346965789794922
1667266093043264500,1.775264404296875,19.41865348815918,-1.5945172309875488,-1.7165511846542358
1667266093045662200,1.777662109375,19.380367279052734,-1.5466607809066772,-1.8768702745437622
1667266093048060200,1.78006005859375,19.25564193725586,-1.501197099685669,-2.0279171466827393
1667266093050457900,1.782457763671875,19.025930404663086,-1.407876968383789,-2.142772674560547
1667266093052855600,1.78485546875,18.724136352539062,-1.3286148309707642,-2.255235433578491
1667266093055253500,1.78725341796875,18.386747360229492,-1.2329018115997314,-2.3270199298858643
1667266093057651200,1.789651123046875,17.974884033203125,-1.1419745683670044,-2.3365912437438965
1667266093060049200,1.792049072265625,17.546268463134766,-1.0342975854873657,-2.3126630783081055
1667266093062446800,1.79444677734375,17.098512649536133,-0.9672985672950745,-2.2576282024383545
1667266093064844800,1.7968447265625,16.65105438232422,-0.8835497498512268,-2.1882362365722656
1667266093067242500,1.799242431640625,16.236797332763672,-0.7803592681884766,-2.1547367572784424
1667266093069640400,1.801640380859375,15.87996768951416,-0.6367899179458618,-2.1332013607025146
1667266093072038100,1.8040380859375,15.566507339477539,-0.45972105860710144,-2.087737798690796
1667266093074436000,1.80643603515625,15.300604820251465,-0.27038896083831787,-2.0303099155426025
1667266093076833800,1.808833740234375,15.025430679321289,-0.07896314561367035,-1.9007984399795532
1667266093079231500,1.8112314453125,14.764313697814941,0.13160525262355804,-1.7404793500900269
1667266093081629400,1.81362939453125,14.527424812316895,0.35443684458732605,-1.5634105205535889
1667266093084027100,1.816027099609375,14.32882022857666,0.5650052428245544,-1.378864049911499
1667266093086425000,1.818425048828125,14.149059295654297,0.8042874932289124,-1.1802598237991333
1667266093088822800,1.82082275390625,13.967205047607422,1.036690354347229,-0.9864411354064941
1667266093091220700,1.823220703125,13.804492950439453,1.2376874685287476,-0.7899305820465088
1667266093093618400,1.825618408203125,13.607982635498047,1.4126626253128052,-0.612861692905426
1667266093096016100,1.82801611328125,13.39980697631836,1.5801602602005005,-0.4262215197086334
1667266093098414000,1.8304140625,13.191631317138672,1.745265007019043,-0.2512463629245758
1667266093100811800,1.832811767578125,12.956835746765137,1.8601205348968506,-0.07896314561367035
1667266093103209700,1.835209716796875,12.698410987854004,1.9848463535308838,0.07896314561367035
1667266093105607400,1.837607421875,12.43250846862793,2.087737798690796,0.24406790733337402
1667266093108005400,1.84000537109375,12.20518970489502,2.197807550430298,0.3640081584453583
1667266093110403000,1.842403076171875,11.982358932495117,2.2671995162963867,0.4381856322288513
1667266093112801000,1.844801025390625,11.834003448486328,2.341377019882202,0.46450668573379517
1667266093115198700,1.84719873046875,11.731112480163574,2.4083759784698486,0.4668995141983032
1667266093117596700,1.8495966796875,11.644970893859863,2.4227328300476074,0.43100717663764954
1667266093119994400,1.851994384765625,11.604292869567871,2.4131617546081543,0.3640081584453583
1667266093122392000,1.85439208984375,11.597113609313965,2.3700907230377197,0.30179476737976074
1667266093124790000,1.8567900390625,11.647363662719727,2.3150558471679688,0.25363919138908386
1667266093127187700,1.859187744140625,11.723933219909668,2.2360928058624268,0.1818545162677765
1667266093129585700,1.861585693359375,11.822039604187012,2.1020946502685547,0.10289137065410614
1667266093131983400,1.8639833984375,11.920145034790039,1.934298038482666,0.031106693670153618
1667266093134381300,1.86638134765625,12.039786338806152,1.7069798707962036,-0.035892341285943985
1667266093136779000,1.868779052734375,12.152547836303711,1.4318052530288696,-0.11006984114646912
1667266093139176700,1.8711767578125,12.262618064880371,1.1539387702941895,-0.1986042857170105
1667266093141574700,1.87357470703125,12.363116264343262,0.8644071817398071,-0.26081767678260803
1667266093143972400,1.875972412109375,12.521042823791504,0.5482555031776428,-0.30658039450645447
1667266093146370300,1.878370361328125,12.743874549865723,0.1986042857170105,-0.3520440459251404
1667266093148768000,1.88076806640625,13.042977333068848,-0.15314064919948578,-0.3640081584453583
1667266093151166000,1.883166015625,13.435699462890625,-0.4453641176223755,-0.4094717800617218
1667266093153563600,1.885563720703125,13.861920356750488,-0.7564310431480408,-0.4453641176223755
1667266093155961600,1.887961669921875,14.302200317382812,-1.0582258701324463,-0.4980062246322632
1667266093158359300,1.890359375,14.742778778076172,-1.3334003686904907,-0.5458626747131348
1667266093160757200,1.89275732421875,15.188142776489258,-1.5849459171295166,-0.6080760359764099
1667266093163155000,1.895155029296875,15.588043212890625,-1.8026927709579468,-0.7133602499961853
1667266093165552600,1.897552734375,15.851253509521484,-1.9800606966018677,-0.8883354067802429
1667266093167950600,1.89995068359375,16.16501235961914,-2.1308085918426514,-0.9936196208000183
1667266093170348300,1.902348388671875,16.492828369140625,-2.2791635990142822,-1.072582721710205
1667266093172746200,1.904746337890625,16.775482177734375,-2.4083759784698486,-1.1156535148620605
1667266093175144000,1.90714404296875,16.964513778686523,-2.513660192489624,-1.1515458822250366
1667266093177541600,1.909541748046875,17.10090446472168,-2.566601276397705,-1.1850453615188599
1667266093179939600,1.911939697265625,17.184953689575195,-2.6240291595458984,-1.1874382495880127
1667266093182337300,1.914337158203125,17.223237991333008,-2.635993242263794,-1.194616675376892
1667266093184735200,1.9167353515625,17.23520278930664,-2.5833511352539062,-1.2305090427398682
1667266093187133000,1.9191328125,17.208881378173828,-2.5160529613494873,-1.2305090427398682
1667266093189531000,1.92153076171875,17.141881942749023,-2.427518606185913,-1.2137593030929565
1667266093191928600,1.923928466796875,17.036298751831055,-2.3222343921661377,-1.1778669357299805
1667266093194326500,1.926326416015625,16.859230041503906,-2.2121646404266357,-1.1324033737182617
1667266093196724200,1.92872412109375,16.63669776916504,-2.0853450298309326,-1.098903775215149
1667266093199122200,1.9311220703125,16.394723892211914,-1.9657038450241089,-1.0534402132034302
1667266093201519900,1.933519775390625,16.090835571289062,-1.8457635641098022,-0.9960124492645264
1667266093203917800,1.935917724609375,15.726826667785645,-1.7333009243011475,-0.9912267923355103
1667266093206315500,1.9383154296875,15.317355155944824,-1.6710875034332275,-1.0079765319824219
1667266093208713200,1.940713134765625,14.857633590698242,-1.5801602602005005,-1.0510473251342773
1667266093211111200,1.943111083984375,14.364712715148926,-1.5131611824035645,-1.1108678579330444
1667266093213508900,1.9455087890625,13.830814361572266,-1.4605190753936768,-1.2400803565979004
1667266093215906800,1.94790673828125,13.277772903442383,-1.415055513381958,-1.350150227546692
1667266093218304500,1.950304443359375,12.736696243286133,-1.347757339477539,-1.5179468393325806
1667266093220702200,1.9527021484375,12.202796936035156,-1.2759727239608765,-1.6974085569381714
1667266093223100200,1.95510009765625,11.692827224731445,-1.189831018447876,-1.8577276468276978
1667266093225497900,1.957497802734375,11.213963508605957,-1.098903775215149,-2.0135602951049805
1667266093227895800,1.959895751953125,10.768599510192871,-0.9960124492645264,-2.1547367572784424
1667266093230293500,1.96229345703125,10.397711753845215,-0.924227774143219,-2.2791635990142822
1667266093232691500,1.96469140625,10.134202003479004,-0.8401798605918884,-2.379662036895752
1667266093235089200,1.967089111328125,9.976275444030762,-0.7444669604301453,-2.458625316619873
1667266093237487000,1.969487060546875,9.923633575439453,-0.612861692905426,-2.504088878631592
1667266093239884800,1.971884765625,9.926026344299316,-0.49322056770324707,-2.504088878631592
1667266093242282800,1.97428271484375,9.957133293151855,-0.3616153299808502,-2.4466612339019775
1667266093244680400,1.976680419921875,10.036096572875977,-0.23449662327766418,-2.33180570602417
1667266093247078100,1.979078125,10.13180923461914,-0.13160525262355804,-2.173879384994507
1667266093249476000,1.98147607421875,10.215558052062988,-0.031106693670153618,-1.9606190919876099
1667266093251873800,1.983873779296875,10.292128562927246,-0.031106693670153618,-1.5658032894134521
1667266093254271700,1.986271728515625,10.404890060424805,0.05024927482008934,-1.3286148309707642
1667266093256669400,1.98866943359375,10.536495208740234,0.20338992774486542,-1.1395817995071411
1667266093259067400,1.9910673828125,10.634601593017578,0.32572299242019653,-0.9361918568611145
1667266093261465000,1.993465087890625,10.735099792480469,0.385543555021286,-0.7420741319656372
1667266093263862800,1.99586279296875,10.826026916503906,0.4573282301425934,-0.5841478109359741
1667266093266260700,1.9982607421875,10.904990196228027,0.5267201066017151,-0.40229329466819763
1667266093268658400,2.000658447265625,10.99860954284668,0.5937191247940063,-0.24885354936122894
1667266093271056400,2.003056396484375,11.11346435546875,0.6535396575927734,-0.14356936514377594
1667266093273454000,2.0054541015625,11.233105659484863,0.6990033388137817,-0.059820566326379776
1667266093275852000,2.00785205078125,11.36949634552002,0.7253243923187256,-0.01196411345154047
1667266093278249700,2.010249755859375,11.515758514404297,0.734895646572113,0.01196411345154047
1667266093280647700,2.012647705078125,11.642578125,0.7372884750366211,0.03349951654672623
1667266093283045400,2.01504541015625,11.733505249023438,0.732502818107605,0.016749758273363113
1667266093285443300,2.017443359375,11.790932655334473,0.7157530784606934,0
1667266093287841000,2.019841064453125,11.834003448486328,0.7037889361381531,-0.02871387079358101
1667266093290238700,2.02223876953125,11.845967292785645,0.675075113773346,-0.06699903309345245
1667266093292636700,2.02463671875,11.812468528747559,0.5841478109359741,-0.0023928226437419653
1667266093295034400,2.027034423828125,11.778968811035156,0.5195416212081909,-0.007178467698395252
1667266093297432300,2.029432373046875,11.745469093322754,0.4980062246322632,-0.08135596662759781
1667266093299830000,2.031830078125,11.685648918151855,0.4740779995918274,-0.20817556977272034
1667266093302228000,2.03422802734375,11.582756996154785,0.4214358925819397,-0.30658039450645447
1667266093304625700,2.036625732421875,11.438888549804688,0.3568296730518341,-0.4166502356529236
