time,seconds_elapsed,z,y,x
1667824344072358100,0.009358154296875,1.0375521183013916,-0.4390660524368286,-0.1660155951976776
1667824344082366200,0.0193662109375,1.0508726835250854,-0.4914402961730957,-0.1645125150680542
1667824344092374000,0.0293740234375,1.0448424816131592,-0.5333576798439026,-0.21514452993869781
1667824344102382000,0.039382080078125,1.0146286487579346,-0.5771892666816711,-0.3071386516094208
1667824344112390400,0.049390380859375,0.9770781397819519,-0.6145616769790649,-0.4062276780605316
1667824344122398200,0.059398193359375,0.9229925274848938,-0.6382832527160645,-0.4712783098220825
1667824344132405200,0.0694052734375,0.8585634231567383,-0.6421619057655334,-0.48031601309776306
1667824344142413000,0.0794130859375,0.7699291706085205,-0.6144565343856812,-0.4464576542377472
1667824344152421000,0.089421142578125,0.691071629524231,-0.5502210855484009,-0.39207109808921814
1667824344162429200,0.09942919921875,0.6227772831916809,-0.5164481997489929,-0.345226913690567
1667824344172437200,0.109437255859375,0.5751301646232605,-0.49869662523269653,-0.33190202713012695
1667824344182445300,0.1194453125,0.5489230155944824,-0.42791324853897095,-0.3290780186653137
1667824344192453000,0.129453125,0.5400027632713318,-0.3302229046821594,-0.3192075490951538
1667824344202461200,0.139461181640625,0.5303349494934082,-0.2516237199306488,-0.305744469165802
1667824344212469000,0.149468994140625,0.5076392292976379,-0.19769497215747833,-0.2901031970977783
1667824344222476300,0.159476318359375,0.477255254983902,-0.1848582625389099,-0.2727700173854828
1667824344232484000,0.169484130859375,0.44450926780700684,-0.17738863825798035,-0.2383052408695221
1667824344242492200,0.1794921875,0.40565988421440125,-0.15517254173755646,-0.20086786150932312
1667824344252500200,0.189500244140625,0.35155031085014343,-0.12753692269325256,-0.17465409636497498
1667824344262508000,0.199508056640625,0.30541157722473145,-0.09544689208269119,-0.16643372178077698
1667824344272516400,0.209516357421875,0.2840135991573334,-0.0568116158246994,-0.1742575466632843
1667824344282524200,0.219524169921875,0.276041179895401,0.01104732509702444,-0.18919947743415833
1667824344292532200,0.2295322265625,0.27807581424713135,0.10839971154928207,-0.21264807879924774
1667824344302539000,0.2395390625,0.2820340692996979,0.2013019472360611,-0.2450784593820572
1667824344312547300,0.24954736328125,0.2852290868759155,0.2988506257534027,-0.30747684836387634
1667824344322555100,0.25955517578125,0.2922912538051605,0.3766162395477295,-0.40882983803749084
1667824344332563200,0.269563232421875,0.29375919699668884,0.40773075819015503,-0.5384624004364014
1667824344342571300,0.2795712890625,0.29873237013816833,0.38434553146362305,-0.7096285820007324
1667824344352579000,0.2895791015625,0.3033430874347687,0.35497674345970154,-0.9092870950698853
1667824344362587100,0.299587158203125,0.3266526758670807,0.3182746469974518,-1.0918513536453247
1667824344372595000,0.309594970703125,0.3590652048587799,0.28477048873901367,-1.1665109395980835
1667824344382602200,0.319602294921875,0.3820408284664154,0.2556919455528259,-1.0930737257003784
1667824344392610000,0.329610107421875,0.390547513961792,0.13781484961509705,-0.9100711345672607
1667824344402618000,0.3396181640625,0.3827127516269684,0.019814450293779373,-0.6396236419677734
1667824344412626200,0.349626220703125,0.3596058487892151,0.10350774973630905,-0.2930084466934204
1667824344422634200,0.35963427734375,0.3730050027370453,0.38529762625694275,0.1216966062784195
1667824344432642300,0.369642333984375,0.4326867163181305,0.6528356075286865,0.5801094770431519
1667824344442650000,0.379650146484375,0.4013359844684601,0.7801637053489685,0.9835314750671387
1667824344452658200,0.389658203125,0.28175070881843567,0.8309179544448853,1.2817754745483398
1667824344462665000,0.3996650390625,0.149399071931839,0.8446297645568848,1.44989812374115
1667824344472673300,0.40967333984375,0.07575920969247818,0.7581324577331543,1.437646746635437
1667824344482681300,0.419681396484375,0.04987221956253052,0.6286173462867737,1.2755694389343262
1667824344492689200,0.429689208984375,-0.0003299656673334539,0.4820294976234436,1.0427223443984985
1667824344502697200,0.439697265625,-0.11256382614374161,0.2970479130744934,0.8095588684082031
1667824344512705000,0.449705078125,-0.25523895025253296,0.08198248594999313,0.624861478805542
1667824344522713000,0.459713134765625,-0.3907738924026489,-0.20540082454681396,0.48565006256103516
1667824344532721400,0.469721435546875,-0.48602476716041565,-0.5339406132698059,0.35958346724510193
1667824344542728200,0.479728271484375,-0.5254209041595459,-0.8519399166107178,0.2254088819026947
1667824344552736300,0.489736328125,-0.49165043234825134,-1.0613291263580322,0.17135924100875854
1667824344562744000,0.499744140625,-0.4329066872596741,-1.252261996269226,0.15563273429870605
1667824344572752100,0.509752197265625,-0.37009283900260925,-1.4561221599578857,0.143866628408432
1667824344582760200,0.51976025390625,-0.28295978903770447,-1.5886690616607666,0.11903291195631027
1667824344592768300,0.529768310546875,-0.12045823782682419,-1.8187984228134155,0.14817482233047485
1667824344602776300,0.5397763671875,0.07209603488445282,-1.490318775177002,0.11785472929477692
1667824344612784000,0.5497841796875,0.3007414638996124,-1.1643146276474,-0.09531187266111374
1667824344622791200,0.559791259765625,0.5922209620475769,-1.0829176902770996,-0.023190274834632874
1667824344632799200,0.56979931640625,0.7504556179046631,-0.8412081599235535,0.14117710292339325
1667824344642807300,0.579807373046875,0.7873137593269348,-0.7615594267845154,0.29791077971458435
1667824344652815000,0.589815185546875,0.7213273048400879,-0.5858104825019836,0.45268625020980835
1667824344662823200,0.5998232421875,0.621577262878418,-0.36782196164131165,0.6275155544281006
1667824344672831200,0.609831298828125,0.5379177927970886,-0.1249011904001236,0.7807639837265015
1667824344682843100,0.619843017578125,0.5027986764907837,0.10108959674835205,0.889214277267456
1667824344692851200,0.629851318359375,0.5035598278045654,0.2254006266593933,0.9074313640594482
1667824344702858200,0.639858154296875,0.514363706111908,0.268757164478302,0.8347705006599426
1667824344712866300,0.6498662109375,0.5289061665534973,0.2898235619068146,0.7060785889625549
1667824344722874000,0.6598740234375,0.5683542490005493,0.3242132365703583,0.5451642274856567
1667824344732882200,0.669882080078125,0.6449747085571289,0.40601035952568054,0.4024592936038971
1667824344742890200,0.67989013671875,0.7647663950920105,0.5101428627967834,0.2896842658519745
1667824344752898300,0.689898193359375,0.8999888896942139,0.5624921321868896,0.213860884308815
1667824344762906400,0.69990625,1.024526834487915,0.5138899683952332,0.16397589445114136
1667824344772914200,0.7099140625,1.1149590015411377,0.3772287666797638,0.08477054536342621
1667824344782921200,0.719921142578125,1.1290825605392456,0.1497412919998169,-0.000535561703145504
1667824344792929300,0.72992919921875,1.0850436687469482,-0.11101413518190384,-0.054065365344285965
1667824344802937300,0.739937255859375,1.0026050806045532,-0.30191218852996826,-0.07725723832845688
1667824344812945400,0.7499453125,0.9032962918281555,-0.3571583926677704,-0.06422212719917297
1667824344822953200,0.759953125,0.799630880355835,-0.2905524671077728,-0.00005805691034765914
1667824344832961300,0.769961181640625,0.7115622758865356,-0.14245514571666718,0.09511692821979523
1667824344842969000,0.779968994140625,0.6473739743232727,0.026815900579094887,0.19354575872421265
1667824344852977200,0.78997705078125,0.6400274038314819,0.16465125977993011,0.26940298080444336
1667824344862984200,0.799984130859375,0.6980462074279785,0.2717883586883545,0.3110199272632599
1667824344872992300,0.8099921875,0.807623565196991,0.321695476770401,0.3136175870895386
1667824344883000300,0.820000244140625,0.914240837097168,0.29829880595207214,0.3127925395965576
1667824344893008100,0.830008056640625,0.9874761700630188,0.21718505024909973,0.3128383457660675
1667824344903016400,0.840016357421875,1.0051281452178955,0.12681972980499268,0.32008984684944153
1667824344913024300,0.850024169921875,0.9785122275352478,0.0916481614112854,0.345235675573349
1667824344923032300,0.8600322265625,0.909160852432251,0.10001873970031738,0.39160823822021484
1667824344933040400,0.870040283203125,0.8200075626373291,0.1023322269320488,0.43973129987716675
1667824344943047200,0.880047119140625,0.7277649641036987,0.09006011486053467,0.48925891518592834
1667824344953055500,0.890055419921875,0.6371370553970337,0.1026691198348999,0.5357651710510254
1667824344963063300,0.900063232421875,0.5476247668266296,0.137104332447052,0.569192111492157
1667824344973071400,0.9100712890625,0.4633479416370392,0.16979488730430603,0.5777269601821899
1667824344983079200,0.9200791015625,0.39256539940834045,0.1703789234161377,0.5451762080192566
1667824344993087200,0.930087158203125,0.333278626203537,0.13773442804813385,0.4868612587451935
1667824345003095000,0.940094970703125,0.26577281951904297,0.1117667481303215,0.40810626745224
1667824345013103400,0.950103271484375,0.18790465593338013,0.1429222673177719,0.3217442035675049
1667824345023111400,0.960111328125,0.09784772992134094,0.2178977131843567,0.23885278403759003
1667824345033118200,0.9701181640625,0.01817820407450199,0.2861880958080292,0.15701492130756378
1667824345043126300,0.980126220703125,-0.04568413272500038,0.3184349536895752,0.0887940526008606
1667824345053134000,0.990134033203125,-0.08968807756900787,0.31193286180496216,0.03232305124402046
1667824345063142400,1.000142333984375,-0.11419155448675156,0.2825145125389099,-0.016895359382033348
1667824345073150200,1.010150146484375,-0.1397818624973297,0.2414933145046234,-0.05320143699645996
1667824345083158300,1.020158203125,-0.15368196368217468,0.21327978372573853,-0.06812073290348053
1667824345093166300,1.030166259765625,-0.15721145272254944,0.20599843561649323,-0.08369036763906479
1667824345103173400,1.04017333984375,-0.14302825927734375,0.20275843143463135,-0.09281036257743835
1667824345113181400,1.050181396484375,-0.11467278748750687,0.17845682799816132,-0.10864978283643723
1667824345123189200,1.060189208984375,-0.07885193824768066,0.15577149391174316,-0.12240926921367645
1667824345133197300,1.070197265625,-0.042572759091854095,0.15365613996982574,-0.1438290774822235
1667824345143205000,1.080205078125,-0.006400108803063631,0.1587134748697281,-0.16921699047088623
1667824345153213200,1.090213134765625,0.036438435316085815,0.15669453144073486,-0.20189769566059113
1667824345163221200,1.10022119140625,0.07296635210514069,0.13879862427711487,-0.22090734541416168
1667824345173229300,1.110229248046875,0.09956813603639603,0.11477238684892654,-0.20129609107971191
1667824345183236400,1.120236328125,0.11662275344133377,0.11973997950553894,-0.15321432054042816
1667824345193244200,1.130244140625,0.12418799102306366,0.13310664892196655,-0.08617749810218811
1667824345203252200,1.140252197265625,0.10871795564889908,0.1167476549744606,0.003918841481208801
1667824345213260300,1.15026025390625,0.07591073960065842,0.11036539077758789,0.11611408740282059
1667824345223268400,1.160268310546875,0.03742619976401329,0.1476624310016632,0.23551557958126068
1667824345233276400,1.1702763671875,0.004240551497787237,0.20859394967556,0.3445690870285034
1667824345243284200,1.1802841796875,-0.009754093363881111,0.23979422450065613,0.42053335905075073
1667824345253292300,1.190292236328125,0.007876299321651459,0.21896269917488098,0.4605870544910431
1667824345263300000,1.200300048828125,0.05251966789364815,0.09446099400520325,0.4625636339187622
1667824345273307400,1.210307373046875,0.09841498732566833,-0.1040334552526474,0.4407811164855957
1667824345283315200,1.220315185546875,0.12234189361333847,-0.2937770187854767,0.42725038528442383
1667824345293323300,1.2303232421875,0.11303441226482391,-0.4560343623161316,0.428803026676178
1667824345303331300,1.240331298828125,0.06979692727327347,-0.5817638039588928,0.43629929423332214
1667824345313339100,1.250339111328125,-0.006982808467000723,-0.6701874136924744,0.4585460126399994
1667824345323347500,1.260347412109375,-0.10647104680538177,-0.7457823157310486,0.48299726843833923
1667824345333355300,1.270355224609375,-0.23160526156425476,-0.7928866744041443,0.4966409206390381
1667824345343362300,1.2803623046875,-0.3726670444011688,-0.760621964931488,0.48455390334129333
1667824345353370000,1.2903701171875,-0.5082088708877563,-0.6726521849632263,0.43715229630470276
1667824345363378200,1.300378173828125,-0.6234771609306335,-0.5722216963768005,0.35370934009552
1667824345373386200,1.31038623046875,-0.7102914452552795,-0.4897758364677429,0.2299778014421463
1667824345383394300,1.320394287109375,-0.7575492262840271,-0.4270695745944977,0.07923303544521332
1667824345393402400,1.33040234375,-0.7741726636886597,-0.3822791874408722,-0.0719226598739624
1667824345403410200,1.34041015625,-0.784234881401062,-0.3475379943847656,-0.1900373101234436
1667824345413418200,1.350418212890625,-0.8008319735527039,-0.3039683997631073,-0.26715341210365295
1667824345423425300,1.36042529296875,-0.8267144560813904,-0.25001728534698486,-0.30650559067726135
1667824345433433300,1.370433349609375,-0.8498719334602356,-0.20718887448310852,-0.32749131321907043
1667824345443441200,1.380441162109375,-0.8707959055900574,-0.21266593039035797,-0.3369884192943573
1667824345453449200,1.39044921875,-0.8828812837600708,-0.2795048654079437,-0.35632988810539246
1667824345463457300,1.400457275390625,-0.8773123621940613,-0.3855692744255066,-0.3942567706108093
1667824345473465000,1.410465087890625,-0.8516030311584473,-0.5135096311569214,-0.45059114694595337
1667824345483473400,1.420473388671875,-0.8055849075317383,-0.6496720314025879,-0.5495195984840393
1667824345493481200,1.430481201171875,-0.748602569103241,-0.759499728679657,-0.6608343720436096
1667824345503489300,1.4404892578125,-0.6919294595718384,-0.8143200874328613,-0.782952070236206
1667824345513496000,1.45049609375,-0.6520296931266785,-0.8466473817825317,-0.9187396764755249
1667824345523504400,1.46050439453125,-0.6313945055007935,-0.8602737188339233,-1.0757426023483276
1667824345533512400,1.470512451171875,-0.6099967956542969,-0.8682610988616943,-1.2533600330352783
1667824345543520300,1.480520263671875,-0.5558408498764038,-0.8743005990982056,-1.4441031217575073
1667824345553528300,1.4905283203125,-0.4732131063938141,-0.8852464556694031,-1.6198756694793701
1667824345563536100,1.5005361328125,-0.3780948221683502,-0.8783115744590759,-1.7615861892700195
1667824345573544200,1.510544189453125,-0.28352758288383484,-0.8129323124885559,-1.8326371908187866
1667824345583552300,1.52055224609375,-0.18917791545391083,-0.6703029870986938,-1.8238965272903442
1667824345593559300,1.530559326171875,-0.08176277577877045,-0.4772624373435974,-1.7416516542434692
1667824345603567400,1.5405673828125,0.03815218061208725,-0.24451440572738647,-1.598280429840088
1667824345613575200,1.5505751953125,0.1689346879720688,-0.03888161852955818,-1.4363393783569336
1667824345623583200,1.560583251953125,0.31728821992874146,0.08243708312511444,-1.2760813236236572
1667824345633591300,1.57059130859375,0.47978124022483826,0.15010428428649902,-1.1518083810806274
1667824345643599400,1.580599365234375,0.6637905240058899,0.16566966474056244,-1.0710821151733398
1667824345653607400,1.590607421875,0.8477829694747925,0.13261130452156067,-1.027125597000122
1667824345663615200,1.600615234375,1.0057576894760132,0.07681062817573547,-1.0111969709396362
1667824345673622300,1.610622314453125,1.137480616569519,0.00506906071677804,-1.0227409601211548
1667824345683626000,1.6206259765625,1.2354007959365845,-0.08099178969860077,-1.041848063468933
1667824345693634000,1.630634033203125,1.3144359588623047,-0.20080633461475372,-1.05367112159729
1667824345703642000,1.64064208984375,1.3771342039108276,-0.30252605676651,-1.012999415397644
1667824345713650000,1.65064990234375,1.424796462059021,-0.28476089239120483,-0.8924098014831543
1667824345723658000,1.660657958984375,1.4739011526107788,-0.12903468310832977,-0.6913701891899109
1667824345733666000,1.670666015625,1.509289264678955,0.09038662165403366,-0.4286549389362335
1667824345743674000,1.680674072265625,1.517956018447876,0.2856117784976959,-0.15170377492904663
1667824345753681000,1.690680908203125,1.5042526721954346,0.3848249018192291,0.10986071825027466
1667824345763689000,1.70068896484375,1.4972989559173584,0.4199991524219513,0.33927634358406067
1667824345773697000,1.710697021484375,1.5014867782592773,0.36907869577407837,0.5141173601150513
1667824345783705000,1.720705078125,1.50497305393219,0.30264589190483093,0.6514765620231628
1667824345793713200,1.730713134765625,1.471628189086914,0.2379784733057022,0.748583972454071
1667824345803721000,1.740720947265625,1.377333402633667,0.20498643815517426,0.807172954082489
1667824345813729000,1.75072900390625,1.2360284328460693,0.2455889880657196,0.8120833039283752
1667824345823736800,1.76073681640625,1.0670971870422363,0.36612045764923096,0.7886136770248413
1667824345833744100,1.770744140625,0.9026755094528198,0.5166865587234497,0.7430341839790344
1667824345843752000,1.780751953125,0.7852594256401062,0.634494423866272,0.6923677921295166
1667824345853760000,1.790760009765625,0.7271779775619507,0.6918407678604126,0.6379091143608093
1667824345863768000,1.80076806640625,0.7168220281600952,0.678292453289032,0.5864791870117188
1667824345873775900,1.81077587890625,0.7454875111579895,0.6275797486305237,0.5474657416343689
1667824345883784000,1.820783935546875,0.7918059825897217,0.5654788613319397,0.5186314582824707
1667824345893792000,1.8307919921875,0.8156399726867676,0.4994622766971588,0.5139232277870178
1667824345903800000,1.840800048828125,0.7862517237663269,0.4728596806526184,0.5233519077301025
1667824345913806800,1.850806884765625,0.7140747308731079,0.5173139572143555,0.534978449344635
1667824345923815000,1.86081494140625,0.6280602216720581,0.6336323022842407,0.5311315059661865
1667824345933823200,1.8708232421875,0.5546730756759644,0.7652114033699036,0.5087702870368958
1667824345943831000,1.8808310546875,0.5155256390571594,0.8961771130561829,0.4847531020641327
1667824345953839000,1.890839111328125,0.5204285383224487,0.9927127361297607,0.4630158543586731
1667824345963847000,1.900846923828125,0.553425133228302,1.0210272073745728,0.43712887167930603
1667824345973855000,1.91085498046875,0.5966247916221619,0.9689757227897644,0.4075126349925995
1667824345983863000,1.920863037109375,0.6442537903785706,0.8489300012588501,0.36822569370269775
1667824345993870000,1.9308701171875,0.6942349672317505,0.6733230352401733,0.33193692564964294
1667824346003878100,1.940878173828125,0.7265356183052063,0.48825594782829285,0.29804474115371704
1667824346013886000,1.950885986328125,0.7425124645233154,0.3631798028945923,0.27588245272636414
1667824346023894000,1.96089404296875,0.7441854476928711,0.3220826983451843,0.27413034439086914
1667824346033901800,1.97090185546875,0.7447503209114075,0.34794360399246216,0.2958545684814453
1667824346043910100,1.98091015625,0.7489517331123352,0.4011676609516144,0.33547306060791016
1667824346053918200,1.990918212890625,0.7495536208152771,0.4552319645881653,0.38000646233558655
1667824346063926000,2.000926025390625,0.7561585307121277,0.47590529918670654,0.4034300148487091
1667824346073934000,2.01093408203125,0.777955949306488,0.46559005975723267,0.40183743834495544
1667824346083940900,2.02094091796875,0.8231425881385803,0.3901861310005188,0.36931920051574707
1667824346093949200,2.03094921875,0.8698294162750244,0.25400111079216003,0.31466686725616455
1667824346103957000,2.04095703125,0.8821423053741455,0.06342504173517227,0.24138092994689941
1667824346113965000,2.050965087890625,0.8540475368499756,-0.13776318728923798,0.16557271778583527
1667824346123973000,2.06097314453125,0.7863851189613342,-0.2983534038066864,0.09874894469976425
1667824346133981000,2.07098095703125,0.6842808723449707,-0.3770729899406433,0.05843694508075714
1667824346143989000,2.080989013671875,0.5610782504081726,-0.38810059428215027,0.03275341913104057
1667824346153997000,2.0909970703125,0.4193389415740967,-0.32180386781692505,0.023138342425227165
1667824346164004000,2.101004150390625,0.27864333987236023,-0.1794232875108719,0.023133015260100365
1667824346174012000,2.111011962890625,0.16890859603881836,0.04280285909771919,0.044190630316734314
1667824346184020000,2.12102001953125,0.09141167253255844,0.31975430250167847,0.08753757178783417
1667824346194027800,2.13102783203125,0.05312260612845421,0.5915860533714294,0.1496102660894394
1667824346204036000,2.1410361328125,0.050999268889427185,0.7554436922073364,0.21949000656604767
1667824346214044200,2.151044189453125,0.05519028380513191,0.8201425671577454,0.287289559841156
1667824346224052000,2.161052001953125,0.07531818747520447,0.7956108450889587,0.3511638939380646
1667824346234060000,2.17106005859375,0.10691100358963013,0.6989849805831909,0.4130275249481201
1667824346244067000,2.181067138671875,0.12944720685482025,0.5448728799819946,0.4625791013240814
1667824346254075100,2.1910751953125,0.12821762263774872,0.336151659488678,0.5061990022659302
1667824346264083000,2.2010830078125,0.09119515866041183,0.08854131400585175,0.5328300595283508
1667824346274091000,2.211091064453125,0.019811522215604782,-0.16460652649402618,0.5448102951049805
1667824346284099000,2.22109912109375,-0.10042567551136017,-0.4257079064846039,0.523470938205719
1667824346294107000,2.23110693359375,-0.25280481576919556,-0.6447589993476868,0.4725361168384552
1667824346304115000,2.241114990234375,-0.4251401126384735,-0.8199273943901062,0.3770170509815216
1667824346314123000,2.251123046875,-0.5896326303482056,-0.9553325772285461,0.23004625737667084
1667824346324130000,2.261130126953125,-0.7318102717399597,-1.0662833452224731,0.04054822400212288
1667824346334137900,2.271137939453125,-0.842596173286438,-1.1498472690582275,-0.18619942665100098
1667824346344146000,2.28114599609375,-0.9093155860900879,-1.1789398193359375,-0.42416033148765564
1667824346354154000,2.291154052734375,-0.9358869791030884,-1.1418042182922363,-0.6312568187713623
1667824346364162000,2.301162109375,-0.930609405040741,-1.0497512817382812,-0.7880820631980896
1667824346374170000,2.311170166015625,-0.9080631136894226,-0.9137641191482544,-0.8818773031234741
1667824346384178000,2.321177978515625,-0.8737868666648865,-0.7449111938476562,-0.9191104173660278
1667824346394186000,2.33118603515625,-0.8318005204200745,-0.5650396943092346,-0.9235395193099976
1667824346404194000,2.341194091796875,-0.7796542644500732,-0.40085020661354065,-0.9083238244056702
1667824346414201000,2.351201171875,-0.6956038475036621,-0.2734115719795227,-0.900420606136322
1667824346424209200,2.361209228515625,-0.5801874995231628,-0.20151500403881073,-0.9144285917282104
1667824346434217000,2.371217041015625,-0.4599055349826813,-0.17984725534915924,-0.9342606067657471
1667824346444225000,2.38122509765625,-0.35144299268722534,-0.22132280468940735,-0.943157434463501
1667824346454232800,2.39123291015625,-0.2616412043571472,-0.3331015408039093,-0.9344406127929688
1667824346464241200,2.4012412109375,-0.18474401533603668,-0.4916706681251526,-0.909684419631958
1667824346474249200,2.411249267578125,-0.13773362338542938,-0.6599683165550232,-0.8638525009155273
1667824346484257000,2.421257080078125,-0.1075027585029602,-0.8137565851211548,-0.7975842356681824
1667824346494264000,2.43126416015625,-0.0922899842262268,-0.9377967715263367,-0.704887866973877
1667824346504272000,2.44127197265625,-0.09405992180109024,-1.0181472301483154,-0.5860711932182312
1667824346514280200,2.4512802734375,-0.11604777723550797,-1.0370419025421143,-0.4531286060810089
1667824346524288000,2.4612880859375,-0.14635828137397766,-1.015028476715088,-0.3289736211299896
1667824346534296000,2.471296142578125,-0.15947887301445007,-0.9753880500793457,-0.22856873273849487
1667824346544303900,2.481303955078125,-0.13489815592765808,-0.9280357360839844,-0.15727031230926514
1667824346554312000,2.49131201171875,-0.0841340497136116,-0.8824189901351929,-0.12744849920272827
1667824346564320000,2.501320068359375,-0.03443014621734619,-0.830784022808075,-0.11138724535703659
1667824346574327000,2.5113271484375,0.007526093162596226,-0.7570421695709229,-0.10678903013467789
1667824346584335000,2.521335205078125,0.030013026669621468,-0.673202395439148,-0.09057597070932388
1667824346594343000,2.531343017578125,0.023300262168049812,-0.5954854488372803,-0.05426057428121567
1667824346604351000,2.54135107421875,-0.02640976943075657,-0.5377217531204224,0.007243798114359379
1667824346614358800,2.55135888671875,-0.10718557238578796,-0.4929063618183136,0.09285484254360199
1667824346624367000,2.5613671875,-0.21842554211616516,-0.44835221767425537,0.20136986672878265
1667824346634375200,2.571375244140625,-0.3383655250072479,-0.40005287528038025,0.3231085538864136
1667824346644383000,2.581383056640625,-0.45058634877204895,-0.33077526092529297,0.4070308804512024
1667824346654390000,2.59139013671875,-0.5329869389533997,-0.21896110475063324,0.44362831115722656
1667824346664398000,2.601398193359375,-0.5871074199676514,-0.11407384276390076,0.4375554919242859
1667824346674406100,2.61140625,-0.6263695955276489,-0.026688335463404655,0.3827649652957916
1667824346684414200,2.621414306640625,-0.6583235859870911,0.06947201490402222,0.30050817131996155
1667824346694422300,2.63142236328125,-0.6751320958137512,0.14167776703834534,0.2040034681558609
1667824346704430300,2.641430419921875,-0.6894135475158691,0.17825736105442047,0.1042020320892334
1667824346714438100,2.651438232421875,-0.704284131526947,0.19259688258171082,0.01684529334306717
1667824346724446200,2.6614462890625,-0.7093510627746582,0.18969030678272247,-0.0539921298623085
1667824346734454300,2.671454345703125,-0.7072911262512207,0.16783507168293,-0.09598671644926071
1667824346744461300,2.68146142578125,-0.6987093091011047,0.12162017077207565,-0.10339776426553726
1667824346754469000,2.69146923828125,-0.699434220790863,0.046059902757406235,-0.10232876986265182
1667824346764477200,2.701477294921875,-0.6957436203956604,-0.026248915120959282,-0.0740414708852768
1667824346774485200,2.7114853515625,-0.6878103613853455,-0.06960650533437729,-0.02953951619565487
1667824346784493300,2.721493408203125,-0.6779564023017883,-0.10977283865213394,0.02413090318441391
1667824346794501400,2.73150146484375,-0.6759523749351501,-0.14896976947784424,0.08118939399719238
1667824346804509200,2.74150927734375,-0.6652126312255859,-0.18242147564888,0.11938365548849106
1667824346814517200,2.751517333984375,-0.6370899081230164,-0.20466552674770355,0.13772563636302948
1667824346824524300,2.761524169921875,-0.5932928919792175,-0.21114526689052582,0.13672135770320892
1667824346834532400,2.771532470703125,-0.5561766624450684,-0.2055869847536087,0.11786910891532898
1667824346844540400,2.78154052734375,-0.5384746789932251,-0.1991751492023468,0.07694138586521149
1667824346854548200,2.79154833984375,-0.5342338681221008,-0.17330200970172882,0.0020780644845217466
1667824346864556300,2.801556396484375,-0.5340332984924316,-0.11821692436933517,-0.11866140365600586
1667824346874564000,2.811564208984375,-0.5250145196914673,-0.002603772561997175,-0.26719921827316284
1667824346884572200,2.821572265625,-0.49377936124801636,0.16478441655635834,-0.4073643088340759
1667824346894580500,2.83158056640625,-0.43871423602104187,0.34548336267471313,-0.5223177671432495
1667824346904588300,2.84158837890625,-0.37228381633758545,0.5174950957298279,-0.5952918529510498
1667824346914595300,2.85159521484375,-0.29475679993629456,0.677828311920166,-0.6325668096542358
1667824346924603100,2.86160302734375,-0.199905663728714,0.8018429279327393,-0.6423587203025818
1667824346934611200,2.871611083984375,-0.09890447556972504,0.8806865811347961,-0.6128801703453064
1667824346944619300,2.881619384765625,0.009078982286155224,0.8727197647094727,-0.5651209354400635
1667824346954627300,2.89162744140625,0.11948218941688538,0.7822303175926208,-0.5035268068313599
1667824346964635400,2.901635498046875,0.24465182423591614,0.6528803110122681,-0.42984992265701294
1667824346974643200,2.911643310546875,0.39694201946258545,0.5082179307937622,-0.350643515586853
1667824346984651300,2.9216513671875,0.5786279439926147,0.348186731338501,-0.2735404670238495
1667824346994658300,2.931658203125,0.7784388065338135,0.15059217810630798,-0.21249015629291534
1667824347004666400,2.941666259765625,0.9806044101715088,-0.05777035653591156,-0.1760362833738327
1667824347014674200,2.951674072265625,1.156118392944336,-0.2909916341304779,-0.16678312420845032
1667824347024682200,2.96168212890625,1.2914552688598633,-0.5383500456809998,-0.19325467944145203
1667824347034690300,2.971690185546875,1.3784148693084717,-0.7374186515808105,-0.23646606504917145
1667824347044698000,2.981697998046875,1.4270309209823608,-0.846409022808075,-0.2654156982898712
1667824347054706400,2.99170654296875,1.4407930374145508,-0.8423336148262024,-0.24993953108787537
1667824347064714200,3.00171435546875,1.3963533639907837,-0.7499554753303528,-0.16912777721881866
1667824347074722300,3.011722412109375,1.2970294952392578,-0.5778268575668335,-0.0325733907520771
1667824347084729000,3.02172900390625,1.1524659395217896,-0.33713141083717346,0.13958878815174103
1667824347094737400,3.0317373046875,1.0031166076660156,-0.10141397267580032,0.29370298981666565
1667824347104745200,3.0417451171875,0.8856187462806702,0.07226141542196274,0.40380552411079407
1667824347114753300,3.051753173828125,0.8201451897621155,0.18063555657863617,0.45100659132003784
1667824347124761300,3.06176123046875,0.7889904975891113,0.21781301498413086,0.4513629376888275
1667824347134769200,3.07176904296875,0.770794153213501,0.19125650823116302,0.4200020730495453
1667824347144777200,3.081777099609375,0.756738007068634,0.13581082224845886,0.37247344851493835
1667824347154785300,3.091785400390625,0.7448645830154419,0.08658229559659958,0.33055582642555237
1667824347164792300,3.101792236328125,0.7275761365890503,0.047814127057790756,0.30849286913871765
1667824347174800100,3.111800048828125,0.7057334184646606,0.018365956842899323,0.3062952160835266
1667824347184808200,3.12180810546875,0.6726308465003967,-0.0010831075487658381,0.31947627663612366
1667824347194816300,3.131816162109375,0.6314117908477783,-0.024465661495923996,0.3458407521247864
1667824347204824300,3.14182421875,0.5744379758834839,-0.04590544104576111,0.3664807975292206
1667824347214832400,3.151832275390625,0.5101870894432068,-0.07947725057601929,0.37104544043540955
1667824347224840200,3.161840087890625,0.4570562243461609,-0.10938508063554764,0.3471457064151764
1667824347234848300,3.17184814453125,0.43750250339508057,-0.12500612437725067,0.3008058965206146
1667824347244856300,3.181856201171875,0.4303109049797058,-0.1338518112897873,0.24805694818496704
1667824347254863400,3.19186328125,0.4244474172592163,-0.14649462699890137,0.20033389329910278
1667824347264871400,3.201871337890625,0.39533907175064087,-0.16545288264751434,0.16708220541477203
1667824347274879200,3.211879150390625,0.3448340892791748,-0.1337391585111618,0.1534462869167328
1667824347284887300,3.22188720703125,0.28531110286712646,-0.04090216010808945,0.16446803510189056
1667824347294895000,3.23189501953125,0.23288197815418243,0.07509954273700714,0.19059684872627258
1667824347304903200,3.241903076171875,0.19519825279712677,0.15798936784267426,0.22113744914531708
1667824347314911500,3.251911376953125,0.17173446714878082,0.17283836007118225,0.2359294444322586
1667824347324919300,3.261919189453125,0.1834646314382553,0.11283440887928009,0.23058606684207916
1667824347334926300,3.27192626953125,0.22075848281383514,-0.0007835020078346133,0.1938703954219818
1667824347344934100,3.28193408203125,0.24912939965724945,-0.1368531882762909,0.13658633828163147
1667824347354942200,3.291942138671875,0.24682682752609253,-0.27713388204574585,0.07518556714057922
1667824347364950300,3.3019501953125,0.22396758198738098,-0.339404433965683,0.03622990846633911
1667824347374958300,3.311958251953125,0.17932608723640442,-0.28319868445396423,0.043770916759967804
1667824347384966400,3.32196630859375,0.11976714432239532,-0.11151960492134094,0.09654225409030914
1667824347394974200,3.33197412109375,0.050706587731838226,0.1393192708492279,0.17107853293418884
1667824347404982300,3.341982177734375,-0.013433250598609447,0.4142283499240875,0.2653701603412628
1667824347414990000,3.351989990234375,-0.07525347173213959,0.660506546497345,0.35251277685165405
1667824347424997400,3.361997314453125,-0.10670167952775955,0.837585985660553,0.420693963766098
1667824347435005200,3.372005126953125,-0.11001890897750854,0.958694338798523,0.468964546918869
1667824347445013200,3.38201318359375,-0.0991942286491394,1.0444645881652832,0.5059657096862793
1667824347455021300,3.392021240234375,-0.08847953379154205,1.0730704069137573,0.5281059145927429
1667824347465029000,3.402029052734375,-0.09700697660446167,1.0629661083221436,0.5460638403892517
1667824347475037400,3.412037353515625,-0.11767975986003876,1.0250216722488403,0.5571817755699158
1667824347485045200,3.422045166015625,-0.14736734330654144,0.9472589492797852,0.5556416511535645
1667824347495053300,3.43205322265625,-0.17324236035346985,0.8600766658782959,0.5378698706626892
1667824347505060000,3.44206005859375,-0.21539033949375153,0.7616150379180908,0.5120651721954346
1667824347515068400,3.452068359375,-0.26826712489128113,0.6541663408279419,0.4718775153160095
1667824347525076200,3.462076171875,-0.33439263701438904,0.5669454336166382,0.40212294459342957
1667824347535084300,3.472084228515625,-0.39962249994277954,0.48106807470321655,0.32779279351234436
1667824347545092400,3.48209228515625,-0.45813295245170593,0.394806444644928,0.2318958193063736
1667824347555100200,3.49210009765625,-0.48989275097846985,0.33348608016967773,0.13971902430057526
1667824347565108200,3.502108154296875,-0.4899366796016693,0.31207188963890076,0.058447062969207764
1667824347575116000,3.512115966796875,-0.4545624554157257,0.3266548216342926,0.005091697443276644
1667824347585124400,3.522124267578125,-0.39762964844703674,0.3959183096885681,-0.009821205399930477
1667824347595131100,3.532131103515625,-0.30672743916511536,0.4739246964454651,0.004833903629332781
1667824347605139200,3.54213916015625,-0.20051072537899017,0.5279130935668945,0.045283593237400055
1667824347615147300,3.552147216796875,-0.10580392926931381,0.5321043729782104,0.08388824015855789
1667824347625155300,3.5621552734375,-0.031917452812194824,0.4993954300880432,0.1236732080578804
1667824347635163400,3.572163330078125,0.01665993593633175,0.44889310002326965,0.16006582975387573
1667824347645171200,3.582171142578125,0.03955220431089401,0.3951316177845001,0.19946889579296112
1667824347655179300,3.59217919921875,0.04109976440668106,0.31982195377349854,0.23017381131649017
1667824347665187300,3.602187255859375,0.02304539829492569,0.2325645387172699,0.25883954763412476
1667824347675194400,3.6121943359375,0.012051336467266083,0.14133794605731964,0.27959489822387695
1667824347685202700,3.62220263671875,0.02165203168988228,0.014402374625205994,0.2818916141986847
1667824347695210500,3.63221044921875,0.05866917222738266,-0.17483732104301453,0.24016359448432922
1667824347705218600,3.642218505859375,0.11305491626262665,-0.45904427766799927,0.1385432332754135
1667824347715226600,3.6522265625,0.15662503242492676,-0.8776524662971497,-0.06265352666378021
1667824347725234400,3.662234375,0.16617432236671448,-1.3792617321014404,-0.387406587600708
1667824347735242500,3.672242431640625,0.1498773843050003,-1.8676815032958984,-0.7902608513832092
1667824347745250600,3.68225048828125,0.11232254654169083,-2.2839062213897705,-1.1972882747650146
1667824347755257600,3.692257568359375,0.053459763526916504,-2.469522714614868,-1.5257867574691772
1667824347765265400,3.702265380859375,-0.03774072229862213,-2.281111240386963,-1.7025806903839111
1667824347775273500,3.7122734375,-0.11476492881774902,-1.7679722309112549,-1.7059274911880493
1667824347785281500,3.722281494140625,-0.17240293323993683,-1.1184096336364746,-1.561893343925476
1667824347795289600,3.73228955078125,-0.1836625039577484,-0.5134401321411133,-1.308963656425476
1667824347805297700,3.742297607421875,-0.10084139555692673,-0.040523722767829895,-1.026469111442566
1667824347815305500,3.752305419921875,-0.0049191247671842575,0.3448029160499573,-0.7259420156478882
1667824347825313500,3.7623134765625,0.10198681801557541,0.5005461573600769,-0.45657554268836975
1667824347835321600,3.772321533203125,0.21305501461029053,0.4817517101764679,-0.22874529659748077
1667824347845328600,3.78232861328125,0.31863898038864136,0.3670959770679474,-0.036793965846300125
1667824347855336700,3.792336669921875,0.3980797231197357,0.21533840894699097,0.14416010677814484
1667824347865344500,3.802344482421875,0.44556257128715515,0.03227218613028526,0.30603209137916565
1667824347875352600,3.8123525390625,0.448792964220047,-0.15102121233940125,0.454915314912796
1667824347885360400,3.8223603515625,0.4254836440086365,-0.3326796889305115,0.5802146196365356
1667824347895368700,3.83236865234375,0.38380226492881775,-0.5042016506195068,0.6727778911590576
1667824347905376800,3.842376708984375,0.3339891731739044,-0.6513548493385315,0.7193701267242432
1667824347915384600,3.852384521484375,0.2759498357772827,-0.7596229910850525,0.7083888649940491
1667824347925391400,3.862391357421875,0.20363354682922363,-0.8347643613815308,0.654373049736023
1667824347935399400,3.8723994140625,0.13434049487113953,-0.8565740585327148,0.5665593147277832
1667824347945407700,3.88240771484375,0.06944938004016876,-0.8233628273010254,0.46709582209587097
1667824347955415600,3.89241552734375,0.017304155975580215,-0.7752275466918945,0.35879331827163696
1667824347965423600,3.902423583984375,-0.03683950752019882,-0.705331563949585,0.2629093825817108
1667824347975431400,3.912431396484375,-0.09879102557897568,-0.6218457221984863,0.20500721037387848
1667824347985439500,3.922439453125,-0.1874375343322754,-0.5284164547920227,0.18138018250465393
1667824347995447600,3.932447509765625,-0.3015124499797821,-0.42269134521484375,0.19274841248989105
1667824348005455600,3.94245556640625,-0.4345168471336365,-0.3360895812511444,0.22218219935894012
1667824348015462700,3.952462646484375,-0.578828752040863,-0.27959543466567993,0.2556895613670349
1667824348025470500,3.962470458984375,-0.714531421661377,-0.21896857023239136,0.2987595200538635
1667824348035478500,3.972478515625,-0.8306439518928528,-0.15834224224090576,0.34591612219810486
1667824348045486300,3.982486328125,-0.9282969832420349,-0.08773810416460037,0.39421868324279785
1667824348055494700,3.99249462890625,-1.0066053867340088,0.0011041465913876891,0.4530401825904846
1667824348065502700,4.002502685546875,-1.071511149406433,0.11673354357481003,0.5034032464027405
1667824348075510500,4.012510498046875,-1.126895546913147,0.2467794269323349,0.5525673031806946
1667824348085518600,4.0225185546875,-1.176572561264038,0.31595155596733093,0.6057626008987427
1667824348095526400,4.0325263671875,-1.2320209741592407,0.314596027135849,0.6674374341964722
1667824348105533700,4.04253369140625,-1.3019680976867676,0.24690724909305573,0.7297250628471375
1667824348115541500,4.05254150390625,-1.3671965599060059,0.1471220701932907,0.7559747695922852
1667824348125549600,4.062549560546875,-1.4169635772705078,0.02473197877407074,0.7221654057502747
1667824348135557600,4.0725576171875,-1.4492504596710205,-0.11316437274217606,0.6256950497627258
1667824348145565400,4.0825654296875,-1.4656219482421875,-0.257139652967453,0.4633735120296478
1667824348155573500,4.092573486328125,-1.4665216207504272,-0.36343467235565186,0.24848943948745728
1667824348165581600,4.10258154296875,-1.4466999769210815,-0.42261597514152527,0.015788283199071884
1667824348175589600,4.112589599609375,-1.4153550863265991,-0.4381301999092102,-0.21733658015727997
1667824348185596400,4.122596435546875,-1.3771610260009766,-0.43605026602745056,-0.4307902753353119
1667824348195604500,4.1326044921875,-1.3457051515579224,-0.4114397466182709,-0.626812756061554
1667824348205612500,4.142612548828125,-1.3179843425750732,-0.36967605352401733,-0.8135818839073181
1667824348215620600,4.15262060546875,-1.2804803848266602,-0.30163174867630005,-1.0037238597869873
1667824348225628700,4.162628662109375,-1.2131508588790894,-0.22625604271888733,-1.180533528327942
1667824348235636500,4.172636474609375,-1.1218938827514648,-0.18278685212135315,-1.3288534879684448
1667824348245644500,4.18264453125,-1.0112355947494507,-0.12794651091098785,-1.4146051406860352
1667824348255652600,4.192652587890625,-0.8825327157974243,-0.05236014351248741,-1.4263321161270142
1667824348265660400,4.202660400390625,-0.7267353534698486,0.05804945528507233,-1.3530958890914917
1667824348275667700,4.212667724609375,-0.5559700131416321,0.17524851858615875,-1.2170685529708862
1667824348285675500,4.222675537109375,-0.36979615688323975,0.26257410645484924,-1.0596039295196533
1667824348295683600,4.23268359375,-0.16992512345314026,0.2705199122428894,-0.9013386368751526
1667824348305691400,4.24269140625,0.040344227105379105,0.19407519698143005,-0.7667096853256226
1667824348315699500,4.252699462890625,0.25821369886398315,0.0400874987244606,-0.6700196266174316
1667824348325707500,4.26270751953125,0.47990936040878296,-0.17296725511550903,-0.620974600315094
1667824348335715600,4.272715576171875,0.6881759762763977,-0.419760525226593,-0.6188874840736389
1667824348345723600,4.2827236328125,0.8704233169555664,-0.6485015749931335,-0.6481001973152161
1667824348355730400,4.29273046875,1.0124456882476807,-0.7932097315788269,-0.6658733487129211
1667824348365738800,4.30273876953125,1.1201918125152588,-0.8514876961708069,-0.6597645878791809
1667824348375746600,4.31274658203125,1.198464035987854,-0.8486109375953674,-0.6188709735870361
1667824348385754600,4.322754638671875,1.244428277015686,-0.8039449453353882,-0.5540466904640198
1667824348395762400,4.332762451171875,1.2558993101119995,-0.7280299663543701,-0.4715113341808319
1667824348405770500,4.3427705078125,1.2425422668457031,-0.6625342965126038,-0.41244587302207947
1667824348415778600,4.352778564453125,1.2202329635620117,-0.5974830985069275,-0.37590038776397705
1667824348425786400,4.362786376953125,1.1881213188171387,-0.5435269474983215,-0.3662080764770508
1667824348435794700,4.372794677734375,1.158630609512329,-0.4987509548664093,-0.35862553119659424
1667824348445801500,4.382801513671875,1.1377623081207275,-0.44190123677253723,-0.3321121633052826
1667824348455809500,4.3928095703125,1.1143070459365845,-0.3762654960155487,-0.25670474767684937
1667824348465817300,4.4028173828125,1.0816264152526855,-0.3364824056625366,-0.1503032147884369
1667824348475825700,4.41282568359375,1.0230181217193604,-0.3139621913433075,-0.0017273263074457645
1667824348485833700,4.422833740234375,0.9537025094032288,-0.2937418818473816,0.17563973367214203
1667824348495841500,4.432841552734375,0.8788820505142212,-0.26250457763671875,0.35331279039382935
1667824348505849600,4.442849609375,0.8067340850830078,-0.18820133805274963,0.5101479291915894
1667824348515857400,4.452857421875,0.7272323369979858,-0.0648980364203453,0.6295555830001831
1667824348525864700,4.46286474609375,0.6514054536819458,0.06792286038398743,0.6988214254379272
1667824348535872500,4.47287255859375,0.5867679119110107,0.2103729397058487,0.7161109447479248
1667824348545880600,4.482880615234375,0.537289559841156,0.35523560643196106,0.6882748007774353
1667824348555888600,4.492888671875,0.5085993409156799,0.47744113206863403,0.6334959864616394
1667824348565896400,4.502896484375,0.4927164912223816,0.5683270692825317,0.5676525235176086
1667824348575904500,4.512904541015625,0.48011282086372375,0.6342453956604004,0.49358415603637695
1667824348585912600,4.52291259765625,0.4672028720378876,0.6830374598503113,0.4183613061904907
1667824348595920600,4.532920654296875,0.46407338976860046,0.7027674317359924,0.35183578729629517
1667824348605928700,4.5429287109375,0.449014812707901,0.6923257112503052,0.2922278642654419
1667824348615935500,4.552935546875,0.42178478837013245,0.6904197335243225,0.24070821702480316
1667824348625943600,4.562943603515625,0.38328906893730164,0.716842532157898,0.2023903876543045
1667824348635951600,4.57295166015625,0.3517247438430786,0.7409238815307617,0.1809745728969574
1667824348645959700,4.582959716796875,0.3198288679122925,0.7496231198310852,0.16970515251159668
1667824348655967500,4.592967529296875,0.3060709834098816,0.7600855827331543,0.1700415015220642
1667824348665975600,4.6029755859375,0.3057151734828949,0.7686644792556763,0.18589690327644348
1667824348675983600,4.612983642578125,0.3122766613960266,0.756747841835022,0.20960569381713867
1667824348685991400,4.622991455078125,0.31974631547927856,0.7202170491218567,0.23365457355976105
1667824348695998500,4.63299853515625,0.3260348439216614,0.6698124408721924,0.25560781359672546
1667824348706006500,4.643006591796875,0.3364427387714386,0.6076787710189819,0.26529186964035034
1667824348716014600,4.6530146484375,0.34058552980422974,0.5568419694900513,0.2637863755226135
1667824348726022400,4.6630224609375,0.33652210235595703,0.5381143093109131,0.2604760527610779
1667824348736030500,4.673030517578125,0.3235700726509094,0.548645555973053,0.26388677954673767
1667824348746038500,4.68303857421875,0.29969802498817444,0.599906325340271,0.2860053777694702
1667824348756046600,4.693046630859375,0.27637192606925964,0.6442524790763855,0.3130370080471039
1667824348766054700,4.7030546875,0.254076212644577,0.6584636569023132,0.33532580733299255
1667824348776062500,4.7130625,0.24637942016124725,0.6283991932868958,0.34592652320861816
1667824348786069500,4.723069580078125,0.24966415762901306,0.5502809882164001,0.31760913133621216
1667824348796077600,4.73307763671875,0.25554949045181274,0.4422573149204254,0.24129730463027954
1667824348806085600,4.743085693359375,0.2480580061674118,0.33865368366241455,0.13055241107940674
1667824348816093400,4.753093505859375,0.22801825404167175,0.2604292035102844,0.006042446009814739
1667824348826101500,4.7631015625,0.1873943954706192,0.2249273955821991,-0.10620073974132538
1667824348836109300,4.773109375,0.13726970553398132,0.2661624550819397,-0.18678613007068634
1667824348846117400,4.783117431640625,0.08911655843257904,0.347252756357193,-0.2259140908718109
1667824348856125700,4.793125732421875,0.05030524730682373,0.42648234963417053,-0.2258206158876419
1667824348866132500,4.803132568359375,0.019216038286685944,0.48393285274505615,-0.20009048283100128
1667824348876140500,4.813140625,0.004088218789547682,0.5076320767402649,-0.1616046130657196
1667824348886148400,4.8231484375,0.00535588338971138,0.509799063205719,-0.11318061500787735
1667824348896156700,4.83315673828125,0.015208513475954533,0.49991101026535034,-0.05150313675403595
1667824348906164500,4.84316455078125,0.017405888065695763,0.46720847487449646,0.020299678668379784
1667824348916172500,4.853172607421875,-0.007661914452910423,0.41480037569999695,0.09201753884553909
1667824348926180600,4.8631806640625,-0.047868721187114716,0.35774028301239014,0.15895450115203857
1667824348936188400,4.8731884765625,-0.07570328563451767,0.2974916100502014,0.21555785834789276
1667824348946196500,4.883196533203125,-0.08802866190671921,0.22605817019939423,0.2659144997596741
1667824348956203500,4.89320361328125,-0.10270453989505768,0.13423050940036774,0.29947832226753235
1667824348966211600,4.903211669921875,-0.1230526864528656,0.021325528621673584,0.31956547498703003
1667824348976219400,4.913219482421875,-0.1476677507162094,-0.13471440970897675,0.31961527466773987
1667824348986227500,4.9232275390625,-0.1900985687971115,-0.3126330077648163,0.2893495261669159
1667824348996235500,4.933235595703125,-0.24356605112552643,-0.4950270354747772,0.21606439352035522
1667824349006243600,4.94324365234375,-0.3018288314342499,-0.6481444239616394,0.10607876628637314
1667824349016251600,4.953251708984375,-0.3556672930717468,-0.7576234936714172,-0.019483420997858047
1667824349026259500,4.963259521484375,-0.4190768897533417,-0.8396483659744263,-0.17103353142738342
1667824349036266500,4.9732666015625,-0.4873523414134979,-0.8876984119415283,-0.35458338260650635
1667824349046274300,4.9832744140625,-0.5357387661933899,-0.8955824375152588,-0.557020366191864
1667824349056282600,4.99328271484375,-0.5603370666503906,-0.8643845915794373,-0.7600073218345642
1667824349066290700,5.003290771484375,-0.5577301383018494,-0.7813424468040466,-0.9384018182754517
1667824349076298500,5.013298583984375,-0.5371707677841187,-0.653110682964325,-1.067031741142273
1667824349086306600,5.023306640625,-0.4971463978290558,-0.4769305884838104,-1.1311161518096924
1667824349096314400,5.033314453125,-0.447928786277771,-0.27406245470046997,-1.1100739240646362
1667824349106322400,5.043322509765625,-0.39432308077812195,-0.11685151606798172,-1.0242565870285034
1667824349116329500,5.05332958984375,-0.3355756103992462,-0.022546853870153427,-0.8903051614761353
1667824349126337500,5.063337646484375,-0.2573023736476898,-0.030288396403193474,-0.7551313042640686
1667824349136345600,5.073345703125,-0.208443745970726,-0.06430096179246902,-0.6058512926101685
1667824349146353400,5.083353515625,-0.20663680136203766,-0.12533794343471527,-0.45196425914764404
1667824349156361500,5.093361572265625,-0.22779561579227448,-0.2097652107477188,-0.3022597134113312
1667824349166369500,5.10336962890625,-0.24886547029018402,-0.25035497546195984,-0.14631061255931854
1667824349176377600,5.113377685546875,-0.2573375403881073,-0.2526839077472687,0.008436894044280052
1667824349186385700,5.1233857421875,-0.25528743863105774,-0.23938143253326416,0.14886963367462158
1667824349196393500,5.1333935546875,-0.2500753402709961,-0.22729040682315826,0.2728661596775055
1667824349206400500,5.143400390625,-0.2520335614681244,-0.24939890205860138,0.374146431684494
1667824349216408600,5.15340869140625,-0.25247111916542053,-0.3151099979877472,0.4308624565601349
1667824349226416600,5.163416748046875,-0.23700828850269318,-0.37544286251068115,0.4507107138633728
1667824349236424400,5.173424560546875,-0.19540438055992126,-0.44037073850631714,0.44511914253234863
1667824349246432500,5.1834326171875,-0.15297037363052368,-0.5209617018699646,0.4149218201637268
1667824349256440300,5.1934404296875,-0.12790364027023315,-0.6190571188926697,0.3736790418624878
1667824349266448400,5.203448486328125,-0.14390043914318085,-0.6881411075592041,0.33685845136642456
1667824349276456700,5.213456787109375,-0.1856343150138855,-0.6815207600593567,0.3213876187801361
1667824349286463500,5.22346337890625,-0.24596236646175385,-0.6128679513931274,0.3292985260486603
1667824349296471600,5.233471435546875,-0.3233509063720703,-0.4956129491329193,0.3619433045387268
1667824349306479400,5.243479248046875,-0.4092671275138855,-0.36614468693733215,0.3839434087276459
1667824349316487400,5.2534873046875,-0.510318398475647,-0.2786577343940735,0.3766458034515381
1667824349326495500,5.26349560546875,-0.603123664855957,-0.25967949628829956,0.3322810232639313
1667824349336503600,5.273503662109375,-0.6707450747489929,-0.28179439902305603,0.2586805522441864
1667824349346511600,5.28351171875,-0.7114240527153015,-0.3269866406917572,0.167200967669487
1667824349356519400,5.29351953125,-0.7331171035766602,-0.3894161880016327,0.07232106477022171
1667824349366527500,5.303527587890625,-0.757489800453186,-0.4352920651435852,-0.01974174752831459
1667824349376534500,5.313534423828125,-0.7905987501144409,-0.4417654275894165,-0.09214137494564056
1667824349386542600,5.32354248046875,-0.8292407393455505,-0.40810734033584595,-0.15008829534053802
1667824349396550400,5.33355029296875,-0.867245078086853,-0.3116905093193054,-0.17376646399497986
1667824349406558500,5.343558349609375,-0.9034312963485718,-0.16614876687526703,-0.16931365430355072
1667824349416566500,5.35356640625,-0.9313220977783203,0.008242216892540455,-0.1474222093820572
1667824349426574600,5.36357470703125,-0.9486390352249146,0.15895263850688934,-0.11855647712945938
1667824349436582700,5.373582763671875,-0.9588956236839294,0.2708325684070587,-0.08874824643135071
1667824349446590500,5.383590576171875,-0.9458365440368652,0.3334980607032776,-0.06262050569057465
1667824349456597500,5.393597412109375,-0.9233200550079346,0.3335113823413849,-0.0527590848505497
1667824349466605300,5.403605224609375,-0.8947927951812744,0.2891295552253723,-0.059415124356746674
1667824349476613600,5.413613525390625,-0.8704078793525696,0.20032057166099548,-0.08640306442975998
1667824349486621700,5.42362158203125,-0.84685218334198,0.11150096356868744,-0.1334613859653473
1667824349496629500,5.43362939453125,-0.8155059814453125,0.04372857138514519,-0.18425558507442474
1667824349506637600,5.443637451171875,-0.7757785320281982,-0.00039760995423421264,-0.2518269121646881
1667824349516645400,5.453645263671875,-0.7227877974510193,-0.020971328020095825,-0.32449790835380554
1667824349526653400,5.4636533203125,-0.6669830679893494,-0.05355031043291092,-0.3903392553329468
1667824349536660500,5.473660400390625,-0.640404224395752,-0.0791558027267456,-0.44561290740966797
1667824349546668500,5.48366845703125,-0.6195634007453918,-0.0688624233007431,-0.5072386860847473
1667824349556676600,5.493676513671875,-0.5816575288772583,-0.011489409022033215,-0.5747660994529724
1667824349566684400,5.503684326171875,-0.5144569277763367,0.07402442395687103,-0.6432631015777588
1667824349576692500,5.5136923828125,-0.424018919467926,0.15475815534591675,-0.700690746307373
1667824349586700500,5.523700439453125,-0.3210592567920685,0.22263173758983612,-0.742023229598999
1667824349596708600,5.53370849609375,-0.2013123333454132,0.2812007665634155,-0.7543883323669434
1667824349606716400,5.54371630859375,-0.06512174755334854,0.3365207612514496,-0.7384354472160339
1667824349616723500,5.553723388671875,0.09540960937738419,0.37471529841423035,-0.6752604842185974
1667824349626731500,5.5637314453125,0.26746711134910583,0.39875590801239014,-0.584298849105835
1667824349636739600,5.573739501953125,0.4507208466529846,0.42958706617355347,-0.46423211693763733
1667824349646747600,5.58374755859375,0.6294870972633362,0.42320212721824646,-0.32103395462036133
1667824349656755500,5.59375537109375,0.7979691028594971,0.35082006454467773,-0.17119917273521423
1667824349666763500,5.603763427734375,0.9534966349601746,0.2121250331401825,-0.027467843145132065
1667824349676771300,5.613771240234375,1.106567144393921,0.031032750383019447,0.09178850799798965
1667824349686779100,5.623779052734375,1.2341567277908325,-0.16410265862941742,0.16283018887043
1667824349696786200,5.6337861328125,1.3186311721801758,-0.4033498466014862,0.15195012092590332
1667824349706794000,5.6437939453125,1.339450716972351,-0.6720572113990784,0.058460913598537445
1667824349716802000,5.653802001953125,1.2929812669754028,-0.917235255241394,-0.09634144604206085
1667824349726810000,5.66381005859375,1.1965702772140503,-1.153638243675232,-0.26348596811294556
1667824349736818200,5.673818115234375,1.0691214799880981,-1.2391581535339355,-0.37041375041007996
1667824349746826200,5.683826171875,0.9314664006233215,-1.071382999420166,-0.37278929352760315
1667824349756834000,5.693833984375,0.7971754670143127,-0.676261305809021,-0.2945445477962494
1667824349766842000,5.703842041015625,0.7029240727424622,-0.1639857441186905,-0.1353173404932022
1667824349776850200,5.71385009765625,0.6639050245285034,0.28082579374313354,0.05221446976065636
1667824349786857200,5.723857177734375,0.6633545160293579,0.5677648782730103,0.22287195920944214
1667824349796865300,5.733865234375,0.6930176019668579,0.7129154205322266,0.36022982001304626
1667824349806873000,5.743873046875,0.7483291029930115,0.7147554159164429,0.45258957147598267
1667824349816881200,5.753881103515625,0.8182887434959412,0.6197511553764343,0.502692699432373
1667824349826889000,5.763888916015625,0.8629826903343201,0.5189654231071472,0.5438355803489685
1667824349836897000,5.77389697265625,0.8671944737434387,0.4604429602622986,0.5952468514442444
1667824349846905300,5.7839052734375,0.831313967704773,0.4542202353477478,0.6682454347610474
1667824349856913200,5.7939130859375,0.7858261466026306,0.47943317890167236,0.7604584693908691
1667824349866920200,5.803920166015625,0.7455160021781921,0.5173690915107727,0.8590840697288513
1667824349876928000,5.813927978515625,0.7166193723678589,0.5390205979347229,0.9440674185752869
1667824349886936000,5.82393603515625,0.6929143071174622,0.5078959465026855,0.9975786209106445
1667824349896944000,5.833944091796875,0.6509647369384766,0.45591241121292114,1.0116169452667236
1667824349906952200,5.8439521484375,0.593034565448761,0.40541699528694153,0.9746495485305786
1667824349916960300,5.853960205078125,0.5285090804100037,0.3526637852191925,0.8913568258285522
1667824349926968000,5.863968017578125,0.45596832036972046,0.2769671678543091,0.7699393033981323
1667824349936976100,5.87397607421875,0.381093293428421,0.18365132808685303,0.6111744046211243
1667824349946983200,5.883983154296875,0.32660821080207825,0.12453047931194305,0.4521951675415039
1667824349956991200,5.8939912109375,0.2904294431209564,0.070309579372406,0.3006855249404907
1667824349966999000,5.9039990234375,0.25360244512557983,0.031325966119766235,0.17012405395507812
1667824349977007000,5.914007080078125,0.21186618506908417,0.042457178235054016,0.053822483867406845
1667824349987015200,5.92401513671875,0.18205955624580383,0.06883126497268677,-0.05693891644477844
1667824349997023200,5.934023193359375,0.1647183746099472,0.0786047950387001,-0.16685742139816284
1667824350007031300,5.94403125,0.15956036746501923,0.07147711515426636,-0.279518187046051
1667824350017039000,5.9540390625,0.17423225939273834,0.08494605123996735,-0.3754873275756836
1667824350027046100,5.964046142578125,0.19835303723812103,0.13762231171131134,-0.4362873136997223
1667824350037054000,5.974053955078125,0.22945556044578552,0.21010343730449677,-0.457643985748291
1667824350047062300,5.984062255859375,0.26211658120155334,0.2691270709037781,-0.4361829161643982
1667824350057070300,5.9940703125,0.28412678837776184,0.3082638084888458,-0.37475869059562683
1667824350067078100,6.004078125,0.3208206295967102,0.3405514657497406,-0.2711358964443207
1667824350077086200,6.014086181640625,0.3719693124294281,0.35027173161506653,-0.14363253116607666
1667824350087094000,6.024093994140625,0.4264189600944519,0.368089884519577,0.01847860962152481
1667824350097102000,6.03410205078125,0.4706524610519409,0.40321776270866394,0.2067188173532486
1667824350107109000,6.044109130859375,0.4954824447631836,0.41069912910461426,0.40012049674987793
1667824350117117200,6.0541171875,0.494372695684433,0.39477527141571045,0.5741823315620422
1667824350127125000,6.064125,0.4699917435646057,0.35028478503227234,0.7086591720581055
1667824350137133000,6.074133056640625,0.4127870500087738,0.2565665543079376,0.7833528518676758
1667824350147141000,6.08414111328125,0.33300966024398804,0.1494177132844925,0.7956766486167908
1667824350157149200,6.094149169921875,0.22520461678504944,0.056055013090372086,0.7475826144218445
1667824350167157200,6.1041572265625,0.09962485730648041,0.009913084097206593,0.6500754952430725
1667824350177165000,6.1141650390625,-0.019895676523447037,0.03050864115357399,0.521527111530304
1667824350187173000,6.124173095703125,-0.11331111192703247,0.1272314488887787,0.3842240869998932
1667824350197180200,6.13418017578125,-0.1716897338628769,0.2755386233329773,0.2582792341709137
1667824350207188200,6.144188232421875,-0.189895898103714,0.4372684061527252,0.16723985970020294
1667824350217196300,6.1541962890625,-0.16866518557071686,0.5713133215904236,0.11932932585477829
1667824350227204000,6.1642041015625,-0.12848074734210968,0.6508054733276367,0.09980195760726929
1667824350237212200,6.174212158203125,-0.08501715958118439,0.6169886589050293,0.09645836055278778
1667824350247220000,6.184219970703125,-0.06468205899000168,0.44615432620048523,0.08683156967163086
1667824350257228000,6.19422802734375,-0.07612645626068115,0.18238605558872223,0.06057785823941231
1667824350267236400,6.204236328125,-0.10424171388149261,-0.08454311639070511,0.04097006842494011
1667824350277243100,6.2142431640625,-0.14776203036308289,-0.2906920313835144,0.030122216790914536
1667824350287251200,6.224251220703125,-0.20318187773227692,-0.4304211437702179,0.028777319937944412
1667824350297259000,6.234259033203125,-0.27026185393333435,-0.4909833073616028,0.0062826634384691715
1667824350307267000,6.24426708984375,-0.33136194944381714,-0.4996398985385895,-0.034811511635780334
1667824350317275100,6.254275146484375,-0.3726491928100586,-0.4989916980266571,-0.1168440580368042
1667824350327283200,6.264283203125,-0.4079643189907074,-0.5292731523513794,-0.24443557858467102
1667824350337291300,6.274291259765625,-0.44539985060691833,-0.5879375338554382,-0.4209243357181549
1667824350347299000,6.284299072265625,-0.4834532141685486,-0.6488307118415833,-0.6296644806861877
1667824350357306400,6.294306396484375,-0.5127725005149841,-0.6740902662277222,-0.8412579894065857
1667824350367314200,6.304314208984375,-0.5265966653823853,-0.6259579062461853,-1.0178412199020386
1667824350377322200,6.314322265625,-0.5292214751243591,-0.5175792574882507,-1.1429134607315063
1667824350387330000,6.324330078125,-0.5135123133659363,-0.35871341824531555,-1.2032225131988525
1667824350397338000,6.334338134765625,-0.4629700481891632,-0.15217381715774536,-1.170318365097046
1667824350407346200,6.34434619140625,-0.3672666847705841,0.044141095131635666,-1.0693508386611938
1667824350417354000,6.35435400390625,-0.2527529001235962,0.24698768556118011,-0.8895573019981384
1667824350427362300,6.3643623046875,-0.16037023067474365,0.4078633785247803,-0.651545524597168
1667824350437369000,6.374369140625,-0.09621921181678772,0.4775705635547638,-0.398427277803421
1667824350447377200,6.384377197265625,-0.06472653150558472,0.4566487669944763,-0.14903181791305542
1667824350457385000,6.394385009765625,-0.05746009573340416,0.3728044629096985,0.08132388442754745
1667824350467393300,6.404393310546875,-0.07004326581954956,0.21558980643749237,0.2764132022857666
1667824350477401300,6.4144013671875,-0.10548621416091919,-0.004850681405514479,0.4363293945789337
1667824350487409200,6.4244091796875,-0.161110058426857,-0.2569415271282196,0.5419601798057556
1667824350497417200,6.434417236328125,-0.2303631603717804,-0.4894985854625702,0.5978865623474121
1667824350507425000,6.444425048828125,-0.28876203298568726,-0.6936373710632324,0.5926452279090881
1667824350517433000,6.45443310546875,-0.3315528929233551,-0.8400648832321167,0.5389971733093262
1667824350527440100,6.464440185546875,-0.3639523983001709,-0.8948295712471008,0.4592709243297577
1667824350537448200,6.4744482421875,-0.39217549562454224,-0.8658559918403625,0.36627545952796936
1667824350547456000,6.4844560546875,-0.42331504821777344,-0.7842831015586853,0.2615213394165039
1667824350557464000,6.494464111328125,-0.4596727788448334,-0.6520147919654846,0.15423190593719482
1667824350567472000,6.50447216796875,-0.5001807808876038,-0.4831642508506775,0.05023227632045746
1667824350577480200,6.514480224609375,-0.543873131275177,-0.3439704179763794,-0.05456071346998215
1667824350587488300,6.52448828125,-0.5904015302658081,-0.25665682554244995,-0.1332712322473526
1667824350597496000,6.53449609375,-0.6194331645965576,-0.19793705642223358,-0.1778687983751297
1667824350607503000,6.544503173828125,-0.6281595230102539,-0.17141196131706238,-0.19035209715366364
1667824350617511000,6.554510986328125,-0.6317702531814575,-0.18331949412822723,-0.16787847876548767
1667824350627519200,6.564519287109375,-0.65175461769104,-0.20214644074440002,-0.11616388708353043
1667824350637527300,6.57452734375,-0.6939244270324707,-0.2341507077217102,-0.040776725858449936
1667824350647535000,6.58453515625,-0.7537286281585693,-0.26389530301094055,0.05861430987715721
1667824350657543200,6.594543212890625,-0.8219625353813171,-0.27693626284599304,0.17140796780586243
1667824350667551000,6.604551025390625,-0.8931067585945129,-0.270212322473526,0.2689558267593384
1667824350677558300,6.614558349609375,-0.9604285359382629,-0.2593575417995453,0.33771491050720215
1667824350687566800,6.62456689453125,-1.00434410572052,-0.22993172705173492,0.3680459260940552
1667824350697575000,6.634574951171875,-1.0266832113265991,-0.176764115691185,0.36770185828208923
1667824350707582700,6.644582763671875,-1.024909496307373,-0.143585667014122,0.33410340547561646
1667824350717590800,6.6545908203125,-1.018860936164856,-0.1194869801402092,0.2769562304019928
1667824350727598600,6.6645986328125,-1.0068926811218262,-0.11619025468826294,0.1886838972568512
1667824350737606700,6.674606689453125,-0.9969106912612915,-0.13473623991012573,0.07312880456447601
1667824350747615000,6.684614990234375,-0.9900088310241699,-0.17827759683132172,-0.06333103775978088
1667824350757621800,6.694621826171875,-0.9807247519493103,-0.21393705904483795,-0.20239491760730743
1667824350767629800,6.7046298828125,-0.9683482646942139,-0.22681529819965363,-0.3474607467651367
1667824350777637600,6.7146376953125,-0.9499927163124084,-0.2249249964952469,-0.49124082922935486
1667824350787645700,6.724645751953125,-0.9293550848960876,-0.20858968794345856,-0.619558572769165
1667824350797653800,6.73465380859375,-0.9058148264884949,-0.1956738978624344,-0.7433737516403198
1667824350807661800,6.744661865234375,-0.8764982223510742,-0.1781894415616989,-0.8491808772087097
1667824350817670000,6.754669921875,-0.828456699848175,-0.14524348080158234,-0.9271941781044006
1667824350827677700,6.764677734375,-0.7570496201515198,-0.09952579438686371,-0.9575827121734619
1667824350837685000,6.77468505859375,-0.6614088416099548,-0.038532745093107224,-0.942564070224762
1667824350847692800,6.78469287109375,-0.5561540722846985,0.01866023615002632,-0.892576277256012
1667824350857700900,6.794700927734375,-0.4430501461029053,0.0737469270825386,-0.8149864077568054
1667824350867708700,6.804708740234375,-0.3175702393054962,0.11222454160451889,-0.7193030118942261
1667824350877716700,6.814716796875,-0.17231211066246033,0.13027597963809967,-0.6166599988937378
1667824350887724800,6.824724853515625,-0.0005171858938410878,0.13051460683345795,-0.497841477394104
1667824350897732600,6.834732666015625,0.1844710409641266,0.12015943229198456,-0.37762078642845154
1667824350907741000,6.844740966796875,0.3759440779685974,0.07079214602708817,-0.26433923840522766
1667824350917747700,6.854747802734375,0.5684165954589844,-0.015211976133286953,-0.17867973446846008
1667824350927755800,6.864755859375,0.7525808215141296,-0.11978232860565186,-0.11606615036725998
1667824350937763600,6.874763671875,0.9200949668884277,-0.21695281565189362,-0.06233474612236023
1667824350947772000,6.88477197265625,1.0601285696029663,-0.2888685464859009,-0.022772423923015594
1667824350957779700,6.89477978515625,1.184725284576416,-0.32698026299476624,0.00088976213010028
1667824350967787800,6.904787841796875,1.2802348136901855,-0.3280918598175049,0.00993438996374607
1667824350977795800,6.9147958984375,1.3586848974227905,-0.28446394205093384,0.025482190772891045
1667824350987803600,6.9248037109375,1.4137225151062012,-0.2126917541027069,0.055509865283966064
1667824350997811000,6.93481103515625,1.449973702430725,-0.11046632379293442,0.1069893017411232
1667824351007818800,6.94481884765625,1.4741382598876953,0.03707093745470047,0.20087078213691711
1667824351017826800,6.954826904296875,1.4855690002441406,0.1729360967874527,0.3201234042644501
1667824351027834600,6.964834716796875,1.484500527381897,0.2652399241924286,0.4574895203113556
1667824351037842700,6.9748427734375,1.4679440259933472,0.2891298234462738,0.5916070938110352
1667824351047850800,6.984850830078125,1.433234691619873,0.2411247342824936,0.699130654335022
1667824351057858800,6.99485888671875,1.3764718770980835,0.15922720730304718,0.7607734799385071
1667824351067867000,7.004866943359375,1.287835717201233,0.05994482710957527,0.7692106366157532
1667824351077873700,7.014873779296875,1.1637248992919922,-0.02051299810409546,0.7444373965263367
1667824351087881700,7.0248818359375,1.0155549049377441,-0.07387342303991318,0.6983394026756287
1667824351097889500,7.0348896484375,0.859184205532074,-0.09041351824998856,0.6286932229995728
1667824351107897900,7.04489794921875,0.7146432995796204,-0.03735429793596268,0.5502471327781677
1667824351117906000,7.054906005859375,0.5997025966644287,0.08346106857061386,0.4627796411514282
1667824351127913700,7.064913818359375,0.5209856629371643,0.19678843021392822,0.3541801869869232
1667824351137921800,7.074921875,0.46615466475486755,0.29696589708328247,0.24316604435443878
1667824351147929600,7.0849296875,0.44022664427757263,0.4006060063838959,0.15252482891082764
1667824351157937000,7.09493701171875,0.4237890839576721,0.49871471524238586,0.09574437141418457
1667824351167944700,7.10494482421875,0.4132610857486725,0.5779107213020325,0.06832925975322723
1667824351177952800,7.114952880859375,0.38998985290527344,0.6562191247940063,0.07657546550035477
1667824351187960800,7.1249609375,0.37060976028442383,0.7377877831459045,0.11421099305152893
1667824351197968600,7.13496875,0.3483145833015442,0.7907665371894836,0.1727571338415146
1667824351207976700,7.144976806640625,0.33298835158348083,0.8160141110420227,0.25501418113708496
1667824351217984800,7.15498486328125,0.331636518239975,0.806728184223175,0.33232975006103516
1667824351227992800,7.164992919921875,0.339251846075058,0.7434099316596985,0.3993220925331116
1667824351238001000,7.1750009765625,0.3455749750137329,0.6306357383728027,0.4394412934780121
1667824351248007700,7.185007568359375,0.35168692469596863,0.5153634548187256,0.45140740275382996
1667824351258015700,7.195015625,0.3500309884548187,0.4093979001045227,0.4493069648742676
1667824351268023800,7.20502392578125,0.3437693417072296,0.3202456533908844,0.4310677647590637
1667824351278032000,7.215031982421875,0.3345460295677185,0.2693987190723419,0.39746880531311035
1667824351288039700,7.225039794921875,0.31251049041748047,0.25399526953697205,0.3496123254299164
1667824351298047700,7.2350478515625,0.28875431418418884,0.2577223479747772,0.29054713249206543
1667824351308055800,7.245055908203125,0.2627951502799988,0.244904026389122,0.23232485353946686
1667824351318062800,7.255062744140625,0.24396899342536926,0.2529294490814209,0.18256288766860962
1667824351328071000,7.26507080078125,0.2386418730020523,0.25646960735321045,0.1489119827747345
1667824351338078700,7.27507861328125,0.23759444057941437,0.24974672496318817,0.1273997724056244
1667824351348086800,7.285086669921875,0.22164557874202728,0.22584617137908936,0.128643199801445
1667824351358094600,7.295094482421875,0.19579853117465973,0.20126093924045563,0.1401054412126541
1667824351368103000,7.30510302734375,0.1611982136964798,0.19265733659267426,0.16188876330852509
1667824351378110700,7.31511083984375,0.12420050799846649,0.21428778767585754,0.19595831632614136
1667824351388118800,7.325118896484375,0.08381766825914383,0.27310609817504883,0.23556751012802124
1667824351398125600,7.33512548828125,0.04253627359867096,0.34627431631088257,0.28323888778686523
1667824351408133600,7.345133544921875,0.0011371697764843702,0.3854813873767853,0.3218608498573303
1667824351418142000,7.355141845703125,-0.04662662371993065,0.3601464629173279,0.338064581155777
1667824351428149800,7.365149658203125,-0.10951157659292221,0.2747926712036133,0.32695549726486206
1667824351438157800,7.37515771484375,-0.1840507984161377,0.13900715112686157,0.2777937948703766
1667824351448165600,7.38516552734375,-0.2674761712551117,-0.006741259712725878,0.1967221200466156
1667824351458173700,7.395173583984375,-0.34612226486206055,-0.10410136729478836,0.1123608946800232
1667824351468181800,7.405181640625,-0.42085641622543335,-0.12102335691452026,0.03538275882601738
1667824351478188800,7.415188720703125,-0.5005776286125183,-0.0655134990811348,-0.022972427308559418
1667824351488196900,7.42519677734375,-0.5759581327438354,0.0433831587433815,-0.03401176258921623
1667824351498204700,7.43520458984375,-0.637414813041687,0.1771199256181717,-0.0024109596852213144
1667824351508212700,7.445212646484375,-0.6570394039154053,0.32940611243247986,0.07854301482439041
1667824351518220500,7.455220458984375,-0.6379426717758179,0.45161885023117065,0.1832619607448578
1667824351528228900,7.465228759765625,-0.5928702354431152,0.5238208770751953,0.2922145426273346
1667824351538237000,7.47523681640625,-0.5459131598472595,0.5060408115386963,0.37523353099823
1667824351548244700,7.48524462890625,-0.5109623670578003,0.41348797082901,0.42276322841644287
1667824351558251800,7.495251708984375,-0.4943077266216278,0.2748875021934509,0.4264626204967499
1667824351568259800,7.505259765625,-0.49424752593040466,0.11058909446001053,0.4084005355834961
1667824351578268000,7.515267822265625,-0.5000074505805969,-0.03585973009467125,0.38823217153549194
1667824351588275700,7.525275634765625,-0.5040628910064697,-0.15205956995487213,0.37259966135025024
1667824351598283800,7.53528369140625,-0.5102041363716125,-0.2534836530685425,0.3595123589038849
1667824351608291800,7.545291748046875,-0.5121408104896545,-0.36984676122665405,0.3352472484111786
1667824351618299600,7.555299560546875,-0.5087050199508667,-0.5125887393951416,0.26829564571380615
1667824351628307700,7.5653076171875,-0.5059816837310791,-0.7096695899963379,0.1305883675813675
1667824351638314800,7.575314697265625,-0.5164684057235718,-0.9855509400367737,-0.11036405712366104
1667824351648322800,7.58532275390625,-0.5384301543235779,-1.313155174255371,-0.46156948804855347
1667824351658330600,7.59533056640625,-0.5541574954986572,-1.5804438591003418,-0.8593866229057312
1667824351668338700,7.605338623046875,-0.547452986240387,-1.7170944213867188,-1.2167527675628662
1667824351678346800,7.6153466796875,-0.5341414213180542,-1.6695716381072998,-1.4854017496109009
1667824351688354000,7.62535400390625,-0.533340334892273,-1.3821837902069092,-1.6162189245224
1667824351698362000,7.635362060546875,-0.5271575450897217,-0.8992477655410767,-1.583406686782837
1667824351708370000,7.645369873046875,-0.4875515401363373,-0.3717498481273651,-1.4178049564361572
1667824351718377200,7.655377197265625,-0.4042865037918091,0.05637113004922867,-1.1595888137817383
1667824351728385000,7.665385009765625,-0.282541960477829,0.30970245599746704,-0.8770649433135986
1667824351738393000,7.67539306640625,-0.14291134476661682,0.3711053729057312,-0.6029567122459412
1667824351748401000,7.68540087890625,-0.008166316896677017,0.2946321666240692,-0.3469182848930359
1667824351758409000,7.695408935546875,0.09404420852661133,0.14303624629974365,-0.11934556812047958
1667824351768417000,7.7054169921875,0.15091361105442047,-0.0419573038816452,0.0850488469004631
1667824351778425000,7.715425048828125,0.18018308281898499,-0.24786706268787384,0.24789848923683167
1667824351788433200,7.72543310546875,0.18083955347537994,-0.46287471055984497,0.37969833612442017
1667824351798440000,7.73543994140625,0.1556130349636078,-0.6244734525680542,0.47926726937294006
1667824351808448000,7.745447998046875,0.10612377524375916,-0.7092354893684387,0.5457280278205872
1667824351818455800,7.755455810546875,0.05844679847359657,-0.7120869159698486,0.5707284808158875
1667824351828464000,7.765464111328125,0.01667671464383602,-0.6418047547340393,0.5594651699066162
1667824351838472200,7.77547216796875,-0.03171292319893837,-0.527877926826477,0.502398669719696
1667824351848480000,7.78547998046875,-0.08253775537014008,-0.4033440053462982,0.4063088893890381
1667824351858488000,7.795488037109375,-0.12897635996341705,-0.29888683557510376,0.29011279344558716
1667824351868495000,7.8054951171875,-0.17581337690353394,-0.23700030148029327,0.17089425027370453
1667824351878503200,7.815503173828125,-0.2155754268169403,-0.2117237001657486,0.06731006503105164
1667824351888511000,7.825510986328125,-0.2350418120622635,-0.1975298523902893,0.010192450135946274
1667824351898519000,7.83551904296875,-0.24185363948345184,-0.17605625092983246,0.02070794068276882
1667824351908526800,7.84552685546875,-0.252953439950943,-0.1276319921016693,0.09270410239696503
1667824351918535000,7.855534912109375,-0.2830202579498291,-0.058277156203985214,0.22204478085041046
1667824351928543000,7.86554296875,-0.33766138553619385,0.034500185400247574,0.38776957988739014
1667824351938551000,7.875551025390625,-0.42600217461586,0.12213309854269028,0.5643219947814941
1667824351948558000,7.88555810546875,-0.5504983067512512,0.21255327761173248,0.7172755599021912
1667824351958566000,7.89556591796875,-0.6885799765586853,0.2729228734970093,0.8178458213806152
1667824351968574000,7.905573974609375,-0.8371468186378479,0.2523361146450043,0.8628266453742981
1667824351978582000,7.91558203125,-0.9901358485221863,0.196337029337883,0.8361345529556274
1667824351988590000,7.925590087890625,-1.142960548400879,0.1442682296037674,0.753146767616272
1667824351998598100,7.93559814453125,-1.275513768196106,0.1280066967010498,0.6361010670661926
1667824352008606000,7.94560595703125,-1.3684059381484985,0.16258572041988373,0.49352556467056274
1667824352018614000,7.955614013671875,-1.4278466701507568,0.2586246430873871,0.35269519686698914
1667824352028621000,7.96562109375,-1.4561927318572998,0.3805164396762848,0.2187853455543518
1667824352038629000,7.975629150390625,-1.467294454574585,0.4899151027202606,0.098897285759449
1667824352048637000,7.985636962890625,-1.4713150262832642,0.5690951347351074,0.0057348511181771755
1667824352058645000,7.99564501953125,-1.4670782089233398,0.6394385695457458,-0.07577385753393173
1667824352068653000,8.005653076171875,-1.461470127105713,0.6848563551902771,-0.14827175438404083
1667824352078660900,8.015660888671874,-1.4516217708587646,0.6554428339004517,-0.2271103858947754
1667824352088669200,8.025669189453126,-1.4510395526885986,0.5550621747970581,-0.31657475233078003
1667824352098677000,8.035677001953125,-1.4361215829849243,0.4105742275714874,-0.4172060191631317
1667824352108684000,8.04568408203125,-1.381577968597412,0.261625200510025,-0.5469746589660645
1667824352118691800,8.05569189453125,-1.2917619943618774,0.12440477311611176,-0.6857621073722839
1667824352128700000,8.065699951171876,-1.185176968574524,0.03645361587405205,-0.8123149871826172
1667824352138708200,8.075708251953126,-1.0845224857330322,-0.005379319190979004,-0.9177788496017456
1667824352148716000,8.085716064453125,-0.9965943098068237,-0.009705624543130398,-0.9954422116279602
1667824352158724000,8.09572412109375,-0.9001423120498657,0.033853571861982346,-1.0543038845062256
1667824352168732000,8.10573193359375,-0.7851861715316772,0.07876511663198471,-1.1007941961288452
1667824352178740000,8.115739990234376,-0.639123260974884,0.12845997512340546,-1.143242597579956
1667824352188747000,8.1257470703125,-0.45680829882621765,0.18830253183841705,-1.1607619524002075
1667824352198755000,8.135755126953125,-0.24868278205394745,0.24790620803833008,-1.1523998975753784
1667824352208763100,8.14576318359375,-0.016742493957281113,0.3180099129676819,-1.117456316947937
1667824352218771000,8.15577099609375,0.23214668035507202,0.3583677411079407,-1.056807279586792
1667824352228779000,8.165779052734376,0.49337854981422424,0.34734490513801575,-0.9811426401138306
1667824352238786800,8.175786865234375,0.7652041912078857,0.28986483812332153,-0.88719642162323
1667824352248795100,8.185795166015625,1.0508530139923096,0.18655230104923248,-0.7940129637718201
1667824352258802000,8.195802001953124,1.3299973011016846,0.022764168679714203,-0.7147786021232605
1667824352268810000,8.20581005859375,1.5772781372070312,-0.17570099234580994,-0.6680382490158081
1667824352278818000,8.215818115234375,1.768126130104065,-0.4054710566997528,-0.6592125296592712
1667824352288826000,8.225826171875,1.8805960416793823,-0.6636216640472412,-0.6914242506027222
1667824352298834200,8.235834228515625,1.9076260328292847,-0.9287401437759399,-0.7551553249359131
1667824352308842000,8.245842041015624,1.8687896728515625,-1.1587415933609009,-0.820915937423706
1667824352318850000,8.25585009765625,1.7789164781570435,-1.2649359703063965,-0.838259220123291
1667824352328857900,8.26585791015625,1.650517225265503,-1.1969414949417114,-0.758690357208252
1667824352338865200,8.275865234375,1.5106477737426758,-0.9418761730194092,-0.5843648910522461
1667824352348873000,8.285873046875,1.388714075088501,-0.5690194964408875,-0.3372078537940979
1667824352358881000,8.295881103515624,1.3115112781524658,-0.1886138617992401,-0.06948506832122803
1667824352368889000,8.30588916015625,1.2921923398971558,0.11157526075839996,0.19234921038150787
1667824352378897000,8.31589697265625,1.3157591819763184,0.2701374888420105,0.3995348811149597
1667824352388905000,8.325905029296875,1.346184492111206,0.2948918342590332,0.5435847043991089
1667824352398913000,8.3359130859375,1.359314203262329,0.253065824508667,0.6353045105934143
1667824352408921000,8.345921142578124,1.3487589359283447,0.1677597016096115,0.6918194890022278
1667824352418927900,8.355927978515625,1.304353952407837,0.07180574536323547,0.7294824123382568
1667824352428936000,8.36593603515625,1.2165604829788208,-0.013294766657054424,0.7406299114227295
1667824352438944000,8.375944091796875,1.0972412824630737,-0.05835305526852608,0.7306795120239258
1667824352448952000,8.3859521484375,0.9688212275505066,-0.07701648771762848,0.7045704126358032
1667824352458960100,8.395960205078126,0.8423514366149902,-0.06398084759712219,0.67184978723526
1667824352468968000,8.405968017578125,0.7215195894241333,-0.016047408804297447,0.6461068391799927
1667824352478976000,8.41597607421875,0.609772801399231,0.019103653728961945,0.6133257150650024
1667824352488983000,8.425983154296874,0.5031211972236633,0.052504751831293106,0.5758864879608154
1667824352498991000,8.4359912109375,0.4134219288825989,0.10692911595106125,0.5377878546714783
1667824352508999200,8.445999267578125,0.35396233201026917,0.16067783534526825,0.4961319863796234
1667824352519007000,8.456007080078125,0.31415286660194397,0.21080836653709412,0.4500561058521271
1667824352529015000,8.46601513671875,0.2949719727039337,0.26476508378982544,0.4108160436153412
1667824352539022800,8.47602294921875,0.2953837215900421,0.3119720220565796,0.3824847936630249
1667824352549031000,8.486031005859376,0.2959485650062561,0.325581818819046,0.3784676790237427
1667824352559039200,8.496039306640625,0.2922893762588501,0.3121030330657959,0.37805116176605225
1667824352569046000,8.5060458984375,0.2890288829803467,0.28584346175193787,0.38167011737823486
1667824352579054000,8.51605419921875,0.2884456515312195,0.2412232756614685,0.3764159679412842
1667824352589062000,8.526061767578126,0.2793924808502197,0.18839095532894135,0.3639233708381653
1667824352599070000,8.536070068359376,0.2642867863178253,0.13712003827095032,0.3425900936126709
1667824352609078000,8.546078125,0.2475416213274002,0.07830652594566345,0.32057666778564453
1667824352619086000,8.556086181640625,0.23673158884048462,0.0014415690675377846,0.2862197756767273
1667824352629094100,8.56609423828125,0.2375401258468628,-0.06096028909087181,0.25557824969291687
1667824352639102000,8.57610205078125,0.25512203574180603,-0.09923949837684631,0.2275276929140091
1667824352649109200,8.586109130859375,0.26980671286582947,-0.11693114787340164,0.20600563287734985
1667824352659117000,8.596116943359375,0.2658356726169586,-0.09826212376356125,0.19924598932266235
1667824352669125000,8.606125,0.22833064198493958,-0.01985839381814003,0.21788865327835083
1667824352679133000,8.6161328125,0.17073045670986176,0.13411040604114532,0.2658465802669525
1667824352689141500,8.6261416015625,0.10213169455528259,0.3389759361743927,0.3306439518928528
1667824352699149300,8.6361494140625,0.04387424886226654,0.5303539037704468,0.4003620445728302
1667824352709157400,8.646157470703125,0.0032626385800540447,0.6514805555343628,0.4593295156955719
1667824352719164400,8.656164306640624,-0.005928196478635073,0.6782735586166382,0.4923758804798126
1667824352729172500,8.66617236328125,-0.0019180085510015488,0.5767391920089722,0.48789429664611816
1667824352739180300,8.67618017578125,-0.00038988678716123104,0.37436720728874207,0.4377294182777405
1667824352749188400,8.686188232421875,-0.035346537828445435,0.1419358253479004,0.3417956829071045
1667824352759196400,8.696196533203125,-0.11141600459814072,-0.03229641914367676,0.2347336858510971
1667824352769204500,8.70620458984375,-0.20826318860054016,-0.10729396343231201,0.12216905504465103
1667824352779212500,8.716212646484376,-0.31107664108276367,-0.09540747851133347,0.03732660040259361
1667824352789220400,8.726220458984375,-0.39343997836112976,0.043415915220975876,-0.0027744811959564686
1667824352799227400,8.736227294921875,-0.4357067346572876,0.2578025162220001,-0.009280317462980747
1667824352809235500,8.7462353515625,-0.42933139204978943,0.4764448404312134,0.017469272017478943
1667824352819243500,8.756243408203124,-0.38647207617759705,0.6242771744728088,0.05186346545815468
1667824352829251600,8.76625146484375,-0.3248382806777954,0.7000611424446106,0.0914343073964119
1667824352839259400,8.77625927734375,-0.254226952791214,0.6843684911727905,0.1365322768688202
1667824352849267500,8.786267333984375,-0.18183238804340363,0.57598477602005,0.1665804535150528
1667824352859275300,8.796275146484374,-0.12482262402772903,0.3852187991142273,0.18940214812755585
1667824352869283300,8.806283447265624,-0.09401411563158035,0.16097530722618103,0.20497232675552368
1667824352879290400,8.816290283203125,-0.09238345921039581,-0.046428751200437546,0.21884499490261078
1667824352889298400,8.82629833984375,-0.10354103893041611,-0.20839367806911469,0.22533565759658813
1667824352899306500,8.836306396484375,-0.12117595970630646,-0.35229918360710144,0.22646670043468475
1667824352909314300,8.846314208984374,-0.14247272908687592,-0.48966825008392334,0.20650310814380646
1667824352919322400,8.856322265625,-0.16236627101898193,-0.6333194375038147,0.15696537494659424
1667824352929330400,8.866330322265625,-0.18618477880954742,-0.8067820072174072,0.07249896973371506
1667824352939338500,8.87633837890625,-0.22744913399219513,-0.9779276847839355,-0.041605766862630844
1667824352949345300,8.88634521484375,-0.26777100563049316,-1.1311789751052856,-0.19868725538253784
1667824352959353300,8.896353271484376,-0.28489378094673157,-1.2658110857009888,-0.4120645225048065
1667824352969361700,8.906361572265626,-0.2932579815387726,-1.3599519729614258,-0.664762556552887
1667824352979369500,8.916369384765625,-0.3042818605899811,-1.4543302059173584,-0.9493945240974426
1667824352989377500,8.92637744140625,-0.321429967880249,-1.511995553970337,-1.2258192300796509
1667824352999385300,8.93638525390625,-0.33125144243240356,-1.4478800296783447,-1.4345686435699463
1667824353009393400,8.946393310546876,-0.3195710778236389,-1.244065284729004,-1.5399971008300781
1667824353019400400,8.956400390625,-0.27551358938217163,-0.8991068601608276,-1.5144685506820679
1667824353029408500,8.966408447265625,-0.20958784222602844,-0.47235581278800964,-1.344404697418213
1667824353039416300,8.976416259765625,-0.13669313490390778,-0.07421750575304031,-1.0684032440185547
1667824353049424400,8.98642431640625,-0.0595615990459919,0.207454651594162,-0.7317866086959839
1667824353059432400,8.996432373046876,0.008885636925697327,0.33871254324913025,-0.39943501353263855
1667824353069440300,9.006440185546875,0.04354960843920708,0.3551482558250427,-0.08388052135705948
1667824353079448600,9.016448486328125,0.05048980563879013,0.26054584980010986,0.18463535606861115
1667824353089456400,9.026456298828125,0.041244640946388245,0.08734849095344543,0.40232375264167786
1667824353099463400,9.03646337890625,0.020013920962810516,-0.11069082468748093,0.5793387293815613
1667824353109471200,9.04647119140625,-0.022432604804635048,-0.3033777177333832,0.7063776254653931
1667824353119479300,9.056479248046875,-0.07847483456134796,-0.47094327211380005,0.7786470651626587
1667824353129487600,9.066487548828125,-0.1499791145324707,-0.6054608821868896,0.7924405932426453
1667824353139495400,9.076495361328124,-0.2211552858352661,-0.6792986392974854,0.7545121312141418
1667824353149503500,9.08650341796875,-0.2983320951461792,-0.6715033054351807,0.6719695925712585
1667824353159511300,9.09651123046875,-0.38177239894866943,-0.5886384844779968,0.5642063617706299
1667824353169518600,9.1065185546875,-0.47160083055496216,-0.43113622069358826,0.43970787525177
1667824353179526400,9.1165263671875,-0.5758361220359802,-0.24320092797279358,0.3073817789554596
1667824353189534500,9.126534423828126,-0.6783699989318848,-0.06754176318645477,0.17104178667068481
1667824353199542500,9.13654248046875,-0.7655078172683716,0.06412625312805176,0.04687776044011116
1667824353209550300,9.14655029296875,-0.8104504942893982,0.17474330961704254,-0.04398529976606369
1667824353219558400,9.156558349609375,-0.8166719079017639,0.2625293433666229,-0.08275347203016281
1667824353229566200,9.166566162109374,-0.8009384870529175,0.3047540485858917,-0.07345131039619446
1667824353239574500,9.176574462890626,-0.7830729484558105,0.31378695368766785,-0.018615229055285454
1667824353249581300,9.186581298828125,-0.7692756652832031,0.3011625111103058,0.073642797768116
1667824353259589400,9.19658935546875,-0.760470986366272,0.277763694524765,0.19439052045345306
1667824353269597400,9.206597412109375,-0.7592900991439819,0.23704662919044495,0.3257714509963989
1667824353279605500,9.21660546875,-0.7853971123695374,0.18800878524780273,0.45291075110435486
1667824353289613600,9.226613525390626,-0.8406260013580322,0.13239479064941406,0.5535244345664978
1667824353299621400,9.236621337890625,-0.9096623063087463,0.08937568217515945,0.6121726036071777
1667824353309629400,9.24662939453125,-0.9855672121047974,0.071056067943573,0.6226979494094849
1667824353319637500,9.256637451171875,-1.0470281839370728,0.06298615783452988,0.5868227481842041
1667824353329644500,9.26664453125,-1.091399908065796,0.04126967489719391,0.5152848958969116
1667824353339652600,9.276652587890625,-1.1158746480941772,-0.011294732801616192,0.41536736488342285
1667824353349660400,9.286660400390625,-1.1165637969970703,-0.08405841886997223,0.30384698510169983
1667824353359668500,9.29666845703125,-1.111560344696045,-0.19292710721492767,0.18371550738811493
1667824353369676300,9.30667626953125,-1.0991835594177246,-0.2776736915111542,0.0652620941400528
1667824353379684400,9.316684326171876,-1.0710937976837158,-0.3147917687892914,-0.05114440992474556
1667824353389692700,9.326692626953125,-1.0377928018569946,-0.31806984543800354,-0.16276894509792328
1667824353399699500,9.336699462890625,-1.0096932649612427,-0.30560144782066345,-0.2793826460838318
1667824353409707500,9.34670751953125,-0.9897657036781311,-0.2658809423446655,-0.4032776951789856
1667824353419715300,9.35671533203125,-0.9626917243003845,-0.22769680619239807,-0.5468806624412537
1667824353429723400,9.366723388671875,-0.9273456931114197,-0.19801375269889832,-0.694953203201294
1667824353439731500,9.3767314453125,-0.8781752586364746,-0.1808858960866928,-0.8406696915626526
1667824353449739500,9.386739501953125,-0.8136263489723206,-0.1731313019990921,-0.9594889879226685
1667824353459747300,9.396747314453124,-0.7269838452339172,-0.16900579631328583,-1.036833643913269
1667824353469755400,9.40675537109375,-0.6228936910629272,-0.15134531259536743,-1.0595532655715942
1667824353479762400,9.416762451171875,-0.49469229578971863,-0.08939539641141891,-1.0316615104675293
1667824353489770500,9.4267705078125,-0.3504762649536133,0.01417600642889738,-0.9507149457931519
1667824353499778600,9.436778564453125,-0.18578530848026276,0.16103655099868774,-0.8281853199005127
1667824353509786400,9.446786376953124,-0.014135526493191719,0.3183385729789734,-0.6796157956123352
1667824353519794400,9.45679443359375,0.1623004972934723,0.44431406259536743,-0.5378029942512512
1667824353529802200,9.46680224609375,0.3340461552143097,0.4986707866191864,-0.40989989042282104
1667824353539810300,9.476810302734375,0.4974755644798279,0.481406569480896,-0.29963091015815735
1667824353549817300,9.4868173828125,0.6485180854797363,0.42039328813552856,-0.20828503370285034
1667824353559825400,9.496825439453126,0.7950776815414429,0.3204938471317291,-0.1453249752521515
1667824353569833500,9.50683349609375,0.934490442276001,0.19247543811798096,-0.12374750524759293
1667824353579841300,9.51684130859375,1.0858008861541748,0.057070475071668625,-0.1321822702884674
1667824353589849600,9.526849609375,1.2464896440505981,-0.07219190150499344,-0.13075801730155945
1667824353599857400,9.536857421875,1.3959648609161377,-0.19581317901611328,-0.11933890730142593
1667824353609865500,9.546865478515626,1.506728172302246,-0.3300575315952301,-0.0865522027015686
1667824353619872300,9.556872314453125,1.5599827766418457,-0.46854138374328613,-0.03495398908853531
1667824353629880300,9.56688037109375,1.5515786409378052,-0.6017318964004517,0.018610969185829163
1667824353639888600,9.576888671875,1.503319263458252,-0.7257670760154724,0.07174662500619888
1667824353649896400,9.586896484375,1.4273688793182373,-0.8086915016174316,0.11768615245819092
1667824353659904500,9.596904541015626,1.3300803899765015,-0.8166287541389465,0.1536303013563156
1667824353669912300,9.606912353515625,1.2149322032928467,-0.7502279281616211,0.19941164553165436
1667824353679920400,9.61692041015625,1.0973155498504639,-0.6029835939407349,0.24362064898014069
1667824353689928400,9.626928466796874,0.9949072003364563,-0.380237340927124,0.29978084564208984
1667824353699935500,9.636935546875,0.9272711277008057,-0.11861053854227066,0.35356900095939636
1667824353709943600,9.646943603515625,0.8877626061439514,0.11613299697637558,0.3933912217617035
1667824353719951600,9.65695166015625,0.855728268623352,0.29065659642219543,0.4183961749076843
1667824353729959400,9.66695947265625,0.8246158957481384,0.3997633755207062,0.4258439838886261
1667824353739967500,9.676967529296874,0.7920352816581726,0.4450336694717407,0.42154139280319214
1667824353749975600,9.6869755859375,0.7459527254104614,0.43165498971939087,0.397382527589798
1667824353759983600,9.696983642578125,0.6886553764343262,0.4017985761165619,0.37083107233047485
1667824353769990400,9.706990478515625,0.6252892017364502,0.3476863205432892,0.33195608854293823
1667824353779998500,9.71699853515625,0.5753501057624817,0.29923489689826965,0.2922057509422302
1667824353790006300,9.72700634765625,0.5413585901260376,0.27055931091308594,0.25539982318878174
1667824353800014600,9.7370146484375,0.516900897026062,0.28514066338539124,0.22595243155956268
1667824353810022700,9.747022705078125,0.5030407905578613,0.3316194713115692,0.21043314039707184
1667824353820030500,9.757030517578125,0.4892871379852295,0.3879253566265106,0.20252540707588196
1667824353830038500,9.76703857421875,0.48198023438453674,0.4434075355529785,0.1944887936115265
1667824353840046300,9.77704638671875,0.48390674591064453,0.4754442870616913,0.19331912696361542
1667824353850053600,9.7870537109375,0.5010766983032227,0.4937431514263153,0.19564513862133026
1667824353860061400,9.7970615234375,0.5187970995903015,0.4843975603580475,0.2037094533443451
1667824353870069500,9.807069580078124,0.5312542915344238,0.4402373135089874,0.2244219183921814
1667824353880077600,9.81707763671875,0.5211737155914307,0.39583414793014526,0.25202906131744385
1667824353890085400,9.82708544921875,0.49288320541381836,0.3796147108078003,0.28342533111572266
1667824353900093400,9.837093505859375,0.45818033814430237,0.3830682933330536,0.3089469373226166
1667824353910101500,9.8471015625,0.41106876730918884,0.4071933329105377,0.33299553394317627
1667824353920108500,9.857108642578124,0.37622663378715515,0.4318526089191437,0.35643213987350464
1667824353930116400,9.867116455078126,0.36388102173805237,0.4441806375980377,0.36762702465057373
1667824353940124400,9.87712451171875,0.37685248255729675,0.44392499327659607,0.37892386317253113
1667824353950132700,9.8871328125,0.40086379647254944,0.41476336121559143,0.37872281670570374
1667824353960140500,9.897140625,0.42260104417800903,0.37933215498924255,0.38449519872665405
1667824353970148600,9.907148681640624,0.4342382550239563,0.33395612239837646,0.3893014192581177
1667824353980156400,9.917156494140626,0.4306776225566864,0.29873237013816833,0.40165501832962036
1667824353990164500,9.92716455078125,0.4088863134384155,0.29991188645362854,0.42937958240509033
1667824354000171500,9.937171630859375,0.36818626523017883,0.34080418944358826,0.4587140381336212
1667824354010179600,9.9471796875,0.3111714720726013,0.4141348600387573,0.4926970601081848
1667824354020187600,9.957187744140626,0.23784825205802917,0.5069910287857056,0.521085262298584
1667824354030195500,9.967195556640625,0.16635940968990326,0.5947211384773254,0.5435373187065125
1667824354040203500,9.97720361328125,0.11733861267566681,0.6301957964897156,0.5377846360206604
1667824354050211300,9.98721142578125,0.07924555242061615,0.5885082483291626,0.506210446357727
1667824354060219600,9.9972197265625,0.0413849912583828,0.4693286120891571,0.43694376945495605
1667824354070226400,10.007226318359375,-0.005589975044131279,0.3011646270751953,0.3204943835735321
1667824354080234500,10.017234375,-0.06520962715148926,0.12856197357177734,0.17265832424163818
1667824354090242600,10.02724267578125,-0.14174488186836243,-0.012107528746128082,0.023071764037013054
1667824354100250400,10.03725048828125,-0.2275434136390686,-0.09425859153270721,-0.10189307481050491
1667824354110258700,10.0472587890625,-0.31670764088630676,-0.06921263039112091,-0.17737238109111786
1667824354120266500,10.0572666015625,-0.39270734786987305,0.07003021985292435,-0.19129565358161926
1667824354130274600,10.067274658203125,-0.45222365856170654,0.29058629274368286,-0.16205734014511108
1667824354140281300,10.07728125,-0.4673812985420227,0.5653800368309021,-0.09179995954036713
1667824354150289400,10.087289306640624,-0.43681779503822327,0.8119192719459534,0.005048820748925209
1667824354160297500,10.09729736328125,-0.3656211197376251,0.9610708951950073,0.11237181723117828
1667824354170305500,10.107305419921875,-0.2679174542427063,0.9896135926246643,0.22406744956970215
1667824354180313600,10.117313720703125,-0.16842256486415863,0.9045024514198303,0.33010226488113403
1667824354190321400,10.1273212890625,-0.0800815224647522,0.7553411722183228,0.435342937707901
1667824354200329500,10.13732958984375,-0.00618172949180007,0.5138952732086182,0.5252824425697327
1667824354210336500,10.14733642578125,0.04989565536379814,0.21301080286502838,0.5949384570121765
1667824354220344600,10.157344482421875,0.0859236940741539,-0.09239012002944946,0.6501833200454712
1667824354230352400,10.167352294921875,0.10779623687267303,-0.37488359212875366,0.6808653473854065
1667824354240360400,10.1773603515625,0.10626758635044098,-0.6244867444038391,0.695701003074646
1667824354250368500,10.187368408203126,0.07931319624185562,-0.7936131954193115,0.7047565579414368
1667824354260376600,10.19737646484375,0.024203073233366013,-0.9075760245323181,0.6997186541557312
1667824354270384600,10.207384521484375,-0.06425275653600693,-0.9670789837837219,0.6618325710296631
1667824354280392400,10.217392333984375,-0.1558319479227066,-0.9919036626815796,0.5760795474052429
1667824354290399500,10.2273994140625,-0.2143290787935257,-1.020482063293457,0.4246596693992615
1667824354300407300,10.2374072265625,-0.21907801926136017,-1.1255898475646973,0.17728503048419952
1667824354310415600,10.24741552734375,-0.19775381684303284,-1.3061628341674805,-0.16784413158893585
1667824354320423700,10.257423583984375,-0.17270520329475403,-1.4741424322128296,-0.5881527066230774
1667824354330431500,10.267431396484374,-0.15447533130645752,-1.5586445331573486,-1.0044032335281372
1667824354340439600,10.277439453125,-0.15286730229854584,-1.516751766204834,-1.351418137550354
1667824354350447400,10.287447265625,-0.17662429809570312,-1.3421761989593506,-1.5806753635406494
1667824354360454700,10.29745458984375,-0.22705818712711334,-1.025620937347412,-1.6568845510482788
1667824354370462500,10.30746240234375,-0.2750946879386902,-0.5715516209602356,-1.555185079574585
1667824354380470500,10.317470458984374,-0.29015591740608215,-0.10107548534870148,-1.3197523355484009
1667824354390478600,10.327478515625,-0.2861446738243103,0.2877817153930664,-0.992990255355835
1667824354400486400,10.337486328125,-0.2607167959213257,0.4855975806713104,-0.6498384475708008
1667824354410494500,10.347494384765625,-0.2174186110496521,0.4729728698730469,-0.34301966428756714
1667824354420502500,10.35750244140625,-0.16072896122932434,0.30913227796554565,-0.08190525323152542
1667824354430509600,10.367509521484376,-0.10715867578983307,0.06324101984500885,0.1267174631357193
1667824354440517400,10.377517333984375,-0.0645318552851677,-0.20938917994499207,0.2835044264793396
1667824354450525400,10.387525390625,-0.03711461275815964,-0.4706687033176422,0.39448419213294983
1667824354460533500,10.397533447265625,-0.040226515382528305,-0.7010601162910461,0.4792715311050415
1667824354470541600,10.40754150390625,-0.0798381045460701,-0.8640738129615784,0.550814688205719
1667824354480549600,10.417549560546876,-0.1532990038394928,-0.9540284276008606,0.6026059985160828
1667824354490557400,10.427557373046875,-0.2585833668708801,-0.9471455216407776,0.6407788991928101
1667824354500565500,10.4375654296875,-0.37886476516723633,-0.8667710423469543,0.6487281918525696
1667824354510572500,10.447572509765624,-0.5042437314987183,-0.7338281869888306,0.6202294230461121
1667824354520580600,10.45758056640625,-0.6302482485771179,-0.566282331943512,0.5681287050247192
1667824354530588700,10.467588623046876,-0.7484710216522217,-0.3900598883628845,0.49118223786354065
1667824354540596500,10.477596435546875,-0.85530024766922,-0.22703927755355835,0.4043988883495331
1667824354550604500,10.4876044921875,-0.9353495836257935,-0.08700600266456604,0.33848005533218384
1667824354560612400,10.4976123046875,-0.9866124987602234,0.03989788144826889,0.3103075325489044
1667824354570620400,10.507620361328126,-1.0071630477905273,0.14009079337120056,0.31939342617988586
1667824354580627500,10.51762744140625,-1.0212939977645874,0.20259597897529602,0.35880157351493835
1667824354590635500,10.527635498046875,-1.0344895124435425,0.22004421055316925,0.4273103177547455
1667824354600643300,10.537643310546875,-1.0560189485549927,0.20519496500492096,0.5120978951454163
1667824354610651400,10.5476513671875,-1.0846400260925293,0.19085437059402466,0.6057655215263367
1667824354620659700,10.55765966796875,-1.1145297288894653,0.1640816181898117,0.6892963647842407
1667824354630667500,10.56766748046875,-1.1500495672225952,0.13026852905750275,0.7418650388717651
1667824354640675600,10.577675537109375,-1.186436414718628,0.0872369036078453,0.7645940780639648
1667824354650682400,10.587682373046874,-1.2261619567871094,0.047510795295238495,0.7408418655395508
1667824354660690400,10.5976904296875,-1.2645138502120972,-0.0012628709664568305,0.6640182137489319
1667824354670698500,10.607698486328125,-1.2975906133651733,-0.09167319536209106,0.5310617685317993
1667824354680706600,10.61770654296875,-1.3235173225402832,-0.23488947749137878,0.34384340047836304
1667824354690715000,10.62771484375,-1.3287397623062134,-0.40938031673431396,0.11536973714828491
1667824354700722700,10.63772265625,-1.3062999248504639,-0.6105334162712097,-0.1499956250190735
1667824354710730800,10.647730712890626,-1.2707451581954956,-0.7954111099243164,-0.4258285462856293
1667824354720737800,10.65773779296875,-1.2236559391021729,-0.8896454572677612,-0.6857802271842957
1667824354730745900,10.667745849609375,-1.1661388874053955,-0.9192648530006409,-0.8982951641082764
1667824354740753700,10.677753662109374,-1.118437647819519,-0.9136101603507996,-1.054185390472412
1667824354750761700,10.68776171875,-1.072710633277893,-0.8643749952316284,-1.150263786315918
1667824354760769800,10.697769775390626,-1.0168508291244507,-0.7333024740219116,-1.1939928531646729
1667824354770777600,10.707777587890625,-0.9311316609382629,-0.4943346381187439,-1.2177718877792358
1667824354780786000,10.717785888671875,-0.7974900007247925,-0.21527768671512604,-1.250935435295105
1667824354790793700,10.727793701171874,-0.6389898061752319,0.007133543025702238,-1.3009941577911377
1667824354800800800,10.73780078125,-0.4602773189544678,0.15961602330207825,-1.3900840282440186
1667824354810808600,10.74780859375,-0.24474290013313293,0.2201067954301834,-1.4672385454177856
1667824354820816600,10.757816650390625,-0.03439712151885033,0.2845017611980438,-1.4966983795166016
1667824354830825000,10.767824951171875,0.14311695098876953,0.4200894236564636,-1.481582522392273
1667824354840832800,10.777832763671874,0.32760557532310486,0.51726895570755,-1.4353433847427368
1667824354850840800,10.7878408203125,0.5257197022438049,0.5475651025772095,-1.3859375715255737
1667824354860848600,10.7978486328125,0.7207818627357483,0.49701055884361267,-1.3421229124069214
1667824354870856000,10.80785595703125,0.8879961967468262,0.3945973813533783,-1.2882120609283447
1667824354880863700,10.81786376953125,1.02474844455719,0.29099828004837036,-1.2381906509399414
1667824354890871800,10.827871826171876,1.1651777029037476,0.19671732187271118,-1.1966395378112793
1667824354900880000,10.8378798828125,1.331849217414856,0.08325573801994324,-1.1545194387435913
1667824354910887700,10.8478876953125,1.5288259983062744,-0.043897949159145355,-1.1098436117172241
1667824354920895700,10.857895751953125,1.7428058385849,-0.09339066594839096,-1.024690866470337
1667824354930903600,10.867903564453124,1.9475725889205933,-0.05097609758377075,-0.8757818341255188
1667824354940911900,10.877911865234376,2.1478517055511475,0.1078428402543068,-0.6509205102920532
1667824354950918700,10.887918701171875,2.321922540664673,0.33965370059013367,-0.35994431376457214
1667824354960926700,10.8979267578125,2.4570670127868652,0.5908318758010864,-0.04725752770900726
1667824354970934800,10.907934814453125,2.546875238418579,0.8313360810279846,0.24303634464740753
1667824354980942800,10.91794287109375,2.5873353481292725,0.9921337366104126,0.4749681055545807
1667824354990951000,10.927950927734376,2.565062999725342,1.0434610843658447,0.6455622315406799
1667824355000958700,10.937958740234375,2.4448719024658203,1.0642452239990234,0.7789785861968994
1667824355010966800,10.947966796875,2.3231217861175537,0.7072932124137878,0.8424963355064392
1667824355020973600,10.9579736328125,2.2082760334014893,0.3047580420970917,0.8641536831855774
1667824355030982000,10.96798193359375,2.1197032928466797,0.03988243639469147,0.8963217735290527
1667824355040990000,10.977989990234375,1.9981294870376587,-0.04754994064569473,0.9217850565910339
1667824355050997800,10.987997802734375,1.85971200466156,-0.04765194281935692,0.9078755974769592
1667824355061005800,10.998005859375,1.669348955154419,-0.012241220101714134,0.8817619681358337
1667824355071013600,11.008013671875,1.45541250705719,0.06408125162124634,0.8704922795295715
1667824355081021700,11.018021728515626,1.238359808921814,0.24576956033706665,0.8544155955314636
1667824355091028700,11.02802880859375,1.034236192703247,0.5128100514411926,0.8155009150505066
1667824355101036800,11.038036865234375,0.870904266834259,0.7788822054862976,0.7456321120262146
1667824355111044600,11.048044677734374,0.7489954233169556,1.0047835111618042,0.6415808200836182
1667824355121052700,11.058052734375,0.6582008004188538,1.1815731525421143,0.4975506663322449
1667824355131060700,11.068060791015625,0.5836306810379028,1.358520746231079,0.33848005533218384
1667824355141068800,11.07806884765625,0.5268790125846863,1.4795767068862915,0.19605712592601776
1667824355151076900,11.088076904296875,0.4989197850227356,1.567720890045166,0.08056781440973282
1667824355161084700,11.098084716796874,0.4933508634567261,1.6440843343734741,0.007692008279263973
1667824355171091700,11.108091796875,0.5136641263961792,1.73786199092865,-0.020905815064907074
1667824355181099800,11.118099853515625,0.5619925260543823,1.812950611114502,-0.0003632551815826446
1667824355191107800,11.12810791015625,0.6272734999656677,1.835369348526001,0.04381565749645233
1667824355201116000,11.138115966796875,0.6530076265335083,1.7257657051086426,0.08642011135816574
1667824355211123700,11.148123779296874,0.6187343597412109,1.5197296142578125,0.1380513459444046
1667824355221131800,11.1581318359375,0.5321671962738037,1.3127938508987427,0.20585675537586212
1667824355231139600,11.1681396484375,0.430446982383728,1.121440052986145,0.2845044434070587
1667824355241147000,11.17814697265625,0.36932849884033203,0.9609020948410034,0.37833371758461
1667824355251154700,11.18815478515625,0.3742010295391083,0.8451158404350281,0.49251142144203186
1667824355261162800,11.198162841796876,0.4275856912136078,0.7704535722732544,0.6027668118476868
1667824355271170800,11.2081708984375,0.4953080117702484,0.700844407081604,0.6950331330299377
1667824355281178600,11.2181787109375,0.5398368835449219,0.621283233165741,0.7648620009422302
1667824355291186700,11.228186767578125,0.5462753176689148,0.5275580883026123,0.7949924468994141
1667824355301194800,11.23819482421875,0.5134947299957275,0.40511205792427063,0.7881151437759399
1667824355311202800,11.248202880859376,0.4413805902004242,0.2182399183511734,0.7372245192527771
1667824355321209600,11.258209716796875,0.33796897530555725,-0.014690263196825981,0.648318350315094
1667824355331217700,11.2682177734375,0.21205632388591766,-0.2588837444782257,0.5268928408622742
1667824355341226000,11.27822607421875,0.09002736210823059,-0.450504332780838,0.37546148896217346
1667824355351233800,11.28823388671875,0.0001584580895723775,-0.5343552827835083,0.22018323838710785
1667824355361241900,11.298241943359375,-0.040895503014326096,-0.5144708156585693,0.07665110379457474
1667824355371249700,11.308249755859375,-0.0420643612742424,-0.4145958423614502,-0.0342240147292614
1667824355381257700,11.3182578125,-0.012231365777552128,-0.25761955976486206,-0.10094978660345078
1667824355391265800,11.328265869140624,0.04619386047124863,-0.09666022658348083,-0.1276511698961258
1667824355401272800,11.33827294921875,0.13279160857200623,0.007894674316048622,-0.11825340986251831
1667824355411281000,11.348281005859375,0.23068967461585999,0.07334105670452118,-0.06411480158567429
1667824355421288700,11.358288818359375,0.3194970488548279,0.13022059202194214,0.016282565891742706
1667824355431296800,11.368296875,0.37185317277908325,0.1180235743522644,0.09370731562376022
1667824355441304600,11.3783046875,0.36916765570640564,0.0031814121175557375,0.18316929042339325
1667824355451313000,11.38831298828125,0.3081205487251282,-0.14902544021606445,0.26846739649772644
1667824355461321000,11.398321044921875,0.2307692915201187,-0.31191447377204895,0.308847576379776
1667824355471327700,11.40832763671875,0.2024516463279724,-0.44251295924186707,0.30297452211380005
1667824355481335800,11.418335693359374,0.18833288550376892,-0.518833339214325,0.27210474014282227
1667824355491343600,11.428343505859376,0.17438378930091858,-0.6210616827011108,0.22138112783432007
1667824355501352000,11.43835205078125,0.13573333621025085,-0.7556405067443848,0.11021944880485535
1667824355511359700,11.44835986328125,0.028721660375595093,-0.9349551796913147,-0.09243645519018173
1667824355521367800,11.458367919921875,-0.1427885740995407,-1.1069705486297607,-0.3677300810813904
1667824355531375600,11.468375732421874,-0.39236539602279663,-1.1925920248031616,-0.6737251281738281
1667824355541383000,11.4783828125,-0.5829728841781616,-1.476418375968933,-1.0382453203201294
1667824355551390700,11.488390625,-0.7416325807571411,-1.7218425273895264,-1.3976320028305054
1667824355561398800,11.498398681640625,-0.8879565000534058,-1.5988918542861938,-1.6653369665145874
1667824355571406800,11.50840673828125,-0.9965812563896179,-1.2399824857711792,-1.8157503604888916
1667824355581414700,11.51841455078125,-1.0192804336547852,-0.9388812184333801,-1.8021656274795532
1667824355591422700,11.528422607421875,-0.9679152369499207,-0.5358107089996338,-1.6271445751190186
1667824355601430500,11.538430419921875,-0.8439416289329529,-0.12372726947069168,-1.3371620178222656
1667824355611438800,11.54843896484375,-0.6432042717933655,0.1441851407289505,-1.0096310377120972
1667824355621445600,11.558445556640624,-0.38374125957489014,0.3021973967552185,-0.6760942935943604
1667824355631453700,11.56845361328125,-0.09984217584133148,0.3924247622489929,-0.3679055869579315
1667824355641461800,11.578461669921875,0.1744154840707779,0.38320836424827576,-0.11697801947593689
1667824355651469800,11.5884697265625,0.39717957377433777,0.28185325860977173,0.08878180384635925
1667824355661478000,11.598477783203125,0.5429415702819824,0.10821674764156342,0.24300439655780792
1667824355671485700,11.608485595703126,0.6119784116744995,-0.05903322622179985,0.3680344820022583
1667824355681493800,11.61849365234375,0.6190683245658875,-0.1907648891210556,0.46573761105537415
1667824355691500300,11.628500244140625,0.5733559131622314,-0.33001333475112915,0.539902925491333
1667824355701508000,11.638508056640624,0.4834558665752411,-0.46911582350730896,0.5737215876579285
1667824355711516200,11.64851611328125,0.3519947826862335,-0.5554014444351196,0.5744898915290833
1667824355721524200,11.658524169921876,0.2020478993654251,-0.5995047092437744,0.5508919358253479
1667824355731532000,11.668531982421875,0.04984026029706001,-0.6162914037704468,0.4960302710533142
1667824355741540000,11.6785400390625,-0.09739872813224792,-0.5899649858474731,0.41885077953338623
1667824355751548200,11.688548095703124,-0.22172653675079346,-0.4986204504966736,0.3379146456718445
1667824355761556200,11.69855615234375,-0.32371363043785095,-0.38222965598106384,0.2617570459842682
1667824355771563000,11.70856298828125,-0.4114631712436676,-0.2772350609302521,0.18938058614730835
1667824355781571000,11.718571044921875,-0.4801567494869232,-0.20283088088035583,0.13971662521362305
1667824355791579100,11.7285791015625,-0.520256519317627,-0.14871729910373688,0.12234135717153549
1667824355801587200,11.738587158203124,-0.5408792495727539,-0.13175030052661896,0.13097186386585236
1667824355811595300,11.74859521484375,-0.554546058177948,-0.13326618075370789,0.1695791780948639
1667824355821603000,11.75860302734375,-0.556267261505127,-0.1425536870956421,0.22344587743282318
1667824355831611100,11.768611083984375,-0.5513046979904175,-0.1480158269405365,0.28345754742622375
1667824355841618200,11.7786181640625,-0.5461243391036987,-0.14321334660053253,0.342800498008728
1667824355851626200,11.788626220703126,-0.5540559887886047,-0.1425744593143463,0.3950701057910919
1667824355861634300,11.79863427734375,-0.5673081874847412,-0.17448338866233826,0.43916645646095276
1667824355871642000,11.80864208984375,-0.6021404266357422,-0.22787657380104065,0.46683403849601746
1667824355881650200,11.818650146484375,-0.6397887468338013,-0.2600800395011902,0.48450836539268494
1667824355891658000,11.828657958984374,-0.6797287464141846,-0.2403297871351242,0.49072444438934326
1667824355901666000,11.838666015625,-0.7129676342010498,-0.1654219776391983,0.4913995563983917
1667824355911673000,11.848673095703125,-0.7569957971572876,-0.029392510652542114,0.4977586567401886
1667824355921681200,11.85868115234375,-0.8026825785636902,0.16940367221832275,0.5077505707740784
1667824355931689000,11.86868896484375,-0.8586252331733704,0.3872811496257782,0.5262094736099243
1667824355941697000,11.878697021484374,-0.9212138056755066,0.6161265969276428,0.5305941104888916
1667824355951705300,11.888705322265626,-0.9849328398704529,0.8445791602134705,0.5143352150917053
1667824355961713200,11.898713134765625,-1.0296223163604736,1.050960898399353,0.4626195728778839
1667824355971721200,11.90872119140625,-1.04664146900177,1.1574769020080566,0.38450080156326294
1667824355981729000,11.91872900390625,-1.0478689670562744,1.1686323881149292,0.2854277491569519
1667824355991736000,11.928736083984376,-1.0449564456939697,1.0998064279556274,0.16587898135185242
1667824356001744100,11.938744140625,-1.0204793214797974,0.9824649095535278,0.02394607849419117
1667824356011752200,11.948752197265625,-1.0167032480239868,0.870974063873291,-0.13942819833755493
1667824356021760300,11.95876025390625,-1.0381779670715332,0.8261818289756775,-0.26314935088157654
1667824356031768000,11.96876806640625,-1.0735071897506714,0.8350021839141846,-0.3230430483818054
1667824356041776000,11.978776123046876,-1.0909026861190796,0.8960245251655579,-0.3366802930831909
1667824356051784000,11.988783935546875,-1.0862336158752441,0.9940722584724426,-0.324686199426651
1667824356061791200,11.998791259765625,-1.0437631607055664,1.1207053661346436,-0.29880666732788086
1667824356071799000,12.008799072265624,-0.9536777138710022,1.2478164434432983,-0.27730056643486023
1667824356081807000,12.01880712890625,-0.7966654300689697,1.3419349193572998,-0.2488689422607422
1667824356091815200,12.028815185546875,-0.5909109711647034,1.3896549940109253,-0.22756259143352509
1667824356101823000,12.038822998046875,-0.35029783844947815,1.330501675605774,-0.22374148666858673
1667824356111831300,12.048831298828125,-0.10841595381498337,1.1327489614486694,-0.26987436413764954
1667824356121839000,12.058839111328124,0.11019148677587509,0.8548094630241394,-0.33851388096809387
1667824356131847200,12.06884716796875,0.29777976870536804,0.5335419774055481,-0.41049325466156006
1667824356141854000,12.07885400390625,0.46291837096214294,0.177342027425766,-0.47328925132751465
1667824356151862300,12.0888623046875,0.5994938015937805,-0.15970177948474884,-0.5004225969314575
1667824356161870300,12.098870361328125,0.7237595319747925,-0.4134296476840973,-0.4814355969429016
1667824356171878100,12.108878173828124,0.8444010019302368,-0.5585748553276062,-0.42943739891052246
1667824356181886200,12.11888623046875,0.9689615964889526,-0.6054204106330872,-0.36049720644950867
1667824356191894000,12.12889404296875,1.090732455253601,-0.5672690272331238,-0.2845049500465393
1667824356201902000,12.138902099609375,1.2090977430343628,-0.4997949004173279,-0.2308870106935501
1667824356211909000,12.1489091796875,1.3217164278030396,-0.46618473529815674,-0.19217662513256073
1667824356221917200,12.158917236328126,1.4160517454147339,-0.4648321270942688,-0.17290812730789185
1667824356231925200,12.16892529296875,1.4881829023361206,-0.49689072370529175,-0.17499923706054688
1667824356241933000,12.17893310546875,1.5282418727874756,-0.5776513814926147,-0.2117207795381546
1667824356251941000,12.188941162109375,1.5233705043792725,-0.6838398575782776,-0.25268498063087463
1667824356261949200,12.19894921875,1.4634968042373657,-0.7613575458526611,-0.27685636281967163
1667824356271957200,12.208957275390626,1.3540611267089844,-0.7926241159439087,-0.2809981107711792
1667824356281964000,12.218964111328125,1.1912777423858643,-0.7792627811431885,-0.2718256413936615
1667824356291972000,12.22897216796875,0.9939945340156555,-0.6903741955757141,-0.23939873278141022
1667824356301980200,12.238980224609374,0.7749063968658447,-0.5282566547393799,-0.18571260571479797
1667824356311988200,12.24898828125,0.5748209357261658,-0.27939462661743164,-0.12656646966934204
1667824356321996300,12.258996337890625,0.4172174632549286,0.017128653824329376,-0.08058565855026245
1667824356332004000,12.269004150390625,0.3130689561367035,0.27841246128082275,-0.050636544823646545
1667824356342012200,12.27901220703125,0.23350515961647034,0.49867159128189087,-0.04451233893632889
1667824356352020000,12.28902001953125,0.15940377116203308,0.6488631963729858,-0.06987468898296356
1667824356362027300,12.29902734375,0.08954665809869766,0.6751723289489746,-0.12041456252336502
1667824356372035000,12.30903515625,0.03225221112370491,0.6471715569496155,-0.16642892360687256
1667824356382043100,12.319043212890625,-0.01968342438340187,0.6691261529922485,-0.18608517944812775
1667824356392051200,12.32905126953125,-0.05688032507896423,0.7112829089164734,-0.19979940354824066
1667824356402059000,12.33905908203125,-0.08585232496261597,0.7853161096572876,-0.1940554976463318
1667824356412067000,12.349067138671876,-0.09719206392765045,0.932182252407074,-0.16726969182491302
1667824356422075100,12.3590751953125,-0.0811087042093277,1.1223050355911255,-0.09366656839847565
1667824356432082200,12.369082275390625,-0.023898940533399582,1.3368791341781616,0.01804451458156109
1667824356442090000,12.379090087890624,0.14673778414726257,1.7535842657089233,0.1944965124130249
1667824356452098000,12.38909814453125,0.29123982787132263,1.9042147397994995,0.24933207035064697
1667824356462106000,12.399106201171875,0.35393837094306946,1.7699546813964844,0.22513431310653687
1667824356472114200,12.4091142578125,0.3404949903488159,1.6277331113815308,0.17480723559856415
1667824356482122200,12.419122314453125,0.2981429994106293,1.466044306755066,0.12192963063716888
