time,seconds_elapsed,z,y,x
1667824222037412900,0.046412841796875,-0.7195522914230823,0.4890608434028923,0.4436689192764461
1667824222047420700,0.056420654296875,-0.6377186423450708,0.37732027796953915,0.36583836835995315
1667824222057428000,0.066427978515625,-0.6020131227135658,0.30836949134021996,0.3433534917641431
1667824222067435800,0.076435791015625,-0.5849520977973938,0.2570940621331334,0.36562867113202807
1667824222077443800,0.08644384765625,-0.5942962647259235,0.19690029019415378,0.3990883115328848
1667824222087451600,0.09645166015625,-0.6211965466111898,0.11421265463531016,0.4050967581674456
1667824222097459700,0.106459716796875,-0.5161275678962469,0.0667567837163806,0.37056926933936774
1667824222107467800,0.1164677734375,-0.409161815649271,0.07750789483338594,0.32940511897578834
1667824222117475800,0.126475830078125,-0.3820207107454538,0.09007131606936454,0.319450418933481
1667824222127484000,0.13648388671875,-0.33889760833382604,0.09493395366966724,0.3648923196814954
1667824222137491700,0.14649169921875,-0.2803226697683334,0.09667232176959514,0.42856881916970013
1667824222147499800,0.156499755859375,-0.28774609776735305,0.1137713406085968,0.49719694971591233
1667824222157507800,0.1665078125,-0.3092413057386875,0.14828151297569275,0.5166182740226387
1667824222167515600,0.176515625,-0.25426234583854673,0.21299013199061154,0.4797324585653841
1667824222177524000,0.18652392578125,-0.12138181561231612,0.30781244197934865,0.5248689466260373
1667824222187531800,0.19653173828125,0.0027361469656229016,0.41683395771235227,0.6276340323127806
1667824222197538800,0.206538818359375,0.019660978281497953,0.45658670690804715,0.6924642318807542
1667824222207546600,0.216546630859375,0.05155073901712894,0.44773499967157837,0.7395123257163911
1667824222217554700,0.2265546875,0.06144669460952282,0.4449970991402864,0.748508921316266
1667824222227562800,0.236562744140625,0.08827683386802673,0.4454267227292061,0.7421344178482889
1667824222237570800,0.24657080078125,0.10692892736792564,0.42588732500076293,0.7054267354369164
1667824222247579000,0.256578857421875,0.18022738781273365,0.42217122708708044,0.6678202044896782
1667824222257586700,0.266586669921875,0.3111678898870945,0.4641968896508217,0.6431988273218274
1667824222267594800,0.2765947265625,0.33979075778126716,0.4683762211620807,0.6087459015673026
1667824222277602600,0.2866025390625,0.3004518500834703,0.40262276926934715,0.6257576439816505
1667824222287611000,0.29661083984375,0.2646943080037832,0.34309213741421696,0.7196861469358206
1667824222297619000,0.306618896484375,0.2901747862190008,0.2915335073515773,0.735181164644286
1667824222307626800,0.316626708984375,0.4075198936611414,0.25406536196172236,0.7298187608283012
1667824222317634800,0.326634765625,0.40411739174127576,0.23075725934952496,0.7264491382647306
1667824222327641600,0.3366416015625,0.21486673951745033,0.2096089651197195,0.7417957604784517
1667824222337650000,0.34664990234375,0.1759293983578682,0.23066402810811995,0.7900263420969247
1667824222347657700,0.35665771484375,0.3510597552925348,0.28765841948390003,0.7140006486453115
1667824222357665800,0.366665771484375,0.4330974025100469,0.3457689554080367,0.5733236193239688
1667824222367673900,0.376673828125,0.3342448140919208,0.38327480245977635,0.52358756504599
1667824222377681700,0.386681640625,0.2618488554447889,0.3924056188985705,0.5582829577868804
1667824222387689700,0.396689697265625,0.27782909938693046,0.4268514938578009,0.5527381100760772
1667824222397697800,0.40669775390625,0.17628887932002543,0.444222023114562,0.5401993848899379
1667824222407705900,0.416705810546875,0.15851415317654607,0.4738710191860795,0.5496688586985692
1667824222417714000,0.4267138671875,0.21415888350903986,0.5221311922252178,0.5505649672880768
1667824222427721700,0.4367216796875,0.19566402639746666,0.5399558949902653,0.48654473239611834
1667824222437729800,0.446729736328125,0.10344868403673171,0.535963610483706,0.4249247635789215
1667824222447737600,0.456737548828125,0.06483107635080813,0.5056044203162193,0.4280821316312998
1667824222457745700,0.46674560546875,0.10210136108100414,0.4877016838788986,0.41719519224017854
1667824222467754000,0.47675390625,0.126337392193079,0.4850555532842874,0.3696377606429159
1667824222477760800,0.4867607421875,0.10529811129570006,0.4663052601069212,0.32456118607595563
1667824222487768800,0.496768798828125,0.10824527066349983,0.42411505463123317,0.26574381705671546
1667824222497776600,0.506776611328125,0.10855448274314403,0.4170186666294932,0.16580949781648813
1667824222507785000,0.516784912109375,0.18260697642564772,0.42712768045067784,0.09158500856794416
1667824222517792800,0.526792724609375,0.2609948689639568,0.42351855004280803,0.017936200315505264
1667824222527800800,0.53680078125,0.21501637712121008,0.3910445596784353,-0.012688874246552587
1667824222537809000,0.546808837890625,0.08838789302706718,0.30594109514951706,0.014592296715080737
1667824222547816700,0.556816650390625,0.167598792386055,0.25369009890854355,0.036099925776571035
1667824222557824800,0.56682470703125,0.2807330041348934,0.29116087464690205,0.019940525875240565
1667824222567832600,0.57683251953125,0.33206454744338987,0.3551332883417606,-0.052395957669615745
1667824222577840600,0.586840576171875,0.338612361651659,0.39490094284564253,-0.08375394961610436
1667824222587848400,0.596848388671875,0.35139410181343556,0.38708763874620195,-0.10209515053592622
1667824222597856500,0.6068564453125,0.35072774685919283,0.3716232353717088,-0.0883320711866021
1667824222607864300,0.6168642578125,0.3177852622002363,0.3475912023991346,-0.09791662274226545
1667824222617872400,0.626872314453125,0.33994331799447536,0.274025323189795,-0.11515921477042138
1667824222627879400,0.63687939453125,0.3576660216897726,0.22577917867600916,-0.08727978565469384
1667824222637887500,0.646887451171875,0.2912958992034197,0.21199965964853762,-0.055510436428338285
1667824222647895600,0.6568955078125,0.2282867775827646,0.21512977436780928,-0.04548983154296875
1667824222657903400,0.6669033203125,0.16494681657254695,0.19614041173756122,-0.0555504031125456
1667824222667911400,0.676911376953125,0.10923311265707016,0.1797875350907445,-0.015271365020424126
1667824222677919500,0.68691943359375,0.08404547990858555,0.18671119687408208,0.0442844743411988
1667824222687927600,0.696927490234375,0.03778466399312019,0.19234072719365358,-0.004469546629488468
1667824222697935600,0.706935546875,-0.02407002689540386,0.20476240187138317,-0.04514518282376229
1667824222707943400,0.716943359375,0.041677579778432845,0.23761194754987955,-0.11231493125520646
1667824222717951500,0.726951416015625,0.11591653594374655,0.2688479205518961,-0.17675547391846774
1667824222727959300,0.736959228515625,0.07741349454820155,0.2592266902476549,-0.18817958892621098
1667824222737967600,0.746967529296875,0.028195582392811773,0.21774638660699128,-0.22662308215424418
1667824222747975700,0.7569755859375,0.06503682805597782,0.16379764653742312,-0.2259886567082256
1667824222757983500,0.7669833984375,0.07087561721205711,0.10984393803179264,-0.22491481693163512
1667824222767990500,0.776990478515625,0.06741349405944347,0.02757832727730274,-0.24338600090667603
1667824222777998300,0.786998291015625,0.14257190315723417,-0.05427724137157201,-0.23639913769401608
1667824222788006700,0.797006591796875,0.1689969687461853,-0.1320136842638254,-0.21204970933534203
1667824222798014500,0.807014404296875,0.1634369965314865,-0.17643354848772286,-0.2362344486515969
1667824222808022500,0.8170224609375,0.1236743104636669,-0.1892941991046071,-0.2979761441523209
1667824222818030600,0.827030517578125,0.09427870463132858,-0.17845073352903126,-0.3326653994133696
1667824222828038400,0.837038330078125,0.042370238217711444,-0.15087182172983885,-0.3584916588589549
1667824222838046500,0.84704638671875,0.024407880547642705,-0.14726765975803136,-0.3637261254463345
1667824222848054500,0.857054443359375,-0.0047381344377994536,-0.16094693328142165,-0.35460075236763805
1667824222858062600,0.8670625,0.04435527455508709,-0.14122370341867208,-0.34658896655403076
1667824222868070700,0.877070556640625,0.11499942109882831,-0.10002017089277505,-0.34881018626745786
1667824222878078500,0.887078369140625,0.1741723255574703,-0.07669891653805971,-0.3515835599709302
1667824222888086500,0.89708642578125,0.27159400438964365,-0.07621814728379249,-0.35318325025252995
1667824222898094300,0.90709423828125,0.4162976588785648,-0.0634670945212245,-0.35855102436337616
1667824222908102400,0.917102294921875,0.46855333129465576,-0.1283539927124977,-0.3336509398519993
1667824222918109400,0.927109375,0.4711182133466005,-0.26284020456969737,-0.2757223728986457
1667824222928117500,0.937117431640625,0.4317781366050243,-0.43038083702772856,-0.23527765938341616
1667824222938125300,0.947125244140625,0.3668184654384851,-0.5549217011928558,-0.20390333735663443
1667824222948133400,0.95713330078125,0.32172552425861356,-0.6359495868459344,-0.17156798827797173
1667824222958141400,0.967141357421875,0.32565643396675586,-0.6781137810975313,-0.1279390735023655
1667824222968149500,0.9771494140625,0.3771691790610552,-0.6903308731138705,-0.11657660728767513
1667824222978157600,0.987157470703125,0.40408348947167394,-0.6922071883797645,-0.08762710125502199
1667824222988165400,0.997165283203125,0.4009820163249969,-0.6693108814388513,-0.0779160372428596
1667824222998173400,1.00717333984375,0.45023792240321636,-0.6409332204774022,-0.07070117396060377
1667824223008181500,1.017181396484375,0.4713929386347532,-0.6719593501210213,-0.04038470868999138
1667824223018189300,1.027189208984375,0.422241077452898,-0.6496703614234924,0.011944503886345773
1667824223028197600,1.03719775390625,0.48891047514677044,-0.5999801555812359,0.0774001327431295
1667824223038205400,1.047205322265625,0.5533452456563711,-0.5767895418688654,0.14674523418596944
1667824223048213500,1.057213623046875,0.5172030881732702,-0.580175384914875,0.20834608731074258
1667824223058220300,1.06722021484375,0.40344694513380525,-0.5943874501407146,0.3013455109875649
1667824223068228600,1.077228515625,0.3690910865455866,-0.5809408163294196,0.38978590138684954
1667824223078236700,1.087236572265625,0.41717561075687404,-0.5672250101879239,0.4359515498321503
1667824223088244500,1.097244384765625,0.44222471181750295,-0.5505807493790984,0.46009624939896165
1667824223098252500,1.10725244140625,0.388980612885952,-0.5565387810006738,0.4459226895526051
1667824223108260400,1.11726025390625,0.32459552673697467,-0.5615525175094604,0.3895898308254778
1667824223118268400,1.127268310546875,0.2456546764910221,-0.5562929895460605,0.34103220920972527
1667824223128276500,1.1372763671875,0.23169161759018897,-0.5323235004156828,0.2757176967235282
1667824223138284500,1.147284423828125,0.36427228808701034,-0.48880467668473715,0.28984064062749965
1667824223148292600,1.157292724609375,0.40238837599158284,-0.4061915676668286,0.2902693691672757
1667824223158300400,1.167300537109375,0.37429859206080435,-0.35548137112706896,0.3022270795950666
1667824223168308500,1.17730859375,0.35260932282209395,-0.4911185065850615,0.3944996320357546
1667824223178316500,1.187316650390625,0.3163958536684513,-0.6346569166868925,0.39311394983101633
1667824223188324400,1.197324462890625,0.29582828193604943,-0.68374857211411,0.3404376773826778
1667824223198332700,1.207332763671875,0.2681979322105646,-0.7191919336780905,0.35638781844750045
1667824223208339500,1.21733935546875,0.29369243895113467,-0.6487286966592073,0.10226162967663258
1667824223218347500,1.227347412109375,0.30254736105799673,-0.5806903486996888,-0.02619845375884324
1667824223228355300,1.237355224609375,0.5392267039328813,-0.8963017739921808,0.44754053654540327
1667824223238363400,1.24736328125,0.8076274652391672,-0.9832476515173911,0.3086663919275626
1667824223248371700,1.257371826171875,0.8760708868682384,-0.7517448344975709,0.18384513991847634
1667824223258379500,1.267379638671875,0.7100222465336322,-0.5465843732193112,0.147518456181325
1667824223268387600,1.2773876953125,0.5517518389850855,-0.512692040489614,0.14491481302157044
1667824223278395400,1.2873955078125,0.4092465713232755,-0.5429974546432494,0.22113906125258653
1667824223288403500,1.297403564453125,0.22310616007447243,-0.5686676102116703,0.304185008729808
1667824223298411500,1.30741162109375,0.0005652326673269272,-0.6760238230809569,0.3583903904415667
1667824223308419600,1.317419677734375,-0.0970095908999443,-0.7745002716630697,0.3733232442226261
1667824223318427600,1.327427734375,0.00887654941678047,-0.6817544756874442,0.2966509964957833
1667824223328435500,1.337435546875,0.10577215854823589,-0.49875908446609973,0.10601517352387309
1667824223338443500,1.347443603515625,0.042754853621125216,-0.3266270325645804,-0.12768193866983055
1667824223348451300,1.357451416015625,-0.13818214376568794,-0.24336247390061616,-0.2990825344916433
1667824223358458600,1.367458740234375,-0.2819499787092209,-0.21747341488450764,-0.37192645610198377
1667824223368466400,1.377466552734375,-0.32887130436003204,-0.15602876610159874,-0.3144097213525325
1667824223378474500,1.387474609375,-0.3013566899687052,-0.08245908749997616,-0.2049447727009654
1667824223388482600,1.397482666015625,-0.31202713706493374,-0.04082096294909716,-0.16310644940286873
1667824223398490400,1.407490478515625,-0.48312487748265265,-0.06608166093379259,-0.29321693039387464
1667824223408498400,1.41749853515625,-0.3041998044401407,-0.08838672398328781,-0.12176438518911599
1667824223418506500,1.427506591796875,-0.06586626461744308,-0.1139732929214835,0.2307001223348081
1667824223428514600,1.4375146484375,-0.07693301755487919,-0.01888444095104933,0.20526187582612038
1667824223438522600,1.447522705078125,-0.07651917605698108,0.1737508852750063,0.026549861012399194
1667824223448530400,1.457530517578125,-0.017184359034895895,0.35034956119656563,-0.055943859409540886
1667824223458538500,1.46753857421875,-0.1647398958235979,0.44273821429759264,0.0259092250213027
1667824223468546300,1.47754638671875,-0.4853782093673944,0.4462412539824843,0.23976371875628827
1667824223478554400,1.487554443359375,-0.649072395530343,0.327769188337028,0.41750381979793305
1667824223488562700,1.497562744140625,-0.3655032911866903,0.2116235198125243,0.4465663942836225
1667824223498570500,1.507570556640625,-0.10508826793730258,0.12045154902487992,0.41057898897081613
1667824223508577500,1.51757763671875,0.031499884635210036,0.07015607076585292,0.3431880720693618
1667824223518585300,1.52758544921875,0.1142635080397129,0.07945172237753868,0.31263533209115263
1667824223528593700,1.53759375,0.17025076819956303,0.15101619863659144,0.3166617380630225
1667824223538601500,1.5476015625,0.12943652725219726,0.22853403034210204,0.3203561356015503
1667824223548609500,1.557609619140625,0.08126432475745678,0.3131500036150217,0.35141843253709376
1667824223558617600,1.56761767578125,-0.011614449948072432,0.402813323405385,0.3494705864049494
1667824223568625400,1.57762548828125,-0.07995441120266913,0.4848597384512424,0.2426040567487478
1667824223578633500,1.587633544921875,-0.11197744292914867,0.5574217013150453,0.1732372366644442
1667824223588641300,1.597641357421875,-0.11001812555491923,0.5846069376215338,0.183845724440366
1667824223598649600,1.607649658203125,-0.2302916876643896,0.5499556032180786,0.20003851515464482
1667824223608657700,1.61765771484375,-0.30210721607506275,0.5002227272778749,0.2051520587760955
1667824223618665500,1.62766552734375,-0.23608605315685272,0.44153585277050733,0.22013949228860435
1667824223628673500,1.637673583984375,-0.18037176471948624,0.41964287765324115,0.2033469821155071
1667824223638681300,1.647681396484375,-0.191086635479331,0.41590164529830215,0.16536562650650738
1667824223648689400,1.657689453125,-0.15199439601898193,0.4954588738769293,0.1148657117165625
1667824223658696400,1.667696533203125,-0.15891279710531234,0.5993097089737653,0.03996697646826505
1667824223668704500,1.67770458984375,-0.11141688643693923,0.7032739413172007,-0.0063150283657014365
1667824223678712600,1.687712646484375,-0.03734977970719337,0.8300821658924221,-0.02535071435570717
1667824223688720400,1.697720458984375,0.015553542962670325,0.9652864628911018,-0.043188276602327824
1667824223698728400,1.707728515625,0.08999006752669811,1.0257821403861045,-0.04090988334156573
1667824223708736500,1.717736572265625,0.13136661853194237,1.0578262149006128,-0.03610569793023169
1667824223718744600,1.72774462890625,0.05383855769336223,1.010768111127615,-0.027536899288371202
1667824223728752400,1.73775244140625,-0.0592646743953228,0.7963204738050699,0.03701272977255284
1667824223738760400,1.747760498046875,-0.21650281628668308,0.5121721082687377,0.12630144409686325
1667824223748768500,1.7577685546875,-0.33230069428682324,0.3473413192912936,0.1334562842875719
1667824223758776300,1.7677763671875,-0.37286300629973407,0.34320991857498884,-0.002686754865944385
1667824223768784600,1.77778466796875,-0.4541302536666393,0.4575207728877663,-0.26834903111904856
1667824223778792400,1.78779248046875,-0.549371081328392,0.7102896652981638,-0.6069849197767675
1667824223788800500,1.797800537109375,-0.6925064635872841,0.9702858786135912,-0.9050602499872445
1667824223798808600,1.80780859375,-0.892065743857622,1.1219824607297777,-1.1759066508799791
1667824223808815400,1.8178154296875,-1.0913000299572944,1.2832713393166661,-1.4236727665670215
1667824223818823700,1.82782373046875,-1.1858464456140994,1.376046361386776,-1.5022932988174258
1667824223828831500,1.83783154296875,-1.1785025125920772,1.287389588290453,-1.4196629464037716
1667824223838839600,1.847839599609375,-1.0409697726458311,1.0523325859203934,-1.202104629714787
1667824223848847400,1.857847412109375,-0.726136345988512,0.7146262331977487,-0.8481918230786919
1667824223858855400,1.86785546875,-0.3813251296967268,0.40587651036828754,-0.49592985238954423
1667824223868863500,1.877863525390625,-0.07172317395210266,0.22211685677617787,-0.36574265290051694
1667824223878871600,1.88787158203125,0.27925007210075853,-0.000654079994559288,-0.2998778495877981
1667824223888879600,1.897879638671875,0.496772294563055,-0.0869400323063135,-0.3006786445766687
1667824223898887400,1.907887451171875,0.5706558614194392,-0.07357230895012616,-0.44313159752935166
1667824223908895500,1.9178955078125,0.6461158838123082,-0.09132453100085258,-0.24430749966576695
1667824223918903600,1.927903564453125,0.920227423980832,-0.038783611902594564,-0.01912628688290715
1667824223928911400,1.937911376953125,0.9440630575984715,-0.15618015727102755,0.3259767519623041
1667824223938919400,1.94791943359375,1.0587240405231713,-0.20977409255355595,0.2976461450129747
1667824223948927500,1.957927490234375,0.964224971139431,-0.2671405321121216,-0.25972952520325776
1667824223958934500,1.9679345703125,0.6894342165350914,-0.5892600241243839,-0.020217296990007162
1667824223968942300,1.9779423828125,1.0962830790668725,-0.6495496576532721,-0.06563223666585981
1667824223978950400,1.987950439453125,1.3061141625046728,-0.2381219428986311,-0.21569946401454507
1667824223988958700,1.997958740234375,0.9923071562856435,0.2511310620754957,-0.1421682177271694
1667824223998966500,2.007966552734375,0.41216392007470126,0.6166121414303779,-0.5475867551948875
1667824224008974600,2.017974609375,-0.17003566414415835,0.9445102168440819,-1.0474490516625343
1667824224018982400,2.027982421875,-0.6889174991846084,1.0819354047626257,-1.314594406080246
1667824224028990500,2.037990478515625,-0.6516922226399183,0.7857891429185867,-1.4763994174957276
1667824224038998500,2.04799853515625,-0.20195523549616334,0.19178747722506523,-1.3315820734992623
1667824224049006300,2.05800634765625,0.09917816711068153,-0.3465428623899817,-1.029752651452273
1667824224059014700,2.0680146484375,0.005790273839235306,-0.5269479448571801,-0.8060601428572088
1667824224069022500,2.0780224609375,-0.004378068953752518,-0.29635961233377456,-0.46071967852693047
1667824224079030500,2.088030517578125,0.19538228684663772,-0.12309154213964939,-0.11784881918057799
1667824224089038300,2.098038330078125,0.4316746762305498,-0.03336377881094813,0.027466683596372603
1667824224099046400,2.10804638671875,0.9804226572245359,0.13584595590308307,0.5468319182395934
1667824224109053400,2.118053466796875,1.286827862754464,0.4281695907190442,1.6709247952520847
1667824224119061500,2.1280615234375,0.6382698464870452,0.45354996956065297,2.0126583576641974
1667824224129069600,2.138069580078125,0.18626023823618887,0.2730142464511096,1.055981463816762
1667824224139077400,2.148077392578125,0.3436094392865896,0.26299407995715735,0.17971731939874588
1667824224149085400,2.15808544921875,0.4122112663477659,0.4013274687618017,-0.2720809111237526
1667824224159093500,2.168093505859375,0.37070728957057,0.48867608186900613,-0.28104265460595484
1667824224169101600,2.1781015625,0.4697328964680433,0.517100796842575,-0.029604937734082338
1667824224179109600,2.188109619140625,0.6232581553161144,0.4986877727955579,0.1078271913819015
1667824224189117400,2.198117431640625,0.7808142771154641,0.5060480724304914,0.01208732815682888
1667824224199125500,2.20812548828125,1.048907579907775,0.6212406780138612,-0.20765286261588334
1667824224209133300,2.21813330078125,1.3338883046150207,0.7325958973914385,-0.2430569150827825
1667824224219141400,2.228141357421875,1.4151064521431922,0.7742723081260919,-0.09091448889523744
1667824224229149700,2.238149658203125,1.4503858553171156,0.7199003742083907,0.16427183992043137
1667824224239157500,2.248157470703125,1.5529741231322287,0.633928602412343,0.3724336749717593
1667824224249164500,2.25816455078125,1.6356097362428903,0.595190583217144,0.4946361593171954
1667824224259172400,2.26817236328125,1.6003957995206117,0.5716287981048226,0.5682296571858227
1667824224269180400,2.278180419921875,1.4411112464934586,0.5498471744075417,0.6253961902581155
1667824224279188500,2.2881884765625,1.362097915533185,0.5482490915611385,0.6351638432957232
1667824224289196500,2.298196533203125,1.3364210379630326,0.5594198893949389,0.6109070616565644
1667824224299204600,2.30820458984375,1.223632278650999,0.5889312305614351,0.649857700689137
1667824224309212400,2.31821240234375,1.006250925964117,0.5591173993170261,0.7623758263662457
1667824224319220500,2.328220458984375,0.8181120343744754,0.4404799139767885,0.884432472500205
1667824224329228300,2.338228271484375,0.6258908419072627,0.35941871057599784,0.9875434490151703
1667824224339236600,2.348236572265625,0.44263037000894545,0.3553220889121294,1.0036850209988653
1667824224349244700,2.35824462890625,0.29374972209632394,0.3509878591001034,0.971035089545697
1667824224359252500,2.36825244140625,0.11482055740058421,0.2980658317297697,1.0099470040030776
1667824224369260500,2.378260498046875,-0.06463759960532188,0.26205636071562766,1.1211413337305187
1667824224379268400,2.388268310546875,-0.0870540140748024,0.33395109184235333,1.1084488792873919
1667824224389276400,2.3982763671875,-0.10142156212329864,0.5185831443548202,1.0322539667487143
1667824224399283500,2.408283447265625,-0.2542459792256355,0.6425070456653833,1.121503591171652
1667824224409291500,2.41829150390625,-0.43573242718875405,0.6027768005624413,1.339421096561849
1667824224419299600,2.428299560546875,-0.6022060149371624,0.5075839036956429,1.5013779375381766
1667824224429307400,2.438307373046875,-0.7612661115586757,0.48386137506365773,1.5933178239583967
1667824224439315500,2.4483154296875,-0.9011877924680709,0.5013017546862364,1.6377423643574118
1667824224449323500,2.458323486328125,-0.9963894571632146,0.5414414573729038,1.644330072184652
1667824224459331600,2.46833154296875,-1.0967127026557921,0.5685495367899537,1.6609750636458396
1667824224469339400,2.47833935546875,-1.1600848123699425,0.5560390147849917,1.656251103863865
1667824224479347500,2.488347412109375,-1.167954230570793,0.5931272209465503,1.6529159680917858
1667824224489355500,2.49835546875,-1.1700117476224898,0.6629258565768599,1.571634984460473
1667824224499363300,2.50836328125,-1.136092526885867,0.6902800197094678,1.52023183722049
1667824224509371400,2.518371337890625,-1.1797048741191625,0.6673430884972215,1.4801289594128728
1667824224519379500,2.52837939453125,-1.2439689642369747,0.6342109264850616,1.5022700640723108
1667824224529387500,2.538387451171875,-1.2381021180301903,0.5563911892235279,1.5559923019096253
1667824224539394300,2.548394287109375,-1.1787316451728342,0.41391222504675385,1.598226054266095
1667824224549402400,2.55840234375,-1.0506184754788874,0.26648908246606584,1.6269970984593032
1667824224559410700,2.56841064453125,-0.9526830019056797,0.19694412933588026,1.6316674283578991
1667824224569423000,2.578423095703125,-0.8251613683640956,0.12784545866847039,1.6195020665287971
1667824224579431200,2.58843115234375,-0.7122001750946044,0.04212240093648433,1.573140128326416
1667824224589439200,2.598439208984375,-0.5965414133042096,-0.039024434921145434,1.5392602166868745
1667824224599447000,2.608447021484375,-0.4916448685467243,-0.0868184517532587,1.5573727964825927
1667824224609455000,2.618455078125,-0.37890053289830683,-0.08945581451952457,1.578447148693353
1667824224619463200,2.628463134765625,-0.22213293112814425,-0.11147621540874242,1.5579628713302314
1667824224629471000,2.638470947265625,-0.10103636219799518,-0.15904840618371963,1.502823314040899
1667824224639479000,2.64847900390625,-0.1037456211566925,-0.1940118752762675,1.472073370990157
1667824224649487000,2.658487060546875,-0.15640987437367437,-0.25558161174356936,1.4467162268936633
1667824224659495200,2.6684951171875,-0.1693979507625103,-0.3085305271208286,1.3825821928963065
1667824224669503200,2.678503173828125,-0.24444646974503992,-0.33224516470730303,1.2867241101190448
1667824224679511000,2.688510986328125,-0.34953766029179095,-0.3588394493833184,1.267279843328148
1667824224689519000,2.69851904296875,-0.501641946426034,-0.39075814395248887,1.2040151395112275
1667824224699526100,2.708526123046875,-0.6254746623218059,-0.3723918816566467,1.1040985751233994
1667824224709534200,2.7185341796875,-0.6420236460626125,-0.28040362605005503,1.0280275812253354
1667824224719542000,2.7285419921875,-0.6512742894887924,-0.18065555009692907,0.92743954731673
1667824224729550000,2.738550048828125,-0.7180828033924103,-0.10023498268723487,0.836952197792381
1667824224739558100,2.74855810546875,-0.835140326064825,-0.06822276461571454,0.7767689472474157
1667824224749566000,2.75856591796875,-0.8504179746955632,-0.06968640742748976,0.7620974478162824
1667824224759574300,2.76857421875,-0.8082815452337264,-0.06878536693453788,0.660775400544703
1667824224769582000,2.77858203125,-0.8430278644442558,-0.05426087475866079,0.5409202099777758
1667824224779590100,2.788590087890625,-0.8558060974746942,-0.07279547935873269,0.46005789014995097
1667824224789598200,2.79859814453125,-0.8434878831714391,-0.10772621522545814,0.33768560219556093
1667824224799606000,2.80860595703125,-0.7815618806123733,-0.07691928129047156,0.15085443220362066
1667824224809614000,2.818614013671875,-0.6406196244835853,0.00014905308187007903,-0.011307868216931818
1667824224819622100,2.8286220703125,-0.5395645575851201,0.06533493421971798,-0.09354629870355129
1667824224829630200,2.838630126953125,-0.4959440270453691,0.08121756300628184,-0.18467647617608307
1667824224839637000,2.848636962890625,-0.36251346172094345,0.13627631014436484,-0.27318580362573264
1667824224849645000,2.85864501953125,-0.19673136336803435,0.21075871967673301,-0.3631855157636106
1667824224859653000,2.868653076171875,-0.0614864420980215,0.261524153535068,-0.3938132937394082
1667824224869661200,2.8786611328125,0.0646282472550869,0.28516134197115894,-0.35113837348669763
1667824224879669200,2.888669189453125,0.1589718338161707,0.2935664744839072,-0.3290199190504849
1667824224889677000,2.898677001953125,0.22716917172968387,0.2956634467631578,-0.2925539364404976
1667824224899685000,2.90868505859375,0.21730887197256088,0.2662204946577549,-0.24958149454593656
1667824224909693000,2.91869287109375,0.18967618415951729,0.2225599243685603,-0.2645708277545869
1667824224919701000,2.928700927734375,0.19026070604920386,0.20669687706530093,-0.30908348482847214
1667824224929709300,2.938709228515625,0.1303232469588518,0.22907500535100697,-0.4443867121569812
1667824224939717000,2.948717041015625,0.07261047818064689,0.2423480361610651,-0.5801110875070095
1667824224949725200,2.95872509765625,-0.04219546617269516,0.25356588800698515,-0.6664055153861641
1667824224959733000,2.96873291015625,-0.24818857888281343,0.255712836907804,-0.7690645103499293
1667824224969741000,2.978740966796875,-0.37138065878748894,0.2748043447382748,-0.8811588576570153
1667824224979748000,2.988748046875,-0.5154091904938221,0.341324981611222,-1.0054407786250115
1667824224989756200,2.998756103515625,-0.7393594001770019,0.37916049900874493,-1.1205214482665062
1667824224999764200,3.00876416015625,-0.9578834931582212,0.4078713374473154,-1.2690901076205074
1667824225009772000,3.01877197265625,-1.0944260530233383,0.4155800121285021,-1.4055179550647734
1667824225019780000,3.028780029296875,-1.159718317145109,0.4256654989436269,-1.5529653553038834
1667824225029788000,3.038787841796875,-1.125658226633072,0.4863711659274995,-1.7201839162006973
1667824225039796200,3.048796142578125,-1.0030173508703708,0.5873115204051137,-1.859575143495202
1667824225049804300,3.05880419921875,-0.7773521539628505,0.6561195375628769,-1.903200496340543
1667824225059812000,3.06881201171875,-0.45406654078066344,0.6662836425721645,-1.9093802078887818
1667824225069820200,3.078820068359375,-0.153062902033329,0.576746433379501,-1.8430745289407668
1667824225079828000,3.088827880859375,0.13079261803627013,0.37865444918274876,-1.6342589061558246
1667824225089836000,3.0988359375,0.4798153145432472,0.13432079216241835,-1.456582371869683
1667824225099844000,3.108843994140625,0.7408370715141296,-0.07010609414428472,-1.2645780370235442
1667824225109852200,3.11885205078125,0.9986930579304695,-0.2750872533328831,-1.0679869589090347
1667824225119860200,3.128860107421875,1.2115870360702274,-0.4566670786678791,-0.9226054051585495
1667824225129867000,3.138866943359375,1.3474953896850346,-0.5780825042888522,-0.8169662253402173
1667824225139875000,3.148875,1.3935919549494982,-0.6625919484473765,-0.7589302159570157
1667824225149883100,3.158883056640625,1.4189683882683515,-0.6895033362485468,-0.6196551623880863
1667824225159891200,3.16889111328125,1.502223010060191,-0.6599247750647366,-0.5171976813457906
1667824225169899300,3.178899169921875,1.4858365234047173,-0.5951847379982471,-0.4723169216118753
1667824225179907000,3.188906982421875,1.4433750997722148,-0.5803210769958794,-0.41155967057123777
1667824225189915100,3.1989150390625,1.4436714523702858,-0.5603673993781209,-0.34358167449682947
1667824225199923000,3.2089228515625,1.3660522061169147,-0.5338944029942154,-0.2797812563680112
1667824225209931000,3.218930908203125,1.376152744370699,-0.5415615766212344,-0.24435177719891069
1667824225219939300,3.228939208984375,1.4098387408733366,-0.5409250322833657,-0.26676439227610826
1667824225229947100,3.238947021484375,1.2571101853609083,-0.48441842442452904,-0.20807488742023705
1667824225239955200,3.248955078125,0.9758534496128558,-0.40774186584874983,-0.15444646534621714
1667824225249963000,3.258962890625,0.9379910442084074,-0.3508046114876866,-0.1492689165778458
1667824225259971000,3.26897119140625,0.9418021269291639,-0.29505072169229385,-0.05989478899240493
1667824225269979000,3.278978759765625,0.9171960934609175,-0.27348040265813467,0.011727262672781943
1667824225279986200,3.288986083984375,0.8893366111546754,-0.17055413506031036,-0.16650836680084466
1667824225289994000,3.298993896484375,1.0071960978597403,0.03111936088502407,-0.6095122462972998
1667824225300002000,3.309001953125,0.8464490710645913,-0.3483798685587942,-0.49115394322462375
1667824225310010000,3.319010009765625,0.8750333605140447,-0.42377997745797036,0.24868900268562136
1667824225320018200,3.32901806640625,0.8949521129488944,-0.16488602629601953,0.6172466399416328
1667824225330026200,3.339026123046875,0.936035233965516,-0.17066826295927165,0.6426866400159895
1667824225340034000,3.349033935546875,1.1501935329526662,-0.3265652193747461,0.5543588796783239
1667824225350042000,3.3590419921875,1.3069213872343302,-0.32569764275997876,0.4405588244318962
1667824225360050200,3.36905029296875,1.2360212201029062,-0.29381518854796884,0.3751327047973871
1667824225370058000,3.37905810546875,1.2056804423749445,-0.3468073585450649,0.46046442512422797
1667824225380066000,3.389066162109375,1.1892372570961713,-0.425020917429775,0.5648918180000037
1667824225390074000,3.39907421875,1.0928630414903164,-0.40773660515174265,0.46074112317375837
1667824225400082200,3.409082275390625,0.45658699916899204,-0.25621406442821026,0.276423251176998
1667824225410090200,3.41909033203125,0.5159142174065112,-0.2011776752524078,0.27422479128465055
1667824225420097000,3.429096923828125,0.6870633957505226,-0.18637334322184324,0.3848902017671615
1667824225430105000,3.43910498046875,0.3640583530753851,-0.20626111599653957,0.49304954771287735
1667824225440113200,3.449113037109375,0.6514934851974249,-0.2131532135978341,0.3971086089577526
1667824225450121200,3.459121337890625,0.6702344260245561,-0.13259002284705637,0.4045968458212912
1667824225460129000,3.46912890625,0.6697323217213154,0.0069242463052272794,0.27778116859197616
1667824225470137000,3.47913720703125,0.6387883174031973,0.1445209913983941,0.08806151061691343
1667824225480145200,3.489145263671875,0.4110515749186277,0.2666419349402189,-0.1165082182265818
1667824225490153000,3.499153076171875,0.19866203916966915,0.3734846453294158,-0.2646525146886706
1667824225500161300,3.509161376953125,0.1546188993036747,0.5200093777656555,-0.4483798734463751
1667824225510169000,3.519169189453125,0.09442132797241211,0.6138090667083859,-0.6188419463090599
1667824225520177200,3.52917724609375,0.060628363963961596,0.6433893814578652,-0.8090440540388226
1667824225530185200,3.539185302734375,-0.055501522469520566,0.6929752501428127,-0.927906726437062
1667824225540193000,3.549193115234375,-0.08815116166174411,0.6781608351096511,-0.86370298820436
1667824225550201000,3.559201171875,-0.08673661868870258,0.5967316751793027,-0.8055399914406239
1667824225560209200,3.569209228515625,-0.042594694623351095,0.46011254294663667,-0.8166280794270336
1667824225570211000,3.579211181640625,0.05046586638987064,0.28968758722394705,-0.8332315698340534
1667824225580219400,3.589219482421875,0.06375730963945389,0.15479776300191878,-0.7989671889215707
1667824225590227200,3.599227294921875,0.13801964668035507,0.08484335228800773,-0.7936316731125116
1667824225600235300,3.6092353515625,0.17288111670315265,0.08402034546732902,-0.8225207907274364
1667824225610243300,3.619243408203125,0.12652034754455088,0.11596709708720444,-0.7997090933300555
1667824225620251100,3.629251220703125,0.08338613921701908,0.14180880983024835,-0.7778921060584485
1667824225630259200,3.63925927734375,0.045165421894192696,0.19351736975759268,-0.8211916610155254
1667824225640267000,3.64926708984375,-0.08750994114875793,0.31845541654676196,-0.8559496706638484
1667824225650275300,3.659275390625,-0.2328144841402769,0.39001024819463487,-0.8233833989061414
1667824225660283400,3.669283447265625,-0.38609599736034866,0.3742205583885312,-0.7796500556416809
1667824225670291200,3.679291259765625,-0.4564958137542009,0.3880389481216669,-0.7619397730365395
1667824225680299300,3.68929931640625,-0.5327542930483817,0.48574850398451086,-0.7101940959692001
1667824225690307000,3.69930712890625,-0.641843613320589,0.6256888895943761,-0.5996781038947403
1667824225700315100,3.709315185546875,-0.7311462831050157,0.7888646048411726,-0.5020822375394404
1667824225710322200,3.719322265625,-0.7890712333291768,0.9914470323249697,-0.5236372128739952
1667824225720330200,3.729330322265625,-0.7890127811402082,1.1663418269380927,-0.5790392935570329
1667824225730338300,3.73933837890625,-0.7910860802829265,1.2619687313079833,-0.6219879892498255
1667824225740346000,3.74934619140625,-0.791305275991559,1.246478901231289,-0.5718605610340833
1667824225750354200,3.759354248046875,-0.7963187202394009,1.2434785503715275,-0.5384709171295166
1667824225760362200,3.7693623046875,-0.7470821033835411,1.2632497110292316,-0.5085362359844148
1667824225770370300,3.779370361328125,-0.6596294453799724,1.2550173047348856,-0.5199040176950395
1667824225780378400,3.78937841796875,-0.5187789591878652,1.258718497340381,-0.5182249785669147
1667824225790386200,3.79938623046875,-0.2749602659523487,1.2542191400945186,-0.5318174505896865
1667824225800394200,3.809394287109375,-0.056463060978054994,1.205208148688078,-0.5376026098623872
1667824225810402000,3.819402099609375,0.08949556200802326,1.0719894725486636,-0.4802129355587065
1667824225820410400,3.829410400390625,0.2175526176005602,0.8645350551143288,-0.36538551002591846
1667824225830418400,3.83941845703125,0.32758827881217,0.6476645745590329,-0.26712343484684825
1667824225840426200,3.84942626953125,0.39097149444222445,0.4661839718148112,-0.25370675778239965
1667824225850433300,3.859433349609375,0.3609562954068184,0.2686246331900358,-0.2103711816638708
1667824225860441000,3.869441162109375,0.31002339602708817,0.06987666930258274,-0.21864567353427408
1667824225870449400,3.879449462890625,0.25394319688677786,-0.05364975712299347,-0.26946882892921564
1667824225880457200,3.889457275390625,0.12462766566574572,-0.08630261118561029,-0.28770985741019245
1667824225890465300,3.89946533203125,0.012331658306717872,-0.07291209147572517,-0.255395733782649
1667824225900473300,3.909473388671875,-0.08110065862834454,-0.014087269802391528,-0.22500205682367086
1667824225910481200,3.919481201171875,-0.2647416542768478,0.023727204807102678,-0.19739888736605643
1667824225920489200,3.9294892578125,-0.5075953018724918,0.010655834048986434,-0.16355185508280992
1667824225930497300,3.939497314453125,-0.6945458604604006,0.06363397552073001,-0.15174802004247903
1667824225940505300,3.94950537109375,-0.6773100634992122,-0.01308247667402029,-0.10971592773795127
1667824225950513200,3.95951318359375,-0.8610697170913219,0.11924246549606322,-0.11001768716350196
1667824225960521200,3.969521240234375,-1.1260358277738094,0.24624855073094368,-0.07520940863266587
1667824225970529300,3.979529296875,-1.306266722717881,0.32026801892668005,-0.013373422444611788
1667824225980537000,3.989537109375,-1.4246253911167381,0.4074304618120193,0.04296177437007427
1667824225990545200,3.999545166015625,-1.4806588285058735,0.517171816252172,0.03927417189851403
1667824226000552200,4.00955224609375,-1.4634201089352368,0.597564618872106,-0.021682254976034165
1667824226010560300,4.019560302734375,-1.3715174857854842,0.6405030123665928,-0.06013853462040424
1667824226020568000,4.029568115234375,-1.2996399980545044,0.599005319199711,-0.010906301678717137
1667824226030576000,4.039576171875,-1.158483806914091,0.5091197349607944,0.06376783103346824
1667824226040584400,4.04958447265625,-0.9418851290374993,0.4177383592061698,0.11049188054651021
1667824226050592300,4.05959228515625,-0.7649041758000851,0.3129483435630798,0.1893853845193982
1667824226060600300,4.069600341796875,-0.5739753612309694,0.12959464042335747,0.33480727028027174
1667824226070608100,4.079608154296875,-0.34776948157548904,-0.051882162928581235,0.465190284602344
1667824226080616200,4.0896162109375,-0.13042320020198822,-0.17041180398017167,0.5309682864144444
1667824226090624300,4.099624267578125,0.08565233058333396,-0.2395607435300946,0.6159276662975549
1667824226100632000,4.109632080078125,0.2704366510480642,-0.2568497319832444,0.6359376041471958
1667824226110640400,4.119640380859375,0.39349078378677366,-0.25554639429971576,0.6415073671035468
1667824226120648200,4.129648193359375,0.47427170894145965,-0.2850669416859746,0.6657957129247486
1667824226130655200,4.1396552734375,0.5293126281619072,-0.2917899663306773,0.655137394657731
1667824226140663000,4.1496630859375,0.5396884762257337,-0.2644154910624027,0.6384123236976563
1667824226150671400,4.15967138671875,0.5266548071295023,-0.19456790172383187,0.6084963472530246
1667824226160679400,4.169679443359375,0.38905952334105964,-0.1459109844520688,0.569516920517385
1667824226170687200,4.179687255859375,0.24237200155854224,-0.13393193897530437,0.5318655275151133
1667824226180695300,4.1896953125,0.10420447084009647,-0.10479264599159359,0.4313737935878336
1667824226190703000,4.199703125,-0.020645897665619847,-0.0198604463763535,0.30053865158408877
1667824226200711200,4.209711181640625,-0.2128413711696863,0.05698635419979691,0.16803119245395062
1667824226210719200,4.21971923828125,-0.4051835596680641,0.11255509668663144,0.000765139153599739
1667824226220727300,4.229727294921875,-0.515446599894762,0.19380612357109783,-0.1930105892792344
1667824226230735400,4.2397353515625,-0.6126309628397226,0.29443010557591914,-0.35650282312929626
1667824226240743200,4.2497431640625,-0.7000397817015648,0.3735895670086145,-0.44668432157486676
1667824226250751200,4.259751220703125,-0.697072164067626,0.44268034663051364,-0.487615174639225
1667824226260759300,4.26975927734375,-0.5446206719309091,0.5137137847527862,-0.5173351901203393
1667824226270767000,4.27976708984375,-0.34860885500907896,0.6076470369473099,-0.4783027180232107
1667824226280774400,4.2897744140625,-0.11467910310328006,0.6800003254964947,-0.3578732346996665
1667824226290782200,4.2997822265625,0.09787234520912169,0.6666609514519571,-0.18065496557503938
1667824226300790300,4.309790283203125,0.3441565517753363,0.6125597972996533,0.0172167999997735
1667824226310798000,4.319798095703125,0.5509872843533754,0.5594836022809148,0.24911782255694268
1667824226320806100,4.32980615234375,0.7676631191194057,0.5062757437065244,0.4372599290169775
1667824226330814200,4.339814208984375,0.9686983171612024,0.4690288398519158,0.6133899645134806
1667824226340822300,4.349822265625,1.1183446887493134,0.44536300984323024,0.8019174170292913
1667824226350830300,4.359830322265625,1.2362456765085459,0.41818215745091436,0.9730237791448831
1667824226360838100,4.369838134765625,1.2840075446367263,0.36234015098065137,1.1486395815089345
1667824226370846200,4.37984619140625,1.2895137408375739,0.29117753352075815,1.29087786879763
1667824226380854000,4.38985400390625,1.2855249634623527,0.2538447049483657,1.397767048677057
1667824226390862300,4.3998623046875,1.273289751267433,0.269041981819272,1.4982595132566987
1667824226400870400,4.409870361328125,1.2088806997209787,0.267378432521224,1.5927667659468947
1667824226410878200,4.419878173828125,1.0931669928729533,0.19259674778133629,1.7040286079525946
1667824226420886300,4.42988623046875,1.0249415979087353,0.08498597562909126,1.8447656968981025
1667824226430893000,4.43989306640625,0.9565116202831268,-0.001791267330944538,1.925364397353679
1667824226440901400,4.4499013671875,0.8424222997665405,-0.0822305394411087,2.008748490744084
1667824226450909200,4.4599091796875,0.7138572946518659,-0.15527970129996538,2.041460673778504
1667824226460917200,4.469917236328125,0.5168231489449739,-0.19295652100443839,2.0249207501269875
1667824226470925300,4.47992529296875,0.29056524684131146,-0.20097791489660738,1.9941794287741184
1667824226480933000,4.48993310546875,0.06786299139261245,-0.16414835967123506,1.965577457537502
1667824226490941200,4.499941162109375,-0.20858955894410608,-0.06545885286033153,1.9070345215454696
1667824226500949200,4.50994921875,-0.46168812170028684,0.07302987263649702,1.811332798373699
1667824226510957300,4.519957275390625,-0.636492899942398,0.20431115097254512,1.72515878200382
1667824226520965400,4.52996533203125,-0.759689656022191,0.28799656539708374,1.6559192415609956
1667824226530973200,4.53997314453125,-0.8188175522953272,0.3315732567951083,1.6304656513527034
1667824226540981200,4.549981201171875,-0.9393103101134299,0.32994653237611055,1.6323856596298514
1667824226550989000,4.559989013671875,-1.0074567946225403,0.3140492905423045,1.6186372663930058
1667824226560996400,4.569996337890625,-1.03325057657063,0.3278738177552819,1.5544043020658194
1667824226571005200,4.580005126953125,-1.051408164551854,0.3281578953936696,1.4701029477000236
1667824226581013000,4.590012939453125,-1.0545569839715958,0.2981149315685034,1.442591255918145
1667824226591021000,4.60002099609375,-1.039110408514738,0.24964871456325052,1.3901925217695534
1667824226601028900,4.61002880859375,-0.9433259754955768,0.1965919548973441,1.3113146537572145
1667824226611037000,4.620036865234375,-0.8916893117606639,0.14111498234719036,1.2388425611339509
1667824226621045000,4.630044921875,-0.7971452341914177,0.08290683126747608,1.1690208368889987
1667824226631053000,4.640052978515625,-0.6287474003821611,0.06316109731197357,1.073764081005752
1667824226641061000,4.65006103515625,-0.46867666541337966,0.07036357603669166,1.029282695852965
1667824226651069000,4.66006884765625,-0.3399228597283363,0.042110125976800916,1.0101520250558853
1667824226661077000,4.670076904296875,-0.1106342116266489,0.022865035019814968,0.9683245154127478
1667824226671084800,4.680084716796875,0.0901817907065153,0.023752339248359202,0.933743323636055
1667824226681092900,4.6900927734375,0.2206839013636112,0.013378537011146545,0.9104185621500015
1667824226691101200,4.70010107421875,0.3405027054429054,-0.02561024207472801,0.9086424923881888
1667824226701108000,4.71010791015625,0.39157355198860166,-0.08202011156082153,0.9150609811283648
1667824226711116000,4.720115966796875,0.4994681095182895,-0.14578648128956556,0.8929245526440441
1667824226721123800,4.730123779296875,0.6483575252592563,-0.1360337335601449,0.8399385201267897
1667824226731132000,4.7401318359375,0.7055828027814627,-0.09646540102064609,0.8418459611833095
1667824226741140000,4.750139892578125,0.7489537424743175,-0.1663628208503127,0.9208155991323291
1667824226751148000,4.76014794921875,0.699782007548213,-0.263514158308506,0.9340671487629413
1667824226761156000,4.770156005859375,0.6028969198107719,-0.32331367023289204,0.9952978625342249
1667824226771164000,4.780163818359375,0.42645723384320733,-0.3404188265517354,0.977023516305536
1667824226781172000,4.790171875,0.31548166143298145,-0.24750819540321825,0.8574854288637638
1667824226791179800,4.8001796875,0.17998013505339622,-0.07723404632806778,0.7121689031735062
1667824226801188000,4.81018798828125,-0.15175415752232074,0.06004150398671627,0.5722158042125404
1667824226811196200,4.820196044921875,-0.4348369396537542,0.2141211818471551,0.37052214226201174
1667824226821204000,4.830203857421875,-0.6790887636095285,0.3944949923932552,0.152246032692492
1667824226831212000,4.8402119140625,-0.9598317046165465,0.5488502723246812,-0.03610796295255422
1667824226841219800,4.8502197265625,-1.0863128891944884,0.6572723608598112,-0.24847616365253924
1667824226851227100,4.86022705078125,-1.1225596760958432,0.7617629551649093,-0.37821357354745266
1667824226861235000,4.87023486328125,-1.0739210251331328,0.8526558167502284,-0.4559717898800969
1667824226871243000,4.880242919921875,-0.9473048159986733,0.9501526066452264,-0.5549130794949829
1667824226881251000,4.8902509765625,-0.8026964385777712,1.0042910240679979,-0.5598448368087411
1667824226891259000,4.9002587890625,-0.6209148070603608,0.990455975461006,-0.5184722313262522
1667824226901267000,4.910266845703125,-0.43774493605494497,0.9602119361057877,-0.5120797538101672
1667824226911275000,4.92027490234375,-0.2890332149684429,0.8628168530195951,-0.48733460413217544
1667824226921283000,4.930282958984375,-0.1875619684845209,0.7214017186820506,-0.46264089238047595
1667824226931291100,4.940291015625,-0.15922142466306685,0.5597825852274895,-0.43660058832541104
1667824226941299000,4.950298828125,-0.18998773432672023,0.39894086588621136,-0.49968759748786684
1667824226951307000,4.96030712890625,-0.22158114246428012,0.2733050460912287,-0.6226894155174494
1667824226961314800,4.970314697265625,-0.31553426840305326,0.2399212474055588,-0.812365015155077
1667824226971323100,4.9803232421875,-0.5230027143627405,0.1933380676679313,-1.066278839816898
1667824226981330000,4.990329833984375,-0.6736398505538702,0.19397578104957938,-1.377846834937483
1667824226991338000,5.000337890625,-0.7150052956432104,0.31856209179162975,-1.6631836796060204
1667824227001345800,5.010345703125,-0.7805015579044818,0.44336642919853325,-1.8860576383598149
1667824227011353900,5.020353759765625,-0.8278864094138145,0.4753273554742336,-1.9771645810872316
1667824227021362200,5.030362060546875,-0.7023936513513326,0.40948476399332284,-2.0215898521386086
1667824227031370000,5.040369873046875,-0.6248650059908628,0.28781916300356386,-2.030104874766618
1667824227041378000,5.0503779296875,-0.5088467632383108,0.13959084151983261,-1.9864489806525407
1667824227051385900,5.0603857421875,-0.2883715361893177,-0.004401011437922716,-1.9680293807342648
1667824227061394000,5.070393798828125,-0.15933423738777636,-0.1012025125451386,-1.948744834549725
1667824227071402000,5.080402099609375,0.048905777466297144,-0.2819192913100123,-1.8794481570921837
1667824227081410000,5.09041015625,0.20101357073187825,-0.4336090052939951,-1.792848024264723
1667824227091418000,5.100418212890625,0.33189328252971173,-0.4811182138353586,-1.6959731656603514
1667824227101426000,5.110426025390625,0.425810752633214,-0.5214318117842078,-1.6254351098395883
1667824227111434000,5.12043408203125,0.46943946647942064,-0.5365608457244933,-1.4931588291168212
1667824227121440800,5.130440673828125,0.5659978064805269,-0.5437446197487413,-1.3206409927681089
1667824227131449000,5.140448974609375,0.6224819102466106,-0.5173763989135622,-1.148401388838887
1667824227141457200,5.15045703125,0.69089142960608,-0.49672290246337647,-0.9398290732905268
1667824227151465000,5.16046484375,0.7206827567577362,-0.5017579740211368,-0.7224418753847479
1667824227161473000,5.17047314453125,0.776424517723918,-0.5060476340390742,-0.5064867561087012
1667824227171480800,5.180480712890625,0.8454957158625125,-0.4752360239289701,-0.3415589364975691
1667824227181489000,5.190489013671875,0.9066805446654558,-0.42250688878223297,-0.16433394537121057
1667824227191497000,5.2004970703125,0.9495055409133434,-0.39185792188793417,0.02047463275194168
1667824227201505000,5.210505126953125,1.0414718769490718,-0.3610293606430292,0.16839929511398077
1667824227211513000,5.22051318359375,1.167924419954419,-0.2840833374761045,0.2610083129674196
1667824227221521000,5.23052099609375,1.2325234411150217,-0.20831731787398455,0.3153267631322145
1667824227231529000,5.240529052734375,1.2981219947069882,-0.16595131743997335,0.3816451554313302
1667824227241537000,5.250537109375,1.35129010579288,-0.18688450761437414,0.4757838670700788
1667824227251544800,5.260544921875,1.4327122514605521,-0.1990904937148094,0.5339160303041338
1667824227261552000,5.27055224609375,1.5400702178955077,-0.15100553111210466,0.5574003662660718
1667824227271560000,5.280559814453125,1.6274346130937336,-0.06955971230790019,0.603202624759078
1667824227281568000,5.290568115234375,1.7175842550963163,-0.06865998698920012,0.6788514477223158
1667824227291575800,5.300575927734375,1.7901403727412222,-0.1633721146017313,0.7408446702986955
1667824227301584100,5.310584228515625,1.8152894270449875,-0.2620768189817667,0.8055519741393625
1667824227311592200,5.32059228515625,1.80635150282979,-0.36921705101281405,0.887375247953832
1667824227321600000,5.33060009765625,1.8001573243647813,-0.5040450620450079,0.9462867249973118
1667824227331608000,5.340608154296875,1.7741718192368745,-0.6107505559206009,0.966361983168125
1667824227341615900,5.350615966796875,1.6186322979569434,-0.6739771196842194,0.9805527133449912
1667824227351624000,5.3606240234375,1.3859177670598029,-0.6787360046491027,0.9288027984939515
1667824227361632000,5.370632080078125,1.1901952884733675,-0.6029715924821794,0.7978327780641615
1667824227371640000,5.38064013671875,0.9845902982980013,-0.5429153293177486,0.6552379324227571
1667824227381648100,5.390648193359375,0.7672516157090663,-0.4543460883744061,0.44123073234409094
1667824227391656000,5.400656005859375,0.5162286901831626,-0.35123555025085806,0.2240551313623786
1667824227401663000,5.4106630859375,0.32299393675923344,-0.30313626686185596,-0.004203296908736229
1667824227411671000,5.420671142578125,0.18988719656169414,-0.24404373416304587,-0.275849323746562
1667824227421679000,5.43067919921875,-0.0010223287850618362,-0.13851926676556467,-0.5272600795462727
1667824227431687000,5.44068701171875,-0.2537801152795553,-0.054335693560540674,-0.7350488435015082
1667824227441695000,5.450695068359375,-0.4424976835399866,0.013946546157449483,-0.9292787454426288
1667824227451703000,5.460703125,-0.5284948820382356,0.09877718509435653,-1.1270540649056433
1667824227461710800,5.4707109375,-0.6050374389708042,0.1787061695948243,-1.1985039748743176
1667824227471719000,5.480718994140625,-0.6484072096198796,0.20947247925847767,-1.1872066280514002
1667824227481727000,5.49072705078125,-0.5984966390252113,0.2779758143812418,-1.2029850658111274
1667824227491735000,5.500735107421875,-0.471581739205122,0.46272243318408723,-1.214025953654945
1667824227501743000,5.5107431640625,-0.29715748471319675,0.63259121632874,-1.2010450376592576
1667824227511751000,5.5207509765625,-0.1711573616504669,0.6867731806322932,-1.1885764550998805
1667824227521759000,5.530759033203125,-0.053548634836077684,0.6738195910349488,-1.136274459324032
1667824227531766000,5.54076611328125,0.12209434779584408,0.605037731231749,-1.0846123688869178
1667824227541774000,5.550774169921875,0.2934498623669147,0.5662599645480513,-1.027623676599562
1667824227551782000,5.560781982421875,0.5412018033981323,0.5484601039633155,-0.9706729782350361
1667824227561790000,5.5707900390625,0.7414800455927848,0.49388767903745173,-0.8616016320109366
1667824227571801000,5.580801025390625,0.9030220221579074,0.3703641752213239,-0.7005543070949614
1667824227581809400,5.590809326171875,0.9890198051780462,0.2102908099040389,-0.5262944493845105
1667824227591817200,5.600817138671875,1.0365040254086255,0.07267477558851242,-0.3927474180735647
1667824227601825300,5.6108251953125,0.9589566753476858,0.0007546177595853806,-0.2848093136630952
1667824227611833300,5.620833251953125,0.7943886289596557,-0.0539423103287816,-0.24312369670867917
1667824227621841200,5.630841064453125,0.6069616850316524,-0.11619856775552034,-0.2838303856283426
1667824227631849200,5.64084912109375,0.3694955756932497,-0.17360300123691558,-0.3791393100902438
1667824227641857000,5.65085693359375,0.09689677817523479,-0.12834201001375914,-0.5442395636588335
1667824227651865300,5.660865234375,-0.14784838225543498,0.05873042138814926,-0.7037415588289498
1667824227661873400,5.670873291015625,-0.38608372240066524,0.31248218735605476,-0.8516877023704349
1667824227671880200,5.680880126953125,-0.6506231321036815,0.5793260746091604,-1.0482282193414867
1667824227681888300,5.69088818359375,-0.7844219462186097,0.8821642353072762,-1.2299290407076477
1667824227691896300,5.700896240234375,-0.802838477396965,1.125001224029064,-1.2923992331460117
1667824227701904400,5.710904296875,-0.7906272305995226,1.2554650485023855,-1.3158468903593719
1667824227711912200,5.720912109375,-0.6466121428966521,1.3021483276136219,-1.2536350565962493
1667824227721920300,5.730920166015625,-0.5414864655584096,1.3192283494912087,-1.1204928066939115
1667824227731928300,5.74092822265625,-0.41634442062973975,1.3310684248887001,-0.9164711401872336
1667824227741936000,5.75093603515625,-0.34271862792670726,1.2340797306463123,-0.7350446057178079
1667824227751944200,5.760944091796875,-0.33488895721435546,1.0609063529983163,-0.5869254436969756
1667824227761952300,5.7709521484375,-0.2881400655210018,0.947770095422864,-0.508626398485899
1667824227771960300,5.780960205078125,-0.25812662005126474,0.8645270179383456,-0.47451413939520715
1667824227781968400,5.790968505859375,-0.29725977604389187,0.7531625923410058,-0.4803155191503465
1667824227791976200,5.80097607421875,-0.4108037376374006,0.6351978916957974,-0.5096228621773421
1667824227801983200,5.810983154296875,-0.5775193174481391,0.5229410473033785,-0.5344703031860292
1667824227811991300,5.8209912109375,-0.7830442281246185,0.4543421428516507,-0.6443802921913564
1667824227821999400,5.830999267578125,-0.9884574951201677,0.4554670552283525,-0.7586116515271365
1667824227832007200,5.841007080078125,-1.2781225782513617,0.5403774814032017,-0.8652700913906097
1667824227842015200,5.85101513671875,-1.63439802236557,0.6236204127572477,-0.9745851832427084
1667824227852023000,5.86102294921875,-1.9738713847607372,0.688395082745701,-1.065348280968517
1667824227862031000,5.871031005859375,-2.130386473074555,0.7770508329287171,-1.1351287964202463
1667824227872039400,5.881039306640625,-2.148082288762927,0.936712402574718,-1.1517289258264005
1667824227882047200,5.891047119140625,-2.144773310345411,1.1490697896197437,-1.1051385856956242
1667824227892055300,5.90105517578125,-1.9547826534092425,1.3048325982615352,-1.050507708580792
1667824227902063000,5.91106298828125,-1.6080144578307867,1.356756554505229,-0.9263241334207355
1667824227912071200,5.9210712890625,-1.305569388103485,1.3884906862877309,-0.6777838184908032
1667824227922079200,5.931079345703125,-0.9247019390463829,1.349732939478755,-0.33324542779102917
1667824227932087300,5.94108740234375,-0.5871744500219822,1.193411620171368,0.008993307664245366
1667824227942094300,5.95109423828125,-0.1432464414179325,1.006679672770202,0.3183322285585105
1667824227952102100,5.96110205078125,0.2867851437807083,0.8636595874540507,0.6145471717245876
1667824227962110200,5.971110107421875,0.6765355719953775,0.7122248711444437,0.9161793176338076
1667824227972118000,5.981117919921875,1.0431307500720024,0.5655570769757032,1.1573818370215594
1667824227982126300,5.991126220703125,1.3487982889771462,0.4458471400983631,1.3583208812125027
1667824227992134400,6.001134521484375,1.5407997012138366,0.32604543328434227,1.536990664319694
1667824228002142200,6.01114208984375,1.705777497446537,0.1921254770077765,1.7025148423887788
1667824228012150300,6.021150390625,1.7864549622267483,0.08450929802805185,1.8857840821154415
1667824228022158000,6.031157958984375,1.8214456115871667,-0.015270342107117175,2.036093301526457
1667824228032166100,6.041166259765625,1.766252132153511,-0.12378551575317978,2.120701529884338
1667824228042174500,6.051174560546875,1.6044997277081012,-0.21547449615225195,2.1995881657250225
1667824228052182300,6.061182373046875,1.390800278404355,-0.3120943570822477,2.2551754667818544
1667824228062190300,6.0711904296875,1.085868068036437,-0.36618075205683703,2.2137071458399293
1667824228072197000,6.081197021484375,0.7651864998728036,-0.38915874593183397,2.1294997533679005
1667824228082205200,6.091205078125,0.4807569793075323,-0.37877573747485876,2.0009268572077152
1667824228092213200,6.101213134765625,0.1530541342049837,-0.34149551587253807,1.84225283729434
1667824228102221300,6.11122119140625,-0.22066402761936185,-0.24904125018939374,1.643489675837755
1667824228112229400,6.1212294921875,-0.6524363190054893,-0.11224106230139731,1.4339987841397523
1667824228122237200,6.1312373046875,-1.2063427056759595,-0.03796732708364725,1.2285302798256277
1667824228132245200,6.141245361328125,-1.6199842970877885,0.013802607642114162,1.0077008325114845
1667824228142253000,6.151253173828125,-1.8672686206072568,0.0912355375431478,0.7696200984060764
1667824228152261400,6.161261474609375,-2.0171780270457265,0.22221491032317278,0.5925365615770221
1667824228162269400,6.17126953125,-2.0445757370591164,0.34384003317207096,0.48456017098277804
1667824228172277200,6.18127734375,-2.0276468140900135,0.39508009880483147,0.349261473698914
1667824228182285300,6.191285400390625,-1.8934891035348176,0.4327684628166258,0.3175760033637285
1667824228192293000,6.201293212890625,-1.757178598859906,0.4236912762612104,0.3230710936486721
1667824228202301200,6.21130126953125,-1.5740642574340105,0.4126825371213257,0.32566783214360473
1667824228212308200,6.22130810546875,-1.2813164058566093,0.37660336187183857,0.3763736447691917
1667824228222316300,6.23131640625,-0.9464192653357982,0.3238996534273028,0.45261575745046134
1667824228232324000,6.241323974609375,-0.5139683440357447,0.27531214812994004,0.5605453862935305
1667824228242332200,6.251332275390625,-0.08448913202285765,0.2768418419152498,0.6370483418680727
1667824228252340200,6.26134033203125,0.29219664743542667,0.2990434445902705,0.6866225201152265
1667824228262348300,6.271348388671875,0.6139344466537237,0.30574323448985813,0.7539139952301979
1667824228272356400,6.2813564453125,0.9228665403127669,0.2646725345633924,0.8305088668718934
1667824228282364200,6.2913642578125,1.1420172407597302,0.2093970759347081,0.8943753359742462
1667824228292372200,6.301372314453125,1.3022177395880221,0.13476269071102143,0.9862368964612483
1667824228302380300,6.31138037109375,1.4660656550079583,0.062138184005022044,1.0488970585137605
1667824228312388000,6.32138818359375,1.5465683477431535,-0.045406829434633256,1.1088863939218223
1667824228322396200,6.331396240234375,1.4901549711257218,-0.13678089866563678,1.1818085684001445
1667824228332404200,6.341404296875,1.444586813649535,-0.21872151524946093,1.2601045448713004
1667824228342411300,6.351411376953125,1.4810533807814121,-0.244128343706578,1.2618055035702884
1667824228352419000,6.361419189453125,1.4003729933917521,-0.22711130406260488,1.2235102597065268
1667824228362427100,6.37142724609375,1.3024018639832735,-0.2144661958925426,1.2041527944162487
1667824228372435500,6.381435546875,1.1906173132777214,-0.23920681552588938,1.2007855099402367
1667824228382443300,6.391443359375,0.9686603232383727,-0.2819730673238635,1.1772788160160184
1667824228392451300,6.401451416015625,0.6868833630084991,-0.3462207908287644,1.2048173958048223
1667824228402459100,6.411459228515625,0.38511692319512364,-0.39837183382660146,1.1853535475306212
1667824228412467200,6.42146728515625,0.08797814318239688,-0.3236329653151333,1.0138244299583137
1667824228422475300,6.431475341796875,-0.21655600777864456,-0.1483838043063879,0.8361844282902776
1667824228432483000,6.441483154296875,-0.6186766727447509,0.04664791553691029,0.6678117289222777
1667824228442491400,6.451491455078125,-0.9341226783424615,0.19854045861661432,0.460783281815052
1667824228452499200,6.461499267578125,-1.097766595622897,0.375520827332139,0.21751082428544757
1667824228462507300,6.47150732421875,-1.0862363168269396,0.588287964221835,0.0063166358008980746
1667824228472514000,6.48151416015625,-0.9776999542623758,0.7642391360200941,-0.11471461280807851
1667824228482522400,6.4915224609375,-0.8224865961968898,0.8534557349562645,-0.17291165797188876
1667824228492530400,6.501530517578125,-0.60277007856071,0.8853687304370105,-0.1741742252536118
1667824228502538200,6.511538330078125,-0.32062486954033376,0.8909664043135941,-0.12103373282700776
1667824228512546300,6.52154638671875,-0.09274082753956317,0.7889788788706064,0.04784633154124021
1667824228522554000,6.53155419921875,0.12308511239886283,0.6036313715651631,0.2613864986300468
1667824228532562200,6.541562255859375,0.4041004406064749,0.40350773541033264,0.43321635271459813
1667824228542570200,6.5515703125,0.619774989375472,0.21701368841826915,0.6093894967004656
1667824228552578300,6.561578369140625,0.7313052730590105,0.051587563896179196,0.7610904627308249
1667824228562586400,6.57158642578125,0.8241437157541512,-0.0809323163241148,0.859230518965423
1667824228572591000,6.581591064453125,0.8549187932461499,-0.1430775145918131,0.918858473715186
1667824228582599000,6.591598876953125,0.8448504036962986,-0.19499767144322394,0.9975205070197581
1667824228592607000,6.60160693359375,0.8656576294034719,-0.2394377016723156,1.064797222957015
1667824228602614000,6.611614013671875,0.814921713900566,-0.21908874112665652,1.089202765417099
1667824228612622000,6.6216220703125,0.7060469131618737,-0.14512743285894394,1.1643828018248081
1667824228622630100,6.631630126953125,0.62723874938488,-0.06924538566172123,1.2176061502292752
1667824228632638000,6.641637939453125,0.5916910506635904,0.03990004871189594,1.1422057490691542
1667824228642646000,6.65164599609375,0.45467736615538595,0.22216274174451828,1.0026825659580527
1667824228652653800,6.66165380859375,0.35245617808699603,0.33565979545637964,1.0201797903344034
1667824228662662100,6.671662109375,0.23007249195575713,0.31954321178346873,1.0816321840323506
1667824228672670200,6.681670166015625,0.03699497492015361,0.34726737727224827,1.0518588309288024
1667824228682678000,6.691677978515625,-0.11964403203427791,0.4202440584167838,0.9766865394361317
1667824228692686000,6.70168603515625,-0.32831483952105045,0.4723766889750957,0.8466700203388929
1667824228702694000,6.71169384765625,-0.5996493161916733,0.5000098151795566,0.6897958894543349
1667824228712702000,6.721701904296875,-0.8315554533153772,0.5404650135561824,0.508066718776524
1667824228722710000,6.7317099609375,-1.0534978303074836,0.5583117820225656,0.34356165462210775
1667824228732718000,6.741718017578125,-1.2400626044481993,0.5425236996516585,0.23522476015239951
1667824228742725000,6.75172509765625,-1.3539321447342634,0.493836825633049,0.15348185809776185
1667824228752733000,6.76173291015625,-1.4590940624296664,0.4755158637836575,0.07307195821255445
1667824228762741000,6.771740966796875,-1.4983920535951851,0.4497098068758845,-0.0379541753411293
1667824228772749000,6.7817490234375,-1.4893395630896091,0.4235648734025657,-0.20440628191009164
1667824228782757000,6.791757080078125,-1.4294050266087055,0.39363852169439195,-0.40390068025067444
1667824228792765200,6.80176513671875,-1.480805543500185,0.24969737601056693,-0.6214774093791842
1667824228802773000,6.81177294921875,-1.4935855300962924,0.02555880414843559,-0.8463276366420089
1667824228812781000,6.821781005859375,-1.3716425734698772,-0.14826397731900215,-1.0793214228719472
1667824228822788900,6.831788818359375,-1.0778384908378125,-0.16215608987547456,-1.2845714621298014
1667824228832797000,6.841796875,-0.7295043611168861,-0.06850099703520536,-1.3734671585485339
1667824228842805200,6.85180517578125,-0.4529501039713621,-0.051989020836539564,-1.4751885804012417
1667824228852813000,6.86181298828125,-0.024848025530576703,-0.15356400168957188,-1.65751016401425
1667824228862821000,6.871821044921875,0.4273714260786772,-0.2738324309661984,-1.7606559195816516
1667824228872828000,6.881827880859375,0.7122533665865659,-0.3932743645571172,-1.709754730514437
1667824228882836200,6.891836181640625,0.8978349749088287,-0.5444814095906912,-1.6148916501238941
1667824228892844000,6.901843994140625,1.1114730494141578,-0.6808570884563029,-1.4727978858724236
1667824228902852000,6.91185205078125,1.2396931866139174,-0.8076230813249945,-1.4011663357265294
1667824228912860000,6.92185986328125,1.309163028681278,-0.994439053747803,-1.2572523703105747
1667824228922868000,6.931867919921875,1.3468535846501588,-1.1682856544822453,-1.0744845042347908
1667824228932876000,6.9418759765625,1.3257494218230246,-1.2003408349126576,-0.9003365824662148
1667824228942884000,6.951884033203125,1.3284972592264412,-1.1605629512757063,-0.7307830027505755
1667824228952892200,6.96189208984375,1.348237147963047,-1.1199518316850066,-0.6134139299109578
1667824228962900000,6.97189990234375,1.3012620462983846,-1.0953948980554937,-0.44446401517689227
1667824228972908000,6.981907958984375,1.1821820778876542,-1.0488982275575398,-0.25328765558749433
1667824228982916000,6.991916015625,1.0634136596441268,-0.9564785947963594,-0.056961658149957656
1667824228992924000,7.001923828125,0.9674199677884578,-0.8767647143512963,0.08647431449070572
1667824229002931200,7.01193115234375,0.724582686805725,-0.8617419172644615,0.08336714225560427
1667824229012939000,7.02193896484375,0.4230594080984592,-0.8029638573423028,0.05896861405819654
1667824229022947000,7.031947021484375,0.2133680253922939,-0.6944996832311153,-0.0015656418815255164
1667824229032955000,7.041954833984375,-0.011691022315621375,-0.6633356064215302,-0.08075111453831195
1667824229042963000,7.051962890625,-0.2534405080616474,-0.7176549333691596,-0.01650748268663883
1667824229052971000,7.061970947265625,-0.4665080892026424,-0.6955100293174385,0.023187398841977118
1667824229062979000,7.07197900390625,-0.5718909561723471,-0.6074556060284376,-0.046719373337924475
1667824229072987100,7.081987060546875,-0.6331283919453621,-0.5243126279175281,-0.21449147646427152
1667824229082995000,7.091994873046875,-0.7258627897441386,-0.44874066958278414,-0.28675094925016165
1667824229093003000,7.1020029296875,-0.7950286804288625,-0.4376949594333768,-0.2423360534623265
1667824229103011000,7.112010986328125,-0.6980564989298582,-0.48259588517248625,-0.23236937072128055
1667824229113019000,7.122018798828125,-0.5269149193704128,-0.5209644865334033,-0.23151012354344128
1667824229123027200,7.132027099609375,-0.3722837451070547,-0.5815142323032021,-0.15138181707859039
1667824229133034000,7.142033935546875,-0.2313642853319645,-0.6836550486117601,-0.10648965916782617
1667824229143042000,7.1520419921875,-0.009327800315618515,-0.8256412608355284,-0.06731295629441737
1667824229153049900,7.1620498046875,0.19389058698415756,-0.9286606135442852,-0.04095715654939413
1667824229163058000,7.172057861328125,0.33753625685274596,-1.0318734429985283,-0.037381636150181294
1667824229173066200,7.182066162109375,0.44093408748507495,-1.1542238113820553,-0.054422787322103976
1667824229183074000,7.192073974609375,0.512460862082243,-1.2243544554457069,-0.17060381942093372
1667824229193082000,7.20208203125,0.5556196203291416,-1.2509998857870697,-0.3251747879296541
1667824229203090000,7.21208984375,0.5872124439448118,-1.257329381069541,-0.4864163202434778
1667824229213098000,7.222097900390625,0.6336398485988378,-1.2916872854843735,-0.6156047179535031
1667824229223106000,7.23210595703125,0.6048702657103538,-1.256713879519701,-0.7462251942932605
1667824229233114000,7.242114013671875,0.5973609129935503,-1.1170315603241323,-0.8694736805602907
1667824229243122200,7.2521220703125,0.5273515572220087,-0.9116431355088949,-1.034737015736103
1667824229253130000,7.2621298828125,0.41537762142419815,-0.7004556690260767,-1.1736989117026329
1667824229263137000,7.272136962890625,0.3111889326751232,-0.4367424810141325,-1.2797066325724125
1667824229273145000,7.28214501953125,0.1375555362999439,-0.13869272363632917,-1.3733090453773735
1667824229283153200,7.292153076171875,-0.07620704136788845,0.1621171461045742,-1.436571264976263
1667824229293161000,7.302160888671875,-0.30739187847971916,0.44733255635052915,-1.507558818130195
1667824229303169000,7.3121689453125,-0.4477157104492187,0.7376140178143977,-1.568975702123344
1667824229313177000,7.322177001953125,-0.5572480983138084,0.9512921320691704,-1.5408403254851697
1667824229323185000,7.332184814453125,-0.7179623918831348,1.044317329508066,-1.4883859156265853
1667824229333193000,7.34219287109375,-0.7561223189294338,1.072054062217474,-1.3660282407194375
1667824229343201000,7.352200927734375,-0.7990589588582515,1.0965440680906176,-1.2668714086577295
1667824229353209000,7.362208984375,-0.7775304331392049,1.1395692630857228,-1.1767784652784465
1667824229363217200,7.372217041015625,-0.6604489450693131,1.171201249668002,-1.0884718207940458
1667824229373225000,7.382224853515625,-0.5079033449083566,1.169587969252467,-1.001146004040539
1667824229383233000,7.39223291015625,-0.3081552640676498,1.2288219562485814,-0.9357447265863418
1667824229393240000,7.402239990234375,-0.07986381030976772,1.258011518114805,-0.8846016915872692
1667824229403248000,7.412248046875,0.15530103634893894,1.186675297653675,-0.8057730695441365
1667824229413256000,7.422255859375,0.34095921703875065,1.0751046819597483,-0.7093807337597012
1667824229423264000,7.432263916015625,0.5208043275356292,0.9553677109450102,-0.6896392375878989
1667824229433272000,7.44227197265625,0.7097650569021702,0.88034812579602,-0.7675446073062717
1667824229443280000,7.45227978515625,0.9185720579892397,0.7876751027956604,-0.8498793377742171
1667824229453288200,7.4622880859375,1.102037697070837,0.667590048995614,-0.9086996294029056
1667824229463296000,7.4722958984375,1.2283552155196666,0.6105865975305438,-0.9314014366850256
1667824229473304000,7.482303955078125,1.3061714456498623,0.5663327375233173,-0.9117670541495084
1667824229483312000,7.49231201171875,1.3702420590221882,0.47585225613117216,-0.964959715154767
1667824229493320000,7.50231982421875,1.4223311426997185,0.4032306720346212,-1.0271902536183595
1667824229503328000,7.512327880859375,1.3648831623375415,0.35117899775803085,-1.034853773983568
1667824229513336000,7.522336181640625,1.2538590746104716,0.26568068869262934,-0.9970644338153302
1667824229523343000,7.532343017578125,1.1239525917589663,0.17510668379813432,-0.9013310003310442
1667824229533351000,7.542350830078125,1.0946458332538604,0.16937632345259188,-0.8115203810244798
1667824229543359000,7.55235888671875,1.072592991399765,0.29066052390933034,-0.7634580686450004
1667824229553367000,7.562366943359375,0.9841980841100215,0.4741290856003761,-0.6834548498645424
1667824229563375000,7.572375,0.7511153044223785,0.6401295028790831,-0.6305506504118442
1667824229573382400,7.58238232421875,0.40781799982488154,0.7543415729925036,-0.5812346847094595
1667824229583390200,7.59239013671875,0.10125497338473796,1.001384781232476,-0.6333486105673015
1667824229593398300,7.602398193359375,-0.16247136636972426,1.5367770215690135,-0.8759899305865168
1667824229603406000,7.612406005859375,-0.4617489119768142,2.241478657601774,-1.1717324339352548
1667824229613414400,7.622414306640625,-0.6984393607676029,2.713886033976078,-1.309204529735446
1667824229623422500,7.63242236328125,-0.8309767766445875,2.7040914929315445,-1.3136325753107667
1667824229633430300,7.64243017578125,-0.9220201526165008,2.4890420903235673,-1.209122691783309
1667824229643437300,7.652437255859375,-0.9126490976810455,2.319791439077258,-0.9521334051989019
1667824229653445000,7.662445068359375,-0.7580833898693322,2.1069223031178117,-0.6112530986152589
1667824229663453400,7.672453369140625,-0.5428980859220027,1.870708824189007,-0.35657559610456224
1667824229673461200,7.682461181640625,-0.33722762929499145,1.6864219318524003,-0.12999269983023404
1667824229683469300,7.69246923828125,-0.11938041266202926,1.3978110339492558,0.17457915279269218
1667824229693477400,7.702477294921875,0.07615735700726509,1.076878998155892,0.5744939782775939
1667824229703485200,7.712485107421875,0.35868192073404787,0.7855261080682278,0.9117759681083262
1667824229713493200,7.7224931640625,0.544076482051611,0.5833391096428037,1.1454051296323537
1667824229723501300,7.732501220703125,0.7594663686603307,0.43176469260156153,1.3203855567023157
1667824229733509400,7.74250927734375,0.9296306276202201,0.2574503282248974,1.41723644990921
1667824229743517400,7.752517333984375,0.9760521870553492,0.11783932069987058,1.4789546549364923
1667824229753525200,7.762525146484375,0.9954331793516874,-0.05456102674901485,1.5264239698588846
1667824229763533300,7.772533203125,1.0152373654961586,-0.2580781047344208,1.5197877467148004
1667824229773541000,7.782541015625,0.946902664938569,-0.4465720933720469,1.4808357925079763
1667824229783548400,7.79254833984375,0.8253875783354043,-0.644113311818242,1.4879422635123132
1667824229793556200,7.80255615234375,0.7314771224945783,-0.8179927919089793,1.4661144625857472
1667824229803564300,7.812564208984375,0.6132014562040567,-0.9653086747229098,1.4532564423173666
1667824229813572000,7.822572021484375,0.4499918386876583,-1.0769129004254936,1.4414377019688487
1667824229823580200,7.832580078125,0.29647184053659437,-1.1405521366432307,1.3940128107100724
1667824229833588500,7.84258837890625,0.11372457885742186,-1.1122551397025584,1.3380267195940017
1667824229843596300,7.85259619140625,-0.136579969266057,-1.0200137861177325,1.1784165878742932
1667824229853604400,7.862604248046875,-0.4286468528419733,-0.9687222825586795,1.0351754071533679
1667824229863612200,7.872612060546875,-0.6848281840443611,-0.9100161188289523,0.8614940799832344
1667824229873620200,7.8826201171875,-0.9194915109217167,-0.7671928712591528,0.6463315723896026
1667824229883628300,7.892628173828125,-1.1905845800518988,-0.5830421725228428,0.4363838768348098
1667824229893636400,7.90263623046875,-1.3540028718829153,-0.40206835025697946,0.2688607800334692
1667824229903644400,7.91264453125,-1.6318927615463732,-0.2370405774027109,0.10351268918365239
1667824229913651200,7.922651123046875,-1.8530279138088226,-0.13111410507559776,0.007001403194665908
1667824229923659300,7.9326591796875,-1.9333897367686033,-0.08986468758136033,-0.02624211023747921
1667824229933667000,7.9426669921875,-1.9589824431866407,-0.07922755823284387,-0.034008652585744856
1667824229943675400,7.95267529296875,-1.8987983158588408,-0.07961158911436796,-0.02929769841581583
1667824229953683500,7.962683349609375,-1.6841215459555388,-0.1066647234737873,-0.04300707481652498
1667824229963691300,7.972691162109375,-1.3381459620594978,-0.1054097549766302,0.008309855444729328
1667824229973699300,7.98269921875,-0.8372820142686367,0.06293167247027158,0.3239300485655665
1667824229983707100,7.99270703125,-0.5649193635940551,0.1454255390226841,0.4309317489087581
1667824229993715200,8.002715087890625,-0.31863223441839217,0.04775456160455942,0.5407441227585077
1667824230003723300,8.01272314453125,-0.03429039213657379,-0.14503157126903532,0.6643401072889566
1667824230013731300,8.0227314453125,0.2724111659914255,-0.2937529369667172,0.825485193490982
1667824230023739400,8.032739501953126,0.5869254436969756,-0.3321422888547182,0.9645987728878855
1667824230033746200,8.04274609375,0.8713631475687027,-0.33847821387797594,1.0849836864173412
1667824230043754200,8.052754150390625,1.0769091010332106,-0.38880817892849445,1.1740724211901425
1667824230053762300,8.06276220703125,1.2184411397486925,-0.4509904943361878,1.2288760245233774
1667824230063770400,8.072770263671876,1.2953665585190057,-0.47696197093874215,1.293506609866023
1667824230073778400,8.0827783203125,1.3012673069953917,-0.48598377404510973,1.3635425613835452
1667824230083786200,8.0927861328125,1.306986853685975,-0.5352767972633242,1.4445634327739476
1667824230093794300,8.102794189453125,1.3036053945541382,-0.6013938217714428,1.4821099040970205
1667824230103802000,8.112802001953124,1.28237789760828,-0.6200386087477207,1.5104551240935922
1667824230113810200,8.12281005859375,1.272920917955041,-0.5530465549707413,1.5372548682138323
1667824230123818500,8.132818603515625,1.2402689406752585,-0.4762596678882837,1.558934200580418
1667824230133826300,8.142826416015625,1.189579202401638,-0.3809188869833946,1.5389444287359713
1667824230143834400,8.15283447265625,1.1032137551128864,-0.22969050690084694,1.5247928615257142
1667824230153842200,8.16284228515625,1.0148983428001404,-0.10000526558458804,1.5649457159548996
1667824230163849500,8.172849365234375,0.8762725469201803,-0.011578794112801551,1.6035855354726314
1667824230173857300,8.182857177734375,0.654257104691863,0.04840513446778059,1.6026701741933822
1667824230183865300,8.192865234375,0.5088824190735817,0.1436778185725212,1.6145196019411086
1667824230193873200,8.202873046875,0.34227906746566295,0.25105916588306426,1.5430378355294465
1667824230203881200,8.212881103515626,0.15505495263338087,0.4313064274400472,1.4475345575392244
1667824230213889300,8.22288916015625,-0.023893501284718514,0.5554033472299575,1.4692340559110044
1667824230223897300,8.2328974609375,-0.16897241882681846,0.5119885683953762,1.4528922851800918
1667824230233905400,8.242905517578125,-0.33669045367836953,0.43933746594339607,1.4785852371022103
1667824230243913200,8.252913330078124,-0.5025801040589809,0.3904138605594635,1.494041164909303
1667824230253921300,8.26292138671875,-0.6511860266834497,0.34047201804369687,1.5277528803750873
1667824230263929300,8.272929443359375,-0.7734650833964347,0.3021229981660843,1.502107859247923
1667824230273937200,8.282937255859375,-0.9247913708955049,0.3395098950132727,1.4183362278446554
1667824230283945200,8.2929453125,-1.0921055011212826,0.441506626676023,1.255343175688386
1667824230293952300,8.3029521484375,-1.3227899874955416,0.5717611923128366,1.0009753236487506
1667824230303960300,8.312960205078125,-1.6062404338955878,0.7320382635086774,0.7309194886118173
1667824230313968000,8.322968017578125,-1.8560434622377155,0.9174608818769454,0.4714598663911223
1667824230323976200,8.33297607421875,-1.9984031839489935,1.103130168482661,0.1498515387713909
1667824230333984300,8.342984375,-2.1369114909291267,1.2026371291562914,-0.15878537133336065
1667824230343992300,8.352992431640626,-2.286127654406428,1.2409665675505994,-0.354504050527513
1667824230354000400,8.36300048828125,-2.312498943981528,1.227819208946824,-0.4316153472587466
1667824230364008200,8.37300830078125,-2.249755195298791,1.194929915779829,-0.5212155386850238
1667824230374016300,8.383016357421875,-2.166090823662281,1.2760256059721111,-0.59559887175709
1667824230384024300,8.3930244140625,-1.9621283399969338,1.3494810105443,-0.594897737750411
1667824230394032000,8.4030322265625,-1.6740747837156056,1.223736615808308,-0.557399781744182
1667824230404040400,8.41304052734375,-1.3614607866734265,1.0189879502013326,-0.4683732985526323
1667824230414048300,8.42304833984375,-0.9723100779175757,0.8383148644477129,-0.30266894161105157
1667824230424056300,8.433056396484375,-0.5742775590479373,0.6679729108333587,-0.16160715075582266
1667824230434063000,8.44306298828125,-0.27261750221848485,0.46544016771018504,-0.1564654039531946
1667824230444071200,8.4530712890625,0.004584405180811882,0.18098901983499527,-0.1606231081545353
1667824230454079500,8.46307958984375,0.25371231074035167,-0.14644757554680107,-0.11634060657471418
1667824230464087300,8.47308740234375,0.440044445168972,-0.42577626584172246,-0.05964110649228096
1667824230474095400,8.483095458984375,0.5372837531715631,-0.581408141580224,-0.08261340127885342
1667824230484103200,8.493103271484374,0.5877998884439468,-0.6657452979117632,-0.21047902595251797
1667824230494111200,8.503111328125,0.5466390260159969,-0.6624746056780219,-0.40114071401804685
1667824230504119300,8.513119384765625,0.39059564686715603,-0.6170856041610241,-0.5644610984325409
1667824230514127400,8.52312744140625,0.19050445167720317,-0.5149108855828642,-0.7505705300211906
1667824230524135400,8.533135498046875,-0.09688917939066886,-0.25341917301267386,-1.0062819056242704
1667824230534143200,8.543143310546874,-0.35047932505607604,0.17692220878750084,-1.300686876758933
1667824230544151300,8.5531513671875,-0.5698182415515184,0.5951020281508564,-1.4990166152343154
1667824230554158300,8.563158447265625,-0.7176683773726225,0.8047010563984512,-1.6254335024043918
1667824230564166400,8.57316650390625,-0.9320248292803763,0.7827022828191519,-1.6168448300182818
1667824230574174700,8.5831748046875,-1.1176631362259388,0.6468310463443399,-1.4202400156393646
1667824230584182800,8.593182861328126,-1.113182775941491,0.45075785462409257,-1.0064683681070803
1667824230594190800,8.60319091796875,-0.9835837516039609,0.18431991782337426,-0.5548170717746019
1667824230604198700,8.61319873046875,-0.6225497147858142,0.03550853575468063,-0.2440446109458804
1667824230614206700,8.623206787109375,-0.3166968824416399,0.026676702262461185,0.01808481500595808
1667824230624214500,8.633214599609374,-0.0036029929280281064,-0.02203063002228737,0.30767186446487904
1667824230634222800,8.643222900390626,0.27384382914304733,-0.12276684022992848,0.5616264595285058
1667824230644231000,8.65323095703125,0.4796113164037466,-0.21544307810068128,0.6610454496577381
1667824230654238700,8.66323876953125,0.6896855609476565,-0.2562570267871022,0.6487278198763727
1667824230664246800,8.673246826171875,0.8986819471269846,-0.25743250030726195,0.6990411260530353
1667824230674254600,8.683254638671874,1.039289272212982,-0.2912237107500434,0.7629094948515296
1667824230684262000,8.693261962890626,1.034397408518195,-0.40791269237101074,0.7841498512789606
1667824230694269700,8.703269775390625,0.9734896430909633,-0.6029775838315486,0.8202697969302535
1667824230704277800,8.71327783203125,0.8667664674282074,-0.7442629543095827,0.8059656695067882
1667824230714285800,8.723285888671874,0.8886842847257852,-0.8455570906609297,0.8856865642145275
1667824230724293600,8.733293701171876,0.9043851272046566,-0.9332365431576967,0.9116402128994464
1667824230734301700,8.7433017578125,0.8646598505377769,-1.026406117503345,0.9024839697584509
1667824230744309800,8.753309814453125,0.8877958114534616,-1.0715791381821036,0.9281637699380516
1667824230754317800,8.76331787109375,0.9329419441252946,-1.0866372988432644,0.9742378311097621
1667824230764326000,8.773325927734374,0.9907143341362475,-1.0973317113369703,1.0213549715936183
1667824230774333700,8.783333740234376,1.0524211409866808,-1.1648042421072722,1.0570020390361548
1667824230784341800,8.793341796875,1.0507698666483163,-1.1835153723180294,1.1640364726051688
1667824230794349600,8.803349609375,1.0346762254595756,-1.1794640511006116,1.256168812857568
1667824230804356900,8.81335693359375,0.987813351997733,-1.2333943787306547,1.2843901142135261
1667824230814364700,8.82336474609375,0.9476660505264997,-1.2778040138214826,1.2967708723589777
1667824230824372700,8.833372802734376,0.8732704424947499,-1.243805882629752,1.2429179938793182
1667824230834380500,8.843380615234375,0.8306026826351881,-1.1370198708638548,1.1622954741567373
1667824230844388600,8.853388671875,0.8054080356240272,-1.050941716083884,1.0573606432154774
1667824230854397000,8.86339697265625,0.7494412337303161,-1.0116656444892287,0.9360010394349694
1667824230864404700,8.87340478515625,0.6891355258494615,-0.9831891993284225,0.8243924298182129
1667824230874412800,8.883412841796876,0.6765256351232528,-0.8700386209666728,0.6003568799391389
1667824230884420600,8.893420654296875,0.6840127760082483,-0.6810171013236045,0.2979755230978131
1667824230894428700,8.9034287109375,0.615431407213211,-0.5390814502432942,0.08563654849231242
1667824230904436700,8.913436767578125,0.5136538712590932,-0.4742652792006731,-0.09616612581312656
1667824230914444800,8.92344482421875,0.4261883537739515,-0.40270226424634453,-0.3545782848075032
1667824230924452900,8.933452880859376,0.25817571988999843,-0.21039251671284437,-0.693004476237297
1667824230934459600,8.943459716796875,0.1340314538270235,0.04439955208823085,-1.0041785036042332
1667824230944467700,8.9534677734375,-0.050343701314926145,0.22332506352216003,-1.3083002743721008
1667824230954475500,8.9634755859375,-0.233511818754673,0.30809681187868115,-1.5890435076400637
1667824230964483800,8.97348388671875,-0.30502398030459876,0.3950739613249898,-1.758465716060996
1667824230974492000,8.983491943359375,-0.3105617406874895,0.4126321221083402,-1.801226707161963
1667824230984499700,8.993499755859375,-0.27089725429713724,0.3702196521840989,-1.7947163023546338
1667824230994507800,9.0035078125,-0.13463000424206256,0.39179844678565856,-1.671278430995345
1667824231004515600,9.013515625,0.05872691425681114,0.47915363576412195,-1.538728740158677
1667824231014523600,9.023523681640626,0.2574450675278902,0.5646006530337035,-1.4207427044644951
1667824231024532000,9.033531982421875,0.47897711015343664,0.7481085238218307,-1.2737453860804437
1667824231034539800,9.043539794921875,0.6286626447081566,0.9620752457596361,-1.0921206986904144
1667824231044547800,9.0535478515625,0.6175380241036414,1.0460032367683947,-0.8738143401131033
1667824231054555600,9.0635556640625,0.5780114848792552,1.055665821996331,-0.7551274626731872
1667824231064563700,9.073563720703126,0.5372556961208581,1.1460746994569897,-0.7644605236858129
1667824231074570800,9.08357080078125,0.41768063766956326,1.332144091296196,-0.7840808776959777
1667824231084578800,9.093578857421875,0.13764438362717626,1.5185044289059937,-0.8573699857905507
1667824231094587000,9.1035869140625,-0.04137187483012676,1.5718433665141462,-0.7703484126806258
1667824231104594700,9.1135947265625,-0.12325345470309257,1.5600236032523214,-0.6251300866678356
1667824231114602800,9.123602783203125,-0.2967676086127758,1.716184032909572,-0.6348448404744267
1667824231124610600,9.133610595703125,-0.29079905559718605,1.8627061349973082,-0.8179872389510273
1667824231134619000,9.143618896484375,-0.2515583475768566,1.9880403414972125,-1.0764366612158716
1667824231144627000,9.153626953125,-0.0839689075410366,2.108090177853405,-1.168859070456028
1667824231154634800,9.163634765625,0.1252256315588951,2.113993556678295,-1.1345713086679576
1667824231164642800,9.173642822265625,0.30636487351953984,2.063109611006826,-1.043621310067922
1667824231174650600,9.183650634765625,0.21927578813135623,2.0209286117509007,-0.9665732878312467
1667824231184658700,9.19365869140625,0.27232874840497967,1.93680378299579,-0.783468591016531
1667824231194665700,9.203665771484374,0.4130483016937971,1.8958117012634872,-0.6416105352170764
1667824231204673800,9.213673828125,0.456978628835082,1.9596378383554518,-0.6110578683041036
1667824231214681600,9.223681640625,0.47912440966963765,2.1392663834922017,-0.6931485608831047
1667824231224689700,9.233689697265625,0.36433833906054497,2.219948816708475,-0.7904835843451321
1667824231234697700,9.24369775390625,0.21734102067649363,2.101024769511819,-0.7965313400767743
1667824231244705800,9.253705810546874,0.08643149826228617,1.8279554318726061,-0.7814055210068821
1667824231254713900,9.2637138671875,-0.06399988622367382,1.6089441398963331,-0.8296328146897256
1667824231264721700,9.2737216796875,-0.23501520905494688,1.4203294474884867,-0.9170815271705388
1667824231274729700,9.283729736328125,-0.37095629589557644,1.249775896950066,-0.9783164787255227
1667824231284737800,9.29373779296875,-0.5690367357850075,1.1704244931418448,-1.0883940793827176
1667824231294745600,9.30374560546875,-0.6679594668298959,1.1107447351396083,-1.1506374773278831
1667824231304753700,9.313753662109375,-0.6850649154096842,1.0092347640804946,-1.1709500513859092
1667824231314761700,9.32376171875,-0.6015513504207134,0.8935823589656502,-1.2059085520423949
1667824231324768800,9.333768798828125,-0.3927443493336439,0.86508998558335,-1.2404172631047665
1667824231334776600,9.343776611328124,-0.1591898604810238,0.8777798827432095,-1.3098871051721275
1667824231344784600,9.35378466796875,0.14552666130959988,0.9303989816442132,-1.2824652836307882
1667824231354793000,9.36379296875,0.438157023987174,1.0246173343904317,-1.2199110661707817
1667824231364800800,9.37380078125,0.6264011295169591,1.0641489151161163,-1.0997462251327932
1667824231374808800,9.383808837890625,0.7785340572237968,0.9664720194138586,-0.8357743861846625
1667824231384816600,9.393816650390624,0.838937380260229,0.7950313838426023,-0.5626414817899466
1667824231394824700,9.40382470703125,0.9812421569138765,0.6419078376632184,-0.3844023451849818
1667824231404832800,9.413832763671875,1.2666034053713082,0.6639088762648403,-0.17402473378032446
1667824231414840600,9.423840576171875,1.396146900129318,0.7469213598638772,0.004711684822291135
1667824231424849000,9.433848876953125,1.5496990469843148,0.7218905251123011,0.2794754052892327
1667824231434856700,9.443856689453124,1.6477210297971963,0.5217185928363353,0.5173253993786872
1667824231444864800,9.45386474609375,1.681241022083163,0.35936562868189065,0.76520257422477
1667824231454871600,9.46387158203125,1.6987848620802164,0.26686430898662655,0.9771597099058329
1667824231464879900,9.4738798828125,1.733036091250181,0.19192447454296052,1.1236201449342071
1667824231474888000,9.483887939453124,1.6449281842082737,0.12878026443370616,1.154451482658088
1667824231484895700,9.493895751953126,1.4721610492736101,0.0185251061193645,1.256353521774709
1667824231494903800,9.50390380859375,1.3016489997893572,-0.16461794994436205,1.3519023924723266
1667824231504911600,9.51391162109375,1.122483688250184,-0.2555474172130227,1.425549227963388
1667824231514919700,9.523919677734375,1.0272808545112608,-0.22128449760526417,1.4652826879367231
1667824231524927700,9.533927734375,0.8577969790309667,-0.14679909239821134,1.5084452455759048
1667824231534935800,9.543935791015626,0.585203442209959,-0.09287300255186855,1.47427789529711
1667824231544943900,9.55394384765625,0.3909066125124693,-0.2135690278571099,1.4489803724333643
1667824231554951700,9.56395166015625,0.1530623175114393,-0.3890604731891304,1.4073396175339816
1667824231564959700,9.573959716796875,0.00031856442987918853,-0.47264648235980417,1.4175152668505906
1667824231574967000,9.583967041015624,-0.10864449911415576,-0.5358236174911261,1.4804498619303106
1667824231584975400,9.593975341796876,-0.23123510599434374,-0.6721996616829187,1.5199290548816322
1667824231594983200,9.603983154296875,-0.3185778738826513,-0.8719603097442538,1.5670178460538386
1667824231604991200,9.6139912109375,-0.3790712132900953,-0.9671643855921923,1.6398887287363408
1667824231614999000,9.6239990234375,-0.42735389042198657,-0.9112450030367821,1.736710103587806
1667824231625007000,9.634007080078124,-0.4983639476686716,-0.9744169140037149,1.7559625010684132
1667824231635015200,9.64401513671875,-0.5459942983716726,-1.0179254355363547,1.763282760953903
1667824231645023200,9.654023193359375,-0.5379343260347843,-0.9672223263245076,1.7954922551631927
1667824231655031300,9.66403125,-0.5925035360902547,-0.8764265684381127,1.822998393987119
1667824231665039000,9.6740390625,-0.6383043332785368,-0.8087328691978007,1.8493506866008043
1667824231675047200,9.684047119140626,-0.6336620604306459,-0.7522323257535696,1.8340756683185695
1667824231685055200,9.69405517578125,-0.7034393610119819,-0.6678619247395545,1.816665099312365
1667824231695063000,9.70406298828125,-0.7720008560627698,-0.5612324187096208,1.9272575176239013
1667824231705070300,9.7140703125,-0.8025035463541745,-0.4556183733325451,1.9409742005482316
1667824231715078100,9.724078125,-0.8916752832353114,-0.3874582986894995,1.9264587684616445
1667824231725086200,9.734086181640626,-0.9872568871587515,-0.32197270395271477,1.9493273106127975
1667824231735094000,9.744093994140625,-1.2068132457971572,-0.1898284703780897,1.9922750564575193
1667824231745102000,9.75410205078125,-1.4110235667437314,-0.012003193537332117,2.007007638426125
1667824231755110100,9.764110107421875,-1.4371259762495756,0.1679704935089685,1.9003852927893399
1667824231765118200,9.7741181640625,-1.485809050875902,0.4318207336377352,1.8792334914281963
1667824231775126300,9.784126220703126,-1.6469857012599705,0.636920916096121,1.9249144616290925
1667824231785134000,9.794134033203125,-1.787017272284627,0.6896238208230584,1.865876873987913
1667824231795142100,9.80414208984375,-1.9816560472875833,0.6310580884773284,1.7406261079877614
1667824231805150200,9.814150146484375,-2.2456600349396467,0.5052636440545321,1.649888729225099
1667824231815157200,9.8241572265625,-2.5037106671452523,0.30249205067418516,1.5275222864896059
1667824231825165300,9.834165283203125,-2.7143378693968057,0.10753204436022788,1.3919479871347546
1667824231835173000,9.844173095703125,-2.8892724114984274,-0.006441504289582371,1.1610469354003667
1667824231845181200,9.85418115234375,-2.9350732086867093,-0.019477328810282052,0.8848319932118057
1667824231855189000,9.86418896484375,-2.960745994603634,0.05395195493996143,0.7830524114310741
1667824231865197000,9.874197021484376,-2.9412837537646292,0.166811733661592,0.7496575068295002
1667824231875205000,9.884205078125,-2.930530889081955,0.24148119019865988,0.5443403936848044
1667824231885213200,9.894213134765625,-2.8605419915765524,0.3481394839316606,0.3188680890008807
1667824231895221200,9.90422119140625,-2.6581752526700497,0.41004181335419415,0.15209522604495285
1667824231905229000,9.91422900390625,-2.5190099430859085,0.35960049688369033,0.06194762986898422
1667824231915237000,9.924237060546876,-2.3462287796258927,0.32001280205659566,0.057846624290943144
1667824231925245000,9.934244873046875,-2.13975869705379,0.3432886828996241,-0.03064648267626762
1667824231935253200,9.944253173828125,-1.884666914653778,0.41595425226837396,-0.1564309171617031
1667824231945260000,9.954260009765624,-1.549829395365715,0.5630076847538351,-0.2083282776594162
1667824231955268000,9.96426806640625,-1.2885697379857302,0.6571145399495959,-0.24243074600845574
1667824231965276200,9.974276123046875,-0.9626052609831094,0.7183008300572633,-0.3396589480951428
1667824231975284200,9.9842841796875,-0.5885141741931438,0.8516279350072145,-0.4524357247084379
1667824231985292300,9.994292236328125,-0.2577729843080044,1.0407760036394,-0.5902576568596065
1667824231995300000,10.004300048828124,0.05307809471487999,1.3254904786258934,-0.7431159762315451
1667824232005308200,10.01430810546875,0.3707973059415817,1.5060861152291296,-0.773014270889014
1667824232015316200,10.024316162109375,0.5759867010533809,1.466964941935241,-0.6898205855041742
1667824232025324000,10.034323974609375,0.7918845371842383,1.2801225198969244,-0.6087317634440959
1667824232035332000,10.04433203125,0.9654852003335952,1.0781477029174567,-0.5809869935587049
1667824232045340200,10.054340087890624,0.980599767357111,0.9390613037884235,-0.6168906661108136
1667824232055348200,10.06434814453125,0.8666215059995651,0.8069237008839846,-0.6892832637570798
1667824232065356300,10.074356201171875,0.6316898835748433,0.5647413766786455,-0.7493728446692228
1667824232075363000,10.084363037109375,0.4052431809008121,0.21691987265497445,-0.7938254421189427
1667824232085371100,10.09437109375,0.18029285426437855,-0.049663025574386115,-0.8924858689658344
1667824232095379200,10.104379150390624,-0.05256605353951454,-0.13283406073600054,-0.972757237163186
1667824232105387300,10.11438720703125,-0.3698538876116276,-0.1352048815205693,-1.0467840118825436
1667824232115395000,10.12439501953125,-0.5415770664513111,-0.027819442556798458,-1.1007535024791955
1667824232125403100,10.134403076171875,-0.5495417617201804,0.1822314211115241,-1.2921192471608518
1667824232135411200,10.1444111328125,-0.6143243227541446,0.3605067980736494,-1.4790288892164825
1667824232145419000,10.1544189453125,-0.588422404256463,0.5429542000234127,-1.6233146105542777
1667824232155427300,10.16442724609375,-0.4919610948890447,0.6892474617913364,-1.6099728984221815
1667824232165435100,10.17443505859375,-0.3653261810541153,0.7114259758517145,-1.4922557427972554
1667824232175443200,10.184443115234375,-0.25144728841781616,0.5624561883509159,-1.3358271637231112
1667824232185450000,10.194449951171874,-0.11570903067290782,0.4014692153200507,-1.155749705775082
1667824232195458000,10.2044580078125,0.053071664974093435,0.38914574031978844,-1.0129618217796086
1667824232205466400,10.21446630859375,0.16708149051368235,0.4961205526560545,-0.8233288922399282
1667824232215474200,10.22447412109375,0.2625812613725662,0.48862902785688633,-0.6791571526706218
1667824232225482200,10.234482177734375,0.31885084560513494,0.31783845369219776,-0.5388964490652084
1667824232235490000,10.244489990234374,0.3645791620790958,0.16584522671699523,-0.427185255856812
1667824232245498000,10.254498046875,0.38729192914664745,0.1797895809173584,-0.3825695767998695
1667824232255506000,10.264505859375,0.446129902562499,0.37924627759605645,-0.3215542593449354
1667824232265514200,10.27451416015625,0.42954526298642154,0.4573679204136133,-0.18914251567423343
1667824232275522300,10.284522216796875,0.40398002909719943,0.3399392263412475,-0.044208559560775754
1667824232285530000,10.294530029296874,0.4155564851224422,0.22053718636929986,0.017907412612438202
1667824232295538200,10.3045380859375,0.4610656058877706,0.19139730886369943,0.0792567843273282
1667824232305546000,10.3145458984375,0.537828527572751,0.1976242205545306,0.15151333450376986
1667824232315553300,10.32455322265625,0.6190238787472248,0.19341420164406298,0.22598317681550978
1667824232325561000,10.33456103515625,0.700436672064662,0.18185060510039328,0.2838108041450381
1667824232335569200,10.344569091796876,0.8077455386608838,0.16100567773133515,0.2982315436854958
1667824232345577200,10.3545771484375,0.9009574908435344,0.12178835058659314,0.33668519298136235
1667824232355585000,10.3645849609375,0.9765630591869354,0.12040361822992562,0.37083676116913555
1667824232365593000,10.374593017578125,1.1011866331994533,0.12695523183047772,0.3501461475789547
1667824232375601200,10.38460107421875,1.1488894646167755,0.16005699870437382,0.2599180335126817
1667824232385609200,10.394609130859376,1.2232897488236427,0.20407968030422924,0.16781009704917668
1667824232395617300,10.4046171875,1.3051035241574047,0.2640449041843414,0.09928820335641503
1667824232405625000,10.414625,1.4067583105146884,0.31028204696327444,0.06084083767086267
1667824232415633200,10.424633056640625,1.4824889665424823,0.327821503046155,0.07591887207627296
1667824232425640200,10.43464013671875,1.605786844909191,0.36944676811546084,0.09463219424411654
1667824232435648300,10.444648193359376,1.7255208933144808,0.4005468397781253,0.07928264942094683
1667824232445656000,10.454656005859375,1.7538579300045967,0.40351358062922954,0.03307897052019834
1667824232455664000,10.4646640625,1.7032582081019878,0.3437348192319274,-0.027910043449699877
1667824232465672200,10.474672119140624,1.6964835994005203,0.24659692577719686,-0.13128610064163804
1667824232475680000,10.484679931640626,1.6332681415528059,0.17174655971527097,-0.26895357288345695
1667824232485688300,10.494688232421876,1.6150181991130113,0.22436492796391247,-0.3562793896369636
1667824232495696100,10.504696044921875,1.628965475922823,0.3006266221284866,-0.40265974027886986
1667824232505704200,10.5147041015625,1.585171342381835,0.2856874116718769,-0.4657053945176303
1667824232515712300,10.524712158203124,1.5443231991648674,0.25044629468172785,-0.48387715715467927
1667824232525720000,10.534719970703126,1.4828098690599203,0.17090367915034294,-0.5611505125798285
1667824232535728000,10.54472802734375,1.3767255758225918,0.09940846873521804,-0.6714633832976221
1667824232545735200,10.554735107421875,1.2905980289429426,0.11145078870654106,-0.808071701875329
1667824232555743200,10.5647431640625,1.2209236042141913,0.10815817690193652,-0.8568842481002211
1667824232565751000,10.5747509765625,1.0839777242451905,0.08424977030903101,-0.8462886198058724
1667824232575762000,10.584761962890624,1.0005407316237687,0.05730506476014852,-0.7744467879101633
1667824232585770000,10.59477001953125,0.9440829313427209,0.03407996425628662,-0.7081637591853738
1667824232595777800,10.60477783203125,0.8357043896883726,-0.005848141506314277,-0.6521595478907227
1667824232605785900,10.614785888671875,0.7382008777916431,-0.06766103907972573,-0.570669597683847
1667824232615793700,10.624793701171875,0.5878858131617307,-0.12826572990715504,-0.5105132351458073
1667824232625801700,10.6348017578125,0.4725368479728698,-0.09898498262614011,-0.5259264928549527
1667824232635809800,10.644809814453126,0.3613496786385774,0.02296557278484106,-0.5982838730573654
1667824232645817900,10.65481787109375,0.16789280689656733,0.1592035967454314,-0.68981912419945
1667824232655826000,10.664825927734375,0.0007727379381656646,0.24666034640222786,-0.8508315239325165
1667824232665833700,10.674833740234375,-0.05648118115663528,0.32516222070902584,-0.9337553063347935
1667824232675840800,10.6848408203125,-0.12243453953564166,0.3574149695381522,-0.9007464784413576
1667824232685848800,10.694848876953126,-0.16096037728488444,0.3180570648789406,-0.8492293494328856
1667824232695857000,10.70485693359375,-0.1939414403885603,0.29029461320638655,-0.7119935466066002
1667824232705864700,10.71486474609375,-0.19358663560152053,0.25510201153308154,-0.5722910614058375
1667824232715872800,10.724872802734374,-0.16636252858936787,0.2221966440141201,-0.5034349673226476
1667824232725880800,10.734880859375,-0.02840191861987114,0.2863786088064313,-0.4485743731051683
1667824232735888600,10.744888671875,0.14550561852157115,0.390737393425405,-0.3618234336301684
1667824232745896700,10.754896728515625,0.30668519151508805,0.4208443623974919,-0.2348801844984293
1667824232755904800,10.76490478515625,0.50398061850667,0.3935018897026777,-0.11823153488785028
1667824232765912800,10.774912841796874,0.722456780692935,0.3959180109336972,0.015726561442017555
1667824232775921000,10.7849208984375,0.9321697907090186,0.35423341689258814,0.19997370629012584
1667824232785927700,10.794927734375,1.0068564906418322,0.2690788066983223,0.35840836448967456
1667824232795935700,10.804935791015625,1.073782493445277,0.14299480474442242,0.5582268802180886
1667824232805943800,10.81494384765625,1.1666367182314394,-0.007288987964391708,0.7826390083245932
1667824232815952000,10.824951904296874,1.2245669291526078,-0.09824731600135564,0.9462142442829906
1667824232825959700,10.834959716796876,1.2346680519282818,-0.11542553755640983,1.056580744884163
1667824232835967700,10.8449677734375,1.1456857001394032,-0.05256809936612844,1.0776714637078344
1667824232845975800,10.854975830078125,0.9121253660678863,0.08155775474607944,1.0318541537761687
1667824232855983600,10.864983642578125,0.6758680479973554,0.20088731400370596,0.8975941518902778
1667824232865992000,10.874991943359374,0.49848728178739543,0.42865678971409793,0.6442874993413686
1667824232875999700,10.884999755859376,0.24500702623724935,0.7647665208950638,0.4508133842036128
1667824232886007800,10.8950078125,0.011316343784332274,0.9813932558223605,0.32250381515473125
1667824232896016000,10.905015869140625,-0.11001871007680893,1.091698089364171,0.3391996600203216
1667824232906023700,10.915023681640625,-0.17927344808876514,1.1282903287023305,0.49393794791996476
1667824232916031000,10.925031005859376,-0.3960334540069103,1.0434306098014117,0.6362567530989647
1667824232926038800,10.935038818359375,-0.6086895317375659,0.8664651463940739,0.7635925086796284
1667824232936046800,10.945046875,-0.7375006205677985,0.6969093747213483,0.8638611013755202
1667824232946054700,10.9550546875,-0.8832815488994121,0.5093202259689569,0.9632657707184552
1667824232956062700,10.965062744140624,-1.1069809986919164,0.3096145229652524,1.0151976180076598
1667824232966070800,10.97507080078125,-1.475766380289197,0.27844606224149465,0.9009618747577071
1667824232976078800,10.985078857421875,-1.8682278210282324,0.40902796013653275,0.7796683219507337
1667824232986087000,10.9950869140625,-2.3112784622758626,0.5303185903340578,0.5777911201268434
1667824232996094700,11.0050947265625,-2.6440648942530154,0.6951938029751181,0.3665145140558481
1667824233006102800,11.015102783203124,-2.8201082743793724,0.8940712384611368,0.23695173007547854
1667824233016110800,11.02511083984375,-3.052964259573817,1.0607318732142448,0.00027370237484574317
1667824233026118700,11.03511865234375,-3.0955542780220506,1.1820935228213667,-0.25072628066688774
1667824233036126000,11.0451259765625,-2.9365047027945517,1.2429679705008865,-0.4289169019550085
1667824233046133800,11.0551337890625,-2.666915608486533,1.233359891939163,-0.5551034875005483
1667824233056141800,11.065141845703126,-2.2307699243217707,1.1605796101495622,-0.6276406081840396
1667824233066149600,11.075149658203125,-1.5745716224342583,1.0481851108521223,-0.6879010156184434
1667824233076157700,11.08515771484375,-0.8891858045071362,0.9482710306823253,-0.7024331065788865
1667824233086165800,11.095165771484375,-0.31616204491257666,0.8482035135164856,-0.648655485292524
1667824233096173800,11.105173828125,0.16624036351442337,0.6975351054042578,-0.5715697613939642
1667824233106182000,11.115181884765626,0.5570096133828163,0.4545801893912256,-0.5148049409903586
1667824233116189700,11.125189697265625,0.7729074495136737,0.1242825054898858,-0.5083016965761781
1667824233126197800,11.13519775390625,0.9523772969573736,-0.19692688594013452,-0.4857064184084534
1667824233136205600,11.14520556640625,1.1448872432380914,-0.43365912804603574,-0.4737804182931781
1667824233146212900,11.155212890625,1.295292908760905,-0.5478873455766589,-0.5213946946442127
1667824233156220700,11.165220703125,1.5065578243941067,-0.5283768086165189,-0.563391277243942
1667824233166228700,11.175228759765625,1.7271125464200971,-0.45003691993840034,-0.5682470467120408
1667824233176236800,11.18523681640625,1.7571493727654217,-0.45351935522668063,-0.5509986825302243
1667824233186244600,11.19524462890625,1.6777718846678733,-0.6248666134260594,-0.5150207756981253
1667824233196253000,11.2052529296875,1.6855337508410215,-0.7950276575155556,-0.561163518191874
1667824233206260700,11.2152607421875,1.6941297297507523,-0.7496073110122233,-0.6210051156923174
1667824233216268800,11.225268798828125,1.5648217973142862,-0.7272099665693939,-0.6786322520136833
1667824233226276900,11.23527685546875,1.2460410943359135,-0.9247641175623983,-0.7778042816445231
1667824233236284700,11.24528466796875,0.8196008116275072,-1.1130487742982804,-0.9896893750026822
1667824233246292700,11.255292724609374,0.4566974738061428,-1.0278992786705494,-1.3693074085205792
1667824233256300800,11.26530078125,0.4707166468083858,-0.7595876569524407,-1.547816886499524
1667824233266307800,11.275307861328125,0.5607838712245226,-0.4424282715655863,-1.5644672847881913
1667824233276315600,11.285315673828125,0.40900691734850403,-0.3344802302829921,-1.5214759920626877
1667824233286323700,11.29532373046875,0.22927871122956275,-0.45335167050957675,-1.395764622813463
1667824233296331800,11.305331787109376,0.2841711618900299,-0.4646500402458012,-1.2524363483309746
1667824233306339800,11.31533984375,0.598097995096445,-0.3555705107152462,-1.0090133764147757
1667824233316348000,11.325347900390625,0.9053981036394834,-0.3936360374763608,-0.8222779218822717
1667824233326355700,11.335355712890625,0.9382973336786031,-0.46292292419224973,-0.8667077229782938
1667824233336363800,11.34536376953125,1.0245283409327268,-0.4394511554509401,-0.8029542127311229
1667824233346371800,11.355371826171876,1.2519056024551392,-0.3574310438901186,-0.6025596506804227
1667824233356379600,11.365379638671875,1.457196119853854,-0.28940058697611093,-0.39220775823891163
1667824233366388000,11.375387939453125,1.6159394056111573,-0.31914120685383673,-0.17456833913773298
1667824233376394800,11.385394775390624,1.6771300796329973,-0.399385394783318,-0.011202654276788234
1667824233386402800,11.39540283203125,1.6522019746035337,-0.5043874457418919,0.11224544621556996
1667824233396410600,11.40541064453125,1.617473191049695,-0.46749344697818157,0.193624921785295
1667824233406418700,11.415418701171875,1.5857190393924712,-0.3215948836162686,0.23591566502600908
1667824233416427000,11.425427001953125,1.5999410414904356,-0.23580168325752018,0.3245797446459532
1667824233426434800,11.435434814453124,1.5763094060122966,-0.25200696812719103,0.4252069415211677
1667824233436443000,11.44544287109375,1.5035206486552952,-0.2793224066846072,0.5471978289425373
1667824233446450700,11.45545068359375,1.423454593771696,-0.23281813740208743,0.6547580399513244
1667824233456458800,11.465458740234375,1.3272808691740035,-0.12150091194733977,0.7437333774775267
1667824233466466600,11.475466552734375,1.172700548315048,-0.01621522174179554,0.9126736476004124
1667824233476475000,11.485474853515624,1.0052239210039378,0.02492328272387385,1.05098672426939
1667824233486483000,11.49548291015625,0.8492401630878448,0.1341010119318962,1.1101213425442575
1667824233496489700,11.50548974609375,0.6892325564831495,0.33029914520606396,1.1044164089009165
1667824233506497800,11.515497802734375,0.5248533106654882,0.5760903075583279,1.1088529300436376
1667824233516505600,11.525505615234374,0.3327987069368362,0.8014782949596643,1.1389277503117918
1667824233526514000,11.535513916015624,0.09437865787446498,0.9818857155144214,1.1665732976064085
1667824233536521700,11.545521728515626,-0.19585107340216634,1.075192652504146,1.2288123116374015
1667824233546529800,11.55552978515625,-0.46635435994565483,1.0853545655563472,1.3858680826991796
1667824233556537900,11.565537841796875,-0.7107283489763736,1.0496244960054755,1.5240674698606134
1667824233566545700,11.575545654296874,-0.9571382277488708,1.0434475609362124,1.6024164916932582
1667824233576554200,11.58555419921875,-1.1149141297787428,1.0603010805815458,1.7260130607455968
1667824233586562300,11.595562255859376,-1.3326888656973839,1.0788339316159485,1.8069886316895485
1667824233596570400,11.6055703125,-1.6042343547701834,1.1079074658870696,1.819870909616351
1667824233606578400,11.615578369140625,-1.936620389252901,1.2754451757356524,1.750449875126779
1667824233616585500,11.62558544921875,-2.124669264471531,1.411723823967576,1.6550906817823647
1667824233626593300,11.63559326171875,-2.37566296390295,1.4118182242527604,1.6234320994541047
1667824233636601300,11.645601318359375,-2.6781530418157575,1.3685054444879292,1.6062357577204702
1667824233646609400,11.655609375,-2.9029911402493713,1.3408616507589817,1.589943379089236
1667824233656617500,11.665617431640625,-3.0611469815075396,1.3214958560317753,1.5483593228131531
1667824233666625500,11.67562548828125,-3.1493302918732162,1.3326686996921897,1.4600027017071842
1667824233676633300,11.68563330078125,-3.1945079887270924,1.3156880465358496,1.3753233078092335
1667824233686641400,11.695641357421875,-3.2242548922151326,1.2503586652740835,1.3212038873478769
1667824233696649200,11.705649169921875,-3.1842548902601,1.1545546507716178,1.2799442407205701
1667824233706657500,11.715657470703125,-3.0440994005948303,1.0465884893104433,1.2352061043277383
1667824233716665600,11.72566552734375,-2.8200954148977995,0.9539183889195323,1.1663944339081644
1667824233726673400,11.73567333984375,-2.597473823469877,0.8142270096346735,1.1226686894282698
1667824233736680400,11.745680419921875,-2.3671762905865905,0.6322682679846883,1.0396446615219115
1667824233746688300,11.755688232421875,-2.090256122738123,0.4626338781177997,0.9662889179319143
1667824233756696600,11.765696533203124,-1.8571604835689066,0.31921324917674065,0.9130348821282386
1667824233766704400,11.775704345703126,-1.689797838026285,0.21884031932353973,0.8055839767128229
1667824233776712400,11.78571240234375,-1.571138725376129,0.1513935075163841,0.5969838963747024
1667824233786720500,11.795720458984375,-1.4780606287062168,0.11429477996081114,0.32437516198456284
1667824233796728300,11.805728271484375,-1.4017092104315756,0.1240212242051959,0.047019233067333695
1667824233806736400,11.815736328125,-1.3702800529450176,0.16845044077932833,-0.2705406959444284
1667824233816744400,11.825744384765626,-1.3888444681614636,0.2774973832145333,-0.6024477147385477
1667824233826752500,11.83575244140625,-1.398465698465705,0.4664730178892612,-0.9283736132964492
1667824233836760600,11.845760498046875,-1.3702484887629747,0.7205027240157127,-1.2013140638589859
1667824233846767400,11.855767333984375,-1.3377099087297915,0.9123007226347922,-1.416196000945568
1667824233856775400,11.865775390625,-1.3245002985447645,0.9720268770620226,-1.590654157707095
1667824233866783500,11.875783447265626,-1.2920277694851159,0.9464151736825704,-1.655826887102425
1667824233876791600,11.88579150390625,-1.1921581129789351,0.8745701269164681,-1.6723557048380373
1667824233886799400,11.89579931640625,-1.0556477018177508,0.7855784227773547,-1.5792425368547438
1667824233896807400,11.905807373046875,-0.8678571852743625,0.6385866573512554,-1.4270628473967313
1667824233906815200,11.915815185546874,-0.5790466731458902,0.4117041936084628,-1.2830804929196833
1667824233916823300,11.9258232421875,-0.21200082869231698,0.17456161713600157,-1.0521890857964753
1667824233926831400,11.935831298828125,0.17755203112363815,-0.09490706566274165,-0.8255898229092359
1667824233936839400,11.94583935546875,0.5404027619749308,-0.3627764965713024,-0.6663023472726345
1667824233946847500,11.955847412109375,0.8812859911680221,-0.6086769645169376,-0.5564224611446261
1667824233956855300,11.965855224609374,1.2196961082458495,-0.7704752539306878,-0.48308045381903647
1667824233966862300,11.9758623046875,1.5182143599182367,-0.7970312524229287,-0.4275236940309405
1667824233976870400,11.985870361328125,1.7660943112432956,-0.7869900431409478,-0.37028731059283015
1667824233986878500,11.99587841796875,2.014163063138723,-0.787994836269319,-0.3123430711463094
1667824233996886500,12.005886474609374,2.2236270668298004,-0.8604656137183309,-0.27271540963500734
1667824234006894300,12.015894287109376,2.3441478816986083,-0.8953580634012818,-0.20710691917091606
1667824234016902400,12.02590234375,2.4048230074137447,-0.8584265091061591,-0.12496814966648816
1667824234026910200,12.03591015625,2.474578680685162,-0.8398166473127902,-0.003945815016329288
1667824234036918500,12.04591845703125,2.53808639947772,-0.8996738807737826,0.09283435104191302
1667824234046926600,12.055926513671874,2.5485171925991774,-0.9876752587012946,0.13733955546170473
1667824234056934400,12.065934326171876,2.494381697785854,-1.058117014540732,0.21177578776478767
1667824234066942500,12.0759423828125,2.4614152477294207,-1.1196623472191394,0.29437486825734377
1667824234076950300,12.0859501953125,2.3983640405327082,-1.117748184160888,0.3331792306870222
1667824234086957600,12.09595751953125,2.3033880012869834,-1.031128177589178,0.2894827123016119
1667824234096965400,12.10596533203125,2.224941072037816,-0.8968803045324981,0.23244068239182233
1667824234106973400,12.115973388671875,2.1448142268776893,-0.7278755908712744,0.1458259365171194
1667824234116981500,12.1259814453125,2.0058657749146223,-0.5222160940296947,0.04719517415612936
1667824234126989300,12.1359892578125,1.901944212669134,-0.37729602031111714,-0.010918868899345397
1667824234136997400,12.145997314453124,1.7793085976034402,-0.3631768940657377,-0.01648351728916168
1667824234147005400,12.15600537109375,1.5920564257204532,-0.40145226418524976,-0.034006314498186106
1667824234157013500,12.166013427734375,1.4209744673937559,-0.449799384855479,0.012096388246119022
1667824234167021600,12.176021484375,1.3214391574084758,-0.4884564477689564,0.021180735194683074
1667824234177029400,12.186029296875,1.2162000828236341,-0.4478982274092734,-0.06075286712646484
1667824234187037400,12.196037353515624,1.1102110666543246,-0.3745515439085662,-0.18103578158617017
1667824234197044500,12.20604443359375,1.0539175170242785,-0.2772400474525988,-0.32104017234295606
1667824234207052500,12.216052490234375,0.9928682972997427,-0.16291092683076858,-0.5288979098811746
1667824234217060400,12.226060302734375,0.8761252474039792,-0.03871843771189451,-0.750989339955151
1667824234227068400,12.236068359375,0.7098422137916087,0.030366350560635327,-0.9417921900570392
1667824234237076500,12.246076416015624,0.49183951433598994,-0.01618584951683879,-1.120061137278378
1667824234247084300,12.256084228515626,0.3204594498455524,-0.10183891075253486,-1.298126086360216
1667824234257092400,12.26609228515625,0.1898755061239004,-0.11996902620494365,-1.4799787372872233
1667824234267100400,12.276100341796875,0.09867138663232326,-0.13293006845638156,-1.618634928305447
1667824234277108500,12.2861083984375,0.08276829957962036,-0.2008281311623752,-1.6791534021541474
1667824234287116300,12.2961162109375,0.04897182843983173,-0.29918577567040916,-1.725716123625636
1667824234297124400,12.306124267578125,0.024072364982962606,-0.3329823929406702,-1.7357643471702933
1667824234307131400,12.31613134765625,0.0573474425971508,-0.33345468662753697,-1.6615458492711186
1667824234317139500,12.326139404296875,0.08362988484501838,-0.3593126198530197,-1.5447420090988278
1667824234327147500,12.3361474609375,0.14623860897123814,-0.40167701285183427,-1.4409563481926917
1667824234337155300,12.3461552734375,0.23223756103515625,-0.4037470971241593,-1.3367954242333768
1667824234347163400,12.356163330078125,0.25097733281850815,-0.40057168195843695,-1.1666109992682934
1667824234357171200,12.366171142578125,0.21885551689267158,-0.4475117123097181,-1.036176693150401
1667824234367179500,12.376179443359375,0.16325287213623524,-0.4430743143841624,-0.9805489139527082
1667824234377187600,12.3861875,0.12132160985767841,-0.4036915675446391,-0.9675926940068602
1667824234387195400,12.3961953125,0.03747369834780693,-0.3476211591459811,-0.9611994858384132
1667824234397203500,12.406203369140625,-0.07380757901072502,-0.24153072842881082,-0.9632797992438077
1667824234407211300,12.416211181640625,-0.1355868665754795,-0.05657251270189881,-0.9583046411797403
1667824234417219300,12.42621923828125,-0.19003098894655704,0.18598317486047744,-0.9628601125270128
1667824234427226400,12.436226318359376,-0.25344167710542675,0.38157209019511934,-0.8578551389589906
1667824234437234400,12.446234375,-0.2766927888333797,0.5651023189455271,-0.7483160290926695
1667824234447242500,12.456242431640625,-0.2478068860888481,0.7754128564633429,-0.6417594421684741
1667824234457250300,12.466250244140625,-0.18814707489609717,0.9704689800955355,-0.4827241877272725
1667824234467258400,12.47625830078125,-0.10279401952028273,1.0688776241384446,-0.2745607452407479
1667824234477266400,12.486266357421876,0.0016144494593143461,1.0836224810667336,-0.060928808215260505
1667824234487274500,12.4962744140625,0.15612287412583828,1.0573018987655638,0.15346359178870916
1667824234497282600,12.506282470703125,0.35059564491212364,0.9921884983420372,0.36981326334029435
