time,seconds_elapsed,z,y,x
1667824222012392700,0.021392822265625,-0.5293275117874146,-0.618581235408783,0.3401908576488495
1667824222022400800,0.03140087890625,-0.5254395604133606,-0.5771520137786865,0.4096580743789673
1667824222032408800,0.041408935546875,-0.5155270099639893,-0.5442377328872681,0.4303937256336212
1667824222042417000,0.0514169921875,-0.49952059984207153,-0.49125680327415466,0.41805875301361084
1667824222052423700,0.061423583984375,-0.49177372455596924,-0.4415734112262726,0.39781102538108826
1667824222062431700,0.071431640625,-0.5067348480224609,-0.4055648148059845,0.3826720118522644
1667824222072439600,0.081439453125,-0.5415540933609009,-0.39135363698005676,0.36881107091903687
1667824222082448000,0.09144775390625,-0.5815126895904541,-0.4025735557079315,0.373510479927063
1667824222092456000,0.1014560546875,-0.6123480796813965,-0.4133684039115906,0.4006997346878052
1667824222102463700,0.111463623046875,-0.6440886855125427,-0.4073672294616699,0.4383395314216614
1667824222112471800,0.121471923828125,-0.6717096567153931,-0.40363720059394836,0.4753401577472687
1667824222122479600,0.131479736328125,-0.7072958946228027,-0.4042465388774872,0.5045811533927917
1667824222132487700,0.14148779296875,-0.7473775148391724,-0.40648919343948364,0.5303615927696228
1667824222142495700,0.151495849609375,-0.7892243266105652,-0.4307958781719208,0.5326729416847229
1667824222152503800,0.16150390625,-0.8200509548187256,-0.4768288731575012,0.5137866139411926
1667824222162512000,0.171511962890625,-0.8241615295410156,-0.5461645126342773,0.49029433727264404
1667824222172519700,0.181519775390625,-0.8158170580863953,-0.6132453083992004,0.4892101585865021
1667824222182527700,0.19152783203125,-0.8093317151069641,-0.6728050112724304,0.5156159400939941
1667824222192534800,0.20153466796875,-0.8014881610870361,-0.7248823642730713,0.55343097448349
1667824222202542800,0.21154296875,-0.7941434383392334,-0.7659528255462646,0.5982234477996826
1667824222212551000,0.221551025390625,-0.7769615054130554,-0.7880264520645142,0.6414444446563721
1667824222222558700,0.231558837890625,-0.7507514953613281,-0.7581990361213684,0.6595544815063477
1667824222232566800,0.24156689453125,-0.7184915542602539,-0.6727539300918579,0.6524723172187805
1667824222242574600,0.25157470703125,-0.6790198087692261,-0.5470327138900757,0.6356387734413147
1667824222252583000,0.2615830078125,-0.6346994638442993,-0.37083905935287476,0.6052257418632507
1667824222262591000,0.271591064453125,-0.5820735096931458,-0.20220263302326202,0.551639974117279
1667824222272598800,0.281598876953125,-0.5293735861778259,-0.06924325227737427,0.46961382031440735
1667824222282606800,0.29160693359375,-0.48118793964385986,0.005907956510782242,0.3770418167114258
1667824222292614700,0.30161474609375,-0.44183918833732605,0.041316814720630646,0.27003175020217896
1667824222302622700,0.311622802734375,-0.4058292508125305,0.04754674434661865,0.18383800983428955
1667824222312630800,0.321630859375,-0.3779507577419281,0.02123844251036644,0.13589657843112946
1667824222322638800,0.331638916015625,-0.3671471178531647,-0.07955767959356308,0.12759657204151154
1667824222332646000,0.34164599609375,-0.3777478337287903,-0.20585276186466217,0.14986006915569305
1667824222342653700,0.35165380859375,-0.3990195691585541,-0.26997822523117065,0.19756340980529785
1667824222352661800,0.361661865234375,-0.4096897840499878,-0.2631027400493622,0.25137338042259216
1667824222362669800,0.371669921875,-0.41941165924072266,-0.24239426851272583,0.2937626540660858
1667824222372678000,0.381677978515625,-0.4249241352081299,-0.2116030603647232,0.2970457971096039
1667824222382686000,0.39168603515625,-0.4273497462272644,-0.162773996591568,0.2842351794242859
1667824222392693800,0.40169384765625,-0.42779821157455444,-0.13484783470630646,0.23670361936092377
1667824222402701800,0.411701904296875,-0.42665278911590576,-0.11149536818265915,0.17779982089996338
1667824222412709600,0.421709716796875,-0.4229501783847809,-0.08228155970573425,0.12788845598697662
1667824222422717700,0.4317177734375,-0.4096303880214691,-0.05025944113731384,0.09194723516702652
1667824222432725800,0.441725830078125,-0.3844374120235443,-0.04416719451546669,0.06598034501075745
1667824222442733800,0.45173388671875,-0.3541463613510132,-0.05241234228014946,0.04400580748915672
1667824222452742000,0.461741943359375,-0.33337077498435974,-0.05630907788872719,0.04187368229031563
1667824222462749700,0.471749755859375,-0.322367399930954,-0.05302593484520912,0.04794115945696831
1667824222472756700,0.4817568359375,-0.31937000155448914,-0.05976080149412155,0.0528741329908371
1667824222482764800,0.491764892578125,-0.31688421964645386,-0.05720443278551102,0.07188644260168076
1667824222492772900,0.50177294921875,-0.32247552275657654,-0.052023787051439285,0.09951087832450867
1667824222502780700,0.51178076171875,-0.32847800850868225,-0.036009665578603745,0.12268330901861191
1667824222512788700,0.521788818359375,-0.332348108291626,-0.0037353497464209795,0.13851474225521088
1667824222522796800,0.531796875,-0.33486321568489075,0.015335280448198318,0.14040984213352203
1667824222532804600,0.5418046875,-0.3328474760055542,-0.004778509959578514,0.12145532667636871
1667824222542813000,0.55181298828125,-0.3353516459465027,-0.032350216060876846,0.09793082624673843
1667824222552820700,0.56182080078125,-0.33906036615371704,-0.045521412044763565,0.09136293828487396
1667824222562828500,0.57182861328125,-0.3374464809894562,-0.049201369285583496,0.08712425082921982
1667824222572836400,0.58183642578125,-0.3251253664493561,-0.05315003544092178,0.08545737713575363
1667824222582844400,0.591844482421875,-0.3100438714027405,-0.06784801930189133,0.08217129856348038
1667824222592852500,0.6018525390625,-0.2956790626049042,-0.08336280286312103,0.07300150394439697
1667824222602860500,0.611860595703125,-0.2857031226158142,-0.10410775989294052,0.049360357224941254
1667824222612868600,0.62186865234375,-0.28392013907432556,-0.1284080445766449,0.028663868084549904
1667824222622875400,0.63187548828125,-0.2915061414241791,-0.14672686159610748,0.024602815508842468
1667824222632883500,0.641883544921875,-0.3118191361427307,-0.16653625667095184,0.02869636006653309
1667824222642891500,0.6518916015625,-0.3442058563232422,-0.19357958436012268,0.03606772422790527
1667824222652899600,0.661899658203125,-0.37505030632019043,-0.22452445328235626,0.04054023697972298
1667824222662907600,0.67190771484375,-0.3935028314590454,-0.24736851453781128,0.024110395461320877
1667824222672915500,0.68191552734375,-0.40828976035118103,-0.25233742594718933,-0.00884728692471981
1667824222682923500,0.691923583984375,-0.41478094458580017,-0.24934032559394836,-0.04496294632554054
1667824222692931300,0.701931396484375,-0.4074915945529938,-0.25711649656295776,-0.08035901933908463
1667824222702939400,0.711939453125,-0.39628902077674866,-0.24867798388004303,-0.1026691198348999
1667824222712947700,0.72194775390625,-0.3917880058288574,-0.2110307514667511,-0.11212680488824844
1667824222722955500,0.73195556640625,-0.38717859983444214,-0.18149496614933014,-0.1115741953253746
1667824222732963600,0.741963623046875,-0.3789941966533661,-0.17354995012283325,-0.10858506709337234
1667824222742971400,0.751971435546875,-0.36264902353286743,-0.18203212320804596,-0.09582346677780151
1667824222752979500,0.7619794921875,-0.34439465403556824,-0.2036798894405365,-0.07029333710670471
1667824222762986500,0.771986572265625,-0.3254915475845337,-0.2397068738937378,-0.03952956572175026
1667824222772994600,0.78199462890625,-0.3132993280887604,-0.2715074121952057,-0.012446283362805843
1667824222783002400,0.79200244140625,-0.30926358699798584,-0.29309871792793274,0.007478955201804638
1667824222793010400,0.802010498046875,-0.3100270926952362,-0.3117576241493225,0.004606203176081181
1667824222803018500,0.8120185546875,-0.3177947402000427,-0.3405434787273407,-0.018140388652682304
1667824222813026300,0.8220263671875,-0.33559292554855347,-0.3733549416065216,-0.06155923381447792
1667824222823034600,0.83203466796875,-0.3608596622943878,-0.39215314388275146,-0.11696683615446091
1667824222833042400,0.84204248046875,-0.3830871880054474,-0.4026009738445282,-0.17709648609161377
1667824222843050500,0.852050537109375,-0.4011668562889099,-0.4079984128475189,-0.2310611754655838
1667824222853058600,0.86205859375,-0.40567877888679504,-0.4064159691333771,-0.24487845599651337
1667824222863066400,0.87206640625,-0.4013298451900482,-0.4021216034889221,-0.22843077778816223
1667824222873074400,0.882074462890625,-0.38372689485549927,-0.4008294343948364,-0.17889012396335602
1667824222883082500,0.89208251953125,-0.3535972237586975,-0.40121346712112427,-0.10185792297124863
1667824222893090600,0.902090576171875,-0.3283781409263611,-0.38669630885124207,-0.01859712041914463
1667824222903098600,0.9120986328125,-0.3142862915992737,-0.3610229194164276,0.04316158592700958
1667824222913105400,0.92210546875,-0.3151824474334717,-0.33921879529953003,0.0735703557729721
1667824222923113500,0.932113525390625,-0.3157363831996918,-0.3276045024394989,0.06609725952148438
1667824222933121500,0.94212158203125,-0.3168677091598511,-0.35648301243782043,0.033060748130083084
1667824222943129600,0.952129638671875,-0.3234656751155853,-0.4048832952976227,-0.01673530414700508
1667824222953137400,0.962137451171875,-0.3337042033672333,-0.4623441994190216,-0.06568872928619385
1667824222963145500,0.9721455078125,-0.3443584442138672,-0.4962419867515564,-0.11076299846172333
1667824222973153500,0.982153564453125,-0.3566526472568512,-0.5083726644515991,-0.15000441670417786
1667824222983161300,0.992161376953125,-0.36401230096817017,-0.5029041171073914,-0.19217583537101746
1667824222993169700,1.002169677734375,-0.3715756833553314,-0.4683206081390381,-0.23154081404209137
1667824223003177500,1.012177490234375,-0.3681231737136841,-0.41015395522117615,-0.2484303116798401
1667824223013185500,1.022185546875,-0.36922144889831543,-0.3532960116863251,-0.24318015575408936
1667824223023193600,1.032193603515625,-0.37172695994377136,-0.2935570478439331,-0.2133580893278122
1667824223033201400,1.042201416015625,-0.3686392903327942,-0.23254163563251495,-0.16237212717533112
1667824223043209500,1.05220947265625,-0.3621686100959778,-0.1976691335439682,-0.10340308398008347
1667824223053217500,1.062217529296875,-0.34164947271347046,-0.21611152589321136,-0.05584568902850151
1667824223063224600,1.072224609375,-0.321919709444046,-0.2714003622531891,-0.02262621559202671
1667824223073232400,1.082232421875,-0.3026980757713318,-0.32837414741516113,0.0021044297609478235
1667824223083240400,1.092240478515625,-0.28432172536849976,-0.3673705458641052,0.03256247192621231
1667824223093248500,1.10224853515625,-0.2654021084308624,-0.3910425901412964,0.057135190814733505
1667824223103256600,1.112256591796875,-0.24863457679748535,-0.39428073167800903,0.0821545273065567
1667824223113264600,1.1222646484375,-0.24356605112552643,-0.39191824197769165,0.10723937302827835
1667824223123272400,1.1322724609375,-0.24530190229415894,-0.3849380910396576,0.13407976925373077
1667824223133280500,1.142280517578125,-0.2665126621723175,-0.36647945642471313,0.171587735414505
1667824223143288300,1.152288330078125,-0.310971736907959,-0.3390398323535919,0.2015456259250641
1667824223153296400,1.16229638671875,-0.3736657202243805,-0.3502373695373535,0.21795709431171417
1667824223163304400,1.172304443359375,-0.4313218295574188,-0.39326581358909607,0.22167646884918213
1667824223173312500,1.1823125,-0.47571060061454773,-0.4507964551448822,0.2236538678407669
1667824223183320600,1.192320556640625,-0.4926041066646576,-0.5165517926216125,0.20949995517730713
1667824223193328400,1.202328369140625,-0.4737185537815094,-0.5833683609962463,0.1573190540075302
1667824223203336400,1.21233642578125,-0.4084239900112152,-0.608042299747467,0.06392305344343185
1667824223213343500,1.222343505859375,-0.26041319966316223,-0.62724369764328,-0.053997721523046494
1667824223223351600,1.2323515625,-0.15971429646015167,-0.5110861659049988,-0.143850639462471
1667824223233359600,1.242359619140625,-0.0992371067404747,-0.35109278559684753,-0.1670694202184677
1667824223243367400,1.252367431640625,-0.08284375071525574,-0.23420476913452148,-0.14962224662303925
1667824223253375500,1.26237548828125,-0.11828296631574631,-0.23022201657295227,-0.11596442013978958
1667824223263383300,1.27238330078125,-0.17453105747699738,-0.3289104998111725,-0.07349046319723129
1667824223273391400,1.282391357421875,-0.23409105837345123,-0.47457316517829895,-0.028656678274273872
1667824223283399700,1.292399658203125,-0.28588396310806274,-0.653110682964325,0.005540440324693918
1667824223293407500,1.302407470703125,-0.32577383518218994,-0.8530046343803406,0.02015640027821064
1667824223303415600,1.31241552734375,-0.34035545587539673,-1.0346084833145142,0.02581641636788845
1667824223313423400,1.32242333984375,-0.32886576652526855,-1.112072467803955,0.031987495720386505
1667824223323431400,1.332431396484375,-0.2826007902622223,-1.0764563083648682,0.029321404173970222
1667824223333439500,1.342439453125,-0.21498261392116547,-0.9558764100074768,0.02292875200510025
1667824223343447600,1.352447509765625,-0.1454687863588333,-0.8141674995422363,0.0003427488263696432
1667824223353455600,1.36245556640625,-0.09435473382472992,-0.6774767637252808,-0.029355758801102638
1667824223363462400,1.37246240234375,-0.07270882278680801,-0.5847899317741394,-0.043644681572914124
1667824223373470500,1.382470458984375,-0.08799776434898376,-0.5138830542564392,-0.046246856451034546
1667824223383478500,1.392478515625,-0.12842881679534912,-0.27329784631729126,-0.06217389181256294
1667824223393486600,1.402486572265625,-0.1560705602169037,-0.19126130640506744,-0.048826128244400024
1667824223403494700,1.41249462890625,-0.18241001665592194,-0.2927250862121582,-0.0017747305100783706
1667824223413502500,1.42250244140625,-0.22174623608589172,-0.2990277111530304,0.07124941051006317
1667824223423510500,1.432510498046875,-0.25009799003601074,-0.25343626737594604,0.15770627558231354
1667824223433518300,1.442518310546875,-0.242084801197052,-0.22903691232204437,0.23913082480430603
1667824223443526400,1.4525263671875,-0.19785156846046448,-0.13704600930213928,0.295841783285141
1667824223453534700,1.46253466796875,-0.12544606626033783,-0.00002103897168126423,0.29863837361335754
1667824223463542500,1.47254248046875,-0.05143842473626137,0.10508780181407928,0.23271340131759644
1667824223473550600,1.482550537109375,0.008459797129034996,0.1560380756855011,0.09762349724769592
1667824223483558400,1.492558349609375,0.05007967725396156,0.19828619062900543,-0.0492306612432003
1667824223493566500,1.50256640625,0.0718558132648468,0.2649903893470764,-0.1723422110080719
1667824223503574300,1.51257421875,0.07069440931081772,0.31437206268310547,-0.26700931787490845
1667824223513581600,1.52258154296875,0.052071988582611084,0.3280188739299774,-0.322522908449173
1667824223523589400,1.53258935546875,0.023727433755993843,0.32104673981666565,-0.34158608317375183
1667824223533597400,1.542597412109375,0.0025486452504992485,0.2690461277961731,-0.3159547746181488
1667824223543605500,1.55260546875,-0.0110457269474864,0.19223202764987946,-0.2556762397289276
1667824223553613300,1.56261328125,-0.007765245158225298,0.09983258694410324,-0.1762264221906662
1667824223563621600,1.57262158203125,0.01780376397073269,0.0325896330177784,-0.09661948680877686
1667824223573629400,1.58262939453125,0.05494234338402748,0.006229400169104338,-0.025116804987192154
1667824223583637500,1.592637451171875,0.0992480218410492,0.025233184918761253,0.03864486515522003
1667824223593645600,1.6026455078125,0.1440463811159134,0.03906324505805969,0.07266541570425034
1667824223603653400,1.6126533203125,0.18322841823101044,0.025619076564908028,0.07740584015846252
1667824223613661400,1.622661376953125,0.21044032275676727,-0.005209941882640123,0.054792676120996475
1667824223623669500,1.63266943359375,0.227607861161232,-0.0367891751229763,0.02287415601313114
1667824223633677600,1.642677490234375,0.2361305058002472,-0.09119116514921188,-0.0004293015517760068
1667824223643685600,1.652685546875,0.23665541410446167,-0.14471617341041565,-0.009227586910128593
1667824223653692400,1.6626923828125,0.23856304585933685,-0.16556791961193085,-0.0014263890916481614
1667824223663700500,1.672700439453125,0.23798273503780365,-0.152330681681633,0.022538332268595695
1667824223673708500,1.68270849609375,0.23225374519824982,-0.10062327980995178,0.07726043462753296
1667824223683716600,1.692716552734375,0.21988283097743988,-0.0198685135692358,0.15167661011219025
1667824223693724400,1.702724365234375,0.20380799472332,0.07882717251777649,0.23965759575366974
1667824223703732500,1.712732421875,0.1889382302761078,0.16779619455337524,0.3233855068683624
1667824223713740500,1.722740478515625,0.174257293343544,0.194228857755661,0.3913424611091614
1667824223723748400,1.732748291015625,0.1643439382314682,0.13535356521606445,0.44553831219673157
1667824223733756400,1.74275634765625,0.16214443743228912,-0.0007171892793849111,0.4861297011375427
1667824223743764500,1.752764404296875,0.1722513884305954,-0.18398235738277435,0.520861029624939
1667824223753772500,1.7627724609375,0.18305717408657074,-0.3545474410057068,0.5550938248634338
1667824223763780600,1.772780517578125,0.18859921395778656,-0.4819546639919281,0.6035923957824707
1667824223773788400,1.782788330078125,0.183076873421669,-0.5597032308578491,0.6804429888725281
1667824223783796500,1.79279638671875,0.1479085087776184,-0.566810131072998,0.7781431674957275
1667824223793804300,1.80280419921875,0.08100403845310211,-0.5040056109428406,0.8935744166374207
1667824223803811600,1.8128115234375,-0.006423810962587595,-0.38877278566360474,1.033806324005127
1667824223813819400,1.8228193359375,-0.09972899407148361,-0.25310710072517395,1.1492650508880615
1667824223823827500,1.832827392578125,-0.19024184346199036,-0.1379714459180832,1.2089446783065796
1667824223833835500,1.84283544921875,-0.279818058013916,-0.0837835818529129,1.205182433128357
1667824223843843600,1.852843505859375,-0.3632839322090149,-0.08108100295066833,1.1457164287567139
1667824223853851600,1.8628515625,-0.430182546377182,-0.1102743074297905,1.0343003273010254
1667824223863859500,1.872859375,-0.47482696175575256,-0.13729314506053925,0.8887855410575867
1667824223873867500,1.882867431640625,-0.49570509791374207,-0.13190050423145294,0.7188848853111267
1667824223883875600,1.89287548828125,-0.4982779622077942,-0.05518389493227005,0.5305868983268738
1667824223893883400,1.90288330078125,-0.4681467115879059,0.06170064955949783,0.32258257269859314
1667824223903891500,1.912891357421875,-0.46262916922569275,0.18083715438842773,0.06914977729320526
1667824223913899500,1.9228994140625,-0.49202460050582886,0.2940113842487335,-0.18632620573043823
1667824223923907600,1.932907470703125,-0.5558978319168091,0.3802053928375244,-0.4792880415916443
1667824223933915400,1.942915283203125,-0.6202678084373474,0.4389169216156006,-0.7954611778259277
1667824223943923500,1.95292333984375,-0.5477089285850525,0.32857921719551086,-1.0745726823806763
1667824223953930500,1.962930419921875,-0.44476068019866943,0.23651400208473206,-1.3934487104415894
1667824223963938600,1.9729384765625,-0.34609454870224,0.2972322106361389,-1.6645984649658203
1667824223973946600,1.982946533203125,-0.24109037220478058,0.4363331198692322,-1.8270866870880127
1667824223983954400,1.992954345703125,-0.18821385502815247,0.6303318738937378,-1.9518758058547974
1667824223993962500,2.00296240234375,-0.16195908188819885,0.7726240158081055,-2.0570971965789795
1667824224003970300,2.01297021484375,-0.11781717836856842,0.7815975546836853,-2.1214308738708496
1667824224013978400,2.022978271484375,-0.05065891519188881,0.7043094038963318,-2.165468215942383
1667824224023986700,2.032986572265625,0.08339635282754898,0.6471854448318481,-2.191962957382202
1667824224033994500,2.042994384765625,0.27988091111183167,0.6133835315704346,-2.126100540161133
1667824224044002600,2.05300244140625,0.5194810032844543,0.5641416907310486,-1.988742470741272
1667824224054010400,2.06301025390625,0.7190955877304077,0.41063013672828674,-1.7953447103500366
1667824224064018400,2.073018310546875,0.7927676439285278,0.060865748673677444,-1.5497932434082031
1667824224074026500,2.083026611328125,0.7457447648048401,-0.3446199595928192,-1.2504383325576782
1667824224084034600,2.09303466796875,0.6320778727531433,-0.6835431456565857,-0.9021047949790955
1667824224094042600,2.103042724609375,0.4657232165336609,-0.8321853876113892,-0.5354277491569519
1667824224104049400,2.11304931640625,0.19267144799232483,-0.6832965612411499,-0.17183540761470795
1667824224114057500,2.123057373046875,-0.17577582597732544,-0.4361664056777954,0.09294245392084122
1667824224124065300,2.133065185546875,-0.46285152435302734,-0.49333328008651733,0.3236827254295349
1667824224134073600,2.143073486328125,-0.5763139128684998,-0.6502757668495178,0.5237961411476135
1667824224144081700,2.15308154296875,-0.5689388513565063,-0.7191759943962097,0.6450514197349548
1667824224154089500,2.16308935546875,-0.5185672640800476,-0.7348524332046509,0.6863940954208374
1667824224164097500,2.17309765625,-0.4860151708126068,-0.7472718358039856,0.685160756111145
1667824224174105300,2.183105224609375,-0.4990779757499695,-0.763313353061676,0.6602913737297058
1667824224184113400,2.193113525390625,-0.5270907282829285,-0.7351195216178894,0.6100202202796936
1667824224194121500,2.20312158203125,-0.5367467999458313,-0.6296000480651855,0.5624542832374573
1667824224204129500,2.213129638671875,-0.5283455848693848,-0.46558260917663574,0.5284955501556396
1667824224214137600,2.2231376953125,-0.5248895883560181,-0.31478431820869446,0.516515851020813
1667824224224145400,2.2331455078125,-0.5331355333328247,-0.21918481588363647,0.5194498300552368
1667824224234153500,2.243153564453125,-0.549473762512207,-0.1653066724538803,0.5443839430809021
1667824224244161500,2.25316162109375,-0.553800642490387,-0.13753601908683777,0.5740385055541992
1667824224254168600,2.26316845703125,-0.5499742031097412,-0.14994555711746216,0.5890137553215027
1667824224264176600,2.2731767578125,-0.5534762144088745,-0.21189041435718536,0.5808572769165039
1667824224274184400,2.283184326171875,-0.5582299828529358,-0.3094649016857147,0.5543612241744995
1667824224284192500,2.293192626953125,-0.5685329437255859,-0.3754713535308838,0.5245388746261597
1667824224294200300,2.303200439453125,-0.5890406370162964,-0.3992752134799957,0.4982079267501831
1667824224304208600,2.313208740234375,-0.6171883940696716,-0.420585572719574,0.4698535203933716
1667824224314216400,2.323216552734375,-0.6504517793655396,-0.4652300179004669,0.4353961944580078
1667824224324224500,2.333224609375,-0.6946070194244385,-0.5099759101867676,0.3877575695514679
1667824224334232600,2.343232666015625,-0.7500295042991638,-0.531834065914154,0.30609041452407837
1667824224344240400,2.353240478515625,-0.8092233538627625,-0.5109367966651917,0.18139535188674927
1667824224354248400,2.36324853515625,-0.8643366694450378,-0.4645160138607025,0.03199734911322594
1667824224364256300,2.37325634765625,-0.9247118234634399,-0.41944706439971924,-0.12660987675189972
1667824224374264600,2.3832646484375,-0.9802848100662231,-0.3304538130760193,-0.27115240693092346
1667824224384272600,2.393272705078125,-1.0157490968704224,-0.18038734793663025,-0.3865990936756134
1667824224394279400,2.403279541015625,-1.0263117551803589,-0.033007752150297165,-0.4792190492153168
1667824224404287500,2.41328759765625,-1.0191102027893066,0.0626378133893013,-0.5551137924194336
1667824224414295600,2.423295654296875,-0.9880234599113464,0.09094561636447906,-0.6179431080818176
1667824224424303600,2.4333037109375,-0.9450421333312988,0.07045765221118927,-0.6641905307769775
1667824224434311400,2.4433115234375,-0.8938378095626831,0.02178146131336689,-0.6989383697509766
1667824224444319500,2.453319580078125,-0.8473129272460938,-0.025717081502079964,-0.7156177163124084
1667824224454327600,2.46332763671875,-0.7948523759841919,-0.06034163758158684,-0.7049011588096619
1667824224464335400,2.47333544921875,-0.7419950366020203,-0.10796348750591278,-0.669019341468811
1667824224474343400,2.483343505859375,-0.6853147149085999,-0.153410866856575,-0.6197511553764343
1667824224484351500,2.4933515625,-0.6218949556350708,-0.17700806260108948,-0.5635054707527161
1667824224494359600,2.503359619140625,-0.5533183217048645,-0.15788817405700684,-0.48871535062789917
1667824224504367600,2.51336767578125,-0.47868961095809937,-0.09979237616062164,-0.39695748686790466
1667824224514375400,2.52337548828125,-0.39353638887405396,-0.04107366502285004,-0.3120609521865845
1667824224524383500,2.533383544921875,-0.3068784475326538,0.015720373019576073,-0.23907463252544403
1667824224534391300,2.543391357421875,-0.226355642080307,0.06010887771844864,-0.18945620954036713
1667824224544398600,2.553398681640625,-0.14812767505645752,0.10399297624826431,-0.154871866106987
1667824224554406400,2.563406494140625,-0.0759485587477684,0.1351865828037262,-0.12656912207603455
1667824224564414500,2.57341455078125,-0.019764916971325874,0.14424878358840942,-0.11950429528951645
1667824224574427100,2.58342724609375,0.041602570563554764,0.12919926643371582,-0.11905767768621445
1667824224584435200,2.593435302734375,0.1024310365319252,0.10074631869792938,-0.1262034773826599
1667824224594443000,2.603443115234375,0.1619444340467453,0.07335890084505081,-0.1299995481967926
1667824224604451000,2.613451171875,0.20245510339736938,0.03556997701525688,-0.12133575230836868
1667824224614459100,2.623459228515625,0.24181635677814484,0.0002492718631401658,-0.09447777271270752
1667824224624467200,2.63346728515625,0.277988463640213,-0.02220437116920948,-0.054598528891801834
1667824224634475300,2.643475341796875,0.31898677349090576,-0.04157247766852379,-0.0032687638886272907
1667824224644483000,2.653483154296875,0.3677694797515869,-0.07063662260770798,0.028895298019051552
1667824224654491100,2.6634912109375,0.41568320989608765,-0.10094605386257172,0.054368965327739716
1667824224664499000,2.6734990234375,0.4697456657886505,-0.12556378543376923,0.05361555889248848
1667824224674507300,2.68350732421875,0.5123879313468933,-0.13831180334091187,0.018258100375533104
1667824224684515000,2.69351513671875,0.5442262887954712,-0.13009648025035858,-0.03707572817802429
1667824224694522000,2.703522216796875,0.5644210577011108,-0.1337982714176178,-0.08444564044475555
1667824224704530000,2.713530029296875,0.5734685659408569,-0.13806945085525513,-0.1125667616724968
1667824224714538000,2.7235380859375,0.5715838670730591,-0.14221572875976562,-0.10272424668073654
1667824224724546300,2.73354638671875,0.5672013759613037,-0.1441313475370407,-0.06815455108880997
1667824224734554000,2.74355419921875,0.5676677227020264,-0.15874411165714264,-0.022250177338719368
1667824224744562200,2.753562255859375,0.5614508390426636,-0.1634557694196701,0.03767920285463333
1667824224754570000,2.763570068359375,0.5638769268989563,-0.14988963305950165,0.0910755842924118
1667824224764578000,2.773578125,0.5753700733184814,-0.12969860434532166,0.12596219778060913
1667824224774586000,2.783586181640625,0.5902765989303589,-0.12567776441574097,0.1414111852645874
1667824224784594200,2.79359423828125,0.6038265228271484,-0.1249464601278305,0.12941445410251617
1667824224794602200,2.803602294921875,0.6099134087562561,-0.13058944046497345,0.10118521004915237
1667824224804610000,2.813610107421875,0.6038893461227417,-0.09912365674972534,0.05859833210706711
1667824224814618000,2.8236181640625,0.5717921257019043,-0.04286118224263191,0.012986904941499233
1667824224824626200,2.833626220703125,0.5292739868164062,0.03529753535985947,-0.04181961715221405
1667824224834633200,2.84363330078125,0.4811181426048279,0.1337929517030716,-0.08764702826738358
1667824224844641300,2.853641357421875,0.4344675540924072,0.2656460702419281,-0.11764860153198242
1667824224854649000,2.863649169921875,0.39343997836112976,0.38535088300704956,-0.1250239610671997
1667824224864657200,2.8736572265625,0.3671010434627533,0.47619104385375977,-0.10861781984567642
1667824224874665000,2.8836650390625,0.36124661564826965,0.5206817984580994,-0.06735214591026306
1667824224884673000,2.893673095703125,0.379561185836792,0.5135259032249451,-0.016932643949985504
1667824224894681000,2.90368115234375,0.4182928502559662,0.45243003964424133,0.03237951174378395
1667824224904689200,2.913689208984375,0.48183587193489075,0.36743393540382385,0.07600528746843338
1667824224914697200,2.923697265625,0.5651835203170776,0.3095054030418396,0.08890137821435928
1667824224924705000,2.933705078125,0.6700878143310547,0.27423927187919617,0.06937534362077713
1667824224934713000,2.943713134765625,0.7857486009597778,0.24593093991279602,0.022777484729886055
1667824224944721200,2.95372119140625,0.8873343467712402,0.20864002406597137,-0.043475836515426636
1667824224954729000,2.96372900390625,0.9508172273635864,0.1535504162311554,-0.13449282944202423
1667824224964737300,2.9737373046875,0.9727182388305664,0.10261958837509155,-0.23269662261009216
1667824224974745000,2.9837451171875,0.9511234760284424,0.04546921327710152,-0.3115493655204773
1667824224984752000,2.993752197265625,0.9018166661262512,-0.04441007599234581,-0.38752803206443787
1667824224994760000,3.003760009765625,0.8442633152008057,-0.16851072013378143,-0.4491402506828308
1667824225004768300,3.013768310546875,0.7868349552154541,-0.30270928144454956,-0.4811170995235443
1667824225014776300,3.0237763671875,0.7387656569480896,-0.41935253143310547,-0.477775901556015
1667824225024784100,3.0337841796875,0.6980707049369812,-0.48970791697502136,-0.4224196970462799
1667824225034792200,3.043792236328125,0.6583837270736694,-0.4864782989025116,-0.3190656006336212
1667824225044800000,3.053800048828125,0.6114221215248108,-0.3747962415218353,-0.17663149535655975
1667824225054808000,3.06380810546875,0.5763069987297058,-0.16555088758468628,-0.009581787511706352
1667824225064815900,3.07381591796875,0.5627296566963196,0.07839520275592804,0.16381210088729858
1667824225074824200,3.08382421875,0.582503616809845,0.2846146821975708,0.31461626291275024
1667824225084832300,3.093832275390625,0.624030590057373,0.428764671087265,0.43734803795814514
1667824225094840000,3.103840087890625,0.675304651260376,0.486149400472641,0.5188165307044983
1667824225104848100,3.11384814453125,0.71086585521698,0.47917991876602173,0.5612348318099976
1667824225114856000,3.12385595703125,0.7135777473449707,0.4261009693145752,0.5728603005409241
1667824225124864000,3.133864013671875,0.6785196661949158,0.3342658579349518,0.5762707591056824
1667824225134871000,3.14387109375,0.5960838794708252,0.22367143630981445,0.5591663718223572
1667824225144879000,3.153879150390625,0.4691983759403229,0.1108655333518982,0.5423564910888672
1667824225154887200,3.16388720703125,0.31332623958587646,0.04173892363905907,0.522578239440918
1667824225164895000,3.17389501953125,0.16472157835960388,-0.0011888351291418076,0.48361727595329285
1667824225174903000,3.183903076171875,0.04879550263285637,-0.017344634979963303,0.4172837734222412
1667824225184911000,3.1939111328125,-0.02912832424044609,-0.010150638408958912,0.31963178515434265
1667824225194919200,3.203919189453125,-0.06725120544433594,0.015115036629140377,0.19399291276931763
1667824225204927200,3.21392724609375,-0.07608331739902496,0.0971481204032898,0.05109327659010887
1667824225214935000,3.22393505859375,-0.04271284118294716,0.2720320522785187,-0.09608631581068039
1667824225224943000,3.233943115234375,0.02883244678378105,0.4962960481643677,-0.2440454214811325
1667824225234951000,3.243950927734375,0.1251632422208786,0.6540459990501404,-0.397270143032074
1667824225244959200,3.253959228515625,0.23715688288211823,0.7564261555671692,-0.521228015422821
1667824225254967300,3.26396728515625,0.346347838640213,0.843263566493988,-0.6043136119842529
1667824225264975000,3.27397509765625,0.425924688577652,0.8890047073364258,-0.6352595090866089
1667824225274982100,3.283982177734375,0.4928475022315979,0.8775608539581299,-0.6199766993522644
1667824225284990000,3.293989990234375,0.6417784094810486,0.8010961413383484,-0.559177815914154
1667824225294998300,3.303998291015625,0.7598411440849304,0.7595394253730774,-0.4569087028503418
1667824225305006000,3.314006103515625,0.7557092308998108,0.669913113117218,-0.2940060496330261
1667824225315014100,3.32401416015625,0.6770336031913757,0.5132585167884827,-0.12046515941619873
1667824225325022200,3.334022216796875,0.564116895198822,0.36887603998184204,0.07115327566862106
1667824225335030000,3.344030029296875,0.48316532373428345,0.289229154586792,0.2731335461139679
1667824225345038000,3.3540380859375,0.45332008600234985,0.25158190727233887,0.4741220474243164
1667824225355046100,3.364046142578125,0.4536236822605133,0.1906983107328415,0.6271379590034485
1667824225365054200,3.37405419921875,0.45914706587791443,0.08071748167276382,0.7209480404853821
1667824225375062300,3.384062255859375,0.46730461716651917,-0.023550866171717644,0.7610232830047607
1667824225385070000,3.394070068359375,0.4985876977443695,-0.055334627628326416,0.7444999814033508
1667824225395078100,3.404078125,0.532802402973175,0.2906038761138916,0.6449409127235413
1667824225405086000,3.4140859375,0.5498971939086914,0.25246819853782654,0.5339469909667969
1667824225415094000,3.424093994140625,0.5024389028549194,0.2034631073474884,0.46066346764564514
1667824225425101000,3.43410107421875,0.39032408595085144,0.020827516913414,0.4012768566608429
1667824225435109000,3.444109130859375,0.25905659794807434,-0.21567796170711517,0.3905254006385803
1667824225445117000,3.454116943359375,0.13408510386943817,-0.4084857702255249,0.420732319355011
1667824225455125000,3.464125,0.0388837493956089,-0.5358929634094238,0.4611265957355499
1667824225465133300,3.47413330078125,0.0020935109350830317,-0.5951530933380127,0.4874948263168335
1667824225475141000,3.48414111328125,0.030423952266573906,-0.615294873714447,0.48043346405029297
1667824225485149200,3.494149169921875,0.08084744215011597,-0.6239099502563477,0.44620490074157715
1667824225495157000,3.504156982421875,0.12775982916355133,-0.5667616724967957,0.4285271167755127
1667824225505165000,3.5141650390625,0.17033419013023376,-0.4332912564277649,0.4231925308704376
1667824225515173000,3.524173095703125,0.21364596486091614,-0.22959564626216888,0.44120803475379944
1667824225525181000,3.534180908203125,0.22888191044330597,-0.023854199796915054,0.46442651748657227
1667824225535189200,3.544189208984375,0.2029981166124344,0.15094557404518127,0.476957231760025
1667824225545197000,3.554197021484375,0.15192881226539612,0.2830388844013214,0.47283944487571716
1667824225555205000,3.564205078125,0.0994991585612297,0.35618793964385986,0.4506388008594513
1667824225565212000,3.5742119140625,0.04908658564090729,0.38776370882987976,0.4156408905982971
1667824225575215400,3.58421533203125,0.0057279267348349094,0.3751829266548157,0.363572359085083
1667824225585223200,3.59422314453125,-0.042826827615499496,0.33410313725471497,0.29520127177238464
1667824225595231200,3.604231201171875,-0.10082434862852097,0.2736038565635681,0.2193366140127182
1667824225605239000,3.614239013671875,-0.16959142684936523,0.2011227160692215,0.13704814016819
1667824225615247400,3.624247314453125,-0.2437005490064621,0.13379961252212524,0.059363991022109985
1667824225625255400,3.63425537109375,-0.3186538815498352,0.10477568209171295,-0.0039044604636728764
1667824225635263200,3.64426318359375,-0.37718936800956726,0.09517578035593033,-0.060504354536533356
1667824225645271300,3.654271240234375,-0.4193272292613983,0.07685163617134094,-0.1172507256269455
1667824225655279000,3.664279052734375,-0.44436973333358765,0.06175177916884422,-0.18283213675022125
1667824225665287200,3.674287109375,-0.45619896054267883,0.0586092509329319,-0.2585436701774597
1667824225675295200,3.684295166015625,-0.4622192978858948,0.07312773913145065,-0.32817786931991577
1667824225685303300,3.69430322265625,-0.47486212849617004,0.07587159425020218,-0.39340588450431824
1667824225695311400,3.704311279296875,-0.48504605889320374,0.05518629029393196,-0.43234795331954956
1667824225705319200,3.714319091796875,-0.47803235054016113,0.012517922557890415,-0.42667755484580994
1667824225715326200,3.724326171875,-0.4399113357067108,-0.05481371283531189,-0.3740537464618683
1667824225725334300,3.734334228515625,-0.3806871473789215,-0.13928039371967316,-0.29127684235572815
1667824225735342300,3.74434228515625,-0.30469730496406555,-0.22252042591571808,-0.18714138865470886
1667824225745350100,3.75435009765625,-0.23073281347751617,-0.3172330856323242,-0.06702004373073578
1667824225755358200,3.764358154296875,-0.1636829376220703,-0.4131303131580353,0.0534491091966629
1667824225765366300,3.7743662109375,-0.10935471951961517,-0.4743068516254425,0.16612958908081055
1667824225775374000,3.7843740234375,-0.08404510468244553,-0.4949178695678711,0.27454420924186707
1667824225785382100,3.794382080078125,-0.08069644123315811,-0.46242037415504456,0.3727453351020813
1667824225795390200,3.80439013671875,-0.07854007929563522,-0.39495396614074707,0.4521227180957794
1667824225805398300,3.814398193359375,-0.06301625072956085,-0.3098156452178955,0.48833104968070984
1667824225815406300,3.82440625,-0.03651007264852524,-0.23205241560935974,0.47795113921165466
1667824225825414100,3.8344140625,0.001743038883432746,-0.17124071717262268,0.4358859658241272
1667824225835422200,3.844422119140625,0.045403167605400085,-0.13218680024147034,0.36040985584259033
1667824225845429200,3.85442919921875,0.10274821519851685,-0.11869735270738602,0.25467702746391296
1667824225855437300,3.864437255859375,0.1593816727399826,-0.13424302637577057,0.13375912606716156
1667824225865445000,3.874445068359375,0.208893820643425,-0.1646760255098343,0.01122043002396822
1667824225875453200,3.884453125,0.22203972935676575,-0.2200404852628708,-0.1201554387807846
1667824225885461200,3.894461181640625,0.1764509379863739,-0.2906443476676941,-0.24606622755527496
1667824225895469300,3.90446923828125,0.06751566380262375,-0.3597962558269501,-0.36823368072509766
1667824225905477400,3.914477294921875,-0.07750730961561203,-0.43078866600990295,-0.4954829812049866
1667824225915485200,3.924485107421875,-0.23379172384738922,-0.5031930804252625,-0.6381024718284607
1667824225925493200,3.9344931640625,-0.3719216287136078,-0.5635214447975159,-0.7833254337310791
1667824225935501300,3.944501220703125,-0.464588463306427,-0.6078382730484009,-0.9078543186187744
1667824225945509000,3.954509033203125,-0.49884283542633057,-0.6412742733955383,-1.006585955619812
1667824225955517200,3.96451708984375,-0.49209704995155334,-0.6503399610519409,-1.0617634057998657
1667824225965525200,3.974525146484375,-0.46574240922927856,-0.6265829205513,-1.0681408643722534
1667824225975533300,3.984533203125,-0.41722360253334045,-0.5643280744552612,-1.0229281187057495
1667824225985541400,3.994541259765625,-0.35050687193870544,-0.4624722898006439,-0.9368385672569275
1667824225995549200,4.004549072265625,-0.2727484405040741,-0.3316362500190735,-0.8096973896026611
1667824226005556200,4.01455615234375,-0.1898394376039505,-0.2051752507686615,-0.6600298285484314
1667824226015564300,4.024564208984375,-0.1180691123008728,-0.10934726148843765,-0.5095074772834778
1667824226025572400,4.034572265625,-0.06771592795848846,-0.04099137336015701,-0.36938709020614624
1667824226035580200,4.044580078125,-0.037936728447675705,-0.004021373111754656,-0.257361501455307
1667824226045588200,4.054588134765625,-0.02841326594352722,0.008041414432227612,-0.18469128012657166
1667824226055596300,4.06459619140625,-0.03105751797556877,0.013522733002901077,-0.1365021914243698
1667824226065604000,4.07460400390625,-0.03346554934978485,-0.0003760383406188339,-0.11116167157888412
1667824226075612400,4.0846123046875,-0.0354008674621582,-0.016514262184500694,-0.10622124373912811
1667824226085620200,4.0946201171875,-0.035342808812856674,-0.03556092455983162,-0.10484705120325089
1667824226095628300,4.104628173828125,-0.030172549188137054,-0.058033209294080734,-0.11825207620859146
1667824226105636400,4.11463623046875,-0.017252489924430847,-0.08633249253034592,-0.13254286348819733
1667824226115644200,4.12464404296875,-0.0054490938782691956,-0.12268410623073578,-0.1488611102104187
1667824226125652200,4.13465234375,0.00008708536915946752,-0.1625947654247284,-0.15022492408752441
1667824226135659300,4.1446591796875,-0.0013989584986120462,-0.20437417924404144,-0.13798929750919342
1667824226145667300,4.154667236328125,-0.007182279136031866,-0.26208755373954773,-0.12069925665855408
1667824226155675100,4.164675048828125,-0.007831024937331676,-0.35043656826019287,-0.1093725636601448
1667824226165683200,4.17468310546875,-0.006411560345441103,-0.4370625615119934,-0.09744612872600555
1667824226175691000,4.18469091796875,0.004026167094707489,-0.5038988590240479,-0.07946419715881348
1667824226185699300,4.19469921875,0.012321647256612778,-0.5732126832008362,-0.059487294405698776
1667824226195707400,4.204707275390625,0.014276674017310143,-0.6395999193191528,-0.02930462546646595
1667824226205715200,4.214715087890625,0.0010807107901200652,-0.6644964814186096,0.02046106569468975
1667824226215723300,4.22472314453125,-0.024083232507109642,-0.6444788575172424,0.07279537618160248
1667824226225731000,4.23473095703125,-0.06723523139953613,-0.6013020873069763,0.1386100798845291
1667824226235739100,4.2447392578125,-0.135296031832695,-0.5263639092445374,0.21489472687244415
1667824226245747200,4.254747314453125,-0.2242048680782318,-0.4106906056404114,0.3074427843093872
1667824226255755300,4.26475537109375,-0.31939131021499634,-0.26062867045402527,0.4032185673713684
1667824226265763300,4.274763427734375,-0.4157942831516266,-0.106491819024086,0.4845019578933716
1667824226275771100,4.284771240234375,-0.489175021648407,0.015659386292099953,0.5490780472755432
1667824226285778200,4.294778076171875,-0.5367185473442078,0.10473600029945374,0.5877546072006226
1667824226295786200,4.3047861328125,-0.5645888447761536,0.16220834851264954,0.59908527135849
1667824226305794300,4.314794189453125,-0.5807930827140808,0.18692541122436523,0.5918486714363098
1667824226315802400,4.32480224609375,-0.5919181704521179,0.19599907100200653,0.5735785961151123
1667824226325810200,4.33481005859375,-0.6133238673210144,0.20141513645648956,0.5422139763832092
1667824226335818200,4.344818359375,-0.6474599838256836,0.2127988189458847,0.5015866756439209
1667824226345826000,4.354825927734375,-0.6913371682167053,0.20819900929927826,0.45753851532936096
1667824226355834400,4.36483447265625,-0.7262727618217468,0.1941431164741516,0.4195570647716522
1667824226365842400,4.374842529296875,-0.7597564458847046,0.18445053696632385,0.38084134459495544
1667824226375850200,4.384850341796875,-0.7878557443618774,0.1674766093492508,0.3434569537639618
1667824226385858300,4.3948583984375,-0.8066959977149963,0.154794380068779,0.30145224928855896
1667824226395866000,4.4048662109375,-0.8155843019485474,0.12406016141176224,0.24421054124832153
1667824226405874200,4.414874267578125,-0.8070049285888672,0.09940328449010849,0.17158746719360352
1667824226415882200,4.42488232421875,-0.8009334206581116,0.0807635560631752,0.09046891331672668
1667824226425889300,4.43488916015625,-0.7898613214492798,0.06586024165153503,-0.00004500742215896025
1667824226435897300,4.4448974609375,-0.7798070907592773,0.0658506527543068,-0.1093888059258461
1667824226445905200,4.4549052734375,-0.7573872804641724,0.07662926614284515,-0.22855648398399353
1667824226455913200,4.464913330078125,-0.72901850938797,0.09045986086130142,-0.3528864085674286
1667824226465921300,4.47492138671875,-0.6990880370140076,0.10992410033941269,-0.4691517651081085
1667824226475929300,4.484929443359375,-0.6649695038795471,0.11108231544494629,-0.5625629425048828
1667824226485937400,4.4949375,-0.6233903169631958,0.10060969740152359,-0.6340911984443665
1667824226495945200,4.5049453125,-0.5852751731872559,0.09938624501228333,-0.6701157689094543
1667824226505953300,4.514953369140625,-0.5518919229507446,0.11340219527482986,-0.6581571102142334
1667824226515961000,4.524961181640625,-0.5072022080421448,0.15723834931850433,-0.6024909019470215
1667824226525969200,4.53496923828125,-0.45571744441986084,0.19366852939128876,-0.5107908248901367
1667824226535977200,4.544977294921875,-0.3895179331302643,0.2200615257024765,-0.40177565813064575
1667824226545985300,4.5549853515625,-0.3020178973674774,0.2527845799922943,-0.28955963253974915
1667824226555992000,4.564991943359375,-0.20004680752754211,0.26970231533050537,-0.1740197390317917
1667824226566000000,4.575000244140625,-0.09260929375886917,0.2656465768814087,-0.05198410525918007
1667824226576009000,4.585009033203125,0.0059931776486337185,0.24389921128749847,0.05048714205622673
1667824226586016800,4.595016845703125,0.09824880212545395,0.22072598338127136,0.14528848230838776
1667824226596025000,4.605025146484375,0.182274729013443,0.20435605943202972,0.21117189526557922
1667824226606033200,4.615033203125,0.2542719542980194,0.19118966162204742,0.2528490424156189
1667824226616041000,4.625041015625,0.31338587403297424,0.18551446497440338,0.29313865303993225
1667824226626049000,4.635049072265625,0.356584757566452,0.1829778105020523,0.32840609550476074
1667824226636056800,4.645056884765625,0.38347336649894714,0.1727970689535141,0.36258378624916077
1667824226646065000,4.65506494140625,0.4060037136077881,0.17893220484256744,0.39470523595809937
1667824226656073200,4.6650732421875,0.43744978308677673,0.19760388135910034,0.4251211881637573
1667824226666081000,4.6750810546875,0.4736213684082031,0.20444075763225555,0.45354005694389343
1667824226676089000,4.685089111328125,0.5043182969093323,0.195293590426445,0.45986345410346985
1667824226686097000,4.695096923828125,0.526452362537384,0.19505657255649567,0.43574029207229614
1667824226696105000,4.70510498046875,0.5507811307907104,0.20914043486118317,0.38366031646728516
1667824226706112000,4.715112060546875,0.568967878818512,0.2301892638206482,0.3149763345718384
1667824226716120000,4.7251201171875,0.5762715935707092,0.2339155524969101,0.2245582789182663
1667824226726128000,4.735128173828125,0.5741687417030334,0.22440087795257568,0.11716390401124954
1667824226736136000,4.745135986328125,0.5701255202293396,0.1926506757736206,0.0005611280212178826
1667824226746144000,4.75514404296875,0.5652668476104736,0.12962110340595245,-0.12250807136297226
1667824226756151800,4.76515185546875,0.5609552264213562,0.03798333555459976,-0.23166438937187195
1667824226766160100,4.77516015625,0.5613959431648254,-0.04881574213504791,-0.3079860508441925
1667824226776168200,4.785168212890625,0.5657227635383606,-0.11436892300844193,-0.34401702880859375
1667824226786176000,4.795176025390625,0.5589724779129028,-0.207620307803154,-0.3500725328922272
1667824226796184000,4.80518408203125,0.5485523343086243,-0.3242470622062683,-0.339816689491272
1667824226806191900,4.81519189453125,0.5317749381065369,-0.42180582880973816,-0.3353995680809021
1667824226816200000,4.825199951171875,0.5086765289306641,-0.49615755677223206,-0.3507484197616577
1667824226826208000,4.8352080078125,0.49175456166267395,-0.5014391541481018,-0.37093812227249146
1667824226836216000,4.845216064453125,0.48416268825531006,-0.42421627044677734,-0.38432955741882324
1667824226846222800,4.855222900390625,0.48276185989379883,-0.2731439173221588,-0.3685047924518585
1667824226856231000,4.86523095703125,0.5061041712760925,-0.08391034603118896,-0.30633676052093506
1667824226866239000,4.875239013671875,0.5567463636398315,0.10022806376218796,-0.2082543969154358
1667824226876247000,4.8852470703125,0.6346997022628784,0.2607460916042328,-0.09520774334669113
1667824226886255000,4.895255126953125,0.7416757345199585,0.3718220293521881,0.01727379485964775
1667824226896263000,4.905262939453125,0.8742572069168091,0.4099499583244324,0.1120772659778595
1667824226906271000,4.91527099609375,1.0074809789657593,0.3705969750881195,0.18187393248081207
1667824226916279000,4.925279052734375,1.130104899406433,0.26505324244499207,0.21297751367092133
1667824226926286800,4.935286865234375,1.2397464513778687,0.10392453521490097,0.2072083055973053
1667824226936295000,4.945294921875,1.3146151304244995,-0.08138780295848846,0.17283542454242706
1667824226946303000,4.955302978515625,1.3366714715957642,-0.258554071187973,0.11602620780467987
1667824226956311000,4.96531103515625,1.314639687538147,-0.4158720374107361,0.026690466329455376
1667824226966319000,4.975319091796875,1.2785612344741821,-0.5288524031639099,-0.0805521011352539
1667824226976326000,4.985325927734375,1.221186637878418,-0.5692616105079651,-0.19599081575870514
1667824226986334200,4.995334228515625,1.1517250537872314,-0.5316958427429199,-0.31329798698425293
1667824226996342000,5.005342041015625,1.0827670097351074,-0.45521172881126404,-0.42003270983695984
1667824227006350000,5.01535009765625,1.0286659002304077,-0.33832451701164246,-0.49668246507644653
1667824227016358000,5.02535791015625,0.9996358752250671,-0.2141714096069336,-0.5303784012794495
1667824227026366000,5.035365966796875,0.9877361059188843,-0.1050819456577301,-0.5277077555656433
1667824227036374000,5.0453740234375,0.9761449098587036,-0.008606803603470325,-0.47827789187431335
1667824227046381800,5.0553818359375,0.9545291066169739,0.04886208102107048,-0.39747706055641174
1667824227056390100,5.06539013671875,0.9135401248931885,0.08146556466817856,-0.2939232289791107
1667824227066398000,5.07539794921875,0.8447323441505432,0.08999327570199966,-0.1811990886926651
1667824227076406000,5.085406005859375,0.7589313983917236,0.07648731768131256,-0.07762155681848526
1667824227086414000,5.0954140625,0.6578945517539978,0.03237445279955864,0.012062521651387215
1667824227096422000,5.105421875,0.5514125823974609,-0.04369980841875076,0.08826727420091629
1667824227106430000,5.115429931640625,0.43163421750068665,-0.12015703320503235,0.16177397966384888
1667824227116437000,5.12543701171875,0.30360621213912964,-0.1796986609697342,0.22535748779773712
1667824227126445000,5.135445068359375,0.1858561486005783,-0.21029572188854218,0.2667720317840576
1667824227136452900,5.145452880859375,0.0852390006184578,-0.2210591435432434,0.28156882524490356
1667824227146461000,5.1554609375,0.019086075946688652,-0.21216551959514618,0.27083656191825867
1667824227156469000,5.165468994140625,-0.022458970546722412,-0.19362539052963257,0.23738059401512146
1667824227166477000,5.17547705078125,-0.04469849541783333,-0.17480243742465973,0.19441741704940796
1667824227176485000,5.185485107421875,-0.06734788417816162,-0.16499534249305725,0.1469114124774933
1667824227186493000,5.195492919921875,-0.09420985728502274,-0.14950719475746155,0.11187407374382019
1667824227196501000,5.2055009765625,-0.12447481602430344,-0.1024496778845787,0.08497507870197296
1667824227206508800,5.2155087890625,-0.13026666641235352,-0.028804482892155647,0.0618031807243824
1667824227216516900,5.225516845703125,-0.11944810301065445,0.052867207676172256,0.04230538010597229
1667824227226525200,5.235525146484375,-0.0948072001338005,0.13620524108409882,0.03130146488547325
1667824227236533000,5.245532958984375,-0.053949251770973206,0.2159554660320282,0.0370112806558609
1667824227246541000,5.255541015625,0.0019619506783783436,0.28738516569137573,0.06012485548853874
1667824227256547800,5.2655478515625,0.061832740902900696,0.3376914858818054,0.09664212167263031
1667824227266556000,5.275555908203125,0.12413845956325531,0.3623155951499939,0.14352254569530487
1667824227276564000,5.28556396484375,0.18744738399982452,0.36235955357551575,0.19437773525714874
1667824227286572000,5.295572021484375,0.2361060082912445,0.34485697746276855,0.2454417198896408
1667824227296580000,5.305580078125,0.27232393622398376,0.3130924105644226,0.28981319069862366
1667824227306588000,5.315587890625,0.29428088665008545,0.27981939911842346,0.3249325454235077
1667824227316596000,5.325595947265625,0.30704623460769653,0.23802508413791656,0.3463962972164154
1667824227326603800,5.335603759765625,0.3113411068916321,0.17068305611610413,0.3515108823776245
1667824227336612000,5.345612060546875,0.3116796016693115,0.08632370084524155,0.3502197861671448
1667824227346620200,5.3556201171875,0.3223061263561249,-0.006062420085072517,0.34997639060020447
1667824227356628000,5.3656279296875,0.3427533507347107,-0.06952661275863647,0.3698084056377411
1667824227366636000,5.375635986328125,0.3670741319656372,-0.12358558923006058,0.4105678200721741
1667824227376643800,5.385643798828125,0.38203418254852295,-0.1694987565279007,0.4537259340286255
1667824227386652000,5.39565185546875,0.3914303481578827,-0.1871003806591034,0.4889260232448578
1667824227396659000,5.405658935546875,0.39034777879714966,-0.15907379984855652,0.5119895339012146
1667824227406667000,5.4156669921875,0.37676990032196045,-0.1172962635755539,0.5223329663276672
1667824227416675000,5.425675048828125,0.33071720600128174,-0.09103216975927353,0.49985694885253906
1667824227426683000,5.435682861328125,0.25701582431793213,-0.06210438534617424,0.44195476174354553
1667824227436691000,5.44569091796875,0.16078808903694153,-0.021620873361825943,0.356510192155838
1667824227446699000,5.455698974609375,0.05186053365468979,0.04603194072842598,0.24441321194171906
1667824227456707000,5.46570703125,-0.056892044842243195,0.1389927715063095,0.1399722844362259
1667824227466715100,5.475715087890625,-0.149508535861969,0.2546493411064148,0.06953540444374084
1667824227476723000,5.485722900390625,-0.21306966245174408,0.3946703374385834,0.045884400606155396
1667824227486731000,5.49573095703125,-0.2443745881319046,0.5218059420585632,0.07469101250171661
1667824227496738800,5.50573876953125,-0.24532561004161835,0.6210339665412903,0.13549365103244781
1667824227506747000,5.515746826171875,-0.22519822418689728,0.6598995923995972,0.20110860466957092
1667824227516755200,5.525755126953125,-0.19858074188232422,0.6548390984535217,0.25872689485549927
1667824227526763000,5.535762939453125,-0.18920613825321198,0.6142900586128235,0.3006296157836914
1667824227536770000,5.54577001953125,-0.20800618827342987,0.577272891998291,0.3399463891983032
1667824227546777900,5.55577783203125,-0.24693921208381653,0.5450806021690369,0.36343705654144287
1667824227556786200,5.5657861328125,-0.2925029695034027,0.5111932158470154,0.36089667677879333
1667824227566794000,5.5757939453125,-0.33518996834754944,0.46880635619163513,0.33700624108314514
1667824227576805400,5.585805419921875,-0.3590359091758728,0.41659241914749146,0.2864168584346771
1667824227586813200,5.595813232421875,-0.3677937388420105,0.3402755558490753,0.20632654428482056
1667824227596821200,5.6058212890625,-0.35477086901664734,0.2326391041278839,0.09369053691625595
1667824227606829000,5.6158291015625,-0.3299661874771118,0.11466772854328156,-0.047077763825654984
1667824227616837400,5.62583740234375,-0.30503660440444946,0.003132410114631057,-0.20677927136421204
1667824227626845200,5.63584521484375,-0.28202396631240845,-0.10671819001436234,-0.3686445951461792
1667824227636853200,5.645853271484375,-0.2955181896686554,-0.20328547060489655,-0.5056346654891968
1667824227646861300,5.655861328125,-0.34218236804008484,-0.2730182111263275,-0.6198217272758484
1667824227656869000,5.665869140625,-0.41968753933906555,-0.30420568585395813,-0.6831935048103333
1667824227666876400,5.67587646484375,-0.5080595016479492,-0.2821885347366333,-0.6978821754455566
1667824227676884200,5.68588427734375,-0.5806785821914673,-0.204070582985878,-0.6571608185768127
1667824227686892300,5.695892333984375,-0.6195785403251648,-0.09170914441347122,-0.5708792209625244
1667824227696900000,5.705900146484375,-0.6138581037521362,0.026738669723272324,-0.44728535413742065
1667824227706908200,5.715908203125,-0.578239917755127,0.12469559162855148,-0.3071679472923279
1667824227716916200,5.725916259765625,-0.5331523418426514,0.180947408080101,-0.17117840051651
1667824227726924300,5.73592431640625,-0.4644632935523987,0.17360268533229828,-0.06504771113395691
1667824227736932400,5.745932373046875,-0.387297123670578,0.0954066812992096,0.005452289711683989
1667824227746940200,5.755940185546875,-0.31820353865623474,-0.0285877026617527,0.039859265089035034
1667824227756948200,5.7659482421875,-0.27408507466316223,-0.16838528215885162,0.05534714460372925
1667824227766956300,5.775956298828125,-0.26453232765197754,-0.3097892701625824,0.0544523224234581
1667824227776964000,5.785964111328125,-0.28233635425567627,-0.4540279507637024,0.03634762018918991
1667824227786972200,5.79597216796875,-0.3155052363872528,-0.5885441899299622,-0.007128483150154352
1667824227796980200,5.805980224609375,-0.36184316873550415,-0.6987870931625366,-0.05914854258298874
1667824227806987300,5.8159873046875,-0.4353756904602051,-0.7643890380859375,-0.13103550672531128
1667824227816995000,5.8259951171875,-0.5332897305488586,-0.7909426093101501,-0.2254834622144699
1667824227827003100,5.836003173828125,-0.6454948782920837,-0.8123568296432495,-0.36590155959129333
1667824227837011500,5.846011474609375,-0.7564607858657837,-0.812023937702179,-0.5437293648719788
1667824227847019300,5.856019287109375,-0.8441594839096069,-0.7641594409942627,-0.7234998941421509
1667824227857027300,5.86602734375,-0.9127494692802429,-0.6514384746551514,-0.8580797910690308
1667824227867035100,5.87603515625,-0.9580487608909607,-0.4861198365688324,-0.9295963644981384
1667824227877043200,5.886043212890625,-0.984696626663208,-0.2865270972251892,-0.9398284554481506
1667824227887051300,5.89605126953125,-0.9834917783737183,-0.042205777019262314,-0.8811997771263123
1667824227897059300,5.906059326171875,-0.9613103270530701,0.17316006124019623,-0.7710698246955872
1667824227907067400,5.9160673828125,-0.9308240413665771,0.33393189311027527,-0.6350480914115906
1667824227917075200,5.9260751953125,-0.8827992677688599,0.4187314808368683,-0.505696177482605
1667824227927083300,5.936083251953125,-0.8208038210868835,0.44870856404304504,-0.3858499526977539
1667824227937090000,5.946090087890625,-0.7574672102928162,0.4402492940425873,-0.2957983613014221
1667824227947098400,5.956098388671875,-0.6962562799453735,0.4069797396659851,-0.2280600666999817
1667824227957106400,5.9661064453125,-0.6341663002967834,0.3513162136077881,-0.1817660629749298
1667824227967114200,5.9761142578125,-0.5690751671791077,0.27690589427948,-0.15288488566875458
1667824227977122300,5.986122314453125,-0.5103804469108582,0.1720937341451645,-0.14522190392017365
1667824227987130000,5.996130126953125,-0.4455513656139374,0.04417518526315689,-0.14956818521022797
1667824227997138200,6.00613818359375,-0.384493350982666,-0.09426551312208176,-0.16145068407058716
1667824228007146200,6.016146240234375,-0.3269815742969513,-0.2378956526517868,-0.1804073303937912
1667824228017154300,6.026154296875,-0.2669065296649933,-0.37691959738731384,-0.2106374055147171
1667824228027162400,6.036162353515625,-0.20253393054008484,-0.5245905518531799,-0.2542320191860199
1667824228037170200,6.046170166015625,-0.13966308534145355,-0.6565940976142883,-0.3019587993621826
1667824228047178200,6.05617822265625,-0.08147834986448288,-0.772121787071228,-0.35508993268013
1667824228057186000,6.06618603515625,-0.02207307703793049,-0.8640498518943787,-0.397759348154068
1667824228067194000,6.076194091796875,0.025606825947761536,-0.9152302145957947,-0.4320225119590759
1667824228077201200,6.086201171875,0.062008775770664215,-0.929713249206543,-0.4492965638637543
1667824228087209200,6.096209228515625,0.07551446557044983,-0.9158701300621033,-0.45558589696884155
1667824228097217300,6.10621728515625,0.08053478598594666,-0.8913091421127319,-0.4585646390914917
1667824228107225000,6.11622509765625,0.07216474413871765,-0.8702139854431152,-0.46593546867370605
1667824228117233200,6.126233154296875,0.05940580368041992,-0.8339201807975769,-0.4718562066555023
1667824228127241200,6.1362412109375,0.04127047583460808,-0.7485445141792297,-0.4520263075828552
1667824228137249300,6.146249267578125,0.008715461008250713,-0.6043503284454346,-0.39650392532348633
1667824228147257300,6.15625732421875,-0.040713608264923096,-0.4100533127784729,-0.29848283529281616
1667824228157265200,6.16626513671875,-0.0972069799900055,-0.20923258364200592,-0.15460528433322906
1667824228167273200,6.176273193359375,-0.1468602865934372,-0.0065500447526574135,0.0006175870657898486
1667824228177281000,6.186281005859375,-0.19312524795532227,0.16597725450992584,0.15242601931095123
1667824228187289300,6.196289306640625,-0.21960052847862244,0.28607890009880066,0.2713313698768616
1667824228197297400,6.20629736328125,-0.23902162909507751,0.37669429183006287,0.3522222340106964
1667824228207304200,6.21630419921875,-0.25338512659072876,0.4660015106201172,0.401833176612854
1667824228217312300,6.226312255859375,-0.26853159070014954,0.5631304979324341,0.4444725215435028
1667824228227320300,6.2363203125,-0.2922497093677521,0.6685383915901184,0.4781055748462677
1667824228237328400,6.246328369140625,-0.30701425671577454,0.7655139565467834,0.5115032196044922
1667824228247336200,6.256336181640625,-0.3165489137172699,0.8384951949119568,0.536465048789978
1667824228257344300,6.26634423828125,-0.3182472288608551,0.893177330493927,0.5486921668052673
1667824228267352300,6.276352294921875,-0.30325281620025635,0.9176172018051147,0.5536357760429382
1667824228277360000,6.286360107421875,-0.2862730324268341,0.9046958088874817,0.5412219762802124
1667824228287368200,6.2963681640625,-0.2665256857872009,0.8699687123298645,0.5188538432121277
1667824228297376300,6.306376220703125,-0.2465202957391739,0.8193089962005615,0.4809362590312958
1667824228307384300,6.31638427734375,-0.2217518389225006,0.742169201374054,0.43832993507385254
1667824228317392400,6.326392333984375,-0.20171713829040527,0.6350440979003906,0.3934796452522278
1667824228327400200,6.336400146484375,-0.1850753128528595,0.5340782999992371,0.3631289303302765
1667824228337408300,6.346408203125,-0.1703064888715744,0.4401763081550598,0.33910617232322693
1667824228347415300,6.356415283203125,-0.15982535481452942,0.3495204448699951,0.31418856978416443
1667824228357423400,6.36642333984375,-0.15019722282886505,0.27900049090385437,0.27875491976737976
1667824228367431200,6.37643115234375,-0.14007987082004547,0.20997506380081177,0.21743617951869965
1667824228377439200,6.386439208984375,-0.11672182381153107,0.13338921964168549,0.13018064200878143
1667824228387447300,6.396447265625,-0.08910244703292847,0.06610125303268433,0.026341859251260757
1667824228397455000,6.406455078125,-0.0453198105096817,-0.010743990540504456,-0.07608252018690109
1667824228407463400,6.41646337890625,-0.00857591163367033,-0.09579736739397049,-0.16196706891059875
1667824228417471200,6.42647119140625,0.018673019483685493,-0.2021200805902481,-0.22864383459091187
1667824228427479300,6.436479248046875,0.04388223588466644,-0.3038051724433899,-0.2640460431575775
1667824228437487000,6.446487060546875,0.06849570572376251,-0.358493447303772,-0.24412265419960022
1667824228447495200,6.4564951171875,0.08468639105558395,-0.3370664417743683,-0.1551419198513031
1667824228457503200,6.466503173828125,0.09388681501150131,-0.24402384459972382,-0.00971361342817545
1667824228467510300,6.47651025390625,0.09833402931690216,-0.09880087524652481,0.18643033504486084
1667824228477518300,6.486518310546875,0.10706866532564163,0.05947025120258331,0.39939212799072266
1667824228487526100,6.496526123046875,0.12022760510444641,0.18921174108982086,0.5975015163421631
1667824228497534200,6.5065341796875,0.1374172419309616,0.2543811500072479,0.7410160303115845
1667824228507542000,6.5165419921875,0.15564845502376556,0.275485098361969,0.8198365569114685
1667824228517550300,6.52655029296875,0.1719651073217392,0.2669089138507843,0.839600145816803
1667824228527558400,6.536558349609375,0.18968898057937622,0.23670442402362823,0.807242751121521
1667824228537566200,6.546566162109375,0.20165269076824188,0.1892426311969757,0.7296789884567261
1667824228547574300,6.55657421875,0.1977517008781433,0.1348438411951065,0.6160275340080261
1667824228557582000,6.56658203125,0.18315596878528595,0.076828733086586,0.4803048372268677
1667824228567590100,6.576590087890625,0.1563595086336136,0.006323942448943853,0.3218778967857361
1667824228577595000,6.586594970703125,0.11962706595659256,-0.04404868558049202,0.1479913294315338
1667824228587603200,6.596603271484375,0.08463605493307114,-0.08312790840864182,-0.019770774990320206
1667824228597610000,6.60660986328125,0.048101749271154404,-0.11960549652576447,-0.1824912428855896
1667824228607618000,6.6166181640625,0.017707357183098793,-0.13416898250579834,-0.3399021625518799
1667824228617625900,6.6266259765625,0.02130209282040596,-0.11786005645990372,-0.455587238073349
1667824228627634200,6.63663427734375,0.05932430922985077,-0.10086323320865631,-0.5275564789772034
1667824228637642200,6.646642333984375,0.117914117872715,-0.09799154102802277,-0.5709788203239441
1667824228647650000,6.656650146484375,0.17834949493408203,-0.09510014951229095,-0.5900483727455139
1667824228657658000,6.666658203125,0.24120382964611053,-0.11539876461029053,-0.5731601715087891
1667824228667666000,6.676666015625,0.29795151948928833,-0.14402374625205994,-0.5499635338783264
1667824228677674000,6.686674072265625,0.3505588173866272,-0.17136216163635254,-0.5153341889381409
1667824228687681800,6.696681884765625,0.39517128467559814,-0.20085135102272034,-0.488309770822525
1667824228697690000,6.706690185546875,0.4426937997341156,-0.22590956091880798,-0.46076229214668274
1667824228707698200,6.7166982421875,0.4938776195049286,-0.23969115316867828,-0.4414770007133484
1667824228717706000,6.7267060546875,0.5443730354309082,-0.2448779195547104,-0.42931434512138367
1667824228727714000,6.736714111328125,0.5798261165618896,-0.23853081464767456,-0.42021751403808594
1667824228737721000,6.74672119140625,0.6085866093635559,-0.23678217828273773,-0.4224998652935028
1667824228747729200,6.756729248046875,0.6392116546630859,-0.226692795753479,-0.45122337341308594
1667824228757737000,6.766737060546875,0.6808560490608215,-0.21683430671691895,-0.5315192937850952
1667824228767745000,6.7767451171875,0.7428981065750122,-0.19954906404018402,-0.6763103008270264
1667824228777753000,6.786753173828125,0.8300138115882874,-0.16368001699447632,-0.9202395677566528
1667824228787761000,6.796760986328125,0.9395208954811096,-0.13189437985420227,-1.2703217267990112
1667824228797769000,6.80676904296875,1.0461047887802124,-0.06699021905660629,-1.7016425132751465
1667824228807777000,6.816777099609375,1.1077269315719604,0.07173650711774826,-2.163879632949829
1667824228817785000,6.82678515625,1.1090281009674072,0.27205654978752136,-2.6218011379241943
1667824228827793200,6.836793212890625,1.0575681924819946,0.47904834151268005,-3.0384576320648193
1667824228837801000,6.846801025390625,0.9988158941268921,0.6884697675704956,-3.3733015060424805
1667824228847809000,6.85680908203125,0.950559675693512,0.8852083683013916,-3.585693597793579
1667824228857816800,6.86681689453125,0.8956553936004639,1.0206900835037231,-3.664067029953003
1667824228867824000,6.87682421875,0.8326039910316467,1.0635645389556885,-3.6331613063812256
1667824228877832000,6.88683203125,0.7770406007766724,1.0168061256408691,-3.475074291229248
1667824228887840000,6.896840087890625,0.7354814410209656,0.8953307867050171,-3.2311108112335205
1667824228897848000,6.90684814453125,0.7153043150901794,0.7115029096603394,-2.9160964488983154
1667824228907856000,6.91685595703125,0.704214334487915,0.4583337604999542,-2.5653879642486572
1667824228917864200,6.9268642578125,0.689863920211792,0.14234569668769836,-2.2053098678588867
1667824228927872000,6.9368720703125,0.6635447144508362,-0.23084573447704315,-1.8634041547775269
1667824228937880000,6.946880126953125,0.6383466720581055,-0.6527242660522461,-1.5441734790802002
1667824228947888000,6.95688818359375,0.6096529364585876,-1.116348147392273,-1.2487173080444336
1667824228957896000,6.96689599609375,0.5609086155891418,-1.6086411476135254,-0.9813418388366699
1667824228967904000,6.976904052734375,0.47746962308883667,-2.0634355545043945,-0.7547022700309753
1667824228977912000,6.986912109375,0.3623153269290924,-2.378629207611084,-0.590643048286438
1667824228987920100,6.996920166015625,0.251909464597702,-2.558839797973633,-0.5036429166793823
1667824228997927000,7.006927001953125,0.15531422197818756,-2.6420652866363525,-0.5049076676368713
1667824229007935000,7.01693505859375,0.08069111406803131,-2.616518020629883,-0.5673768520355225
1667824229017943000,7.026943115234375,0.030052440240979195,-2.4621381759643555,-0.6594253182411194
1667824229027951000,7.036951171875,-0.01685461401939392,-2.181603193283081,-0.7591066360473633
1667824229037959200,7.046959228515625,-0.061230067163705826,-1.8013259172439575,-0.8433901071548462
1667824229047967000,7.056967041015625,-0.08927794545888901,-1.351349949836731,-0.9067381620407104
1667824229057975000,7.06697509765625,-0.08882015198469162,-0.8783488869667053,-0.9322006702423096
1667824229067982800,7.07698291015625,-0.04494909942150116,-0.45720162987709045,-0.925670862197876
1667824229077991000,7.086990966796875,0.03189641237258911,-0.15959659218788147,-0.87471604347229
1667824229087999200,7.096999267578125,0.15225452184677124,0.024233167991042137,-0.7631754279136658
1667824229098007000,7.107007080078125,0.29396530985832214,0.11140402406454086,-0.5820085406303406
1667824229108015000,7.11701513671875,0.4270738363265991,0.12761016190052032,-0.3363623023033142
1667824229118023000,7.12702294921875,0.5427202582359314,0.08945771306753159,-0.04737523943185806
1667824229128030000,7.137030029296875,0.6369010806083679,0.021914886310696602,0.2733609676361084
1667824229138038000,7.1470380859375,0.725202739238739,-0.0508250966668129,0.5831955075263977
1667824229148046000,7.157046142578125,0.7896885275840759,-0.12624715268611908,0.8681638836860657
1667824229158054100,7.16705419921875,0.8259665966033936,-0.17892953753471375,1.097659707069397
1667824229168062000,7.17706201171875,0.8370437622070312,-0.20503677427768707,1.2537635564804077
1667824229178070000,7.187070068359375,0.8392014503479004,-0.21640607714653015,1.33810555934906
1667824229188077800,7.197077880859375,0.8357419967651367,-0.2224879264831543,1.3478034734725952
1667824229198086100,7.207086181640625,0.8158466219902039,-0.20566847920417786,1.3047153949737549
1667824229208094200,7.21709423828125,0.765777051448822,-0.1819825917482376,1.2115005254745483
1667824229218102000,7.22710205078125,0.6822704672813416,-0.13568539917469025,1.0649267435073853
1667824229228110000,7.237110107421875,0.5591205358505249,-0.08066289126873016,0.8701418042182922
1667824229238118000,7.247117919921875,0.4069017171859741,-0.006570551078766584,0.6348547339439392
1667824229248126000,7.2571259765625,0.2229670286178589,0.07619277387857437,0.3557029664516449
1667824229258133000,7.267133056640625,0.021318072453141212,0.16551946103572845,0.055209990590810776
1667824229268141000,7.27714111328125,-0.18192532658576965,0.24495089054107666,-0.25427863001823425
1667824229278149000,7.287149169921875,-0.3544933795928955,0.3132902681827545,-0.532214343547821
1667824229288157000,7.297156982421875,-0.49227094650268555,0.3783044219017029,-0.7540615200996399
1667824229298165000,7.3071650390625,-0.5924761295318604,0.46660205721855164,-0.9028656482696533
1667824229308173000,7.317173095703125,-0.643399715423584,0.5541505813598633,-0.9682177901268005
1667824229318181000,7.32718115234375,-0.6419637799263,0.6431139707565308,-0.9566114544868469
1667824229328189200,7.337189208984375,-0.5909706354141235,0.7256882190704346,-0.8922449946403503
1667824229338197000,7.347197021484375,-0.5106446146965027,0.785359799861908,-0.7863481044769287
1667824229348205000,7.357205078125,-0.4158845543861389,0.824578046798706,-0.6450918912887573
1667824229358212900,7.367212890625,-0.3165459930896759,0.8476138710975647,-0.47908297181129456
1667824229368221000,7.377220947265625,-0.22014647722244263,0.8532075881958008,-0.2999579608440399
1667824229378229200,7.387229248046875,-0.1362699568271637,0.8473083972930908,-0.11492232233285904
1667824229388237000,7.397237060546875,-0.06519178301095963,0.8320013284683228,0.062002383172512054
1667824229398244000,7.407244140625,-0.007203051820397377,0.7998329997062683,0.22439421713352203
1667824229408252000,7.417251953125,0.03251613304018974,0.7546141743659973,0.35493677854537964
1667824229418260200,7.42726025390625,0.07494881004095078,0.7046857476234436,0.4575353264808655
1667824229428268000,7.43726806640625,0.12520132958889008,0.672988772392273,0.5342154502868652
1667824229438276000,7.447276123046875,0.1836734265089035,0.6539932489395142,0.5973401069641113
1667824229448284200,7.4572841796875,0.23534753918647766,0.6410958170890808,0.6473087072372437
1667824229458292000,7.4672919921875,0.26037487387657166,0.6259579062461853,0.6932940483093262
1667824229468300000,7.477300048828125,0.27590614557266235,0.6266633868217468,0.7284044027328491
1667824229478307800,7.487307861328125,0.2799762487411499,0.6546065807342529,0.7576234936714172
1667824229488316200,7.497316162109375,0.2752097249031067,0.6834054589271545,0.7795879244804382
1667824229498324000,7.507323974609375,0.2509411573410034,0.6972975730895996,0.781681478023529
1667824229508332000,7.51733203125,0.20686449110507965,0.6864446997642517,0.7867534160614014
1667824229518340000,7.527340087890625,0.13072605431079865,0.652127742767334,0.7979301810264587
1667824229528347100,7.53734716796875,0.02082485519349575,0.5904257297515869,0.8308780193328857
1667824229538355200,7.547355224609375,-0.1342446208000183,0.4958187937736511,0.8541290163993835
1667824229548363000,7.557363037109375,-0.31440800428390503,0.3691335618495941,0.8439826369285583
1667824229558371000,7.56737109375,-0.5112521052360535,0.21074631810188293,0.7627884745597839
1667824229568379000,7.57737890625,-0.7155503630638123,0.03741474822163582,0.5952774882316589
1667824229578386400,7.587386474609375,-0.9222934246063232,-0.131987065076828,0.33934876322746277
1667824229588394200,7.597394287109375,-1.1331108808517456,-0.27344778180122375,-0.0021521004382520914
1667824229598402300,7.60740234375,-1.3442782163619995,-0.33480942249298096,-0.4150930643081665
1667824229608410400,7.617410400390625,-1.5075517892837524,-0.29594218730926514,-0.8392329216003418
1667824229618418200,7.627418212890625,-1.6046591997146606,-0.18004566431045532,-1.2139066457748413
1667824229628426200,7.63742626953125,-1.657590627670288,-0.035952676087617874,-1.4839972257614136
1667824229638434000,7.64743408203125,-1.693085789680481,0.1144498810172081,-1.6168469190597534
1667824229648442400,7.6574423828125,-1.696589708328247,0.2614843249320984,-1.6002881526947021
1667824229658449200,7.66744921875,-1.6499030590057373,0.3785316050052643,-1.4761006832122803
1667824229668457200,7.677457275390625,-1.560857892036438,0.455177903175354,-1.272749423980713
1667824229678465300,7.68746533203125,-1.4405767917633057,0.45619815587997437,-1.0275084972381592
1667824229688473300,7.697473388671875,-1.3037738800048828,0.4106442630290985,-0.7612755298614502
1667824229698481400,7.7074814453125,-1.1564055681228638,0.3033604025840759,-0.5033462047576904
1667824229708489200,7.7174892578125,-1.0022567510604858,0.15642449259757996,-0.2858908772468567
1667824229718497300,7.727497314453125,-0.8374941349029541,-0.01570572517812252,-0.11029507964849472
1667824229728505300,7.73750537109375,-0.6783694624900818,-0.20156294107437134,-0.007837150245904922
1667824229738513200,7.74751318359375,-0.5268718004226685,-0.3827734887599945,0.019226158037781715
1667824229748521200,7.757521240234375,-0.3730417490005493,-0.5279914140701294,-0.021142570301890373
1667824229758529300,7.767529296875,-0.22881506383419037,-0.6371418237686157,-0.11729120463132858
1667824229768537300,7.777537353515625,-0.09390545636415482,-0.7166411876678467,-0.25699663162231445
1667824229778544000,7.787544189453125,0.025188177824020386,-0.7655243277549744,-0.40736138820648193
1667824229788552200,7.79755224609375,0.11898098140954971,-0.8010317087173462,-0.5504176020622253
1667824229798560300,7.807560302734375,0.17537821829319,-0.8211334943771362,-0.6773752570152283
1667824229808568300,7.817568359375,0.19420570135116577,-0.8273013830184937,-0.7764808535575867
1667824229818576400,7.827576416015625,0.17794522643089294,-0.8028618097305298,-0.8621124029159546
1667824229828584200,7.837584228515625,0.15112534165382385,-0.7580040693283081,-0.9533887505531311
1667824229838592300,7.84759228515625,0.1282634288072586,-0.7111274003982544,-1.0553566217422485
1667824229848600300,7.857600341796875,0.11279472708702087,-0.6758008003234863,-1.1571626663208008
1667824229858608000,7.867608154296875,0.10914406180381775,-0.6397562623023987,-1.2353216409683228
1667824229868616400,7.877616455078125,0.0914529487490654,-0.6073203086853027,-1.2905158996582031
1667824229878624300,7.887624267578125,0.05306055396795273,-0.5685071349143982,-1.30217707157135
1667824229888632300,7.89763232421875,-0.008036088198423386,-0.5248488783836365,-1.2803841829299927
1667824229898640400,7.907640380859375,-0.0887242779135704,-0.46349602937698364,-1.2244455814361572
1667824229908647400,7.9176474609375,-0.19529706239700317,-0.3576420247554779,-1.1253184080123901
1667824229918655500,7.927655517578125,-0.3177758455276489,-0.21304409205913544,-0.9667013883590698
1667824229928663300,7.937663330078125,-0.44558626413345337,-0.04177221283316612,-0.7506412267684937
1667824229938671400,7.94767138671875,-0.5660977363586426,0.1489170491695404,-0.4698737561702728
1667824229948679200,7.95767919921875,-0.6557371020317078,0.32776108384132385,-0.15129710733890533
1667824229958687200,7.967687255859375,-0.7607066631317139,0.5029169321060181,0.19912242889404297
1667824229968695000,7.977695068359375,-0.8669170141220093,0.6135696768760681,0.532668948173523
1667824229978703400,7.987703369140625,-0.9413885474205017,0.6639636158943176,0.8014796376228333
1667824229988711400,7.99771142578125,-0.958851158618927,0.6677141189575195,0.9927297830581665
1667824229998719200,8.00771923828125,-0.9521575570106506,0.6374984383583069,1.1210798025131226
1667824230008727300,8.017727294921874,-0.9499093294143677,0.5863844156265259,1.1862115859985352
1667824230018735000,8.027735107421876,-0.9657196998596191,0.538107693195343,1.2091941833496094
1667824230028743200,8.0377431640625,-0.9891749620437622,0.5047630071640015,1.1844481229782104
1667824230038750200,8.047750244140625,-1.0050972700119019,0.483052134513855,1.1206903457641602
1667824230048758300,8.05775830078125,-1.0143373012542725,0.4692540466785431,1.0117303133010864
1667824230058766300,8.067766357421876,-1.0227174758911133,0.4582834243774414,0.8598905205726624
1667824230068774100,8.077774169921875,-1.028334379196167,0.4599398970603943,0.6644864082336426
1667824230078782200,8.0877822265625,-1.026077389717102,0.4735369384288788,0.4424213469028473
1667824230088790300,8.097790283203125,-1.0188210010528564,0.49231433868408203,0.20496833324432373
1667824230098798300,8.10779833984375,-1.0137146711349487,0.517562210559845,-0.0334133505821228
1667824230108806400,8.117806396484376,-1.0095205307006836,0.5384533405303955,-0.26202601194381714
1667824230118814200,8.127814208984375,-0.9984598159790039,0.5444992780685425,-0.46955257654190063
1667824230128822300,8.137822265625,-0.9822198748588562,0.5294084548950195,-0.647137463092804
1667824230138830000,8.147830078125,-0.9574136137962341,0.5019094347953796,-0.8206318020820618
1667824230148838400,8.15783837890625,-0.9350001811981201,0.4711643159389496,-0.9596080183982849
1667824230158845200,8.16784521484375,-0.9062087535858154,0.4217725396156311,-1.0798593759536743
1667824230168853200,8.177853271484375,-0.8611096739768982,0.3622346520423889,-1.1724159717559814
1667824230178861300,8.187861328125,-0.8050727844238281,0.2958116829395294,-1.218027114868164
1667824230188869000,8.197869140625,-0.733491837978363,0.209040567278862,-1.2086544036865234
1667824230198877400,8.20787744140625,-0.6571107506752014,0.11826512217521667,-1.1531099081039429
1667824230208885200,8.21788525390625,-0.5682373642921448,0.03983582928776741,-1.047230839729309
1667824230218893300,8.227893310546875,-0.4671458899974823,-0.03068440966308117,-0.8972945809364319
1667824230228901400,8.2379013671875,-0.3625398576259613,-0.09226840734481812,-0.7313706278800964
1667824230238909200,8.2479091796875,-0.25501444935798645,-0.1570703089237213,-0.5593886971473694
1667824230248917200,8.257917236328124,-0.15123185515403748,-0.2237665206193924,-0.39517608284950256
1667824230258925300,8.26792529296875,-0.05793067812919617,-0.30446696281433105,-0.25430551171302795
1667824230268933400,8.277933349609375,0.04357543960213661,-0.3737163245677948,-0.1721605807542801
1667824230278941400,8.28794140625,0.1551552265882492,-0.4273340106010437,-0.15432140231132507
1667824230288949200,8.29794921875,0.26588839292526245,-0.4828108549118042,-0.21972410380840302
1667824230298956300,8.307956298828126,0.3684738874435425,-0.5408941507339478,-0.3408558666706085
1667824230308964400,8.31796435546875,0.44465893507003784,-0.5720744132995605,-0.4885694086551666
1667824230318972400,8.327972412109375,0.511508047580719,-0.5590121746063232,-0.624258279800415
1667824230328980200,8.337980224609375,0.5581732392311096,-0.502246618270874,-0.7369611263275146
1667824230338988300,8.34798828125,0.5766116380691528,-0.38792216777801514,-0.7883031368255615
1667824230348996000,8.35799609375,0.5552408695220947,-0.25133663415908813,-0.7468110918998718
1667824230359004200,8.368004150390625,0.5044146776199341,-0.1287052482366562,-0.6256809234619141
1667824230369012500,8.378012451171875,0.441505491733551,-0.05052495747804642,-0.4267001748085022
1667824230379020300,8.388020263671875,0.3839796185493469,-0.02918718010187149,-0.14990773797035217
1667824230389028400,8.3980283203125,0.35302650928497314,-0.06296271830797195,0.18934568762779236
1667824230399036200,8.4080361328125,0.3345777094364166,-0.1334856152534485,0.55738765001297
1667824230409044200,8.418044189453125,0.3290620446205139,-0.2118629813194275,0.928440511226654
1667824230419051300,8.42805126953125,0.3466322422027588,-0.29282495379447937,1.2613036632537842
1667824230429059300,8.438059326171874,0.40562525391578674,-0.3776615262031555,1.53789484500885
1667824230439067400,8.4480673828125,0.496158629655838,-0.4555635154247284,1.7432421445846558
1667824230449075200,8.4580751953125,0.6015942096710205,-0.5362128615379333,1.8756717443466187
1667824230459083300,8.468083251953125,0.7080788612365723,-0.6214613914489746,1.9250601530075073
1667824230469091000,8.478091064453125,0.8204155564308167,-0.6879041194915771,1.8866996765136719
1667824230479099400,8.488099365234374,0.9295252561569214,-0.7349117994308472,1.7444088459014893
1667824230489107500,8.498107421875,1.0236616134643555,-0.7851896286010742,1.5004949569702148
1667824230499115300,8.508115234375,1.0790233612060547,-0.8321413993835449,1.171810269355774
1667824230509123300,8.518123291015625,1.0807936191558838,-0.8913658857345581,0.7739372253417969
1667824230519131100,8.528131103515625,1.0120975971221924,-0.9212827682495117,0.31917718052864075
1667824230529139200,8.53813916015625,0.8725077509880066,-0.8676844835281372,-0.15805993974208832
1667824230539147300,8.548147216796876,0.6924421191215515,-0.6885179281234741,-0.6110622882843018
1667824230549155300,8.5581552734375,0.49597272276878357,-0.43505293130874634,-0.9821716547012329
1667824230559162400,8.568162353515625,0.29945942759513855,-0.1619902402162552,-1.2086985111236572
1667824230569170200,8.578170166015624,0.10868946462869644,0.07890200614929199,-1.2378593683242798
1667824230579178800,8.5881787109375,-0.05901192128658295,0.26285025477409363,-1.0795048475265503
1667824230589186600,8.5981865234375,-0.1565006673336029,0.40675097703933716,-0.7555888891220093
1667824230599195000,8.60819482421875,-0.18016816675662994,0.46078625321388245,-0.3204323351383209
1667824230609202700,8.61820263671875,-0.13817144930362701,0.4053453505039215,0.16448375582695007
1667824230619210800,8.628210693359375,-0.03870318830013275,0.2528016269207001,0.6475284099578857
1667824230629218800,8.63821875,0.09505194425582886,0.02708301693201065,1.0831432342529297
1667824230639226600,8.6482265625,0.2518085241317749,-0.2403380423784256,1.439653992652893
1667824230649234700,8.658234619140625,0.39053019881248474,-0.4683554768562317,1.7031890153884888
1667824230659242800,8.66824267578125,0.5011608600616455,-0.5983598232269287,1.8578389883041382
1667824230669250800,8.678250732421875,0.58078932762146,-0.6269627213478088,1.9007701873779297
1667824230679257600,8.688257568359376,0.6425025463104248,-0.5721710920333862,1.8427155017852783
1667824230689265700,8.698265625,0.6762256026268005,-0.471388578414917,1.6990325450897217
1667824230699273700,8.708273681640625,0.6913209557533264,-0.3416635990142822,1.4887735843658447
1667824230709281800,8.71828173828125,0.6902160048484802,-0.18159402906894684,1.2407246828079224
1667824230719289900,8.728289794921874,0.6760594248771667,-0.02888038381934166,0.963779628276825
1667824230729297700,8.738297607421876,0.6662566065788269,0.09031818062067032,0.6998060345649719
1667824230739305700,8.7483056640625,0.6497135758399963,0.17689195275306702,0.4626627266407013
1667824230749313800,8.758313720703125,0.6351748108863831,0.23231074213981628,0.2843169569969177
1667824230759321600,8.768321533203125,0.6341793537139893,0.2602512836456299,0.1810307651758194
1667824230769329700,8.77832958984375,0.6307126879692078,0.24641111493110657,0.144166499376297
1667824230779337700,8.788337646484376,0.6303686499595642,0.1932261884212494,0.17203781008720398
1667824230789345800,8.798345703125,0.6579901576042175,0.11690344661474228,0.253328412771225
1667824230799353900,8.808353759765625,0.7052474021911621,0.026428677141666412,0.3643433451652527
1667824230809360600,8.818360595703124,0.7776366472244263,-0.05831364169716835,0.5037342309951782
1667824230819369000,8.828368896484376,0.860443651676178,-0.13421319425106049,0.6422537565231323
1667824230829376800,8.838376708984375,0.9433417320251465,-0.19391408562660217,0.779529333114624
1667824230839384800,8.848384765625,1.0255175828933716,-0.2372511625289917,0.8973371982574463
1667824230849392600,8.858392578125,1.1088612079620361,-0.27815890312194824,0.9837415814399719
1667824230859400700,8.868400634765624,1.191962718963623,-0.32030823826789856,1.0508636236190796
1667824230869408800,8.87840869140625,1.2694798707962036,-0.34519627690315247,1.0978080034255981
1667824230879416800,8.888416748046875,1.3321946859359741,-0.37066754698753357,1.1190956830978394
1667824230889425000,8.8984248046875,1.3720070123672485,-0.4069501757621765,1.1183974742889404
1667824230899432700,8.9084326171875,1.3996647596359253,-0.4356553256511688,1.104089617729187
1667824230909440800,8.918440673828124,1.4127709865570068,-0.47261202335357666,1.0576096773147583
1667824230919448800,8.92844873046875,1.4056211709976196,-0.4814577102661133,0.9633827805519104
1667824230929456600,8.93845654296875,1.3867093324661255,-0.4506281614303589,0.8279328346252441
1667824230939464000,8.9484638671875,1.3422350883483887,-0.3791574239730835,0.6650243401527405
1667824230949471700,8.9584716796875,1.2650518417358398,-0.2501291334629059,0.5022061467170715
1667824230959479800,8.968479736328124,1.1463669538497925,-0.0451299287378788,0.3787553012371063
1667824230969487600,8.978487548828125,0.9902293086051941,0.203192800283432,0.33021679520606995
1667824230979495700,8.98849560546875,0.8120433688163757,0.43330880999565125,0.37052372097969055
1667824230989503700,8.998503662109375,0.6249368190765381,0.6000890135765076,0.49802497029304504
1667824230999511800,9.00851171875,0.4618043899536133,0.6675871014595032,0.6792173981666565
1667824231009519900,9.018519775390626,0.3303645849227905,0.6519293189048767,0.8780311346054077
1667824231019527700,9.028527587890625,0.21829265356063843,0.5699851512908936,1.04845130443573
1667824231029535700,9.03853564453125,0.13563106954097748,0.4445399045944214,1.1718337535858154
1667824231039543600,9.04854345703125,0.09112831205129623,0.3147220015525818,1.232446551322937
1667824231049551600,9.058551513671874,0.0913672000169754,0.2436499446630478,1.244116187095642
1667824231059560000,9.068559814453126,0.11893624067306519,0.25224024057388306,1.2107819318771362
1667824231069566700,9.078566650390625,0.1645580530166626,0.3570212423801422,1.155222773551941
1667824231079574800,9.08857470703125,0.21757972240447998,0.5096626877784729,1.1298210620880127
1667824231089582600,9.09858251953125,0.25512710213661194,0.7083995342254639,1.1318669319152832
1667824231099590700,9.108590576171874,0.28673508763313293,0.8772695064544678,1.113502025604248
1667824231109598700,9.1185986328125,0.3458045423030853,1.028478980064392,1.0684401988983154
1667824231119606800,9.128606689453125,0.4369725286960602,1.156017541885376,0.9932155609130859
1667824231129614800,9.13861474609375,0.5437197685241699,1.2732466459274292,0.9345878958702087
1667824231139622700,9.14862255859375,0.6282652616500854,1.3608251810073853,0.907898485660553
1667824231149630700,9.158630615234374,0.674551784992218,1.4383845329284668,0.9428913593292236
1667824231159638500,9.168638427734376,0.6860060691833496,1.4349631071090698,1.0467215776443481
1667824231169646800,9.178646728515625,0.6602658033370972,1.3769631385803223,1.2293521165847778
1667824231179655000,9.188655029296875,0.598258912563324,1.2846734523773193,1.4772207736968994
1667824231189662700,9.198662841796875,0.5100384950637817,1.138623595237732,1.73666250705719
1667824231199669800,9.208669677734376,0.40504202246665955,0.9163737297058105,1.9482746124267578
1667824231209677800,9.218677734375,0.31034427881240845,0.6353588700294495,2.0609099864959717
1667824231219686000,9.228685791015625,0.22757136821746826,0.32756322622299194,2.050457000732422
1667824231229693700,9.238693603515625,0.1700066179037094,0.04086753726005554,1.9135727882385254
1667824231239701800,9.24870166015625,0.1354137510061264,-0.2122318297624588,1.6793690919876099
1667824231249709800,9.258709716796876,0.10513947159051895,-0.4627971947193146,1.3755466938018799
1667824231259717600,9.268717529296875,0.051294613629579544,-0.666026771068573,1.033504843711853
1667824231269725700,9.2787255859375,-0.013263341039419174,-0.8101000189781189,0.6761316061019897
1667824231279733800,9.288733642578125,-0.0987127274274826,-0.8838773369789124,0.3139840364456177
1667824231289741800,9.298741943359374,-0.21195992827415466,-0.8670562505722046,-0.04731478542089462
1667824231299750000,9.30875,-0.34662532806396484,-0.7794401049613953,-0.3790823221206665
1667824231309757700,9.3187578125,-0.4985349774360657,-0.6261664032936096,-0.6569304466247559
1667824231319764700,9.3287646484375,-0.6597669720649719,-0.43483588099479675,-0.8960980176925659
1667824231329772800,9.338772705078124,-0.8321789503097534,-0.223892480134964,-1.0772664546966553
1667824231339780900,9.34878076171875,-1.0114866495132446,-0.026741066947579384,-1.1710891723632812
1667824231349788700,9.35878857421875,-1.1612471342086792,0.09788155555725098,-1.1994876861572266
1667824231359796700,9.368796630859375,-1.2655410766601562,0.16547231376171112,-1.186428427696228
1667824231369804500,9.378804443359375,-1.3036445379257202,0.1711547076702118,-1.1371428966522217
1667824231379812600,9.3888125,-1.2699435949325562,0.1232292577624321,-1.0287261009216309
1667824231389821000,9.398821044921876,-1.185698390007019,0.04248301312327385,-0.8444580435752869
1667824231399828700,9.408828857421875,-1.0820809602737427,-0.09132698178291321,-0.6077727675437927
1667824231409836800,9.4188369140625,-0.9711765646934509,-0.24995258450508118,-0.3596838712692261
1667824231419844600,9.4288447265625,-0.8440234065055847,-0.4124256372451782,-0.1281459778547287
1667824231429852700,9.438852783203124,-0.712877631187439,-0.570763111114502,0.06411267071962357
1667824231439860700,9.44886083984375,-0.5945667028427124,-0.7222109436988831,0.19219154119491577
1667824231449867800,9.45886767578125,-0.5058056712150574,-0.8352876901626587,0.25800758600234985
1667824231459875800,9.468875732421875,-0.4307396709918976,-0.9117691516876221,0.27467870712280273
1667824231469883600,9.478883544921874,-0.3493548035621643,-0.9728732705116272,0.2650313973426819
1667824231479891700,9.4888916015625,-0.2554070055484772,-1.0089505910873413,0.2669704556465149
1667824231489899500,9.4988994140625,-0.16316042840480804,-1.0553569793701172,0.31132644414901733
1667824231499907800,9.508907958984375,-0.08563101291656494,-1.102746605873108,0.3991633653640747
1667824231509916000,9.518916015625,-0.04827512055635452,-1.1300314664840698,0.5141573548316956
1667824231519923700,9.528923828125,-0.029705431312322617,-1.1399815082550049,0.6110116839408875
1667824231529931800,9.538931884765624,-0.013410613872110844,-1.1031622886657715,0.6678597927093506
1667824231539939600,9.548939697265626,-0.00016884441720321774,-1.0319138765335083,0.6639001965522766
1667824231549947600,9.55894775390625,0.006259493995457888,-0.9206710457801819,0.6093046069145203
1667824231559955700,9.568955810546875,-0.007011570502072573,-0.786700963973999,0.5199827551841736
1667824231569962800,9.578962646484374,-0.03918442130088806,-0.6507716178894043,0.4069986641407013
1667824231579971000,9.58897119140625,-0.09384207427501678,-0.5360099077224731,0.29252347350120544
1667824231589979100,9.598979248046875,-0.1579877734184265,-0.4552346169948578,0.1826438456773758
1667824231599987200,9.6089873046875,-0.24488458037376404,-0.40100282430648804,0.06061940640211105
1667824231609995000,9.6189951171875,-0.3356134295463562,-0.36044207215309143,-0.07883968949317932
1667824231620003300,9.62900341796875,-0.417597234249115,-0.3286721706390381,-0.22863344848155975
1667824231630011100,9.63901123046875,-0.48856568336486816,-0.30480170249938965,-0.37577468156814575
1667824231640019200,9.649019287109375,-0.5590278506278992,-0.2930201590061188,-0.5283423662185669
1667824231650027300,9.65902734375,-0.6167755722999573,-0.2928611636161804,-0.6774882078170776
1667824231660035000,9.66903515625,-0.6598535776138306,-0.28936949372291565,-0.813147246837616
1667824231670043100,9.679043212890624,-0.6928288340568542,-0.2636079490184784,-0.926194429397583
1667824231680051200,9.68905126953125,-0.7434094548225403,-0.21958881616592407,-1.004516363143921
1667824231690058200,9.699058349609375,-0.7927543520927429,-0.14558649063110352,-1.050830602645874
1667824231700066000,9.709066162109375,-0.8264995217323303,-0.06912900507450104,-1.0575295686721802
1667824231710074000,9.71907421875,-0.8522166013717651,0.0070307450369000435,-1.0216940641403198
1667824231720082000,9.72908203125,-0.8709394335746765,0.055216383188962936,-0.9409744143486023
1667824231730090200,9.73909033203125,-0.8925096988677979,0.07262440025806427,-0.8136212825775146
1667824231740098300,9.749098388671875,-0.8845217823982239,0.09419334679841995,-0.6071211099624634
1667824231750106000,9.759106201171875,-0.8585637211799622,0.11101333796977997,-0.33754581212997437
1667824231760114200,9.7691142578125,-0.833477795124054,0.09665942937135696,-0.05297213792800903
1667824231770122000,9.7791220703125,-0.7953740954399109,0.0623222291469574,0.20669353008270264
1667824231780130000,9.789130126953125,-0.7278128862380981,0.026449451223015785,0.4009476900100708
1667824231790138400,9.799138427734375,-0.6447603702545166,0.014764565043151379,0.4937455356121063
1667824231800146200,9.809146240234375,-0.5572267770767212,0.0320064015686512,0.4794832468032837
1667824231810154200,9.819154296875,-0.4607415199279785,0.0912550762295723,0.38782256841659546
1667824231820161000,9.8291611328125,-0.34783199429512024,0.18263639509677887,0.2625482678413391
1667824231830169000,9.839169189453125,-0.235397607088089,0.29694750905036926,0.18889401853084564
1667824231840177200,9.84917724609375,-0.16241687536239624,0.3936266601085663,0.21678504347801208
1667824231850185200,9.859185302734375,-0.1514262706041336,0.46265873312950134,0.3235394358634949
1667824231860193300,9.869193359375,-0.17159172892570496,0.5076949000358582,0.48543113470077515
1667824231870201000,9.879201171875,-0.202743262052536,0.5247151851654053,0.6635380387306213
1667824231880209200,9.889209228515625,-0.22794634103775024,0.5617602467536926,0.8296263217926025
1667824231890217000,9.899217041015625,-0.2434222400188446,0.617391049861908,0.9797127842903137
1667824231900225300,9.909225341796875,-0.23809058964252472,0.6781156659126282,1.1098483800888062
1667824231910233300,9.9192333984375,-0.20397523045539856,0.7453655004501343,1.2298099994659424
1667824231920241200,9.9292412109375,-0.13853684067726135,0.7996649742126465,1.3483980894088745
1667824231930249200,9.939249267578125,-0.04115569218993187,0.8485015034675598,1.4698790311813354
1667824231940256000,9.949256103515625,0.066396065056324,0.8764029145240784,1.5731782913208008
1667824231950264300,9.959264404296874,0.18261082470417023,0.8746201992034912,1.674559235572815
1667824231960272100,9.969272216796876,0.30634981393814087,0.8612418174743652,1.7836345434188843
1667824231970280200,9.9792802734375,0.42844268679618835,0.8295709490776062,1.8954287767410278
1667824231980288300,9.989288330078125,0.5408810973167419,0.7778494358062744,1.9964978694915771
1667824231990296000,9.999296142578125,0.623078465461731,0.7252250909805298,2.093010663986206
1667824232000304000,10.00930419921875,0.6757014989852905,0.6594974994659424,2.173970937728882
1667824232010312200,10.019312255859376,0.7198700308799744,0.6008352637290955,2.2632458209991455
1667824232020320300,10.0293203125,0.7784720659255981,0.5585274696350098,2.3463118076324463
1667824232030328300,10.039328369140625,0.8538318276405334,0.49878183007240295,2.4024548530578613
1667824232040336100,10.049336181640625,0.9647175669670105,0.39397820830345154,2.402418375015259
1667824232050344200,10.05934423828125,1.1023979187011719,0.22643554210662842,2.3107926845550537
1667824232060351200,10.069351318359375,1.2473663091659546,0.032647158950567245,2.1366961002349854
1667824232070359300,10.079359375,1.3715431690216064,-0.15686099231243134,1.8852744102478027
1667824232080367000,10.0893671875,1.4240758419036865,-0.3347233831882477,1.5886014699935913
1667824232090375200,10.099375244140624,1.3743513822555542,-0.5157073140144348,1.2719433307647705
1667824232100383000,10.109383056640626,1.2145534753799438,-0.6527423858642578,0.9702833294868469
1667824232110391000,10.11939111328125,0.9863917231559753,-0.6883246302604675,0.7196942567825317
1667824232120399400,10.1293994140625,0.7578887939453125,-0.6307137608528137,0.5263833999633789
1667824232130407200,10.1394072265625,0.5542096495628357,-0.486935555934906,0.39858946204185486
1667824232140415200,10.149415283203124,0.3914223611354828,-0.2747756242752075,0.3289656341075897
1667824232150423000,10.159423095703126,0.2772845923900604,-0.023687751963734627,0.3004154860973358
1667824232160431000,10.16943115234375,0.22682009637355804,0.22076593339443207,0.2890307307243347
1667824232170439200,10.179439208984375,0.22123278677463531,0.4366265833377838,0.28259867429733276
1667824232180447000,10.189447021484375,0.24854962527751923,0.5980929732322693,0.28245407342910767
1667824232190454300,10.199454345703124,0.28483226895332336,0.6776970028877258,0.26480555534362793
1667824232200462000,10.209462158203126,0.32970520853996277,0.6862785220146179,0.2369435727596283
1667824232210470100,10.21947021484375,0.3810347020626068,0.6296700835227966,0.212587371468544
1667824232220478000,10.22947802734375,0.4236871004104614,0.5408637523651123,0.22202374041080475
1667824232230486300,10.239486328125,0.4261710047721863,0.4569403827190399,0.28718435764312744
1667824232240494300,10.249494384765624,0.3730635941028595,0.3792690336704254,0.4115467965602875
1667824232250502100,10.259502197265626,0.27031776309013367,0.30062612891197205,0.558442234992981
1667824232260510200,10.26951025390625,0.1725560575723648,0.22923797369003296,0.6916937828063965
1667824232270518000,10.27951806640625,0.11557319760322571,0.1664145439863205,0.7815877199172974
1667824232280526000,10.289526123046874,0.09552226215600967,0.11896100640296936,0.8212003707885742
1667824232290534100,10.2995341796875,0.09767835587263107,0.10345182567834854,0.8008391857147217
1667824232300542200,10.309542236328125,0.1101430132985115,0.12469878792762756,0.7310259938240051
1667824232310549200,10.31954931640625,0.12012560665607452,0.16997891664505005,0.624860405921936
1667824232320557000,10.32955712890625,0.13903911411762238,0.2325240522623062,0.507481575012207
1667824232330565000,10.339565185546874,0.15914064645767212,0.3146146535873413,0.3789374530315399
1667824232340573200,10.3495732421875,0.16816876828670502,0.4013897776603699,0.25213822722435
1667824232350581200,10.359581298828125,0.17423118650913239,0.49895280599594116,0.14158137142658234
1667824232360589300,10.36958935546875,0.1794816106557846,0.5799499154090881,0.0579618364572525
1667824232370597000,10.37959716796875,0.18716590106487274,0.6377125382423401,0.0014761901693418622
1667824232380605200,10.389605224609374,0.20034508407115936,0.6844590306282043,-0.04002358391880989
1667824232390613000,10.399613037109376,0.22526641190052032,0.733803391456604,-0.06622988730669022
1667824232400621000,10.40962109375,0.25911465287208557,0.7565297484397888,-0.08800788968801498
1667824232410629400,10.41962939453125,0.3068819046020508,0.7432214021682739,-0.10326966643333435
1667824232420637200,10.42963720703125,0.37699654698371887,0.6906178593635559,-0.10896163433790207
1667824232430644200,10.439644287109376,0.4736067056655884,0.6064223051071167,-0.1150251254439354
1667824232440652000,10.449652099609375,0.5899764895439148,0.462505578994751,-0.11131640523672104
1667824232450660400,10.459660400390625,0.7082277536392212,0.29769986867904663,-0.10003898292779922
1667824232460668200,10.469668212890625,0.792972207069397,0.1406892091035843,-0.06613241136074066
1667824232470676200,10.47967626953125,0.8245029449462891,0.01324230246245861,-0.01575286313891411
1667824232480684000,10.48968408203125,0.7876224517822266,-0.0867982804775238,0.0501294806599617
1667824232490692000,10.499692138671875,0.7182409763336182,-0.16185547411441803,0.10622284561395645
1667824232500700200,10.5097001953125,0.6319146156311035,-0.22250524163246155,0.14786909520626068
1667824232510708000,10.5197080078125,0.5451962351799011,-0.2757951021194458,0.16810086369514465
1667824232520716300,10.52971630859375,0.46909770369529724,-0.31879475712776184,0.17271558940410614
1667824232530724000,10.53972412109375,0.4118243157863617,-0.34403088688850403,0.16377535462379456
1667824232540732200,10.549732177734375,0.36414840817451477,-0.3410806357860565,0.1432945728302002
1667824232550739000,10.559739013671875,0.3156146705150604,-0.3210299611091614,0.10574586689472198
1667824232560747300,10.569747314453124,0.26181694865226746,-0.3059484660625458,0.05805105343461037
1667824232570755300,10.57975537109375,0.20312541723251343,-0.2984285056591034,-0.0046149916015565395
1667824232580765700,10.589765625,0.14493349194526672,-0.30443552136421204,-0.08020642399787903
1667824232590773800,10.599773681640626,0.08826141804456711,-0.3294825553894043,-0.17839424312114716
1667824232600781600,10.609781494140625,0.018702048808336258,-0.36415451765060425,-0.2708730399608612
1667824232610790000,10.619789794921875,-0.0655268132686615,-0.38798049092292786,-0.3535327613353729
1667824232620798000,10.6297978515625,-0.15942586958408356,-0.4074644446372986,-0.4067065119743347
1667824232630805800,10.6398056640625,-0.2494838684797287,-0.42569243907928467,-0.4419345259666443
1667824232640813800,10.649813720703126,-0.324686199426651,-0.42476195096969604,-0.44457852840423584
1667824232650821600,10.659821533203125,-0.38105547428131104,-0.3742079436779022,-0.42303115129470825
1667824232660829700,10.66982958984375,-0.42638567090034485,-0.28235819935798645,-0.3807518780231476
1667824232670836700,10.679836669921874,-0.4526928961277008,-0.17330707609653473,-0.32337379455566406
1667824232680844800,10.6898447265625,-0.4668444097042084,-0.081030935049057,-0.25826218724250793
1667824232690852900,10.699852783203125,-0.4731300175189972,-0.023924507200717926,-0.2035757601261139
1667824232700860700,10.709860595703125,-0.48200151324272156,-0.005365470424294472,-0.16017182171344757
1667824232710868700,10.71986865234375,-0.5029336810112,0.0004572647449094802,-0.12356933951377869
1667824232720876800,10.729876708984374,-0.5398523211479187,0.005336974747478962,-0.08424004912376404
1667824232730884900,10.739884765625,-0.5990642309188843,0.012436961755156517,-0.05227412283420563
1667824232740893000,10.749892822265625,-0.6644613742828369,0.038603052496910095,-0.018228804692626
1667824232750900700,10.759900634765625,-0.7281380891799927,0.08518333733081818,0.01245027780532837
1667824232760908800,10.76990869140625,-0.7757516503334045,0.15316824615001678,0.04320632666349411
1667824232770916600,10.77991650390625,-0.7920176982879639,0.21185925602912903,0.052198488265275955
1667824232780924700,10.789924560546876,-0.7907164692878723,0.24429495632648468,0.05313672125339508
1667824232790931700,10.799931640625,-0.7669858336448669,0.2610393166542053,0.039330895990133286
1667824232800939800,10.809939697265625,-0.7352787852287292,0.2467450648546219,0.020412597805261612
1667824232810947800,10.81994775390625,-0.7015775442123413,0.18343107402324677,-0.00506826164200902
1667824232820955600,10.82995556640625,-0.6650227308273315,0.05481797456741333,-0.05152337998151779
1667824232830964000,10.8399638671875,-0.636216938495636,-0.1426628679037094,-0.13707423210144043
1667824232840971800,10.8499716796875,-0.6317635774612427,-0.331258624792099,-0.2561279237270355
1667824232850979800,10.859979736328125,-0.6511860489845276,-0.4205666482448578,-0.37684208154678345
1667824232860987600,10.869987548828124,-0.6895387172698975,-0.39760223031044006,-0.4683735966682434
1667824232870995700,10.87999560546875,-0.742764413356781,-0.2860274910926819,-0.49547791481018066
1667824232881003800,10.890003662109375,-0.800298273563385,-0.09710923582315445,-0.45440372824668884
1667824232891011800,10.90001171875,-0.8400153517723083,0.13607634603977203,-0.3554116189479828
1667824232901020000,10.91002001953125,-0.8406286835670471,0.2957767844200134,-0.24299214780330658
1667824232911026700,10.920026611328124,-0.787753701210022,0.33310630917549133,-0.16659590601921082
1667824232921034800,10.93003466796875,-0.6882575154304504,0.26478931307792664,-0.14511485397815704
1667824232931042600,10.94004248046875,-0.5633043646812439,0.11920841783285141,-0.18863064050674438
1667824232941051000,10.95005078125,-0.4382673501968384,-0.05939488485455513,-0.28666505217552185
1667824232951059000,10.960058837890625,-0.34067049622535706,-0.2701137661933899,-0.41991499066352844
1667824232961066800,10.970066650390624,-0.30732905864715576,-0.499035120010376,-0.5733615159988403
1667824232971074800,10.98007470703125,-0.33703821897506714,-0.7219914793968201,-0.7305274605751038
1667824232981082600,10.99008251953125,-0.40882745385169983,-0.9024129509925842,-0.8911440372467041
1667824232991090700,11.000090576171875,-0.5063191056251526,-0.9757582545280457,-1.0640417337417603
1667824233001098800,11.0100986328125,-0.5743221640586853,-0.9675506353378296,-1.26509690284729
1667824233011106800,11.02010693359375,-0.5906299948692322,-0.8985252380371094,-1.4859895706176758
1667824233021115000,11.030114990234376,-0.544840395450592,-0.7755056023597717,-1.7079488039016724
1667824233031121700,11.04012158203125,-0.4658747613430023,-0.6296693086624146,-1.919939637184143
1667824233041129700,11.050129638671875,-0.3819817304611206,-0.4882162809371948,-2.1152634620666504
1667824233051137800,11.0601376953125,-0.31575289368629456,-0.31583893299102783,-2.2741072177886963
1667824233061145900,11.070145751953126,-0.26285719871520996,-0.11244798451662064,-2.3931031227111816
1667824233071154000,11.08015380859375,-0.22888803482055664,0.07404173910617828,-2.4721286296844482
1667824233081161700,11.09016162109375,-0.1963636577129364,0.2155943363904953,-2.5240156650543213
1667824233091169800,11.100169677734375,-0.1337607204914093,0.32402122020721436,-2.5404882431030273
1667824233101177600,11.110177490234374,-0.023071764037013054,0.36260268092155457,-2.51823353767395
1667824233111185700,11.120185546875,0.1279076337814331,0.3157084286212921,-2.4686429500579834
1667824233121194000,11.130194091796875,0.30349597334861755,0.2004137933254242,-2.3997716903686523
1667824233131201800,11.140201904296875,0.49230796098709106,0.011411112733185291,-2.3425614833831787
1667824233141209900,11.1502099609375,0.6790775656700134,-0.2346191704273224,-2.3097617626190186
1667824233151216600,11.160216552734376,0.8817744851112366,-0.5280337333679199,-2.3107705116271973
1667824233161225000,11.170224853515625,1.085434913635254,-0.8933643102645874,-2.3512914180755615
1667824233171232800,11.180232666015625,1.2550479173660278,-1.331774115562439,-2.4071574211120605
1667824233181240800,11.19024072265625,1.3795485496520996,-1.7390495538711548,-2.451300859451294
1667824233191249000,11.200248779296874,1.4466285705566406,-2.0281283855438232,-2.490152359008789
1667824233201256700,11.210256591796876,1.432479977607727,-2.1626861095428467,-2.516282081604004
1667824233211264800,11.2202646484375,1.3130252361297607,-2.1358554363250732,-2.5342705249786377
1667824233221272800,11.23027294921875,1.0837630033493042,-1.9248085021972656,-2.5321178436279297
1667824233231281000,11.240281005859375,0.7643184661865234,-1.5372521877288818,-2.512173891067505
1667824233241288700,11.250288818359374,0.3855418264865875,-0.9072045087814331,-2.466839551925659
1667824233251296800,11.260296875,-0.03918841481208801,-0.09353633970022202,-2.37176513671875
1667824233261303600,11.270303466796875,-0.44198301434516907,0.6900796294212341,-2.2440085411071777
1667824233271312000,11.280311767578125,-0.758090078830719,1.210569143295288,-2.058717727661133
1667824233281320000,11.29031982421875,-0.9538812041282654,1.4807825088500977,-1.8216490745544434
1667824233291327700,11.30032763671875,-1.0540932416915894,1.5555320978164673,-1.5314379930496216
1667824233301335800,11.310335693359375,-1.0720105171203613,1.5088714361190796,-1.2062582969665527
1667824233311343600,11.320343505859375,-1.0148215293884277,1.3138878345489502,-0.8780418038368225
1667824233321351700,11.3303515625,-0.9180883169174194,0.9976904392242432,-0.5589495897293091
1667824233331359700,11.34035986328125,-0.8390962481498718,0.6473979353904724,-0.24895548820495605
1667824233341367800,11.350367919921876,-0.8023076057434082,0.32761433720588684,0.04285718500614166
1667824233351376000,11.3603759765625,-0.8225335478782654,0.10544333606958389,0.29899176955223083
1667824233361383700,11.3703837890625,-0.8872038722038269,-0.000806138850748539,0.4831557273864746
1667824233371391700,11.380391845703125,-0.9847373366355896,-0.04013783112168312,0.58735191822052
1667824233381398800,11.390398681640624,-1.0977076292037964,-0.0216594897210598,0.5948271155357361
1667824233391406800,11.40040673828125,-1.2218992710113525,0.03328685089945793,0.5179134607315063
1667824233401415000,11.410414794921875,-1.341926097869873,0.12897582352161407,0.37801840901374817
1667824233411422700,11.420422607421875,-1.4517929553985596,0.25640302896499634,0.1972440928220749
1667824233421430800,11.4304306640625,-1.5381840467453003,0.3620879054069519,-0.009559416212141514
1667824233431438600,11.4404384765625,-1.5948454141616821,0.4413326680660248,-0.22070707380771637
1667824233441446700,11.45044677734375,-1.629148244857788,0.49905136227607727,-0.4241262376308441
1667824233451455000,11.460455078125,-1.6589066982269287,0.5301514863967896,-0.6035681962966919
1667824233461462800,11.470462890625,-1.681154727935791,0.5297725200653076,-0.7575904726982117
1667824233471470800,11.480470947265625,-1.6969233751296997,0.4898216426372528,-0.9059551954269409
1667824233481478700,11.490478759765624,-1.7059110403060913,0.4163183867931366,-1.0537440776824951
1667824233491486000,11.50048583984375,-1.7177655696868896,0.32118016481399536,-1.1976605653762817
1667824233501493800,11.51049365234375,-1.7358300685882568,0.218360036611557,-1.3508354425430298
1667824233511501800,11.520501708984375,-1.762514591217041,0.12836942076683044,-1.500028133392334
1667824233521510000,11.530510009765624,-1.7847408056259155,0.06899211555719376,-1.6510437726974487
1667824233531517700,11.540517578125,-1.7950230836868286,0.04126355051994324,-1.7864484786987305
1667824233541525800,11.55052587890625,-1.7883938550949097,0.025917084887623787,-1.8749133348464966
1667824233551533800,11.560533935546875,-1.7597017288208008,0.005278385244309902,-1.9058091640472412
1667824233561542000,11.5705419921875,-1.7144138813018799,-0.008588162250816822,-1.8844804763793945
1667824233571550000,11.580550048828124,-1.6467962265014648,-0.033814687281847,-1.8107298612594604
1667824233581558500,11.59055859375,-1.5464768409729004,-0.0852200910449028,-1.7269648313522339
1667824233591566300,11.60056640625,-1.4192086458206177,-0.1719272881746292,-1.6583253145217896
1667824233601574400,11.610574462890625,-1.2683451175689697,-0.2683582305908203,-1.5863832235336304
1667824233611581400,11.62058154296875,-1.1000947952270508,-0.3409482538700104,-1.5216964483261108
1667824233621589500,11.630589599609374,-0.9247528314590454,-0.4035341441631317,-1.4601715803146362
1667824233631597600,11.64059765625,-0.7493269443511963,-0.45825278759002686,-1.3904800415039062
1667824233641605400,11.65060546875,-0.5834982991218567,-0.4827176630496979,-1.2996095418930054
1667824233651613400,11.660613525390625,-0.4216415286064148,-0.47357261180877686,-1.183297038078308
1667824233661621200,11.670621337890625,-0.267189621925354,-0.43491658568382263,-1.044167399406433
1667824233671629300,11.68062939453125,-0.11510954797267914,-0.3874624967575073,-0.8783555030822754
1667824233681637400,11.690637451171876,0.03310469165444374,-0.34556326270103455,-0.6958712339401245
1667824233691645400,11.7006455078125,0.17061887681484222,-0.3108353614807129,-0.47734686732292175
1667824233701653500,11.710653564453125,0.30982282757759094,-0.2936771512031555,-0.2278563380241394
1667824233711661300,11.720661376953124,0.4424216151237488,-0.29514482617378235,0.04875954985618591
1667824233721669400,11.73066943359375,0.5768686532974243,-0.3187319040298462,0.3294213116168976
1667824233731676400,11.740676513671875,0.7079134583473206,-0.3549881875514984,0.6061500906944275
1667824233741684500,11.7506845703125,0.8236347436904907,-0.40071600675582886,0.8563487529754639
1667824233751692300,11.7606923828125,0.9246649742126465,-0.4612901210784912,1.0567231178283691
1667824233761700400,11.770700439453124,1.0226311683654785,-0.5338450074195862,1.2014555931091309
1667824233771708400,11.78070849609375,1.1244516372680664,-0.6112881302833557,1.2815093994140625
1667824233781716200,11.79071630859375,1.2261576652526855,-0.6696425080299377,1.295214056968689
1667824233791724500,11.800724609375,1.3247783184051514,-0.703170120716095,1.2455785274505615
1667824233801732400,11.810732421875,1.4035793542861938,-0.7234876751899719,1.1439541578292847
1667824233811740400,11.820740478515624,1.4521186351776123,-0.7192580103874207,0.9953423142433167
1667824233821748500,11.83074853515625,1.4523378610610962,-0.6670123934745789,0.8209732174873352
1667824233831756300,11.84075634765625,1.3947778940200806,-0.5693686604499817,0.6267361044883728
1667824233841764400,11.850764404296875,1.3020671606063843,-0.4186915159225464,0.4307495355606079
1667824233851771400,11.860771484375,1.184566855430603,-0.24243927001953125,0.25972825288772583
1667824233861779500,11.870779541015626,1.0509978532791138,-0.06734894961118698,0.1375189870595932
1667824233871787300,11.880787353515625,0.9218108654022217,0.08874078840017319,0.09711829572916031
1667824233881795300,11.89079541015625,0.8085700273513794,0.18439726531505585,0.14328472316265106
1667824233891803400,11.900803466796875,0.725729763507843,0.23699070513248444,0.2897638976573944
1667824233901811500,11.9108115234375,0.6646080613136292,0.2558962106704712,0.5238736271858215
1667824233911819500,11.920819580078126,0.627627968788147,0.2574477791786194,0.8186413049697876
1667824233921827300,11.930827392578125,0.617766797542572,0.25626108050346375,1.1268388032913208
1667824233931835400,11.94083544921875,0.6341755986213684,0.2406432330608368,1.414687991142273
1667824233941843500,11.950843505859375,0.6754016280174255,0.21402600407600403,1.6713359355926514
1667824233951851300,11.960851318359374,0.7178239226341248,0.17479844391345978,1.884208083152771
1667824233961859600,11.970859619140626,0.7419270873069763,0.11977726966142654,2.0383622646331787
1667824233971866400,11.980866455078125,0.7433311343193054,0.07219323515892029,2.1377265453338623
1667824233981874400,11.99087451171875,0.7147713899612427,0.03825364634394646,2.187345504760742
1667824233991882200,12.00088232421875,0.6606732606887817,0.007072556763887405,2.182620048522949
1667824234001890300,12.010890380859376,0.5777299404144287,-0.03038986399769783,2.1110024452209473
1667824234011898600,12.020898681640626,0.4627958834171295,-0.07537757605314255,1.9718271493911743
1667824234021906400,12.030906494140625,0.3328269422054291,-0.10539832711219788,1.7756370306015015
1667824234031914500,12.04091455078125,0.21282730996608734,-0.12831217050552368,1.5449702739715576
1667824234041922300,12.05092236328125,0.10934539884328842,-0.14520911872386932,1.2830466032028198
1667824234051930400,12.060930419921876,0.023240074515342712,-0.15682582557201385,1.0069446563720703
1667824234061938400,12.0709384765625,-0.04688814654946327,-0.16534662246704102,0.724689245223999
1667824234071946500,12.080946533203125,-0.09748980402946472,-0.16977518796920776,0.45812201499938965
1667824234081953300,12.090953369140625,-0.12833985686302185,-0.17686185240745544,0.21603696048259735
1667824234091961300,12.10096142578125,-0.1409536600112915,-0.1678936630487442,0.008048871532082558
1667824234101969400,12.110969482421876,-0.13041765987873077,-0.14362773299217224,-0.16732294857501984
1667824234111977200,12.120977294921875,-0.0976962000131607,-0.091557078063488,-0.30688562989234924
1667824234121985500,12.130985595703125,-0.040220655500888824,0.0022237394005060196,-0.41347652673721313
1667824234131993300,12.140993408203125,0.04574751481413841,0.1118232011795044,-0.4886724650859833
1667824234142001400,12.15100146484375,0.14895886182785034,0.20078930258750916,-0.5342695116996765
1667824234152009500,12.161009521484376,0.26275280117988586,0.2646995782852173,-0.5453379154205322
1667824234162017300,12.171017333984375,0.3786434531211853,0.2890174388885498,-0.5037307739257812
1667824234172025300,12.181025390625,0.4924565553665161,0.25103142857551575,-0.4237653911113739
1667824234182033400,12.191033447265625,0.5877881646156311,0.15866394340991974,-0.3064901530742645
1667824234192040400,12.20104052734375,0.6609774231910706,0.03940386325120926,-0.16840046644210815
1667824234202048300,12.21104833984375,0.7074844241142273,-0.07840852439403534,-0.047027695924043655
1667824234212056300,12.221056396484375,0.7348758578300476,-0.1548854559659958,0.044855356216430664
1667824234222064400,12.231064453125,0.7332904934883118,-0.18426278233528137,0.08172575384378433
1667824234232072400,12.241072509765624,0.7094740867614746,-0.1682491898536682,0.07175354659557343
1667824234242080500,12.25108056640625,0.6670312881469727,-0.10651952028274536,0.027247866615653038
1667824234252088300,12.26108837890625,0.5971710085868835,-0.0033073797821998596,-0.05644277110695839
1667824234262096400,12.271096435546875,0.49259451031684875,0.1353365182876587,-0.13877519965171814
1667824234272104400,12.2811044921875,0.374262273311615,0.2735487222671509,-0.20693613588809967
1667824234282112300,12.2911123046875,0.24214020371437073,0.3947877883911133,-0.2702655792236328
1667824234292120600,12.30112060546875,0.10975206643342972,0.47714710235595703,-0.29764339327812195
1667824234302128400,12.31112841796875,-0.01769457384943962,0.5016383528709412,-0.2965637445449829
1667824234312135400,12.321135498046875,-0.1420319676399231,0.4676833152770996,-0.2537952661514282
1667824234322143200,12.331143310546874,-0.24962341785430908,0.4028981924057007,-0.18349845707416534
1667824234332151300,12.3411513671875,-0.35225844383239746,0.3163449168205261,-0.1058444082736969
1667824234342159600,12.35115966796875,-0.44225943088531494,0.22510981559753418,-0.03408233821392059
1667824234352167400,12.36116748046875,-0.508971631526947,0.14070412516593933,0.0007571366732008755
1667824234362175500,12.371175537109375,-0.548579752445221,0.07548144459724426,-0.015960857272148132
1667824234372183300,12.381183349609374,-0.570991575717926,0.04224758967757225,-0.07448861747980118
1667824234382191400,12.39119140625,-0.5889987945556641,0.029223399236798286,-0.16440331935882568
