time,seconds_elapsed,z,y,x
1667824538294354000,0.00835400390625,0.15635071694850922,-0.09007210284471512,0.11226395517587662
1667824538304362000,0.018362060546875,0.126067653298378,-0.2418656200170517,0.12157037109136581
1667824538314369800,0.028369873046875,0.1064569354057312,-0.43484652042388916,0.12547722458839417
1667824538324377000,0.038377197265625,0.10295727103948593,-0.643317699432373,0.12466789782047272
1667824538334385000,0.048385009765625,0.10395462810993195,-0.8245295882225037,0.11300058662891388
1667824538344392000,0.058391845703125,0.09997133910655975,-0.9624330997467041,0.05215747654438019
1667824538354400000,0.06839990234375,0.09021005034446716,-1.0365688800811768,-0.05517270788550377
1667824538364408000,0.078407958984375,0.066898874938488,-1.0561513900756836,-0.20198585093021393
1667824538374414800,0.088414794921875,0.04549957439303398,-1.0336439609527588,-0.3674829304218292
1667824538384423000,0.0984228515625,0.027699537575244904,-0.9742013812065125,-0.5226456522941589
1667824538394430000,0.108429931640625,0.021990519016981125,-0.9019458293914795,-0.6516501903533936
1667824538404438000,0.11843798828125,-0.008264853619039059,-0.8975489139556885,-0.7728458642959595
1667824538414446000,0.128446044921875,-0.14121703803539276,-0.9532212615013123,-0.9584543704986572
1667824538424453000,0.138453125,-0.36338725686073303,-1.0856951475143433,-1.2404628992080688
1667824538434461200,0.148461181640625,-0.6214749813079834,-1.2495650053024292,-1.5735154151916504
1667824538444469000,0.158468994140625,-0.8617986440658569,-1.4225900173187256,-1.8971211910247803
1667824538454476000,0.16847607421875,-1.0299644470214844,-1.5365734100341797,-2.139481544494629
1667824538464484000,0.178484130859375,-1.0994188785552979,-1.5258400440216064,-2.2783591747283936
1667824538474491100,0.1884912109375,-1.1263283491134644,-1.3620857000350952,-2.287844657897949
1667824538484499000,0.1984990234375,-1.2254871129989624,-1.129284381866455,-2.166947364807129
1667824538494507000,0.208507080078125,-1.4882593154907227,-1.03631591796875,-1.9140743017196655
1667824538504514000,0.21851416015625,-1.7788301706314087,-0.8331542015075684,-1.5938291549682617
1667824538514522000,0.228522216796875,-2.0076699256896973,-0.580551266670227,-1.2643506526947021
1667824538524529000,0.23852880859375,-2.1283154487609863,-0.4429880678653717,-0.8787795305252075
1667824538534537000,0.248536865234375,-1.9328155517578125,-0.5587652921676636,-0.3440399169921875
1667824538544545000,0.258544921875,-1.32412850856781,-0.908198356628418,0.3055170476436615
1667824538554552000,0.268552001953125,-0.5085090398788452,-1.069199800491333,0.9026387929916382
1667824538564560000,0.278559814453125,0.13156335055828094,-0.760921835899353,1.3015307188034058
1667824538574568000,0.28856787109375,0.5034202933311462,-0.14019519090652466,1.5910425186157227
1667824538584575000,0.298574951171875,0.7100338935852051,0.6512539386749268,1.8586920499801636
1667824538594583000,0.3085830078125,0.7747963666915894,1.4867589473724365,2.286536455154419
1667824538604589800,0.31858984375,0.8406627178192139,2.5201170444488525,2.720003604888916
1667824538614598100,0.32859814453125,1.033712387084961,3.7838497161865234,2.9603323936462402
1667824538624606200,0.338606201171875,1.376362919807434,4.377575874328613,2.7704975605010986
1667824538634613000,0.348613037109375,1.6294673681259155,4.320091724395752,2.4167516231536865
1667824538644621000,0.35862109375,1.679047703742981,3.698535203933716,1.9982410669326782
1667824538654629000,0.368629150390625,1.5830074548721313,3.1987369060516357,1.6270833015441895
1667824538664636200,0.37863623046875,1.407983660697937,2.55466365814209,1.2133779525756836
1667824538674644000,0.38864404296875,1.245911717414856,1.7973288297653198,0.7786861658096313
1667824538684651300,0.3986513671875,1.0782500505447388,1.015411376953125,0.5029696822166443
1667824538694659000,0.4086591796875,0.7996031641960144,0.24735254049301147,0.44179898500442505
1667824538704667100,0.418667236328125,0.4144171476364136,-0.392526775598526,0.4839421808719635
1667824538714674000,0.428673828125,0.028420722112059593,-0.7563287019729614,0.5453735589981079
1667824538724682000,0.438681884765625,-0.2731740176677704,-0.8156481981277466,0.5904965996742249
1667824538734690000,0.44868994140625,-0.43902504444122314,-0.5776447057723999,0.6544036269187927
1667824538744697000,0.458697021484375,-0.4954957664012909,-0.1346355825662613,0.7375795245170593
1667824538754705000,0.468704833984375,-0.5324175357818604,0.29125580191612244,0.8176735639572144
1667824538764712200,0.478712158203125,-0.6043817400932312,0.5188956260681152,0.8757957220077515
1667824538774720000,0.488719970703125,-0.6858127117156982,0.6990417242050171,0.9187633991241455
1667824538784728000,0.49872802734375,-0.7355283498764038,0.9964190721511841,0.9576810002326965
1667824538794734800,0.50873486328125,-0.7303026914596558,1.370303988456726,0.973488450050354
1667824538804743200,0.5187431640625,-0.6663066744804382,1.7538537979125977,0.9632411003112793
1667824538814750000,0.52875,-0.5624915957450867,1.9932775497436523,0.9252865314483643
1667824538824758000,0.538758056640625,-0.4731880724430084,2.0761823654174805,0.8382006287574768
1667824538834765800,0.548765869140625,-0.4401363730430603,2.1075966358184814,0.6876710653305054
1667824538844773000,0.558773193359375,-0.4747715890407562,2.1323041915893555,0.4867917597293854
1667824538854780400,0.568780517578125,-0.5526980757713318,2.141981363296509,0.2872341573238373
1667824538864788200,0.578788330078125,-0.6830582022666931,2.1428136825561523,0.10568834841251373
1667824538874795500,0.58879541015625,-0.8370698690414429,2.1796514987945557,-0.03279256820678711
1667824538884803300,0.59880322265625,-0.966693639755249,2.323263645172119,-0.11965209990739822
1667824538894810400,0.608810302734375,-1.0439112186431885,2.5559744834899902,-0.16155320405960083
1667824538904818200,0.618818115234375,-1.067999005317688,2.8135106563568115,-0.15522153675556183
1667824538914826500,0.628826416015625,-1.0515235662460327,3.0653483867645264,-0.10912888497114182
1667824538924833300,0.638833251953125,-1.0036135911941528,3.292646646499634,-0.056294165551662445
1667824538934841300,0.64884130859375,-0.934489905834198,3.482314348220825,-0.026101641356945038
1667824538944848400,0.658848388671875,-0.8782420754432678,3.6324753761291504,-0.012802613899111748
1667824538954856400,0.6688564453125,-0.8369316458702087,3.75111722946167,-0.032408274710178375
1667824538964864500,0.678864501953125,-0.7952979207038879,3.865893840789795,-0.09106146544218063
1667824538974871300,0.688871337890625,-0.7406056523323059,4.045614242553711,-0.2135210633277893
1667824538984879600,0.698879638671875,-0.681202232837677,4.2557477951049805,-0.3968954086303711
1667824538994887400,0.708887451171875,-0.658487856388092,4.351419925689697,-0.5880573987960815
1667824539004894500,0.71889453125,-0.666784942150116,4.210602760314941,-0.74404376745224
1667824539014902300,0.72890234375,-0.688824474811554,3.7550549507141113,-0.89212566614151
1667824539024909600,0.73890966796875,-0.7327309250831604,3.0545337200164795,-1.0973360538482666
1667824539034917400,0.74891748046875,-0.8038373589515686,2.1953322887420654,-1.3490763902664185
1667824539044925400,0.758925537109375,-0.8570371866226196,1.2455461025238037,-1.6194368600845337
1667824539054932500,0.768932373046875,-0.8656818270683289,0.3449089229106903,-1.870041847229004
1667824539064940500,0.7789404296875,-0.8385420441627502,-0.38458895683288574,-2.093168258666992
1667824539074947300,0.788947265625,-0.8157070875167847,-0.9046918153762817,-2.2527151107788086
1667824539084955400,0.798955322265625,-0.8005068302154541,-1.2312078475952148,-2.3381247520446777
1667824539094963200,0.808963134765625,-0.7761273980140686,-1.3933149576187134,-2.3487770557403564
1667824539104970500,0.818970458984375,-0.7239028215408325,-1.4532414674758911,-2.2664990425109863
1667824539114978300,0.828978271484375,-0.6600533127784729,-1.4365594387054443,-2.1025500297546387
1667824539124986400,0.838986328125,-0.5970916152000427,-1.336101770401001,-1.8972703218460083
1667824539134993400,0.848993408203125,-0.5277037620544434,-1.1641079187393188,-1.6814610958099365
1667824539145001500,0.85900146484375,-0.42259731888771057,-0.9845088720321655,-1.450265645980835
1667824539155008300,0.86900830078125,-0.2912965714931488,-0.8068690896034241,-1.2066562175750732
1667824539165016300,0.879016357421875,-0.13264113664627075,-0.6244577169418335,-0.946221649646759
1667824539175024400,0.8890244140625,0.028552815318107605,-0.42692121863365173,-0.6790506839752197
1667824539185031400,0.899031494140625,0.16811710596084595,-0.1985120326280594,-0.4303188920021057
1667824539195039500,0.90903955078125,0.27445152401924133,0.048532117158174515,-0.2168998271226883
1667824539205046500,0.919046630859375,0.359357088804245,0.27497830986976624,-0.041017208248376846
1667824539215054600,0.9290546875,0.4127880930900574,0.4456171691417694,0.09499762207269669
1667824539225062400,0.9390625,0.4278389513492584,0.5292779803276062,0.17255578935146332
1667824539235069400,0.9490693359375,0.4048367142677307,0.5623632073402405,0.18325504660606384
1667824539245077200,0.9590771484375,0.35195404291152954,0.5487112998962402,0.12498241662979126
1667824539255085600,0.96908544921875,0.3017878234386444,0.5044122934341431,0.0155517952516675
1667824539265092400,0.97909228515625,0.2772742211818695,0.447035014629364,-0.12271686643362045
1667824539275100400,0.989100341796875,0.2625506520271301,0.3553953766822815,-0.25919294357299805
1667824539285107500,0.999107421875,0.23982484638690948,0.240327388048172,-0.3745957016944885
1667824539295115500,1.009115478515625,0.20893749594688416,0.11263706535100937,-0.44555482268333435
1667824539305123300,1.019123291015625,0.18098150193691254,-0.06398750841617584,-0.46282491087913513
1667824539315130400,1.02913037109375,0.16920579969882965,-0.2619762122631073,-0.40961360931396484
1667824539325138400,1.039138427734375,0.16446590423583984,-0.44788724184036255,-0.28999853134155273
1667824539335146500,1.049146484375,0.15602022409439087,-0.5845995545387268,-0.12554647028446198
1667824539345153300,1.0591533203125,0.14267778396606445,-0.6325995326042175,0.060314472764730453
1667824539355161300,1.069161376953125,0.12431715428829193,-0.6034384965896606,0.23925040662288666
1667824539365168400,1.07916845703125,0.11544403433799744,-0.5270784497261047,0.3887290954589844
1667824539375176400,1.089176513671875,0.0977337509393692,-0.43041741847991943,0.4976870119571686
1667824539385184300,1.099184326171875,0.07899042218923569,-0.3730987310409546,0.5610713362693787
1667824539395191600,1.109191650390625,0.06175471097230911,-0.325133353471756,0.6007175445556641
1667824539405199400,1.119199462890625,0.05049220100045204,-0.2704312205314636,0.6272788047790527
1667824539415206400,1.129206298828125,0.033966489136219025,-0.19725768268108368,0.625826895236969
1667824539425214200,1.139214111328125,0.01774544082581997,-0.11253373324871063,0.5885159969329834
1667824539435222300,1.14922216796875,0.0032692966051399708,-0.021155085414648056,0.512258768081665
1667824539445229300,1.159229248046875,-0.007210774812847376,0.07027469575405121,0.4027178883552551
1667824539455237400,1.1692373046875,-0.017057813704013824,0.12537309527397156,0.2540416121482849
1667824539465245400,1.179245361328125,-0.03363386169075966,0.09795718640089035,0.11155076324939728
1667824539475252500,1.18925244140625,-0.056358613073825836,0.00012170646368758753,-0.005318865180015564
1667824539485260500,1.199260498046875,-0.08514578640460968,-0.10313144326210022,-0.09147559106349945
1667824539495267300,1.209267333984375,-0.11167539656162262,-0.17165511846542358,-0.14679236710071564
1667824539505275400,1.219275390625,-0.13724946975708008,-0.20531347393989563,-0.17568208277225494
1667824539515283500,1.229283447265625,-0.16621321439743042,-0.2197944074869156,-0.1776919662952423
1667824539525290500,1.23929052734375,-0.20794813334941864,-0.2483205944299698,-0.1692926287651062
1667824539535298300,1.24929833984375,-0.24366486072540283,-0.36784860491752625,-0.14497582614421844
1667824539545305600,1.2593056640625,-0.25715190172195435,-0.5571697950363159,-0.06321918219327927
1667824539555313400,1.2693134765625,-0.2536173462867737,-0.7287876009941101,0.07347847521305084
1667824539565321500,1.279321533203125,-0.22601528465747833,-0.8222046494483948,0.1954168975353241
1667824539575328300,1.289328369140625,-0.19140911102294922,-0.8107149600982666,0.2846969664096832
1667824539585336300,1.29933642578125,-0.1455894261598587,-0.715647280216217,0.32974275946617126
1667824539595344400,1.309344482421875,-0.11159709841012955,-0.5848962068557739,0.32393068075180054
1667824539605351400,1.319351318359375,-0.0858408734202385,-0.4742186963558197,0.2906329035758972
1667824539615359200,1.329359130859375,-0.05729098618030548,-0.3923267722129822,0.2501872181892395
1667824539625366500,1.339366455078125,-0.024600951001048088,-0.30986306071281433,0.23334483802318573
1667824539635374300,1.349374267578125,0.007528489921241999,-0.22692129015922546,0.2476864904165268
1667824539645382400,1.35938232421875,0.021252291277050972,-0.1272548884153366,0.2801158130168915
1667824539655389200,1.36938916015625,0.01894652657210827,-0.02653680182993412,0.29712435603141785
1667824539665397500,1.3793974609375,0.016324378550052643,0.03374384716153145,0.2595820426940918
1667824539675405600,1.389405517578125,0.019604593515396118,-0.004965463653206825,0.19302670657634735
1667824539685412400,1.399412353515625,0.03039385750889778,-0.10474851727485657,0.12327080219984055
1667824539695420400,1.40942041015625,0.03976312652230263,-0.23367826640605927,0.054658450186252594
1667824539705427500,1.419427490234375,0.057615891098976135,-0.34546950459480286,-0.015545403584837914
1667824539715435500,1.429435546875,0.0778718963265419,-0.4185759425163269,-0.0794556736946106
1667824539725443300,1.439443359375,0.09283512830734253,-0.4699017107486725,-0.1315939724445343
1667824539735450600,1.44945068359375,0.10415250062942505,-0.5314100980758667,-0.17264580726623535
1667824539745458400,1.45945849609375,0.11373162269592285,-0.6114495396614075,-0.19113481044769287
1667824539755465500,1.469465576171875,0.14190919697284698,-0.6845173239707947,-0.1633058339357376
1667824539765473300,1.479473388671875,0.17897987365722656,-0.7297766804695129,-0.08392685651779175
1667824539775481300,1.4894814453125,0.21550406515598297,-0.7294549942016602,0.039138082414865494
1667824539785488400,1.49948828125,0.24376259744167328,-0.6883275508880615,0.17729435861110687
1667824539795496400,1.509496337890625,0.26845940947532654,-0.6280034780502319,0.3264862298965454
1667824539805504300,1.519504150390625,0.30031800270080566,-0.5621496438980103,0.47771596908569336
1667824539815511600,1.529511474609375,0.3228483498096466,-0.48623940348625183,0.6003308296203613
1667824539825519400,1.539519287109375,0.33686405420303345,-0.41533994674682617,0.6847351789474487
1667824539835526400,1.5495263671875,0.3477473258972168,-0.36461204290390015,0.7224205136299133
1667824539845534200,1.5595341796875,0.36214515566825867,-0.3162407875061035,0.7076314687728882
1667824539855542000,1.5695419921875,0.37359195947647095,-0.27528509497642517,0.6513828039169312
1667824539865548800,1.579548828125,0.39119893312454224,-0.24764655530452728,0.5572115778923035
1667824539875556900,1.589556884765625,0.42278534173965454,-0.24820049107074738,0.43679356575012207
1667824539885565000,1.59956494140625,0.4600376486778259,-0.27223843336105347,0.3372832238674164
1667824539895572000,1.609572021484375,0.47229722142219543,-0.30528879165649414,0.28340959548950195
1667824539905579800,1.619579833984375,0.45416322350502014,-0.293490469455719,0.28203967213630676
1667824539915587000,1.629587158203125,0.4136946499347687,-0.2724613547325134,0.32988789677619934
1667824539925595000,1.639594970703125,0.3606173098087311,-0.2539273500442505,0.40185582637786865
1667824539935603000,1.64960302734375,0.31266283988952637,-0.23032242059707642,0.4778331518173218
1667824539945609700,1.659609619140625,0.2710309624671936,-0.1824459731578827,0.513155460357666
1667824539955617800,1.66961767578125,0.24831101298332214,-0.10617543756961823,0.47982147336006165
1667824539965626000,1.679626220703125,0.2413167506456375,0.0021851237397640944,0.3826344609260559
1667824539975633000,1.6896328125,0.2278595268726349,0.11489862203598022,0.23202843964099884
1667824539985641000,1.699640869140625,0.21659116446971893,0.23839393258094788,0.04503032565116882
1667824539995648000,1.70964794921875,0.21191145479679108,0.37858298420906067,-0.1901443749666214
1667824540005656000,1.719656005859375,0.2272813618183136,0.5096347332000732,-0.4701310098171234
1667824540015663900,1.729663818359375,0.24768462777137756,0.5983917713165283,-0.7718043327331543
1667824540025671000,1.7396708984375,0.26132482290267944,0.6027215719223022,-1.0681041479110718
1667824540035679000,1.749678955078125,0.2630271017551422,0.5183185338973999,-1.3091471195220947
1667824540045686000,1.75968603515625,0.25504612922668457,0.37642955780029297,-1.4611790180206299
1667824540055693800,1.76969384765625,0.22863104939460754,0.16552211344242096,-1.4987481832504272
1667824540065702000,1.779701904296875,0.1842590570449829,-0.040287502110004425,-1.4228981733322144
1667824540075709000,1.789708984375,0.13320599496364594,-0.20630790293216705,-1.241519570350647
1667824540085717000,1.799717041015625,0.07768893241882324,-0.305216908454895,-0.978194534778595
1667824540095724800,1.809724853515625,0.018514029681682587,-0.3551429212093353,-0.6716952919960022
1667824540105731800,1.81973193359375,-0.03800597041845322,-0.33701691031455994,-0.3571663796901703
1667824540115740000,1.829739990234375,-0.064732126891613,-0.2667448818683624,-0.06234167143702507
1667824540125747000,1.839746826171875,-0.06377658247947693,-0.15137115120887756,0.1858646720647812
1667824540135754800,1.849754638671875,-0.02954404428601265,-0.012591158971190453,0.38481560349464417
1667824540145762800,1.8597626953125,0.017410948872566223,0.11434441804885864,0.5271756649017334
1667824540155769900,1.869769775390625,0.06821554154157639,0.21255408227443695,0.6085333824157715
1667824540165778000,1.87977783203125,0.10682392120361328,0.26462873816490173,0.6190318465232849
1667824540175785700,1.88978564453125,0.12286467105150223,0.2826879024505615,0.5649611353874207
1667824540185793000,1.89979296875,0.10024138540029526,0.27525821328163147,0.4645301401615143
1667824540195800800,1.90980078125,0.05914374813437462,0.25088202953338623,0.3249219059944153
1667824540205807900,1.919807861328125,0.007987885735929012,0.2130286544561386,0.16857409477233887
1667824540215815700,1.929815673828125,-0.04783649742603302,0.171346977353096,0.014643923379480839
1667824540225824000,1.939823974609375,-0.10789770632982254,0.13993313908576965,-0.10534106940031052
1667824540235830800,1.949830810546875,-0.1559552401304245,0.12261193245649338,-0.18183770775794983
1667824540245838800,1.9598388671875,-0.1826678216457367,0.10512269288301468,-0.21243050694465637
1667824540255847000,1.969846923828125,-0.19259075820446014,0.06849357485771179,-0.19338251650333405
1667824540265854000,1.97985400390625,-0.18263691663742065,0.010143181309103966,-0.1344853788614273
1667824540275862000,1.989862060546875,-0.1441073715686798,-0.07113756239414215,-0.06606610119342804
1667824540285868800,1.999868896484375,-0.07204569876194,-0.17396514117717743,-0.013911021873354912
1667824540295876900,2.009876953125,0.021989455446600914,-0.2927248179912567,-0.0031047132797539234
1667824540305885000,2.019885009765625,0.09761364012956619,-0.3820648193359375,-0.01992816850543022
1667824540315892000,2.02989208984375,0.14325116574764252,-0.4446357786655426,-0.03332120552659035
1667824540325899800,2.039899658203125,0.16887184977531433,-0.4614509642124176,-0.013947507366538048
1667824540335907800,2.049907958984375,0.19410929083824158,-0.4261758029460907,0.030461236834526062
1667824540345915000,2.059914794921875,0.24011673033237457,-0.3506600260734558,0.07616107910871506
1667824540355923000,2.0699228515625,0.30189967155456543,-0.24629952013492584,0.12389185279607773
1667824540365929700,2.0799296875,0.37604713439941406,-0.14320562779903412,0.15264786779880524
1667824540375938000,2.08993798828125,0.4813336133956909,-0.04265718162059784,0.14682139456272125
1667824540385945900,2.09994580078125,0.6117430329322815,0.047448210418224335,0.08365947753190994
1667824540395953000,2.109952880859375,0.7426746487617493,0.10635839402675629,-0.026192454621195793
1667824540405960700,2.119960693359375,0.8567793965339661,0.16588030755519867,-0.175678089261055
1667824540415968800,2.12996875,0.9524273872375488,0.23279649019241333,-0.36626508831977844
1667824540425975800,2.139975830078125,1.0361624956130981,0.27678871154785156,-0.5718099474906921
1667824540435984000,2.14998388671875,1.0926648378372192,0.2886541783809662,-0.7815264463424683
1667824540445991000,2.159990966796875,1.1234185695648193,0.250152587890625,-0.9659764766693115
1667824540455999000,2.1699990234375,1.110660195350647,0.15506255626678467,-1.0835853815078735
1667824540466007000,2.180007080078125,1.051132321357727,0.024173513054847717,-1.1154314279556274
1667824540476013800,2.190013916015625,0.9655937552452087,-0.12224628031253815,-1.0707987546920776
1667824540486022000,2.20002197265625,0.8644152283668518,-0.26653048396110535,-0.9562463164329529
1667824540496030000,2.210030029296875,0.7468012571334839,-0.41234201192855835,-0.7945780754089355
1667824540506037000,2.220037109375,0.6036520600318909,-0.5390501618385315,-0.6232430934906006
1667824540516044800,2.230044921875,0.45923203229904175,-0.6373005509376526,-0.47969257831573486
1667824540526052000,2.240052001953125,0.31233978271484375,-0.6704814434051514,-0.35436901450157166
1667824540536060000,2.250059814453125,0.19261471927165985,-0.6360803246498108,-0.23841017484664917
1667824540546068000,2.26006787109375,0.09406444430351257,-0.5353654026985168,-0.12571851909160614
1667824540556074800,2.27007470703125,-0.0011763182701542974,-0.3760348856449127,-0.008927448652684689
1667824540566083000,2.2800830078125,-0.11911946535110474,-0.1898234635591507,0.09187506139278412
1667824540576091000,2.2900908203125,-0.27575886249542236,-0.029995448887348175,0.19176943600177765
1667824540586098000,2.300097900390625,-0.48141324520111084,0.09615209698677063,0.2904137074947357
1667824540596105700,2.310105712890625,-0.718777596950531,0.21003125607967377,0.3649207055568695
1667824540606113000,2.320113037109375,-0.9757875204086304,0.33728721737861633,0.3940485119819641
1667824540616120800,2.330120849609375,-1.239047884941101,0.4735417366027832,0.36449939012527466
1667824540626129000,2.34012890625,-1.508603572845459,0.5873340964317322,0.27930301427841187
1667824540636136000,2.350135986328125,-1.7551826238632202,0.6255970597267151,0.15668494999408722
1667824540646144000,2.36014404296875,-1.9274388551712036,0.5875359177589417,0.020900221541523933
1667824540656152000,2.370152099609375,-2.0030415058135986,0.4800925850868225,-0.08256305009126663
1667824540666158800,2.380158935546875,-1.9812666177749634,0.2846546471118927,-0.1167423278093338
1667824540676167000,2.3901669921875,-1.8616890907287598,0.04936595261096954,-0.06313502788543701
1667824540686174000,2.400174072265625,-1.6510584354400635,-0.1561025232076645,0.07896512001752853
1667824540696182000,2.41018212890625,-1.3709760904312134,-0.2935575842857361,0.29236793518066406
1667824540706189800,2.42018994140625,-1.0755336284637451,-0.3038800060749054,0.5638489723205566
1667824540716196900,2.43019677734375,-0.8045122027397156,-0.20561601221561432,0.8597855567932129
1667824540726205000,2.440204833984375,-0.5919421315193176,-0.03730476275086403,1.1398670673370361
1667824540736213000,2.450212890625,-0.4451495110988617,0.17177122831344604,1.3669382333755493
1667824540746219800,2.4602197265625,-0.329731822013855,0.3366621732711792,1.5019721984863281
1667824540756228000,2.47022802734375,-0.23864026367664337,0.4206753075122833,1.5315450429916382
1667824540766235000,2.48023486328125,-0.19071881473064423,0.40528252720832825,1.4661316871643066
1667824540776243000,2.490242919921875,-0.15460875630378723,0.29576826095581055,1.3288319110870361
1667824540786250800,2.500250732421875,-0.11273293942213058,0.10667984187602997,1.1335963010787964
1667824540796258000,2.510258056640625,-0.05734771117568016,-0.13204644620418549,0.8982714414596558
1667824540806265900,2.520265869140625,-0.017231451347470284,-0.3864278793334961,0.6470168232917786
1667824540816274000,2.53027392578125,0.012541624717414379,-0.6198899149894714,0.3891376256942749
1667824540826281000,2.540281005859375,0.04145210236310959,-0.7985957264900208,0.15393097698688507
1667824540836289000,2.5502890625,0.06037439405918121,-0.9067773222923279,-0.03634389117360115
1667824540846296800,2.560296875,0.06991570442914963,-0.9757156372070312,-0.15982908010482788
1667824540856304000,2.57030419921875,0.08340461552143097,-1.0205198526382446,-0.20100155472755432
1667824540866312000,2.58031201171875,0.08492447435855865,-1.0244717597961426,-0.17879584431648254
1667824540876319200,2.5903193359375,0.08175584673881531,-0.9908066987991333,-0.12358345836400986
1667824540886327000,2.6003271484375,0.07719705253839493,-0.9450703859329224,-0.0666850209236145
1667824540896335000,2.610335205078125,0.052624061703681946,-0.9079182147979736,-0.016950221732258797
1667824540906342100,2.620342041015625,-0.00881905760616064,-0.8912942409515381,0.010047574527561665
1667824540916350200,2.63035009765625,-0.10133647173643112,-0.8587514758110046,-0.007229683455079794
1667824540926358000,2.64035791015625,-0.19594553112983704,-0.7994532585144043,-0.056837715208530426
1667824540936365000,2.650364990234375,-0.29261428117752075,-0.7371659278869629,-0.11322322487831116
1667824540946372900,2.660372802734375,-0.3957987427711487,-0.6994960308074951,-0.13958746194839478
1667824540956380200,2.670380126953125,-0.49470028281211853,-0.6700393557548523,-0.11371458321809769
1667824540966388000,2.680387939453125,-0.5957653522491455,-0.6618328094482422,-0.004275971557945013
1667824540976396000,2.69039599609375,-0.6891344785690308,-0.6761640906333923,0.1766461431980133
1667824540986403000,2.700403076171875,-0.7782065868377686,-0.6886455416679382,0.41225573420524597
1667824540996411100,2.7104111328125,-0.8386720418930054,-0.6680569052696228,0.6906924247741699
1667824541006419200,2.720419189453125,-0.8844105005264282,-0.6214084029197693,0.9830092191696167
1667824541016426000,2.730426025390625,-0.8954911231994629,-0.547531008720398,1.2376444339752197
1667824541026434300,2.740434326171875,-0.8566638231277466,-0.46238893270492554,1.4231884479522705
1667824541036442000,2.750442138671875,-0.77840256690979,-0.40175649523735046,1.529174566268921
1667824541046449200,2.76044921875,-0.6593449115753174,-0.3478069603443146,1.571244478225708
1667824541056457000,2.77045703125,-0.50859534740448,-0.29212135076522827,1.555524468421936
1667824541066464300,2.78046435546875,-0.3463454246520996,-0.251872181892395,1.5102174282073975
1667824541076472000,2.79047216796875,-0.20453636348247528,-0.25928670167922974,1.4616583585739136
1667824541086480100,2.800480224609375,-0.1039477065205574,-0.2944236397743225,1.4542633295059204
1667824541096487200,2.810487060546875,-0.04176555573940277,-0.3192429840564728,1.4740769863128662
1667824541106495200,2.8204951171875,-0.004483964294195175,-0.30865156650543213,1.5029700994491577
1667824541116503000,2.8305029296875,0.017766479402780533,-0.23991459608078003,1.508608341217041
1667824541126510000,2.840510009765625,0.02310159057378769,-0.10256392508745193,1.4582157135009766
1667824541136518000,2.850517822265625,0.01750043034553528,0.0748225748538971,1.3482903242111206
1667824541146525200,2.860525146484375,0.015976302325725555,0.2820460796356201,1.1681032180786133
1667824541156533000,2.870532958984375,0.02197400853037834,0.5095058679580688,0.9268785715103149
1667824541166541000,2.880541015625,0.05727900192141533,0.7268637418746948,0.6169564127922058
1667824541176548000,2.890548095703125,0.13619166612625122,0.9037104249000549,0.2421761453151703
1667824541186556200,2.90055615234375,0.23097196221351624,0.9852780103683472,-0.18103289604187012
1667824541196564200,2.910564208984375,0.30576232075691223,0.9086524248123169,-0.6063205599784851
1667824541206571000,2.920571044921875,0.35496288537979126,0.7230048179626465,-1.002015471458435
1667824541216579000,2.9305791015625,0.3866901993751526,0.4796379804611206,-1.3262814283370972
1667824541226586000,2.940586181640625,0.3965228497982025,0.19144558906555176,-1.5408283472061157
1667824541236594200,2.95059423828125,0.38286322355270386,-0.09023109078407288,-1.6238152980804443
1667824541246602000,2.96060205078125,0.3588747978210449,-0.301488995552063,-1.5857588052749634
1667824541256609300,2.970609375,0.3353247344493866,-0.43536585569381714,-1.4285565614700317
1667824541266617000,2.9806171875,0.3202957212924957,-0.48752838373184204,-1.1914221048355103
1667824541276625200,2.990625244140625,0.33394095301628113,-0.4634840488433838,-0.920073390007019
1667824541286632000,3.0006318359375,0.39778998494148254,-0.4001260995864868,-0.653698205947876
1667824541296640300,3.01064013671875,0.4911087453365326,-0.3221777677536011,-0.4191195070743561
1667824541306647000,3.02064697265625,0.5755860805511475,-0.2340196818113327,-0.23772680759429932
1667824541316655000,3.030655029296875,0.6399799585342407,-0.14615720510482788,-0.11582593619823456
1667824541326663000,3.040662841796875,0.6802019476890564,-0.0472860224545002,-0.060859620571136475
1667824541336670200,3.050670166015625,0.7042471170425415,0.05046796798706055,-0.05650428682565689
1667824541346678000,3.060677978515625,0.6987756490707397,0.15015994012355804,-0.07877470552921295
1667824541356686000,3.07068603515625,0.6702452301979065,0.24649393558502197,-0.11838176846504211
1667824541366693000,3.080693115234375,0.612682580947876,0.3117685317993164,-0.16881351172924042
1667824541376701200,3.090701171875,0.5440049767494202,0.3595059812068939,-0.21864604949951172
1667824541386709200,3.100709228515625,0.46905431151390076,0.3984999656677246,-0.2719675898551941
1667824541396716000,3.110716064453125,0.39378511905670166,0.4296794533729553,-0.32866764068603516
1667824541406724000,3.12072412109375,0.33546480536460876,0.448154091835022,-0.38548192381858826
1667824541416731100,3.130731201171875,0.28973913192749023,0.4581361413002014,-0.43617892265319824
1667824541426739200,3.1407392578125,0.25449541211128235,0.4351799488067627,-0.47440218925476074
1667824541436747000,3.1507470703125,0.24045468866825104,0.3771611452102661,-0.5030921697616577
1667824541446754300,3.16075439453125,0.24297696352005005,0.3302580714225769,-0.5378757119178772
1667824541456762000,3.17076220703125,0.2438827008008957,0.28869277238845825,-0.5885207653045654
1667824541466770200,3.180770263671875,0.23579734563827515,0.25692713260650635,-0.6337835788726807
1667824541476777000,3.19077685546875,0.21942690014839172,0.2246679961681366,-0.6725629568099976
1667824541486785300,3.200785400390625,0.20091259479522705,0.20905281603336334,-0.7005698084831238
1667824541496792000,3.2107919921875,0.203286811709404,0.20610976219177246,-0.704216480255127
1667824541506800000,3.220800048828125,0.23986318707466125,0.19907554984092712,-0.6636741161346436
1667824541516808000,3.230807861328125,0.3134697675704956,0.1880849450826645,-0.5547828078269958
1667824541526815200,3.240815185546875,0.40955474972724915,0.193985715508461,-0.3918314278125763
1667824541536823000,3.250822998046875,0.5143405795097351,0.2141873985528946,-0.19549599289894104
1667824541546831000,3.2608310546875,0.6311106085777283,0.2627714276313782,-0.008798551745712757
1667824541556838100,3.270838134765625,0.7539843320846558,0.3387751281261444,0.12619362771511078
1667824541566846200,3.28084619140625,0.8842552304267883,0.4191914200782776,0.18882957100868225
1667824541576854000,3.29085400390625,1.0046226978302002,0.4725313186645508,0.1723448634147644
1667824541586861000,3.300861083984375,1.0879926681518555,0.45535075664520264,0.08608455210924149
1667824541596868900,3.310868896484375,1.135475993156433,0.37579867243766785,-0.02381904609501362
1667824541606876200,3.320876220703125,1.1621835231781006,0.2714264392852783,-0.1544225960969925
1667824541616884000,3.330884033203125,1.1803417205810547,0.18967725336551666,-0.29272589087486267
1667824541626892000,3.34089208984375,1.1916295289993286,0.12574194371700287,-0.4271526634693146
1667824541636899000,3.350899169921875,1.1910300254821777,0.08005914837121964,-0.5566374063491821
1667824541646907100,3.3609072265625,1.199379324913025,0.04964691400527954,-0.690618097782135
1667824541656915200,3.370915283203125,1.2198861837387085,0.04024568945169449,-0.8272289633750916
1667824541666922000,3.380921875,1.2501599788665771,0.01955639012157917,-0.9751436114311218
1667824541676930300,3.390930419921875,1.2664750814437866,-0.03891277685761452,-1.0897252559661865
1667824541686937000,3.40093701171875,1.263700008392334,-0.16186879575252533,-1.1329033374786377
1667824541696945200,3.410945068359375,1.2302043437957764,-0.3029766380786896,-1.0919219255447388
1667824541706953000,3.420952880859375,1.1665189266204834,-0.40055087208747864,-0.9416356682777405
1667824541716960300,3.430960205078125,1.0794519186019897,-0.4275659918785095,-0.6850451827049255
1667824541726968000,3.440968017578125,0.9833469390869141,-0.40167444944381714,-0.35017824172973633
1667824541736976100,3.45097607421875,0.9122679829597473,-0.34575366973876953,0.007962851785123348
1667824541746983200,3.460983154296875,0.8611128926277161,-0.29798588156700134,0.342239111661911
1667824541756991200,3.4709912109375,0.812615156173706,-0.2674325108528137,0.6131600737571716
1667824541766999000,3.4809990234375,0.733428418636322,-0.22337156534194946,0.8003185391426086
1667824541777006000,3.491006103515625,0.6124998927116394,-0.11028549820184708,0.8718011975288391
1667824541787014000,3.501013916015625,0.4776850640773773,0.07688066363334656,0.8343182802200317
1667824541797021200,3.511021240234375,0.3216171860694885,0.3399868607521057,0.7002584934234619
1667824541807029000,3.521029052734375,0.1341671198606491,0.6278908252716064,0.4787258505821228
1667824541817037000,3.531037109375,-0.0944410189986229,0.8572720885276794,0.19924625754356384
1667824541827044000,3.541044189453125,-0.34633609652519226,0.9714511036872864,-0.1027974858880043
1667824541837052200,3.55105224609375,-0.5763802528381348,0.9540321826934814,-0.39198002219200134
1667824541847060200,3.561060302734375,-0.749784529209137,0.8116894364356995,-0.6234824657440186
1667824541857067000,3.57106689453125,-0.8772207498550415,0.5487725734710693,-0.7709851264953613
1667824541867075300,3.581075439453125,-0.940689742565155,0.19141364097595215,-0.8018298745155334
1667824541877083100,3.591083251953125,-0.9348784685134888,-0.17405009269714355,-0.6989916563034058
1667824541887090200,3.601090087890625,-0.892949640750885,-0.45626208186149597,-0.48667722940444946
1667824541897098000,3.611097900390625,-0.8398089408874512,-0.6156932711601257,-0.1967167854309082
1667824541907105300,3.621105224609375,-0.7870458364486694,-0.6848111152648926,0.15163666009902954
1667824541917113000,3.631113037109375,-0.7523813247680664,-0.6581233143806458,0.5214309692382812
1667824541927121200,3.64112109375,-0.7237502336502075,-0.5739149451255798,0.8900539875030518
1667824541937128200,3.651128173828125,-0.7002733945846558,-0.4278498888015747,1.2242671251296997
1667824541947136300,3.66113623046875,-0.6672632694244385,-0.22580702602863312,1.4868143796920776
1667824541957144000,3.67114404296875,-0.6347295641899109,-0.0043867588974535465,1.6627349853515625
1667824541967151000,3.681151123046875,-0.6080098152160645,0.19754555821418762,1.753002643585205
1667824541977159000,3.691158935546875,-0.5905131101608276,0.35363635420799255,1.7516438961029053
1667824541987166200,3.701166259765625,-0.5787498950958252,0.45588043332099915,1.6589226722717285
1667824541997174000,3.711174072265625,-0.564329981803894,0.48016634583473206,1.4975924491882324
1667824542007182000,3.72118212890625,-0.535490870475769,0.37997928261756897,1.28844153881073
1667824542017189000,3.731189208984375,-0.5289937853813171,0.20774973928928375,1.0499054193496704
1667824542027197200,3.741197265625,-0.531400740146637,-0.010553575120866299,0.8088257312774658
1667824542037205200,3.751205322265625,-0.5367491841316223,-0.23800137639045715,0.576663076877594
1667824542047212000,3.7612119140625,-0.5379502773284912,-0.43696853518486023,0.3659611940383911
1667824542057220000,3.77122021484375,-0.5336447358131409,-0.5920846462249756,0.16590720415115356
1667824542067228200,3.781228271484375,-0.5138630270957947,-0.6881733536720276,-0.01673850044608116
1667824542077235200,3.791235107421875,-0.4979242980480194,-0.7515538930892944,-0.1596788763999939
1667824542087243000,3.801242919921875,-0.4881366491317749,-0.7869092226028442,-0.25557130575180054
1667824542097251000,3.8112509765625,-0.48277172446250916,-0.7885401844978333,-0.31134936213493347
1667824542107258000,3.821258056640625,-0.4685099422931671,-0.7596682906150818,-0.3425317704677582
1667824542117266200,3.83126611328125,-0.44943052530288696,-0.726328432559967,-0.37492701411247253
1667824542127273000,3.84127294921875,-0.43501484394073486,-0.6951295137405396,-0.41120192408561707
1667824542137281300,3.85128125,-0.444978266954422,-0.6496999859809875,-0.45218583941459656
1667824542147289000,3.8612890625,-0.4792480766773224,-0.5686735510826111,-0.5044516921043396
1667824542157296000,3.871296142578125,-0.49705424904823303,-0.49667128920555115,-0.550152599811554
1667824542167304000,3.881303955078125,-0.5028804540634155,-0.4654987156391144,-0.5492410063743591
1667824542177312300,3.891312255859375,-0.5222877264022827,-0.4869385063648224,-0.47804486751556396
1667824542187319000,3.901319091796875,-0.5589919090270996,-0.5475488305091858,-0.3341420292854309
1667824542197327000,3.9113271484375,-0.6007167100906372,-0.6247014403343201,-0.127522811293602
1667824542207334100,3.921334228515625,-0.6310834288597107,-0.6879104971885681,0.12091709673404694
1667824542217342200,3.93134228515625,-0.6400582790374756,-0.7450411319732666,0.39280372858047485
1667824542227350000,3.94135009765625,-0.6216302514076233,-0.7782185673713684,0.6622735857963562
1667824542237357000,3.951357177734375,-0.575847327709198,-0.7996622920036316,0.9117212295532227
1667824542247365000,3.961365234375,-0.5023779273033142,-0.809857964515686,1.1441917419433594
1667824542257373200,3.971373291015625,-0.4026627540588379,-0.7719950079917908,1.3655462265014648
1667824542267380000,3.9813798828125,-0.2993675470352173,-0.6847876310348511,1.5707592964172363
1667824542277388000,3.991387939453125,-0.1921263039112091,-0.5442990064620972,1.7542524337768555
1667824542287396000,4.00139599609375,-0.10051941871643066,-0.3814554810523987,1.9093074798583984
1667824542297403100,4.011403076171875,-0.03560273349285126,-0.23408839106559753,2.029050588607788
1667824542307411200,4.0214111328125,0.009936786256730556,-0.09310544282197952,2.072148084640503
1667824542317419000,4.0314189453125,0.047081492841243744,0.05325176939368248,2.0139999389648438
1667824542327426300,4.04142626953125,0.07742901146411896,0.20415154099464417,1.8626097440719604
1667824542337434000,4.05143408203125,0.10216818004846573,0.3546885848045349,1.598578691482544
1667824542347442200,4.061442138671875,0.12167876213788986,0.516590416431427,1.2427071332931519
1667824542357449000,4.071448974609375,0.1131337434053421,0.702258288860321,0.7770046591758728
1667824542367457000,4.08145703125,0.07812303304672241,0.8475848436355591,0.22743529081344604
1667824542377464000,4.091464111328125,0.049129463732242584,0.8821814060211182,-0.36123570799827576
1667824542387472100,4.10147216796875,0.03471137583255768,0.7793210744857788,-0.9199290871620178
1667824542397480000,4.11147998046875,0.027035612612962723,0.5703707933425903,-1.4024182558059692
1667824542407487200,4.1214873046875,0.029949376359581947,0.28349190950393677,-1.7530628442764282
1667824542417495000,4.1314951171875,0.05696581304073334,-0.04114929959177971,-1.9450883865356445
1667824542427503000,4.141503173828125,0.08835409581661224,-0.3413171172142029,-1.9510613679885864
1667824542437510000,4.151510009765625,0.13518525660037994,-0.5618007779121399,-1.791634202003479
1667824542447518200,4.161518310546875,0.16989928483963013,-0.6562579870223999,-1.4995884895324707
1667824542457525000,4.17152490234375,0.19491222500801086,-0.6429834961891174,-1.1160300970077515
1667824542467533000,4.181532958984375,0.20537179708480835,-0.5271543860435486,-0.7074567675590515
1667824542477541000,4.191541015625,0.22111214697360992,-0.31930580735206604,-0.3241381347179413
1667824542487548200,4.201548095703125,0.234516903758049,-0.06071554496884346,-0.019693011417984962
1667824542497556200,4.21155615234375,0.2484220564365387,0.23150326311588287,0.17622855305671692
1667824542507564000,4.22156396484375,0.2353677749633789,0.5029592514038086,0.27448800206184387
1667824542517571300,4.2315712890625,0.18796990811824799,0.7252373695373535,0.28097814321517944
1667824542527579100,4.2415791015625,0.1136956736445427,0.8847926259040833,0.1966094672679901
1667824542537587200,4.251587158203125,0.03526131808757782,0.972068190574646,0.03603922575712204
1667824542547594000,4.261593994140625,-0.049901511520147324,0.9914131164550781,-0.1634368598461151
1667824542557602000,4.27160205078125,-0.11965502798557281,0.9496914744377136,-0.3713921904563904
1667824542567609000,4.281609130859375,-0.17708715796470642,0.8626101016998291,-0.5485842823982239
1667824542577617200,4.2916171875,-0.23465298116207123,0.744785726070404,-0.6861000657081604
1667824542587625000,4.301625,-0.2874158024787903,0.577494204044342,-0.7766664624214172
1667824542597632300,4.31163232421875,-0.30635327100753784,0.41294601559638977,-0.8247559666633606
1667824542607640000,4.32164013671875,-0.2886451184749603,0.2925514280796051,-0.8331971168518066
1667824542617648000,4.331648193359375,-0.2350497990846634,0.21592722833156586,-0.8133919835090637
1667824542627655000,4.341655029296875,-0.167403906583786,0.158047154545784,-0.7933772802352905
1667824542637663200,4.351663330078125,-0.0971185564994812,0.12509240210056305,-0.7766051888465881
1667824542647671000,4.361671142578125,-0.037343110889196396,0.12525485455989838,-0.7478329539299011
1667824542657678000,4.371677978515625,0.015853798016905785,0.1539839804172516,-0.7132677435874939
1667824542667686000,4.381685791015625,0.07113436609506607,0.21227550506591797,-0.6478863954544067
1667824542677693200,4.391693115234375,0.11108364164829254,0.2840285301208496,-0.5512447953224182
1667824542687701000,4.401700927734375,0.1479276716709137,0.3620500862598419,-0.4372588098049164
1667824542697709000,4.411708984375,0.1877395361661911,0.43105658888816833,-0.3435176908969879
1667824542707716000,4.421716064453125,0.22866487503051758,0.4741998016834259,-0.29570701718330383
1667824542717724200,4.43172412109375,0.2609599530696869,0.4988023340702057,-0.31301116943359375
1667824542727732200,4.441732177734375,0.28943660855293274,0.5005642771720886,-0.37456056475639343
1667824542737739000,4.451739013671875,0.34435126185417175,0.4723302721977234,-0.4669820964336395
1667824542747747000,4.4617470703125,0.4234655201435089,0.4028230905532837,-0.5630353689193726
1667824542757755100,4.471755126953125,0.4944954812526703,0.3002642095088959,-0.6357189416885376
1667824542767762200,4.48176220703125,0.5440212488174438,0.19748111069202423,-0.677316427230835
1667824542777770000,4.49177001953125,0.5634670853614807,0.09614011645317078,-0.6869983673095703
1667824542787777300,4.50177734375,0.5683417320251465,-0.004267715383321047,-0.6706342697143555
1667824542797785000,4.51178515625,0.5714768171310425,-0.11486773192882538,-0.6297609210014343
1667824542807793200,4.521793212890625,0.5660274624824524,-0.21673257648944855,-0.5691981911659241
1667824542817800000,4.531800048828125,0.5543340444564819,-0.3104332387447357,-0.4944342374801636
1667824542827808300,4.541808349609375,0.5463128685951233,-0.39767172932624817,-0.38807475566864014
1667824542837816000,4.551816162109375,0.5459823608398438,-0.468256413936615,-0.2543039321899414
1667824542847823000,4.561822998046875,0.5464683771133423,-0.5200104117393494,-0.10276845842599869
1667824542857831000,4.571830810546875,0.5448697209358215,-0.5474806427955627,0.05169834941625595
1667824542867839200,4.581839111328125,0.5494697690010071,-0.5423663258552551,0.18962745368480682
1667824542877846500,4.591846435546875,0.548127293586731,-0.48347237706184387,0.28186389803886414
1667824542887854300,4.601854248046875,0.5212677121162415,-0.41138941049575806,0.30773571133613586
1667824542897861400,4.611861328125,0.45465511083602905,-0.327414870262146,0.2665286362171173
1667824542907869400,4.621869384765625,0.345382422208786,-0.2483280450105667,0.16220276057720184
1667824542917877500,4.63187744140625,0.19448745250701904,-0.17060528695583344,0.010118946433067322
1667824542927884300,4.64188427734375,0.013038037344813347,-0.10654854774475098,-0.16773493587970734
1667824542937892400,4.651892333984375,-0.2022969126701355,-0.07403267920017242,-0.3311086893081665
1667824542947900400,4.661900390625,-0.4357360303401947,-0.07794006913900375,-0.4361805021762848
1667824542957907500,4.671907470703125,-0.632415771484375,-0.11356997489929199,-0.4560285210609436
1667824542967915300,4.681915283203125,-0.771314799785614,-0.1881890743970871,-0.37256479263305664
1667824542977922600,4.691922607421875,-0.8445658683776855,-0.2871204614639282,-0.19513221085071564
1667824542987930400,4.701930419921875,-0.8769949078559875,-0.37616750597953796,0.06723975390195847
1667824542997938400,4.7119384765625,-0.8738254904747009,-0.4242980182170868,0.37913745641708374
1667824543007945200,4.7219453125,-0.8276273608207703,-0.42034587264060974,0.7082333564758301
1667824543017953300,4.731953369140625,-0.7698402404785156,-0.37780696153640747,1.0284088850021362
1667824543027961600,4.741961669921875,-0.71549391746521,-0.2936771512031555,1.3237957954406738
1667824543037968400,4.751968505859375,-0.6809279322624207,-0.19742652773857117,1.568321704864502
1667824543047976400,4.7619765625,-0.6655727028846741,-0.09058689326047897,1.748311161994934
1667824543057983500,4.7719833984375,-0.6605108380317688,0.030772559344768524,1.8507283926010132
1667824543067991600,4.781991455078125,-0.6669748425483704,0.15679360926151276,1.8702807426452637
1667824543077999400,4.791999267578125,-0.6591683030128479,0.2900017201900482,1.814130187034607
1667824543088006400,4.80200634765625,-0.6401270031929016,0.41492581367492676,1.686895728111267
1667824543098014500,4.812014404296875,-0.5960149168968201,0.5018167495727539,1.521826148033142
1667824543108022500,4.8220224609375,-0.5289501547813416,0.5143498778343201,1.3326231241226196
1667824543118029300,4.832029296875,-0.4557313024997711,0.469221830368042,1.1348621845245361
1667824543128037400,4.842037353515625,-0.3956916630268097,0.3890654742717743,0.947939932346344
1667824543138045200,4.852045166015625,-0.35189998149871826,0.2824660539627075,0.7933596968650818
1667824543148052500,4.862052490234375,-0.31356751918792725,0.17264820635318756,0.6600865721702576
1667824543158060300,4.872060302734375,-0.2824053168296814,0.05555833503603935,0.547609269618988
1667824543168067300,4.8820673828125,-0.2726925015449524,-0.07997259497642517,0.44855567812919617
1667824543178075400,4.892075439453125,-0.268566757440567,-0.22742995619773865,0.3654370903968811
1667824543188083500,4.90208349609375,-0.2580299377441406,-0.35962367057800293,0.29401376843452454
1667824543198090200,4.91209033203125,-0.23531505465507507,-0.4697893261909485,0.22730852663516998
1667824543208098300,4.922098388671875,-0.1986696869134903,-0.5192796587944031,0.17340347170829773
1667824543218106600,4.932106689453125,-0.16331888735294342,-0.529375433921814,0.12520772218704224
1667824543228113400,4.942113525390625,-0.14045298099517822,-0.4955298602581024,0.07422762364149094
1667824543238121500,4.95212158203125,-0.1304224580526352,-0.424874871969223,0.0065678879618644714
1667824543248129300,4.96212939453125,-0.12357600033283234,-0.3377053439617157,-0.08671492338180542
1667824543258136600,4.972136474609375,-0.12281832844018936,-0.26179006695747375,-0.20285990834236145
1667824543268144400,4.982144287109375,-0.10345874726772308,-0.2290867120027542,-0.3384190499782562
1667824543278152400,4.99215234375,-0.0721045508980751,-0.2277548611164093,-0.49496206641197205
1667824543288159500,5.002159423828125,-0.0397719144821167,-0.26121455430984497,-0.6559799909591675
1667824543298167600,5.01216748046875,-0.0256880521774292,-0.2962002456188202,-0.7996423244476318
1667824543308174300,5.02217431640625,-0.0388837493956089,-0.34640082716941833,-0.9184558391571045
1667824543318182400,5.032182373046875,-0.0798996239900589,-0.41977065801620483,-0.9726860523223877
1667824543328190200,5.042190185546875,-0.13026106357574463,-0.5178452730178833,-0.9385213851928711
1667824543338197500,5.052197509765625,-0.1847994029521942,-0.6048943996429443,-0.8027121424674988
1667824543348205300,5.062205322265625,-0.22469569742679596,-0.6510621905326843,-0.5933360457420349
1667824543358213400,5.07221337890625,-0.2513155937194824,-0.6187231540679932,-0.3238787353038788
1667824543368220400,5.082220458984375,-0.2703228294849396,-0.5306825041770935,-0.009189503267407417
1667824543378228500,5.092228515625,-0.26498186588287354,-0.39927440881729126,0.3226081430912018
1667824543388236300,5.102236328125,-0.21242916584014893,-0.24083764851093292,0.6466674208641052
1667824543398243300,5.112243408203125,-0.13017317652702332,-0.06938546895980835,0.9266759157180786
1667824543408251400,5.12225146484375,-0.052435778081417084,0.07090559601783752,1.1327781677246094
1667824543418258400,5.132258544921875,0.002133458387106657,0.17372918128967285,1.2787079811096191
1667824543428266200,5.142266357421875,0.019212044775485992,0.24274899065494537,1.3526866436004639
1667824543438274300,5.1522744140625,0.015545936301350594,0.3103157877922058,1.3663222789764404
1667824543448281300,5.16228125,0.0021904499735683203,0.39660966396331787,1.3105868101119995
1667824543458289400,5.172289306640625,-0.01275813952088356,0.49037662148475647,1.1816130876541138
1667824543468297500,5.18229736328125,-0.03130678832530975,0.5958282351493835,0.9819149374961853
1667824543478304500,5.192304443359375,-0.04446680098772049,0.6951489448547363,0.720646858215332
1667824543488312600,5.2023125,-0.06770234555006027,0.7731180787086487,0.4165985584259033
1667824543498319400,5.2123193359375,-0.09348014742136002,0.802087128162384,0.10294129699468613
1667824543508327400,5.222327392578125,-0.10402200371026993,0.7645525336265564,-0.19440330564975739
1667824543518335200,5.232335205078125,-0.09077783674001694,0.6986006498336792,-0.444303959608078
1667824543528342500,5.242342529296875,-0.04023876413702965,0.6214467883110046,-0.628364086151123
1667824543538350300,5.252350341796875,0.022946327924728394,0.5092741847038269,-0.7483117580413818
1667824543548358400,5.2623583984375,0.08245439827442169,0.3626202642917633,-0.815244734287262
1667824543558365400,5.272365478515625,0.14111904799938202,0.20281915366649628,-0.8450561761856079
1667824543568373500,5.28237353515625,0.1982254683971405,0.06697530299425125,-0.8497646450996399
1667824543578381300,5.29238134765625,0.24393384158611298,-0.013530190102756023,-0.8467222452163696
1667824543588388400,5.302388427734375,0.26303350925445557,-0.04867992177605629,-0.8280462622642517
1667824543598396400,5.312396484375,0.25925472378730774,-0.056286975741386414,-0.7979245781898499
1667824543608403500,5.322403564453125,0.24056360125541687,-0.038693867623806,-0.7634686231613159
1667824543618411300,5.332411376953125,0.2002667784690857,-0.0021672805305570364,-0.7202548384666443
1667824543628419300,5.34241943359375,0.16419106721878052,0.061473481357097626,-0.6864126920700073
1667824543638426400,5.35242626953125,0.1357322633266449,0.13901114463806152,-0.666035532951355
1667824543648434400,5.362434326171875,0.11624804884195328,0.21605320274829865,-0.6459012627601624
1667824543658442500,5.3724423828125,0.09994444251060486,0.2604544758796692,-0.635919451713562
1667824543668449300,5.38244921875,0.10436342656612396,0.28483492136001587,-0.6379887461662292
1667824543678457600,5.39245751953125,0.1133265569806099,0.2802737355232239,-0.6485777497291565
1667824543688465400,5.40246533203125,0.12492089718580246,0.2592001259326935,-0.667605459690094
1667824543698472400,5.412472412109375,0.13188906013965607,0.22429728507995605,-0.689276397228241
1667824543708480300,5.422480224609375,0.138993039727211,0.18952172994613647,-0.7034060955047607
1667824543718488600,5.432488525390625,0.15159058570861816,0.14161811769008636,-0.6913909912109375
1667824543728495400,5.442495361328125,0.1721334159374237,0.07425558567047119,-0.651095449924469
1667824543738503400,5.45250341796875,0.20156027376651764,0.0016586167039349675,-0.5839113593101501
1667824543748510500,5.462510498046875,0.23204441368579865,-0.04837152734398842,-0.5094083547592163
1667824543758518500,5.4725185546875,0.2777136266231537,-0.08851148933172226,-0.4261438548564911
1667824543768526300,5.4825263671875,0.35382279753685,-0.10574906319379807,-0.33775272965431213
1667824543778533400,5.492533447265625,0.4337106943130493,-0.08834370970726013,-0.2548655867576599
1667824543788541400,5.50254150390625,0.5156122446060181,-0.04598826542496681,-0.19822067022323608
1667824543798549500,5.512549560546875,0.5974964499473572,0.021819544956088066,-0.16356736421585083
1667824543808556300,5.522556396484375,0.6761296987533569,0.1100521981716156,-0.16172285377979279
1667824543818564400,5.532564453125,0.73222815990448,0.1759268194437027,-0.16947025060653687
1667824543828572400,5.542572509765625,0.7533379793167114,0.1802467405796051,-0.17647810280323029
1667824543838579500,5.552579345703125,0.7469655275344849,0.13823643326759338,-0.1808624565601349
1667824543848587500,5.56258740234375,0.7353405952453613,0.092445507645607,-0.18401430547237396
1667824543858594300,5.57259423828125,0.7292914986610413,0.06962408870458603,-0.1996997892856598
1667824543868606000,5.58260595703125,0.7339299321174622,0.09734519571065903,-0.24773816764354706
1667824543878614000,5.592614013671875,0.7576519846916199,0.1600743532180786,-0.34330302476882935
1667824543888620800,5.602620849609375,0.809485673904419,0.2369997650384903,-0.49536260962486267
1667824543898628900,5.61262890625,0.8849311470985413,0.28174832463264465,-0.6945455074310303
1667824543908637000,5.622636962890625,0.9523892998695374,0.25505945086479187,-0.904379665851593
1667824543918644000,5.63264404296875,0.9778261780738831,0.17768050730228424,-1.074456810951233
1667824543928651800,5.64265185546875,0.969007670879364,0.044564004987478256,-1.1434444189071655
1667824543938659800,5.652659912109375,0.9298988580703735,-0.07486944645643234,-1.0951619148254395
1667824543948667000,5.6626669921875,0.8671748042106628,-0.13101181387901306,-0.9631585478782654
1667824543958675000,5.672675048828125,0.779982328414917,-0.11200562864542007,-0.7800838351249695
1667824543968681700,5.682681640625,0.6727994680404663,-0.05618763715028763,-0.5926476120948792
1667824543978689800,5.692689697265625,0.550961971282959,-0.00017070861940737814,-0.440538227558136
1667824543988698000,5.702697998046875,0.41410744190216064,0.044980257749557495,-0.32309576869010925
1667824543998705000,5.712704833984375,0.2688879072666168,0.0741591826081276,-0.22313427925109863
1667824544008713000,5.722712890625,0.12648816406726837,0.1066710501909256,-0.1116410419344902
1667824544018720800,5.732720703125,0.0014210627414286137,0.14762407541275024,0.02977813594043255
1667824544028728000,5.74272802734375,-0.11590582877397537,0.20649777352809906,0.19833092391490936
1667824544038736000,5.75273583984375,-0.24552933871746063,0.28377047181129456,0.3646368086338043
1667824544048743000,5.762742919921875,-0.3923472762107849,0.389504075050354,0.4701707065105438
1667824544058751000,5.7727509765625,-0.5400363206863403,0.5062980651855469,0.47563204169273376
1667824544068759000,5.782759033203125,-0.6813106536865234,0.5863284468650818,0.3980666697025299
1667824544078765800,5.792765869140625,-0.8111751675605774,0.5862131714820862,0.24828703701496124
1667824544088774000,5.80277392578125,-0.9002757668495178,0.5193177461624146,0.05417908355593681
1667824544098782000,5.812781982421875,-0.9528595805168152,0.3980821371078491,-0.1384715884923935
1667824544108789000,5.8227890625,-0.9807093143463135,0.2429407387971878,-0.31010672450065613
1667824544118796800,5.832796875,-0.9674390554428101,0.0549953430891037,-0.4253630042076111
1667824544128804900,5.842804931640625,-0.9141060709953308,-0.15287476778030396,-0.46230825781822205
1667824544138812000,5.85281201171875,-0.8257133364677429,-0.33917325735092163,-0.39888080954551697
1667824544148820000,5.862820068359375,-0.725867748260498,-0.46120649576187134,-0.24905402958393097
1667824544158826800,5.87282666015625,-0.6240593194961548,-0.5193992257118225,-0.030248716473579407
1667824544168834800,5.882834716796875,-0.5625379085540771,-0.4922858476638794,0.23184175789356232
1667824544178843000,5.8928427734375,-0.5172609686851501,-0.38908302783966064,0.5008103847503662
1667824544188850000,5.902849853515625,-0.4711286425590515,-0.2125663310289383,0.7468954920768738
1667824544198857700,5.912857666015625,-0.42546209692955017,-0.008649680763483047,0.9590458273887634
1667824544208865800,5.92286572265625,-0.3879104554653168,0.17368869483470917,1.1071923971176147
1667824544218872800,5.932872802734375,-0.3483846187591553,0.3084137737751007,1.1816565990447998
1667824544228881000,5.942880859375,-0.3143499493598938,0.3886590600013733,1.1791644096374512
1667824544238889000,5.952888916015625,-0.28673189878463745,0.41818472743034363,1.1152749061584473
1667824544248896000,5.96289599609375,-0.2595551311969757,0.3940354585647583,1.015105128288269
1667824544258904000,5.972904052734375,-0.21990066766738892,0.32878509163856506,0.8766545653343201
1667824544268911900,5.982911865234375,-0.1761646419763565,0.23540852963924408,0.7102853059768677
1667824544278919000,5.9929189453125,-0.13299426436424255,0.11259765177965164,0.5321462154388428
1667824544288926700,6.0029267578125,-0.10735468566417694,-0.019631491973996162,0.35505902767181396
1667824544298934000,6.01293408203125,-0.09900248050689697,-0.15889084339141846,0.18947671353816986
1667824544308941800,6.02294189453125,-0.11917166411876678,-0.2766941785812378,0.041908569633960724
1667824544318950000,6.032949951171875,-0.1572548747062683,-0.3543551564216614,-0.10485024750232697
1667824544328957000,6.04295703125,-0.19631172716617584,-0.3629553020000458,-0.25641393661499023
1667824544338965000,6.052965087890625,-0.2252618819475174,-0.3408989906311035,-0.4225784242153168
1667824544348972800,6.062972900390625,-0.24443531036376953,-0.30385497212409973,-0.6042746901512146
1667824544358979800,6.072979736328125,-0.2560075521469116,-0.2709105908870697,-0.7794857025146484
1667824544368988000,6.08298779296875,-0.25643259286880493,-0.277505099773407,-0.9322371482849121
1667824544378996000,6.092995849609375,-0.26658108830451965,-0.33335933089256287,-1.0307368040084839
1667824544389002800,6.103002685546875,-0.2897697687149048,-0.4614669680595398,-1.042305588722229
1667824544399010800,6.1130107421875,-0.3308016359806061,-0.6289443969726562,-0.9461023807525635
1667824544409017900,6.123017822265625,-0.38558924198150635,-0.7616472840309143,-0.7566463947296143
1667824544419026000,6.13302587890625,-0.4373355209827423,-0.8318415284156799,-0.5125831365585327
1667824544429034000,6.143033935546875,-0.48292991518974304,-0.8169334530830383,-0.2311924695968628
1667824544439041000,6.153041015625,-0.5320319533348083,-0.7203230261802673,0.061380535364151
1667824544449049000,6.163049072265625,-0.5756561160087585,-0.5613216757774353,0.34006649255752563
1667824544459057000,6.173056884765625,-0.5834096670150757,-0.3739733397960663,0.5777496099472046
1667824544469064000,6.18306396484375,-0.5593439936637878,-0.18210215866565704,0.7667062282562256
1667824544479071700,6.19307177734375,-0.499484121799469,-0.024885110557079315,0.9019415378570557
1667824544489080000,6.203080078125,-0.4130405783653259,0.08712371438741684,0.9859645366668701
1667824544499086800,6.2130869140625,-0.3183625340461731,0.16945746541023254,1.0220128297805786
1667824544509095000,6.223094970703125,-0.21568861603736877,0.23199835419654846,1.0289826393127441
1667824544519102000,6.23310205078125,-0.11227034777402878,0.3157680928707123,1.0230059623718262
1667824544529110000,6.243110107421875,-0.01317971758544445,0.4162054657936096,1.011164665222168
1667824544539117800,6.253117919921875,0.0631432831287384,0.5453176498413086,1.0162185430526733
1667824544549124900,6.263124755859375,0.10418925434350967,0.710642397403717,1.0212503671646118
1667824544559133000,6.2731328125,0.12053653597831726,0.9262623190879822,1.0226924419403076
1667824544569141000,6.28314111328125,0.12103108316659927,1.199874997138977,1.0046641826629639
1667824544579147800,6.293147705078125,0.10128667205572128,1.4956903457641602,0.9574061632156372
1667824544589155800,6.30315576171875,0.057849984616041183,1.7579795122146606,0.8517271280288696
1667824544599163000,6.313162841796875,0.016445286571979523,1.9001715183258057,0.6856164336204529
1667824544609171000,6.3231708984375,0.00032890037982724607,1.9041212797164917,0.47155794501304626
1667824544619179000,6.333178955078125,0.01770203188061714,1.7936546802520752,0.22040294110774994
1667824544629185800,6.343185791015625,0.04807911068201065,1.5760473012924194,-0.04668334871530533
1667824544639194000,6.353194091796875,0.07181639969348907,1.276610255241394,-0.305856317281723
1667824544649202000,6.363201904296875,0.07966393232345581,0.9842830300331116,-0.5658956170082092
1667824544659209000,6.373208984375,0.06623148173093796,0.7335474491119385,-0.8268031477928162
1667824544669216800,6.383216796875,0.052452024072408676,0.5336673855781555,-1.0692557096481323
1667824544679225000,6.39322509765625,0.05825585126876831,0.3815750479698181,-1.2513450384140015
1667824544689232000,6.40323193359375,0.09699339419603348,0.2720395028591156,-1.3681057691574097
1667824544699240000,6.413239990234375,0.15101587772369385,0.19478918612003326,-1.4286527633666992
1667824544709247000,6.4232470703125,0.21901863813400269,0.12450544536113739,-1.4420205354690552
1667824544719255000,6.433255126953125,0.2957054078578949,0.06036959961056709,-1.4019705057144165
1667824544729262800,6.443262939453125,0.36387622356414795,-0.0013395700370892882,-1.3203630447387695
1667824544739270000,6.453269775390625,0.4177738130092621,-0.06539658457040787,-1.2056587934494019
1667824544749278000,6.46327783203125,0.4558383524417877,-0.08343390375375748,-1.0878381729125977
1667824544759286000,6.4732861328125,0.46663403511047363,-0.06343516707420349,-0.9685797095298767
1667824544769292800,6.483292724609375,0.4458602964878082,-0.00478330347687006,-0.8631536960601807
1667824544779300900,6.49330078125,0.4134288728237152,0.056355949491262436,-0.7705579400062561
1667824544789308700,6.50330859375,0.3765416741371155,0.11358461529016495,-0.6932842135429382
1667824544799316000,6.51331591796875,0.3474850058555603,0.16647766530513763,-0.6329710483551025
1667824544809323800,6.52332373046875,0.32758238911628723,0.2145565003156662,-0.5906004309654236
1667824544819331800,6.533331787109375,0.32015830278396606,0.23688311874866486,-0.5706051588058472
1667824544829339000,6.5433388671875,0.31560084223747253,0.23635314404964447,-0.566656231880188
1667824544839347000,6.553346923828125,0.31352943181991577,0.22397184371948242,-0.5793470144271851
1667824544849353700,6.563353759765625,0.3339952826499939,0.20650523900985718,-0.5959781408309937
1667824544859361800,6.57336181640625,0.37302258610725403,0.1906501054763794,-0.6023167371749878
1667824544869366500,6.583366455078125,0.41514527797698975,0.16132177412509918,-0.5814580917358398
1667824544879373600,6.59337353515625,0.431755930185318,0.13462865352630615,-0.5353512763977051
1667824544889381600,6.603381591796875,0.42636916041374207,0.08777326345443726,-0.4746924936771393
1667824544899389700,6.6133896484375,0.3961731791496277,0.028250280767679214,-0.4027916491031647
1667824544909396700,6.623396728515625,0.36254942417144775,-0.0314311608672142,-0.331336110830307
1667824544919404800,6.63340478515625,0.33631595969200134,-0.07335011661052704,-0.2804715931415558
1667824544929412600,6.64341259765625,0.3116353750228882,-0.12026089429855347,-0.26770201325416565
1667824544939419600,6.653419677734375,0.30193614959716797,-0.17639926075935364,-0.2792856991291046
1667824544949427700,6.663427734375,0.31643280386924744,-0.23037168383598328,-0.3125797510147095
1667824544959434800,6.673434814453125,0.3599112927913666,-0.25219282507896423,-0.36693698167800903
1667824544969442600,6.683442626953125,0.4221653640270233,-0.227102130651474,-0.42072218656539917
1667824544979450600,6.69345068359375,0.48388758301734924,-0.16284963488578796,-0.46561136841773987
1667824544989457700,6.703457763671875,0.5310583114624023,-0.05535513535141945,-0.5029875040054321
1667824544999465700,6.7134658203125,0.5732912421226501,0.08980445563793182,-0.5407854914665222
1667824545009473500,6.7234736328125,0.6113544702529907,0.2386740893125534,-0.6013936996459961
1667824545019480800,6.733480712890625,0.6468203067779541,0.3220480680465698,-0.6953675746917725
1667824545029488600,6.743488525390625,0.668346643447876,0.33063358068466187,-0.8129128813743591
1667824545039496700,6.75349658203125,0.6996366381645203,0.2509304881095886,-0.9363645315170288
1667824545049503500,6.76350341796875,0.7399550676345825,0.12423086911439896,-1.0527044534683228
1667824545059511600,6.773511474609375,0.7889835834503174,-0.036854419857263565,-1.129643201828003
1667824545069518600,6.7835185546875,0.8440561294555664,-0.19554926455020905,-1.142717719078064
1667824545079526700,6.793526611328125,0.9211267232894897,-0.31717637181282043,-1.09955632686615
1667824545089534700,6.80353466796875,0.985824704170227,-0.4178544878959656,-0.9797378182411194
1667824545099541800,6.813541748046875,1.0125393867492676,-0.5017355680465698,-0.7644039392471313
1667824545109549800,6.8235498046875,1.00023353099823,-0.5667710304260254,-0.49184590578079224
1667824545119557600,6.8335576171875,0.9587105512619019,-0.6102684140205383,-0.19699162244796753
1667824545129564700,6.843564697265625,0.8993553519248962,-0.6448186635971069,0.08154359459877014
1667824545139572700,6.85357275390625,0.8272489309310913,-0.6650770902633667,0.3129616379737854
1667824545149580800,6.863580810546875,0.7232809662818909,-0.6407293677330017,0.4809138774871826
1667824545159587600,6.873587646484375,0.5734715461730957,-0.5132552981376648,0.5815930962562561
1667824545169595600,6.883595703125,0.386213481426239,-0.3097514510154724,0.6236518621444702
1667824545179602700,6.893602783203125,0.14259043335914612,-0.011938950978219509,0.6049261093139648
1667824545189610800,6.90361083984375,-0.1603103131055832,0.30522409081459045,0.5125863552093506
1667824545199618600,6.91361865234375,-0.48431074619293213,0.5390973091125488,0.3587339222431183
1667824545209625600,6.92362548828125,-0.7607434391975403,0.642127275466919,0.14008520543575287
1667824545219633700,6.933633544921875,-0.922380268573761,0.557018518447876,-0.11108923703432083
1667824545229641700,6.943641845703125,-0.9712638854980469,0.32471710443496704,-0.3460562229156494
1667824545239648500,6.9536484375,-0.9393741488456726,0.004151335451751947,-0.534151554107666
1667824545249656600,6.963656494140625,-0.8717525005340576,-0.32041528820991516,-0.6174216866493225
1667824545259664600,6.97366455078125,-0.7981815934181213,-0.5632646679878235,-0.5740838050842285
1667824545269671700,6.983671630859375,-0.7394618391990662,-0.7188913226127625,-0.4199962019920349
1667824545279679500,6.993679443359375,-0.7123441696166992,-0.75315260887146,-0.16691787540912628
1667824545289686800,7.003686767578125,-0.7163066864013672,-0.6805928945541382,0.13867825269699097
1667824545299694600,7.013694580078125,-0.7345975637435913,-0.5320167541503906,0.48085635900497437
1667824545309702700,7.02370263671875,-0.7503131628036499,-0.31360453367233276,0.8285565376281738
1667824545319709400,7.03370947265625,-0.7505632042884827,-0.04186968505382538,1.1210360527038574
1667824545329717800,7.0437177734375,-0.7237616777420044,0.21790596842765808,1.3241676092147827
1667824545339725800,7.053725830078125,-0.6924639344215393,0.4327367842197418,1.428221344947815
1667824545349732600,7.063732666015625,-0.6612751483917236,0.5732241272926331,1.4349501132965088
1667824545359740700,7.07374072265625,-0.6308764815330505,0.634951114654541,1.3559201955795288
1667824545369748500,7.08374853515625,-0.5922651886940002,0.6368486285209656,1.2041094303131104
1667824545379755800,7.093755859375,-0.5496248006820679,0.5982964634895325,1.000325083732605
1667824545389763600,7.103763671875,-0.4936975836753845,0.523246169090271,0.7674886584281921
1667824545399770600,7.1137705078125,-0.4330134689807892,0.41364243626594543,0.5591932535171509
1667824545409778700,7.12377880859375,-0.3774343729019165,0.2815752327442169,0.3826485872268677
1667824545419786800,7.133786865234375,-0.3372717797756195,0.14705149829387665,0.2615983188152313
1667824545429793500,7.14379345703125,-0.3089354634284973,0.022237394005060196,0.19243869185447693
1667824545439801600,7.153801513671875,-0.2963238060474396,-0.09972899407148361,0.1752953827381134
1667824545449809700,7.1638095703125,-0.2985219657421112,-0.22190417349338531,0.18953664600849152
1667824545459816700,7.173816650390625,-0.3090353310108185,-0.33576148748397827,0.2048516869544983
1667824545469824500,7.183824462890625,-0.30102428793907166,-0.41319769620895386,0.19579772651195526
1667824545479832600,7.19383251953125,-0.27034732699394226,-0.4578791558742523,0.14245355129241943
1667824545489839600,7.203839599609375,-0.22671890258789062,-0.5086118578910828,0.046599727123975754
1667824545499847700,7.21384765625,-0.18232347071170807,-0.5676687359809875,-0.08207356184720993
1667824545509855700,7.223855712890625,-0.1460815817117691,-0.6216060519218445,-0.22192440927028656
1667824545519862500,7.233862548828125,-0.11146101355552673,-0.6595017313957214,-0.35502201318740845
1667824545529870800,7.243870849609375,-0.0755767822265625,-0.6857829093933105,-0.46993979811668396
1667824545539877600,7.253877685546875,-0.052326053380966187,-0.7398338913917542,-0.5244019627571106
1667824545549885700,7.2638857421875,-0.07411310821771622,-0.7883550524711609,-0.49760526418685913
1667824545559893500,7.2738935546875,-0.12613342702388763,-0.8228328824043274,-0.3668358027935028
1667824545569900800,7.28390087890625,-0.2055656760931015,-0.8448129892349243,-0.14081144332885742
1667824545579908600,7.29390869140625,-0.2932497262954712,-0.8414518237113953,0.1457958221435547
1667824545589916700,7.303916748046875,-0.361108660697937,-0.7947125434875488,0.4632057249546051
1667824545599923700,7.313923828125,-0.38834428787231445,-0.7224380970001221,0.7697699069976807
1667824545609931800,7.323931884765625,-0.37579652667045593,-0.6348219513893127,1.0372886657714844
1667824545619939600,7.333939697265625,-0.32787400484085083,-0.5503824353218079,1.2591094970703125
1667824545629946600,7.343946533203125,-0.2524953782558441,-0.47459155321121216,1.4622138738632202
1667824545639954700,7.35395458984375,-0.15403243899345398,-0.40141692757606506,1.6244914531707764
1667824545649961700,7.363961669921875,-0.050096191465854645,-0.32161131501197815,1.7368124723434448
1667824545659969500,7.373969482421875,0.042402852326631546,-0.23055890202522278,1.8163455724716187
1667824545669977600,7.3839775390625,0.11588745564222336,-0.14990507066249847,1.8613210916519165
1667824545679984600,7.393984619140625,0.16753679513931274,-0.08556549996137619,1.8803025484085083
1667824545689992700,7.40399267578125,0.20523783564567566,-0.04019429162144661,1.867998719215393
1667824545700000800,7.414000732421875,0.22200722992420197,-0.035596344619989395,1.819077968597412
1667824545710007600,7.424007568359375,0.21382972598075867,-0.054433148354291916,1.720164179801941
1667824545720015600,7.434015625,0.1874934583902359,-0.07215701788663864,1.5756864547729492
1667824545730023700,7.444023681640625,0.1558588445186615,-0.041967157274484634,1.3787903785705566
1667824545740030500,7.454030517578125,0.1351706087589264,0.05612931400537491,1.137117862701416
1667824545750038500,7.46403857421875,0.13811899721622467,0.21003472805023193,0.8609269857406616
1667824545760045600,7.474045654296875,0.16525153815746307,0.3831593692302704,0.5648292899131775
1667824545770053600,7.4840537109375,0.20871193706989288,0.5494971871376038,0.2330838441848755
1667824545780061700,7.494061767578125,0.2673685848712921,0.6578401923179626,-0.1369735598564148
1667824545790068700,7.50406884765625,0.32738131284713745,0.6515799164772034,-0.5266401171684265
1667824545800076800,7.514076904296875,0.3765600621700287,0.5070757269859314,-0.8976706266403198
1667824545810084600,7.524084716796875,0.4119342863559723,0.26238927245140076,-1.214609146118164
1667824545820091600,7.534091552734375,0.418527215719223,-0.048830922693014145,-1.432770848274231
1667824545830099500,7.544099365234375,0.41338199377059937,-0.4009423553943634,-1.5082889795303345
1667824545840107800,7.554107666015625,0.3992224931716919,-0.721694827079773,-1.426788568496704
1667824545850114600,7.564114501953125,0.3815569579601288,-0.9532026052474976,-1.1974555253982544
1667824545860122600,7.57412255859375,0.3701897859573364,-1.100667953491211,-0.8543564677238464
1667824545870133200,7.58413330078125,0.3589128851890564,-1.1519575119018555,-0.42605969309806824
1667824545880141300,7.594141357421875,0.3571791648864746,-1.1026214361190796,0.040289632976055145
1667824545890149000,7.604149169921875,0.3690371513366699,-0.965644121170044,0.49819061160087585
1667824545900156200,7.61415625,0.39098718762397766,-0.7633035182952881,0.9044185280799866
1667824545910164200,7.624164306640625,0.4234127700328827,-0.5187707543373108,1.2074979543685913
1667824545920172300,7.63417236328125,0.45470091700553894,-0.2546570599079132,1.3821710348129272
1667824545930179000,7.644178955078125,0.4822870194911957,0.0031577101908624172,1.4422247409820557
1667824545940187100,7.654187255859375,0.49794694781303406,0.23482689261436462,1.3918014764785767
1667824545950195200,7.6641953125,0.500762403011322,0.4268043041229248,1.2357999086380005
1667824545960202200,7.6742021484375,0.4819338917732239,0.5653288960456848,1.001868724822998
1667824545970210000,7.6842099609375,0.44583767652511597,0.634422779083252,0.7128430008888245
1667824545980218000,7.694218017578125,0.38896745443344116,0.6540302634239197,0.40941333770751953
1667824545990225200,7.70422509765625,0.32223477959632874,0.625226616859436,0.1377067267894745
1667824546000233200,7.714233154296875,0.2586563229560852,0.5661840438842773,-0.0666930079460144
1667824546010240000,7.724239990234375,0.1886705756187439,0.4840819835662842,-0.17040422558784485
1667824546020248000,7.734248046875,0.11697375774383545,0.37420928478240967,-0.19357292354106903
1667824546030256000,7.744256103515625,0.056175120174884796,0.24902580678462982,-0.15612222254276276
1667824546040263200,7.75426318359375,0.022159364074468613,0.15957847237586975,-0.08940551429986954
1667824546050271000,7.76427099609375,0.014568023383617401,0.12047155201435089,-0.05302540212869644
1667824546060279000,7.774279052734375,0.026336265727877617,0.17134246230125427,-0.07111172378063202
1667824546070286000,7.7842861328125,0.0392877496778965,0.2673909664154053,-0.15998832881450653
1667824546080294100,7.794294189453125,0.07774459570646286,0.36171746253967285,-0.29631394147872925
1667824546090302200,7.80430224609375,0.1543980985879898,0.37262311577796936,-0.44916290044784546
1667824546100309200,7.814309326171875,0.24586622416973114,0.3090156316757202,-0.5853193998336792
1667824546110317300,7.8243173828125,0.32957497239112854,0.22640357911586761,-0.7017802000045776
1667824546120324000,7.834323974609375,0.40387317538261414,0.15706445276737213,-0.7723467946052551
1667824546130332200,7.844332275390625,0.45951804518699646,0.13515648245811462,-0.8146559000015259
1667824546140340000,7.854340087890625,0.5017539262771606,0.1562282145023346,-0.8415573239326477
1667824546150347300,7.86434716796875,0.5188887119293213,0.1864905208349228,-0.8677449822425842
1667824546160355000,7.87435498046875,0.5147397518157959,0.1907835304737091,-0.9138442873954773
1667824546170363100,7.884363037109375,0.520998477935791,0.15223853290081024,-0.9828630089759827
1667824546180370200,7.8943701171875,0.5423138737678528,0.08364429324865341,-1.0699443817138672
1667824546190378200,7.904378173828125,0.5777493715286255,0.0378698855638504,-1.1751062870025635
1667824546200386000,7.914385986328125,0.6169455051422119,-0.007966313511133194,-1.2813620567321777
1667824546210393000,7.92439306640625,0.6271105408668518,-0.0607759989798069,-1.3485586643218994
1667824546220401200,7.934401123046875,0.6003355979919434,-0.118446484208107,-1.363720417022705
1667824546230409200,7.9444091796875,0.5559881329536438,-0.1609358936548233,-1.3223590850830078
1667824546240416000,7.954416015625,0.5086171627044678,-0.2007586658000946,-1.220890760421753
1667824546250424000,7.964424072265625,0.47064208984375,-0.240851491689682,-1.047326683998108
1667824546260432100,7.97443212890625,0.4346361458301544,-0.2639264464378357,-0.8152689933776855
1667824546270439200,7.984439208984375,0.4049208462238312,-0.2733026444911957,-0.5687313675880432
1667824546280447200,7.994447265625,0.3694954812526703,-0.23490598797798157,-0.3398835361003876
1667824546290454300,8.004454345703126,0.3173348307609558,-0.16054600477218628,-0.16816850006580353
1667824546300462300,8.01446240234375,0.22435002028942108,-0.08946090936660767,-0.058993544429540634
1667824546310470100,8.02447021484375,0.06959106028079987,-0.02712829038500786,-0.026923492550849915
1667824546320477200,8.034477294921874,-0.14691860973834991,0.06926162540912628,-0.08118167519569397
1667824546330485000,8.044485107421876,-0.38186001777648926,0.198672354221344,-0.2347049117088318
1667824546340493300,8.054493408203125,-0.5938215255737305,0.33210524916648865,-0.45628631114959717
1667824546350500000,8.0645,-0.7326417565345764,0.3830246031284332,-0.6952797174453735
1667824546360508200,8.074508056640624,-0.7647125720977783,0.3655822277069092,-0.8945755362510681
1667824546370516000,8.084515869140626,-0.7169985771179199,0.2663073241710663,-0.995916485786438
1667824546380523300,8.094523193359375,-0.6384015083312988,0.11098670214414597,-0.9552364349365234
1667824546390531000,8.104531005859375,-0.5318359136581421,-0.08487174659967422,-0.7670258283615112
1667824546400538000,8.1145380859375,-0.4191727638244629,-0.22504164278507233,-0.45479121804237366
1667824546410546200,8.124546142578126,-0.34041962027549744,-0.26943439245224,-0.051907673478126526
1667824546420554200,8.13455419921875,-0.3073684573173523,-0.21973103284835815,0.37228327989578247
1667824546430561000,8.14456103515625,-0.316276490688324,-0.10612217336893082,0.7487229704856873
1667824546440569000,8.154569091796875,-0.3300362229347229,0.04013543576002121,1.0262722969055176
1667824546450577200,8.1645771484375,-0.3416483998298645,0.17754149436950684,1.1811007261276245
1667824546460584200,8.174584228515625,-0.3583757281303406,0.2978348731994629,1.2135186195373535
1667824546470592300,8.18459228515625,-0.3640945851802826,0.37985944747924805,1.1406701803207397
1667824546480600000,8.19460009765625,-0.3446117043495178,0.4145444631576538,0.9764432311058044
1667824546490607400,8.204607421875,-0.31535130739212036,0.388565331697464,0.7543760538101196
1667824546500615200,8.214615234375,-0.2848173677921295,0.3036983609199524,0.5141216516494751
1667824546510623200,8.224623291015625,-0.2565889060497284,0.18140414357185364,0.2889263331890106
1667824546520630000,8.234630126953125,-0.24662336707115173,0.06114111840724945,0.12126491218805313
1667824546530638300,8.244638427734374,-0.25867390632629395,-0.04187021777033806,0.0332048237323761
1667824546540645000,8.25464501953125,-0.2766773998737335,-0.11389567703008652,0.009338906966149807
1667824546550653200,8.264653076171875,-0.2825411558151245,-0.14812767505645752,0.028806081041693687
1667824546560661000,8.274660888671875,-0.2919541001319885,-0.16128236055374146,0.08320620656013489
1667824546570668300,8.284668212890624,-0.3064185082912445,-0.1657295823097229,0.13434049487113953
1667824546580676000,8.294676025390626,-0.3226129412651062,-0.16608990728855133,0.15084916353225708
1667824546590684200,8.30468408203125,-0.3198443055152893,-0.14833568036556244,0.13176681101322174
1667824546600691200,8.314691162109375,-0.29946208000183105,-0.1434040367603302,0.08269061893224716
1667824546610699300,8.32469921875,-0.27802708745002747,-0.15998300909996033,0.023795610293745995
1667824546620707000,8.33470703125,-0.2708834409713745,-0.20025692880153656,-0.03436729311943054
1667824546630714000,8.344714111328125,-0.2640281915664673,-0.2593250572681427,-0.05512077733874321
1667824546640722000,8.354721923828125,-0.2601783275604248,-0.31875401735305786,-0.034631215035915375
1667824546650729200,8.364729248046874,-0.2666945457458496,-0.3667377829551697,0.011325092054903507
1667824546660737000,8.374737060546876,-0.2792012691497803,-0.3937278687953949,0.055037420243024826
1667824546670745000,8.3847451171875,-0.2964194118976593,-0.39847519993782043,0.06327324360609055
1667824546680752000,8.394752197265625,-0.3174373507499695,-0.38830140233039856,0.024164458736777306
1667824546690760200,8.40476025390625,-0.3491542637348175,-0.37906742095947266,-0.03363039717078209
1667824546700768300,8.414768310546876,-0.3902393877506256,-0.38854560256004333,-0.07149921357631683
1667824546710775000,8.424775146484375,-0.43073514103889465,-0.4130893051624298,-0.06382691860198975
1667824546720783400,8.434783447265625,-0.46392717957496643,-0.44184958934783936,0.02309679612517357
1667824546730791200,8.444791259765625,-0.48655954003334045,-0.44484058022499084,0.17246843874454498
1667824546740798200,8.454798095703126,-0.4844532310962677,-0.41107863187789917,0.3629896640777588
1667824546750806000,8.464805908203125,-0.45422181487083435,-0.33822011947631836,0.5648476481437683
1667824546760813300,8.474813232421875,-0.3940836489200592,-0.2538413405418396,0.7606584429740906
1667824546770821000,8.484821044921874,-0.32409125566482544,-0.1751989871263504,0.9393025040626526
1667824546780829200,8.4948291015625,-0.24485768377780914,-0.09345272183418274,1.0966103076934814
1667824546790836000,8.5048359375,-0.16363421082496643,0.0028764803428202868,1.229626178741455
1667824546800844300,8.51484423828125,-0.08091695606708527,0.09664051979780197,1.325179934501648
1667824546810852000,8.52485205078125,-0.006308762356638908,0.19396494328975677,1.3976905345916748
1667824546820859100,8.534859130859376,0.053762029856443405,0.28174325823783875,1.4480799436569214
1667824546830867000,8.544866943359375,0.08891335874795914,0.3482820689678192,1.4675124883651733
1667824546840875300,8.554875244140625,0.10278603434562683,0.38300809264183044,1.451244831085205
1667824546850882000,8.564882080078124,0.08258195966482162,0.39388659596443176,1.3986167907714844
1667824546860890000,8.57489013671875,0.05116518214344978,0.386660099029541,1.3227378129959106
1667824546870897200,8.584897216796875,0.018442124128341675,0.3953513205051422,1.2032535076141357
1667824546880905000,8.594905029296875,-0.006307963281869888,0.4250018894672394,1.0618749856948853
1667824546890913000,8.6049130859375,-0.0283496156334877,0.4566543698310852,0.911024808883667
1667824546900919800,8.614919921875,-0.0468766950070858,0.463139146566391,0.7544894814491272
1667824546910928100,8.62492822265625,-0.044502753764390945,0.4454552233219147,0.5950327515602112
1667824546920936200,8.634936279296875,-0.03129959851503372,0.41379743814468384,0.44979432225227356
1667824546930943000,8.64494287109375,-0.018203238025307655,0.3789116144180298,0.31995803117752075
1667824546940951000,8.654950927734374,-0.010387127287685871,0.34151631593704224,0.2009805142879486
1667824546950958800,8.664958740234376,0.009216934442520142,0.30828461050987244,0.07541326433420181
1667824546960966100,8.674966064453125,0.029618078842759132,0.29327157139778137,-0.07447023689746857
1667824546970974000,8.684973876953125,0.0574161559343338,0.2967112958431244,-0.24795255064964294
1667824546980981000,8.69498095703125,0.086568184196949,0.30834877490997314,-0.445502907037735
1667824546990989000,8.704989013671875,0.11247114837169647,0.30720841884613037,-0.6480495929718018
1667824547000997000,8.7149970703125,0.13907240331172943,0.2758856415748596,-0.8444225788116455
1667824547011004000,8.72500390625,0.14253078401088715,0.2238416224718094,-0.9866660237312317
1667824547021012000,8.735011962890624,0.11911147832870483,0.17430388927459717,-1.0649431943893433
1667824547031020000,8.74502001953125,0.07709744572639465,0.12711374461650848,-1.0923227071762085
1667824547041027000,8.755027099609375,0.03329217806458473,0.09561147540807724,-1.0785629749298096
1667824547051035000,8.765034912109375,-0.008190551772713661,0.09854228794574738,-1.0369420051574707
1667824547061043000,8.77504296875,-0.04675205796957016,0.1419219821691513,-0.9941612482070923
1667824547071050000,8.785050048828126,-0.08169539272785187,0.20941421389579773,-0.9660276174545288
1667824547081058000,8.79505810546875,-0.09980382770299911,0.2761242687702179,-0.95243239402771
1667824547091064800,8.80506494140625,-0.10483693331480026,0.32852327823638916,-0.9523929953575134
1667824547101073200,8.8150732421875,-0.10300494730472565,0.35622814297676086,-0.9631021022796631
1667824547111081200,8.825081298828126,-0.10041262209415436,0.33362138271331787,-0.9679090976715088
1667824547121088000,8.835087890625,-0.09195549041032791,0.29451125860214233,-0.9621585607528687
1667824547131096000,8.845095947265625,-0.08941829949617386,0.2483176589012146,-0.9457383155822754
1667824547141103900,8.855103759765624,-0.09739179909229279,0.198184996843338,-0.9138869047164917
1667824547151111200,8.865111083984376,-0.10381215065717697,0.15592674911022186,-0.8948375582695007
1667824547161119000,8.875118896484375,-0.11849841475486755,0.11281949281692505,-0.8884105682373047
1667824547171127000,8.885126953125,-0.14827655255794525,0.08286186307668686,-0.9201623797416687
1667824547181134000,8.895134033203124,-0.176370769739151,0.06599632650613785,-0.9626395106315613
1667824547191142100,8.90514208984375,-0.19141124188899994,0.06614866107702255,-1.002845287322998
1667824547201149000,8.91514892578125,-0.18360231816768646,0.08517907559871674,-1.0324913263320923
1667824547211157000,8.925156982421875,-0.14736202359199524,0.1281110942363739,-1.0414235591888428
1667824547221165000,8.9351650390625,-0.07896991819143295,0.17242635786533356,-1.032753348350525
1667824547231172000,8.945172119140626,0.00598572101444006,0.20989809930324554,-0.9882247447967529
1667824547241180000,8.955179931640625,0.09663067013025284,0.22315478324890137,-0.9110655188560486
1667824547251188000,8.96518798828125,0.1809234470129013,0.23181858658790588,-0.8184506297111511
1667824547261195000,8.975195068359374,0.23642532527446747,0.2402229905128479,-0.7373789548873901
1667824547271203000,8.985203125,0.2595442235469818,0.23018473386764526,-0.6829439401626587
1667824547281211100,8.995211181640625,0.25375476479530334,0.20292462408542633,-0.6585709452629089
1667824547291218000,9.005218017578125,0.22446267306804657,0.16810059547424316,-0.657802402973175
1667824547301226000,9.01522607421875,0.19420276582241058,0.13718555867671967,-0.6557828783988953
1667824547311234000,9.025234130859374,0.17580032348632812,0.1329018622636795,-0.6391868591308594
1667824547321240800,9.03524072265625,0.16808860003948212,0.15271204710006714,-0.5893551707267761
1667824547331249000,9.045248779296875,0.17291931807994843,0.17234274744987488,-0.5250211954116821
1667824547341256000,9.055255859375,0.18640530109405518,0.2218274623155594,-0.46075350046157837
1667824547351264000,9.065263916015626,0.1951468586921692,0.2607908546924591,-0.41714078187942505
1667824547361272000,9.07527197265625,0.2059265375137329,0.24506115913391113,-0.39882487058639526
1667824547371279000,9.085279052734375,0.22136513888835907,0.16585847735404968,-0.3856787085533142
1667824547381287200,9.095287109375,0.23508813977241516,0.04749321565032005,-0.34142231941223145
1667824547391295000,9.105294921875,0.26314908266067505,-0.08684248477220535,-0.24825641512870789
1667824547401302000,9.115302001953125,0.2996562123298645,-0.2025107592344284,-0.0895349457859993
1667824547411310000,9.12531005859375,0.3350086212158203,-0.2845102846622467,0.12281566858291626
1667824547421318100,9.135318115234375,0.34941765666007996,-0.35577142238616943,0.3670536279678345
1667824547431325000,9.145324951171874,0.32387980818748474,-0.39975619316101074,0.6294935345649719
1667824547441333000,9.1553330078125,0.2773836851119995,-0.4316622018814087,0.8950136303901672
1667824547451340800,9.1653408203125,0.21242810785770416,-0.43558770418167114,1.1280156373977661
1667824547461348000,9.17534814453125,0.13651150465011597,-0.3799710273742676,1.3057223558425903
1667824547471356000,9.18535595703125,0.04553605988621712,-0.25407329201698303,1.4005696773529053
1667824547481363000,9.195363037109376,-0.05927717313170433,-0.04815740883350372,1.3983758687973022
1667824547491371000,9.20537109375,-0.1882157176733017,0.18390005826950073,1.3122079372406006
1667824547501379000,9.215379150390625,-0.3564438819885254,0.4145473837852478,1.1568832397460938
1667824547511385900,9.2253857421875,-0.557619571685791,0.612452507019043,0.9493420720100403
1667824547521394000,9.235393798828126,-0.7609000205993652,0.7273201942443848,0.6978675127029419
1667824547531402000,9.245402099609375,-0.9205479621887207,0.7436773180961609,0.4180494546890259
1667824547541409000,9.255408935546875,-1.0039094686508179,0.6219905614852905,0.15389448404312134
1667824547551417000,9.2654169921875,-1.0124166011810303,0.4050612151622772,-0.060562148690223694
1667824547561425000,9.2754248046875,-0.9682063460350037,0.10114605724811554,-0.174968883395195
1667824547571432200,9.28543212890625,-0.8735684752464294,-0.21308350563049316,-0.15072479844093323
1667824547581440000,9.29543994140625,-0.7617559432983398,-0.45565301179885864,0.009929330088198185
1667824547591447000,9.305447021484374,-0.6702486872673035,-0.5878965258598328,0.26928073167800903
1667824547601454800,9.315454833984376,-0.6402531862258911,-0.6256468296051025,0.5661060214042664
1667824547611463200,9.325463134765625,-0.6618205308914185,-0.5754590630531311,0.8298239707946777
1667824547621470000,9.335469970703125,-0.6972930431365967,-0.4848119616508484,1.0378199815750122
1667824547631478000,9.34547802734375,-0.7195008993148804,-0.36605629324913025,1.16721773147583
1667824547641485800,9.35548583984375,-0.7211509943008423,-0.2460760772228241,1.2376627922058105
1667824547651493000,9.3654931640625,-0.7103105783462524,-0.14255528151988983,1.244118332862854
1667824547661501000,9.3755009765625,-0.6811655163764954,-0.06353104114532471,1.180006504058838
1667824547671509000,9.385509033203125,-0.630235493183136,-0.03255767747759819,1.0547300577163696
1667824547681516000,9.39551611328125,-0.5657350420951843,-0.04874037578701973,0.8845572471618652
1667824547691524000,9.405524169921875,-0.4983847737312317,-0.11112146079540253,0.7007660865783691
1667824547701531000,9.41553076171875,-0.45176053047180176,-0.19067513942718506,0.5301386713981628
1667824547711539000,9.4255390625,-0.42843976616859436,-0.27087676525115967,0.39815402030944824
1667824547721547000,9.435547119140624,-0.41219794750213623,-0.34417203068733215,0.301483154296875
1667824547731554000,9.445553955078125,-0.39009183645248413,-0.40024009346961975,0.24048876762390137
1667824547741562000,9.45556201171875,-0.3537841737270355,-0.44570717215538025,0.1930679976940155
1667824547751570000,9.46556982421875,-0.3229026794433594,-0.486933171749115,0.16786304116249084
1667824547761577200,9.4755771484375,-0.29983916878700256,-0.5335177183151245,0.15143026411533356
1667824547771585000,9.4855849609375,-0.2780441343784332,-0.5741620659828186,0.15285558998584747
1667824547781593000,9.495593017578125,-0.2546946108341217,-0.617467999458313,0.17146337032318115
1667824547791599900,9.505599853515625,-0.22232681512832642,-0.6594766974449158,0.19132761657238007
1667824547801608200,9.515608154296874,-0.19781801104545593,-0.6787044405937195,0.20732282102108002
1667824547811616000,9.525615966796876,-0.18871265649795532,-0.6636320352554321,0.2058229297399521
1667824547821623000,9.535623046875,-0.20900487899780273,-0.6262175440788269,0.19004717469215393
1667824547831630800,9.545630859375,-0.246736541390419,-0.5741769671440125,0.15425615012645721
1667824547841638100,9.55563818359375,-0.3049734830856323,-0.49436259269714355,0.08184346556663513
1667824547851646000,9.56564599609375,-0.3693152070045471,-0.4218255281448364,-0.017957428470253944
1667824547861650400,9.575650390625,-0.417187362909317,-0.3563179075717926,-0.14761503040790558
1667824547871657700,9.58565771484375,-0.44278329610824585,-0.3247911334037781,-0.27579694986343384
1667824547881665500,9.59566552734375,-0.4450957179069519,-0.3467254638671875,-0.3772655129432678
1667824547891673600,9.605673583984375,-0.42669060826301575,-0.39353638887405396,-0.4343988597393036
1667824547901680400,9.615680419921874,-0.4013735353946686,-0.45612597465515137,-0.44742223620414734
1667824547911688400,9.6256884765625,-0.3853447735309601,-0.5253535509109497,-0.4031679630279541
1667824547921695500,9.635695556640625,-0.38147810101509094,-0.5750928521156311,-0.31132644414901733
1667824547931703600,9.64570361328125,-0.3786788582801819,-0.5757564902305603,-0.1922975331544876
1667824547941711400,9.65571142578125,-0.37527695298194885,-0.5039297342300415,-0.059966132044792175
1667824547951718700,9.66571875,-0.3794349431991577,-0.3739112615585327,0.06965657323598862
1667824547961726500,9.6757265625,-0.3701988160610199,-0.2182026356458664,0.1730404943227768
1667824547971734500,9.685734619140625,-0.33912959694862366,-0.07967352122068405,0.2442060112953186
1667824547981741300,9.6957412109375,-0.2918606102466583,0.021522868424654007,0.2832394242286682
1667824547991749600,9.70574951171875,-0.22478517889976501,0.07626307755708694,0.27913177013397217
1667824548001757700,9.7157578125,-0.14091584086418152,0.08212176710367203,0.2535896599292755
1667824548011764500,9.725764404296875,-0.056049954146146774,0.05939754843711853,0.2183091640472412
1667824548021772500,9.7357724609375,0.01805543340742588,0.03243596851825714,0.1914069801568985
1667824548031780600,9.745780517578124,0.08811148256063461,-0.0034120420459657907,0.19065889716148376
1667824548041787600,9.75578759765625,0.14296114444732666,-0.04362098127603531,0.22408369183540344
1667824548051795500,9.76579541015625,0.18770678341388702,-0.05850618705153465,0.28830450773239136
1667824548061802800,9.775802734375,0.22049562633037567,-0.05336255580186844,0.3672501742839813
1667824548071810600,9.785810546875,0.24943698942661285,-0.02256043627858162,0.4485785961151123
1667824548081818600,9.795818603515626,0.27271515130996704,0.013491307385265827,0.5221838355064392
1667824548091825400,9.805825439453125,0.2960766553878784,0.03797454759478569,0.5847231149673462
1667824548101833500,9.81583349609375,0.30646538734436035,0.04915609583258629,0.6221413016319275
1667824548111841500,9.825841552734374,0.3142136037349701,0.07728120684623718,0.6150916814804077
1667824548121848600,9.8358486328125,0.3215703070163727,0.14677320420742035,0.5631389617919922
1667824548131856400,9.8458564453125,0.32332825660705566,0.2621051073074341,0.47124263644218445
1667824548141864400,9.855864501953125,0.32495439052581787,0.4244801700115204,0.32558953762054443
1667824548151871500,9.86587158203125,0.31815266609191895,0.5910428166389465,0.12685434520244598
1667824548161879600,9.875879638671876,0.3028368353843689,0.726105809211731,-0.14475665986537933
1667824548171887600,9.8858876953125,0.3029891550540924,0.83213210105896,-0.475505530834198
1667824548181894700,9.895894775390625,0.30760255455970764,0.8484420776367188,-0.8238230347633362
1667824548191902700,9.90590283203125,0.3074355721473694,0.7915335297584534,-1.1329212188720703
1667824548201909500,9.915909423828126,0.3043612241744995,0.677092969417572,-1.380540370941162
1667824548211917300,9.925917236328125,0.30453458428382874,0.5326708555221558,-1.5437721014022827
1667824548221925400,9.93592529296875,0.30662626028060913,0.3630618155002594,-1.604325771331787
1667824548231932400,9.945932373046874,0.29121798276901245,0.1930946260690689,-1.5413963794708252
1667824548241940500,9.9559404296875,0.26577815413475037,0.010514426045119762,-1.3790534734725952
1667824548251948500,9.965948486328125,0.22558598220348358,-0.10612137615680695,-1.1195719242095947
1667824548261955600,9.97595556640625,0.1820606142282486,-0.13151061534881592,-0.8048035502433777
1667824548271963600,9.985963623046874,0.15824343264102936,-0.09259198606014252,-0.47147059440612793
1667824548281971500,9.995971435546876,0.1512952446937561,0.012752546928822994,-0.14940573275089264
1667824548291978500,10.005978515625,0.17176802456378937,0.16113562881946564,0.12336082011461258
1667824548301986600,10.015986572265625,0.20558324456214905,0.312730997800827,0.3271653354167938
1667824548311993600,10.02599365234375,0.23873640596866608,0.4354974031448364,0.4551304876804352
1667824548322001400,10.03600146484375,0.2556871771812439,0.5292600989341736,0.5102555155754089
1667824548332009500,10.046009521484375,0.25084632635116577,0.6016467213630676,0.47461578249931335
1667824548342016500,10.0560166015625,0.22839829325675964,0.621792733669281,0.38199582695961
1667824548352024600,10.066024658203125,0.1929851621389389,0.5828823447227478,0.24745319783687592
1667824548362032400,10.076032470703124,0.16371409595012665,0.5109133124351501,0.08899112790822983
1667824548372039700,10.086039794921875,0.13925881683826447,0.4001663029193878,-0.057127732783555984
1667824548382047500,10.096047607421875,0.1305777132511139,0.27923429012298584,-0.16773147881031036
1667824548392055600,10.1060556640625,0.13974298536777496,0.1664382517337799,-0.23095758259296417
1667824548402062300,10.116062255859376,0.16925746202468872,0.08181124180555344,-0.23943336308002472
1667824548412070400,10.1260703125,0.23599815368652344,0.04639173299074173,-0.21105870604515076
1667824548422078700,10.13607861328125,0.3283829391002655,0.05108928307890892,-0.16210953891277313
1667824548432085500,10.14608544921875,0.4254828691482544,0.08748271316289902,-0.08424297720193863
1667824548442093600,10.156093505859374,0.5151954293251038,0.14885365962982178,-0.0014865765115246177
1667824548452100600,10.1661005859375,0.5847233533859253,0.2105199545621872,0.06879211217164993
1667824548462108700,10.176108642578125,0.6280583143234253,0.23948688805103302,0.11681023985147476
1667824548472116500,10.186116455078125,0.6494728326797485,0.22574551403522491,0.14100958406925201
1667824548482123500,10.19612353515625,0.6679626107215881,0.1542481631040573,0.1377517431974411
1667824548492131600,10.206131591796876,0.6855416297912598,0.05059420317411423,0.11299286782741547
1667824548502139600,10.2161396484375,0.7129652500152588,-0.03941478207707405,0.08107541501522064
1667824548512146400,10.226146484375,0.7331511974334717,-0.088820680975914,0.027334418147802353
1667824548522154500,10.236154541015624,0.7355222105979919,-0.08417746424674988,-0.04445348307490349
1667824548532162300,10.246162353515626,0.7139537930488586,-0.004022438544780016,-0.14827042818069458
1667824548542169600,10.256169677734375,0.6592817902565002,0.13917067646980286,-0.29502683877944946
1667824548552177400,10.266177490234375,0.5870435237884521,0.24924124777317047,-0.4835887849330902
1667824548562185500,10.276185546875,0.5259913802146912,0.23259329795837402,-0.6930141448974609
1667824548572192500,10.286192626953126,0.5060821175575256,0.05856557562947273,-0.8750002384185791
1667824548582200600,10.29620068359375,0.513374388217926,-0.198896586894989,-0.9815860390663147
1667824548592207400,10.306207275390625,0.5428100228309631,-0.4723869860172272,-0.9904703497886658
1667824548602215400,10.31621533203125,0.5799137353897095,-0.6771939396858215,-0.9271669983863831
1667824548612223700,10.3262236328125,0.6141587495803833,-0.8902851343154907,-0.8121376037597656
1667824548622230500,10.33623046875,0.6255110502243042,-1.039152979850769,-0.6779502630233765
1667824548632238600,10.346238525390625,0.6012099385261536,-1.1047183275222778,-0.5574398040771484
1667824548642246400,10.356246337890624,0.5438462495803833,-1.0621788501739502,-0.45034560561180115
1667824548652253700,10.366253662109376,0.45533397793769836,-0.9097885489463806,-0.3727615773677826
1667824548662261500,10.376261474609375,0.33643314242362976,-0.6948298811912537,-0.3183590769767761
1667824548672268500,10.3862685546875,0.17408578097820282,-0.4683341979980469,-0.26825061440467834
1667824548682276600,10.396276611328124,-0.029259618371725082,-0.30759191513061523,-0.19630905985832214
1667824548692284700,10.40628466796875,-0.22055020928382874,-0.24306032061576843,-0.09451451897621155
1667824548702291500,10.41629150390625,-0.3855503499507904,-0.270998477935791,0.009836385026574135
1667824548712299500,10.426299560546875,-0.5476356744766235,-0.3496256470680237,0.11552446335554123
1667824548722307300,10.436307373046875,-0.7016206979751587,-0.42015334963798523,0.2323855757713318
1667824548732314600,10.446314697265626,-0.8453381657600403,-0.4472084045410156,0.35221582651138306
1667824548742322400,10.456322509765625,-0.9558838605880737,-0.4061714708805084,0.47186315059661865
1667824548752330500,10.46633056640625,-1.0384061336517334,-0.31895962357521057,0.5843031406402588
1667824548762337500,10.476337646484374,-1.077286958694458,-0.1920139193534851,0.7011631727218628
1667824548772345600,10.486345703125,-1.0894237756729126,-0.04759175330400467,0.7960875630378723
1667824548782353400,10.496353515625,-1.081453800201416,0.06869331002235413,0.8692256808280945
1667824548792360400,10.5063603515625,-1.0425080060958862,0.13146242499351501,0.912965714931488
1667824548802368500,10.516368408203125,-0.97819584608078,0.13431492447853088,0.9160928130149841
1667824548812375600,10.52637548828125,-0.9103099703788757,0.11306476593017578,0.871647298336029
1667824548822383400,10.53638330078125,-0.8466790914535522,0.076435387134552,0.7885103225708008
1667824548832391400,10.546391357421875,-0.79059237241745,0.03786482289433479,0.6905230283737183
1667824548842398500,10.5563984375,-0.7497045993804932,0.011092864908277988,0.5818735361099243
1667824548852406500,10.566406494140624,-0.7314446568489075,-0.015411979518830776,0.46055641770362854
1667824548862418200,10.576418212890625,-0.7275540232658386,-0.05212685093283653,0.31841978430747986
1667824548872425200,10.58642529296875,-0.7347874641418457,-0.11793888360261917,0.16178996860980988
1667824548882433300,10.596433349609375,-0.764137327671051,-0.21002353727817535,0.011210043914616108
1667824548892441300,10.60644140625,-0.7955253720283508,-0.30207517743110657,-0.1132970005273819
1667824548902448000,10.6164482421875,-0.8216637372970581,-0.37282177805900574,-0.1957298219203949
1667824548912456200,10.626456298828124,-0.8578856587409973,-0.4280637204647064,-0.22104956209659576
1667824548922464300,10.63646435546875,-0.9075709581375122,-0.4550250470638275,-0.18290776014328003
1667824548932471300,10.64647119140625,-0.9727691411972046,-0.4455718696117401,-0.0859370082616806
1667824548942479400,10.656479248046875,-1.0341017246246338,-0.39761900901794434,0.059488359838724136
1667824548952486400,10.666486328125,-1.1106246709823608,-0.3769877552986145,0.2271319478750229
1667824548962494500,10.676494384765626,-1.2035064697265625,-0.3638083040714264,0.3588559031486511
1667824548972502300,10.686502197265625,-1.2784816026687622,-0.33452606201171875,0.4285830557346344
1667824548982509300,10.69650927734375,-1.314449429512024,-0.3024522662162781,0.4145077168941498
1667824548992517000,10.70651708984375,-1.2993017435073853,-0.29347848892211914,0.3291027843952179
1667824549002525400,10.716525390625,-1.2420713901519775,-0.3043537735939026,0.2084008753299713
1667824549012532200,10.7265322265625,-1.1612173318862915,-0.32810917496681213,0.09316030144691467
1667824549022540300,10.736540283203125,-1.1013246774673462,-0.32843565940856934,0.013914217241108418
1667824549032548000,10.746548095703124,-1.075034737586975,-0.3174775540828705,0.013020726852118969
1667824549042555400,10.756555419921876,-1.0718251466751099,-0.3174684941768646,0.09776517748832703
1667824549052563200,10.766563232421875,-1.075844407081604,-0.31261223554611206,0.24788889288902283
1667824549062571300,10.7765712890625,-1.065559983253479,-0.30503687262535095,0.44159311056137085
1667824549072578300,10.786578369140624,-1.0198687314987183,-0.34227344393730164,0.6483029127120972
1667824549082586400,10.79658642578125,-0.9440082907676697,-0.42894577980041504,0.8598234057426453
1667824549092593200,10.80659326171875,-0.8515228629112244,-0.5753785967826843,1.0505770444869995
1667824549102601200,10.816601318359375,-0.7613817453384399,-0.7834317088127136,1.2201416492462158
1667824549112609300,10.826609375,-0.6907427310943604,-1.0025714635849,1.3579585552215576
1667824549122616300,10.8366162109375,-0.6494120955467224,-1.1618831157684326,1.4426196813583374
1667824549132624400,10.846624267578125,-0.6213570237159729,-1.198333501815796,1.4658390283584595
1667824549142632200,10.856632080078125,-0.5596728920936584,-1.1690059900283813,1.4104667901992798
1667824549152639200,10.86663916015625,-0.4805847108364105,-1.1450114250183105,1.270880937576294
1667824549162647300,10.876647216796876,-0.4142126142978668,-1.1835980415344238,1.0574283599853516
1667824549172655400,10.8866552734375,-0.37478211522102356,-1.2826029062271118,0.7921455502510071
1667824549182662100,10.896662109375,-0.32962024211883545,-1.4396097660064697,0.4848282039165497
1667824549192670500,10.90667041015625,-0.2537718117237091,-1.643990159034729,0.12354457378387451
1667824549202678300,10.91667822265625,-0.1660720556974411,-1.8147413730621338,-0.2062748670578003
1667824549212685300,10.926685302734375,-0.13064590096473694,-1.811303734779358,-0.41202324628829956
1667824549222693000,10.936693115234375,-0.10858026891946793,-1.6978048086166382,-0.4918975532054901
1667824549232700400,10.946700439453124,-0.0673108622431755,-1.5369797945022583,-0.48806846141815186
1667824549242708200,10.956708251953126,-0.005661081522703171,-1.2978183031082153,-0.42859476804733276
1667824549252716300,10.96671630859375,0.06837666034698486,-0.9576255679130554,-0.3335593342781067
1667824549262723300,10.976723388671875,0.15027739107608795,-0.5473847985267639,-0.2248762547969818
1667824549272731400,10.9867314453125,0.23067103326320648,-0.12317626178264618,-0.12479626387357712
1667824549282739200,10.9967392578125,0.3066938817501068,0.20816119015216827,-0.06411400437355042
1667824549292746200,11.006746337890625,0.381205677986145,0.4482893645763397,-0.045578937977552414
1667824549302754000,11.016754150390625,0.46677783131599426,0.546627402305603,-0.03610873594880104
1667824549312762400,11.026762451171875,0.56053626537323,0.5132891535758972,-0.020147079601883888
1667824549322769200,11.03676904296875,0.6414244771003723,0.41476255655288696,0.006173473782837391
1667824549332777200,11.046777099609375,0.6839021444320679,0.2540903389453888,0.032951027154922485
1667824549342785300,11.056785400390625,0.6700334548950195,0.027208451181650162,0.07033807784318924
1667824549352792300,11.066792236328125,0.6088318824768066,-0.21704789996147156,0.11447598040103912
1667824549362800400,11.07680029296875,0.5185728669166565,-0.4323791265487671,0.15458691120147705
1667824549372807200,11.08680712890625,0.4210236668586731,-0.593486487865448,0.1807711124420166
1667824549382815500,11.0968154296875,0.3492378890514374,-0.6930711269378662,0.18790891766548157
1667824549392823300,11.1068232421875,0.300402969121933,-0.7045086622238159,0.17410442233085632
1667824549402830300,11.116830322265624,0.25447914004325867,-0.6882662773132324,0.14383786916732788
1667824549412838100,11.126838134765626,0.18515761196613312,-0.685459554195404,0.11281523108482361
1667824549422846200,11.13684619140625,0.08265998959541321,-0.7000179886817932,0.09372781962156296
1667824549432853200,11.146853271484375,-0.003998470026999712,-0.6773390769958496,0.04815474525094032
1667824549442861300,11.156861328125,-0.024336231872439384,-0.5634817481040955,-0.050748664885759354
1667824549452869000,11.166869140625,0.007702128030359745,-0.37526682019233704,-0.1718367338180542
1667824549462876400,11.17687646484375,0.04706791043281555,-0.2376122921705246,-0.2625570595264435
1667824549472884200,11.18688427734375,0.009476060047745705,-0.010871023871004581,-0.36762329936027527
1667824549482892300,11.196892333984374,-0.07690836489200592,0.2380376011133194,-0.5368567705154419
1667824549492899000,11.206899169921876,-0.17442452907562256,0.2849377393722534,-0.6887475252151489
1667824549502907400,11.216907470703125,-0.27921804785728455,0.2555156648159027,-0.7604938745498657
1667824549512915500,11.22691552734375,-0.38375458121299744,0.19480490684509277,-0.73163241147995
1667824549522922200,11.236922119140624,-0.47044235467910767,0.020241621881723404,-0.6186485886573792
1667824549532930300,11.246930419921876,-0.5279405117034912,-0.23745197057724,-0.4402788579463959
1667824549542937300,11.256937255859375,-0.5717079639434814,-0.4774925410747528,-0.21333038806915283
1667824549552945400,11.2669453125,-0.6029255390167236,-0.6346890926361084,0.031613852828741074
1667824549562953200,11.276953125,-0.5985022783279419,-0.7051059603691101,0.2492750734090805
1667824549572960300,11.286960205078126,-0.567855179309845,-0.7461724281311035,0.4031967222690582
1667824549582968300,11.29696826171875,-0.5146058201789856,-0.9261243939399719,0.44237980246543884
1667824549592976400,11.306976318359375,-0.5284310579299927,-1.1341657638549805,0.365633100271225
1667824549602983200,11.316983154296874,-0.5256733894348145,-1.097518801689148,0.3136391341686249
1667824549612991200,11.3269912109375,-0.41685420274734497,-1.0272440910339355,0.3866446614265442
1667824549622999300,11.336999267578125,-0.2896991968154907,-0.8937158584594727,0.5024111866950989
1667824549633006300,11.34700634765625,-0.18008428812026978,-0.7202361822128296,0.6364486217498779
1667824549643014100,11.35701416015625,-0.03837748244404793,-0.5816980004310608,0.8916505575180054
1667824549653022200,11.367022216796874,0.09814174473285675,-0.2304134964942932,1.1705082654953003
1667824549663029200,11.377029296875,0.2020052969455719,0.10646412521600723,1.4465463161468506
1667824549673037300,11.387037353515625,0.26610705256462097,0.5444795489311218,1.6635979413986206
1667824549683045400,11.39704541015625,0.2474057972431183,1.066077709197998,1.8476330041885376
1667824549693052400,11.407052490234374,0.20552918314933777,1.5497677326202393,1.9898574352264404
1667824549703060200,11.417060302734376,0.21940025687217712,1.7480459213256836,2.004420280456543
1667824549713067300,11.4270673828125,0.12873321771621704,1.5089491605758667,1.8292713165283203
1667824549723075000,11.437074951171875,-0.1602296233177185,1.2808459997177124,1.395279049873352
1667824549733083100,11.447083251953124,-0.54259192943573,0.7543755173683167,0.9308565258979797
1667824549743090200,11.457090087890625,-0.7611575126647949,0.05762254819273949,0.6233447790145874
1667824549753098200,11.46709814453125,-0.8516187071800232,-0.48134317994117737,0.515847384929657
1667824549763106300,11.477106201171875,-0.911247193813324,-0.79305499792099,0.5600765943527222
1667824549773113300,11.48711328125,-0.9876178503036499,-0.9307265877723694,0.679478645324707
1667824549783121400,11.497121337890626,-1.0446240901947021,-1.0858783721923828,0.8026650547981262
1667824549793129200,11.507129150390625,-1.1241722106933594,-1.2454591989517212,0.8228235840797424
1667824549803136300,11.51713623046875,-1.210715413093567,-0.9605611562728882,0.6369876265525818
1667824549813144300,11.527144287109374,-1.3002811670303345,-0.41148874163627625,0.43525853753089905
1667824549823152400,11.53715234375,-1.291404128074646,-0.05849739909172058,0.34757155179977417
1667824549833159200,11.5471591796875,-1.2117830514907837,0.07046271115541458,0.3404044508934021
1667824549843167200,11.557167236328125,-1.1186243295669556,0.162527933716774,0.35866600275039673
1667824549853175000,11.567175048828124,-0.9805439710617065,0.042813777923583984,0.41550078988075256
1667824549863182300,11.577182373046876,-0.8499339818954468,-0.3857623338699341,0.4735635817050934
1667824549873187300,11.587187255859375,-0.7792254686355591,-0.627618134021759,0.4344462454319
1667824549883195400,11.5971953125,-0.7417414784431458,-0.6104577779769897,0.34478962421417236
1667824549893202400,11.607202392578126,-0.6771076321601868,-0.6733341813087463,0.27142539620399475
1667824549903210500,11.61721044921875,-0.5899620652198792,-0.7657381892204285,0.1996246874332428
1667824549913217300,11.62721728515625,-0.5376807451248169,-0.7349701523780823,0.07585322111845016
1667824549923225300,11.637225341796874,-0.5323536396026611,-0.6198899149894714,-0.07952811568975449
1667824549933233200,11.647233154296876,-0.5503531694412231,-0.6335968971252441,-0.2290523648262024
1667824549943240400,11.657240478515625,-0.5705348253250122,-0.8457310199737549,-0.350424587726593
1667824549953248300,11.667248291015625,-0.5475453734397888,-1.1641154289245605,-0.450213760137558
1667824549963256300,11.67725634765625,-0.5183779001235962,-1.4314488172531128,-0.5261101126670837
1667824549973263400,11.687263427734376,-0.4482289254665375,-1.5901412963867188,-0.5271373391151428
1667824549983271400,11.697271484375,-0.3974520266056061,-1.599120855331421,-0.4686167538166046
1667824549993279500,11.707279541015625,-0.42210835218429565,-1.409746766090393,-0.39238616824150085
1667824550003286300,11.717286376953124,-0.5241857171058655,-1.1334214210510254,-0.2924414575099945
1667824550013294300,11.72729443359375,-0.6722926497459412,-0.8785355687141418,-0.15301404893398285
1667824550023302400,11.737302490234375,-0.8354796767234802,-0.7351970672607422,0.009710684418678284
1667824550033309400,11.747309326171875,-1.0132081508636475,-0.6405096650123596,0.16708113253116608
1667824550043317200,11.757317138671874,-1.2203783988952637,-0.5646146535873413,0.29533419013023376
1667824550053325300,11.7673251953125,-1.4396010637283325,-0.5252991914749146,0.38260436058044434
1667824550063332400,11.777332275390625,-1.6680736541748047,-0.5019041299819946,0.41004905104637146
1667824550073340400,11.78734033203125,-1.8732216358184814,-0.5199877619743347,0.38098010420799255
1667824550083348200,11.79734814453125,-2.0025553703308105,-0.5888611078262329,0.3001305162906647
1667824550093355500,11.80735546875,-2.050384283065796,-0.7217289209365845,0.19712531566619873
1667824550103363300,11.81736328125,-2.089949369430542,-0.8884084224700928,0.09567725658416748
1667824550113370400,11.827370361328125,-2.1401073932647705,-0.9972693920135498,0.000529702752828598
1667824550123378200,11.837378173828125,-2.2010350227355957,-1.0111993551254272,-0.09427829831838608
1667824550133386500,11.847386474609374,-2.2442057132720947,-0.9723816514015198,-0.18897631764411926
1667824550143393300,11.857393310546875,-2.2120394706726074,-0.9361993670463562,-0.26748284697532654
1667824550153401300,11.8674013671875,-2.0737924575805664,-0.9026419520378113,-0.30945664644241333
1667824550163409400,11.877409423828125,-1.8481879234313965,-0.7938510179519653,-0.30995413661003113
1667824550173416400,11.88741650390625,-1.5960031747817993,-0.5699505805969238,-0.27629896998405457
1667824550183424300,11.89742431640625,-1.3567314147949219,-0.2816671133041382,-0.20588712394237518
1667824550193432300,11.907432373046875,-1.1636133193969727,-0.06372758001089096,-0.08769416809082031
1667824550203439400,11.917439453125,-1.0329043865203857,-0.005037635564804077,0.06124870851635933
1667824550213447400,11.927447509765624,-0.9824502468109131,-0.0765024945139885,0.2334897220134735
1667824550223455500,11.93745556640625,-1.0114980936050415,-0.2655768096446991,0.4009458124637604
1667824550233462300,11.947462158203125,-1.0878996849060059,-0.5275593996047974,0.5451136231422424
1667824550243470300,11.95747021484375,-1.156164526939392,-0.7645674347877502,0.6385676860809326
1667824550253478400,11.967478515625,-1.1949059963226318,-0.8978655934333801,0.6509729623794556
1667824550263485400,11.9774853515625,-1.1884270906448364,-0.9297678470611572,0.612985372543335
1667824550273493200,11.9874931640625,-1.1658592224121094,-0.8896965980529785,0.5458981990814209
1667824550283501300,11.997501220703125,-1.1171436309814453,-0.8240691423416138,0.46691444516181946
1667824550293508400,12.00750830078125,-1.024601936340332,-0.7490915656089783,0.3850685954093933
1667824550303516400,12.017516357421876,-0.8829670548439026,-0.7011660933494568,0.2925519645214081
1667824550313524200,12.027524169921875,-0.728559136390686,-0.6842560768127441,0.1920727640390396
1667824550323531300,12.03753125,-0.5962023735046387,-0.6589137315750122,0.07703912258148193
1667824550333539300,12.047539306640624,-0.5131937861442566,-0.6201729774475098,-0.046309441328048706
1667824550343546400,12.05754638671875,-0.49114176630973816,-0.581305742263794,-0.14832554757595062
1667824550353554200,12.06755419921875,-0.514495849609375,-0.5383945107460022,-0.21569527685642242
1667824550363562200,12.077562255859375,-0.5609351992607117,-0.5206218957901001,-0.2207867056131363
1667824550373569300,12.0875693359375,-0.6032683253288269,-0.5449594259262085,-0.17838571965694427
1667824550383577300,12.097577392578126,-0.6293110847473145,-0.6109336614608765,-0.11557026952505112
1667824550393585400,12.10758544921875,-0.6312282681465149,-0.6515133380889893,-0.057729609310626984
1667824550403592400,12.117592529296875,-0.6131025552749634,-0.634492814540863,-0.02839595451951027
1667824550413600500,12.1276005859375,-0.5803656578063965,-0.5632691979408264,-0.04244120046496391
1667824550423608300,12.1376083984375,-0.5489768385887146,-0.46217402815818787,-0.08438678830862045
1667824550433615400,12.147615478515625,-0.522865891456604,-0.3627832531929016,-0.14219602942466736
1667824550443623400,12.15762353515625,-0.5168939828872681,-0.28299468755722046,-0.18151439726352692
1667824550453631500,12.167631591796875,-0.515693724155426,-0.2352178394794464,-0.18320231139659882
1667824550463638300,12.17763818359375,-0.5059018135070801,-0.25196751952171326,-0.15699121356010437
1667824550473646300,12.187646240234375,-0.4929732084274292,-0.33020827174186707,-0.11078350245952606
1667824550483654100,12.197654052734375,-0.4756735861301422,-0.45909327268600464,-0.06337098032236099
1667824550493661400,12.207661376953125,-0.4504305422306061,-0.6187431216239929,-0.02539537101984024
1667824550503669200,12.217669189453124,-0.415986567735672,-0.7837494015693665,-0.012760802172124386
1667824550513677300,12.22767724609375,-0.38635703921318054,-0.9505324959754944,-0.03218243643641472
1667824550523684400,12.237684326171875,-0.3711905777454376,-1.0965282917022705,-0.09220662713050842
1667824550533692400,12.2476923828125,-0.358493447303772,-1.2018542289733887,-0.19259688258171082
1667824550543700500,12.257700439453124,-0.3536909520626068,-1.2539416551589966,-0.3228696584701538
1667824550553707300,12.267707275390626,-0.3683127760887146,-1.232692003250122,-0.4706503450870514
1667824550563715600,12.277715576171875,-0.42229771614074707,-1.149886131286621,-0.5969395637512207
1667824550573722400,12.287722412109375,-0.505830705165863,-1.0282078981399536,-0.6824243664741516
1667824550583730400,12.29773046875,-0.598933219909668,-0.8662951588630676,-0.734021008014679
1667824550593738200,12.30773828125,-0.7000079154968262,-0.6947276592254639,-0.7400549054145813
1667824550603745500,12.31774560546875,-0.7816489338874817,-0.5563654899597168,-0.6934466361999512
1667824550613753300,12.32775341796875,-0.8544885516166687,-0.4489154815673828,-0.6127718091011047
1667824550623761400,12.337761474609374,-0.923884391784668,-0.3521191477775574,-0.5158305764198303
1667824550633768400,12.3477685546875,-0.9895616769790649,-0.269955039024353,-0.40419408679008484
1667824550643776500,12.357776611328125,-1.0597686767578125,-0.21943755447864532,-0.2863348126411438
1667824550653784300,12.367784423828125,-1.1226270198822021,-0.2035890817642212,-0.16939328610897064
1667824550663791400,12.377791259765624,-1.169569492340088,-0.24784548580646515,-0.04495202749967575
1667824550673799200,12.387799072265626,-1.1969084739685059,-0.3439696133136749,0.09355445206165314
