time,seconds_elapsed,z,y,x
1667267182922950700,0.08695068359375,0.013438640162348747,0.09590301662683487,-0.03176405653357506
1667267182925348400,0.089348388671875,0.01038440316915512,0.10689827054738998,-0.042759306728839874
1667267182927746000,0.09174609375,0.008551862090826035,0.11483928561210632,-0.04947862774133682
1667267182930143700,0.094143798828125,0.004886778071522713,0.12155860662460327,-0.056808795779943466
1667267182932541700,0.096541748046875,0.0018325417768210173,0.12644538283348083,-0.062306419014930725
1667267182934939400,0.098939453125,-0.0012216945178806782,0.129499614238739,-0.06902574002742767
1667267182937337000,0.101337158203125,-0.0036650835536420345,0.12827792763710022,-0.07207997888326645
1667267182939734800,0.10373486328125,-0.006108472589403391,0.12400199472904205,-0.07391251623630524
1667267182942132700,0.1061328125,-0.007330167107284069,0.11545012891292572,-0.07452336698770523
1667267182944530400,0.108530517578125,-0.008551862090826035,0.11056335270404816,-0.07452336698770523
1667267182946928000,0.11092822265625,-0.007941014133393764,0.09895725548267365,-0.07513421028852463
1667267182949325800,0.113325927734375,-0.007941014133393764,0.08857285231351852,-0.07146912813186646
1667267182951723500,0.1157236328125,-0.009773556143045425,0.07696675509214401,-0.06902574002742767
1667267182954121500,0.11812158203125,-0.00916270911693573,0.06413896381855011,-0.06413896381855011
1667267182956519200,0.120519287109375,-0.008551862090826035,0.0525328628718853,-0.06047387793660164
1667267182958916900,0.122916748046875,-0.007330167107284069,0.04153761267662048,-0.05375456064939499
1667267182961314600,0.125314453125,-0.007330167107284069,0.030542362481355667,-0.047646086663007736
1667267182963712500,0.12771240234375,-0.004886778071522713,0.02076880633831024,-0.04214845970273018
1667267182966110200,0.130110107421875,-0.006108472589403391,0.012216945178806782,-0.034818295389413834
1667267182968508000,0.1325078125,-0.0030542362947016954,0.0030542362947016954,-0.030542362481355667
1667267182970905600,0.134905517578125,0.0012216945178806782,-0.005497625097632408,-0.023823043331503868
1667267182973303300,0.13730322265625,0.0012216945178806782,-0.00916270911693573,-0.01954711228609085
1667267182975701200,0.139701171875,0.0012216945178806782,-0.012216945178806782,-0.015271181240677834
1667267182978099000,0.142098876953125,0.0012216945178806782,-0.012216945178806782,-0.010995250195264816
1667267182980496600,0.14449658203125,0.0018325417768210173,-0.012827792204916477,-0.00916270911693573
1667267182982894300,0.146894287109375,0.0024433890357613564,-0.012216945178806782,-0.007330167107284069
1667267182985292300,0.149292236328125,0.0018325417768210173,-0.01038440316915512,-0.0036650835536420345
1667267182987690000,0.15168994140625,0.0006108472589403391,-0.004886778071522713,-0.0030542362947016954
1667267182990087700,0.154087646484375,-0.0030542362947016954,-0.0018325417768210173,0
1667267182992485400,0.1564853515625,-0.004275931045413017,0.005497625097632408,0.0036650835536420345
1667267182994883300,0.15888330078125,-0.006719320081174374,0.011606098152697086,0.005497625097632408
1667267182997281000,0.161281005859375,-0.010995250195264816,0.017714571207761765,0.004886778071522713
1667267182999678700,0.1636787109375,-0.013438640162348747,0.023823043331503868,0.00916270911693573
1667267183002076400,0.166076416015625,-0.01588202826678753,0.03176405653357506,0.011606098152697086
1667267183004474400,0.168474365234375,-0.01832541823387146,0.04214845970273018,0.014660334214568138
1667267183006872000,0.1708720703125,-0.022601349279284477,0.046424392610788345,0.01832541823387146
1667267183009269800,0.173269775390625,-0.02626643143594265,0.05070032179355621,0.02076880633831024
1667267183011667500,0.17566748046875,-0.030542362481355667,0.05619794875383377,0.01954711228609085
1667267183014065400,0.1780654296875,-0.030542362481355667,0.06169557198882103,0.022601349279284477
1667267183016463000,0.180463134765625,-0.030542362481355667,0.06413896381855011,0.023823043331503868
1667267183018860800,0.18286083984375,-0.029320668429136276,0.0647498071193695,0.025655584409832954
1667267183021258500,0.185258544921875,-0.029320668429136276,0.06291726976633072,0.028098974376916885
1667267183023656200,0.18765625,-0.02748812735080719,0.06047387793660164,0.030542362481355667
1667267183026054100,0.19005419921875,-0.026877280324697495,0.055587101727724075,0.03298575058579445
1667267183028451800,0.192451904296875,-0.023212196305394173,0.05070032179355621,0.034818295389413834
1667267183030849500,0.194849609375,-0.023212196305394173,0.04703523963689804,0.037261683493852615
1667267183033247200,0.197247314453125,-0.021990500390529633,0.0390942245721817,0.04153761267662048
1667267183035645200,0.199645263671875,-0.018936265259981155,0.03237490355968475,0.045202698558568954
1667267183038043000,0.20204296875,-0.01954711228609085,0.022601349279284477,0.04703523963689804
1667267183040440600,0.204440673828125,-0.01710372418165207,0.012827792204916477,0.04886778071522713
1667267183042838300,0.20683837890625,-0.01832541823387146,0.0024433890357613564,0.051922015845775604
1667267183045236200,0.209236328125,-0.017714571207761765,-0.008551862090826035,0.05619794875383377
1667267183047634000,0.211634033203125,-0.017714571207761765,-0.014049487188458443,0.05619794875383377
1667267183050031600,0.214031494140625,-0.015271181240677834,-0.018936265259981155,0.05864133685827255
1667267183052429300,0.21642919921875,-0.012827792204916477,-0.02076880633831024,0.06047387793660164
1667267183054827000,0.218826904296875,-0.01038440316915512,-0.021990500390529633,0.062306419014930725
1667267183057225000,0.221224853515625,-0.007941014133393764,-0.022601349279284477,0.06658235192298889
1667267183059622700,0.22362255859375,-0.004275931045413017,-0.023212196305394173,0.06719319522380829
1667267183062020400,0.226020263671875,0.0012216945178806782,-0.025655584409832954,0.06719319522380829
1667267183064418000,0.22841796875,0.0036650835536420345,-0.023212196305394173,0.07085828483104706
1667267183066816000,0.23081591796875,0.006719320081174374,-0.02076880633831024,0.07146912813186646
1667267183069213700,0.233213623046875,0.006719320081174374,-0.02076880633831024,0.07330167293548584
1667267183071611400,0.235611328125,0.008551862090826035,-0.020157959312200546,0.07513421028852463
1667267183074009000,0.238009033203125,0.008551862090826035,-0.02076880633831024,0.0787992998957634
1667267183076406800,0.24040673828125,0.00916270911693573,-0.021990500390529633,0.08002099394798279
1667267183078804700,0.2428046875,0.007330167107284069,-0.023212196305394173,0.08063183724880219
1667267183081202400,0.245202392578125,0.008551862090826035,-0.02626643143594265,0.08368607610464096
1667267183083600100,0.24760009765625,0.008551862090826035,-0.02993151545524597,0.08674030750989914
1667267183085997800,0.249997802734375,0.007941014133393764,-0.03176405653357506,0.08674030750989914
1667267183088395800,0.252395751953125,0.006719320081174374,-0.03420744836330414,0.0910162404179573
1667267183090793500,0.25479345703125,0.0030542362947016954,-0.03665083646774292,0.09529217332601547
1667267183093191200,0.257191162109375,0.0024433890357613564,-0.03787253051996231,0.09651386737823486
1667267183095588900,0.2595888671875,0,-0.042759306728839874,0.10078980028629303
1667267183097986800,0.26198681640625,0,-0.04153761267662048,0.1050657257437706
1667267183100384500,0.264384521484375,-0.0012216945178806782,-0.043981000781059265,0.10873081535100937
1667267183102782200,0.2667822265625,-0.0036650835536420345,-0.04214845970273018,0.11056335270404816
1667267183105180000,0.269179931640625,-0.006108472589403391,-0.04703523963689804,0.11606097966432571
1667267183107577900,0.271577880859375,-0.012216945178806782,-0.05986303091049194,0.12339114397764206
1667267183109975600,0.2739755859375,-0.020157959312200546,-0.0647498071193695,0.12827792763710022
1667267183112373200,0.276373291015625,-0.021379653364419937,-0.06413896381855011,0.13499724864959717
1667267183114771000,0.27877099609375,-0.023823043331503868,-0.05986303091049194,0.13988402485847473
1667267183117169000,0.2811689453125,-0.02870982140302658,-0.055587101727724075,0.1435490995645523
1667267183119566600,0.283566650390625,-0.030542362481355667,-0.054365407675504684,0.14843589067459106
1667267183121964300,0.28596435546875,-0.03176405653357506,-0.0525328628718853,0.15087927877902985
1667267183124362000,0.288362060546875,-0.031153209507465363,-0.055587101727724075,0.15271180868148804
1667267183126759700,0.290759765625,-0.031153209507465363,-0.05986303091049194,0.15026842057704926
1667267183129157600,0.29315771484375,-0.02870982140302658,-0.06352811306715012,0.14782503247261047
1667267183131555300,0.295555419921875,-0.02748812735080719,-0.06658235192298889,0.1447708010673523
1667267183133953000,0.297953125,-0.02748812735080719,-0.06841489672660828,0.14171656966209412
1667267183136350700,0.300350830078125,-0.026877280324697495,-0.06963659077882767,0.14049486815929413
1667267183138748700,0.302748779296875,-0.025655584409832954,-0.07391251623630524,0.1325538605451584
1667267183141146400,0.305146484375,-0.02870982140302658,-0.07574506103992462,0.12644538283348083
1667267183143544000,0.3075439453125,-0.02626643143594265,-0.07757759839296341,0.12094775587320328
1667267183145941800,0.309941650390625,-0.029320668429136276,-0.08185353130102158,0.11545012891292572
1667267183148339700,0.312339599609375,-0.02870982140302658,-0.08307522535324097,0.10873081535100937
1667267183150737400,0.3147373046875,-0.025655584409832954,-0.08124268800020218,0.10201149433851242
1667267183153135000,0.317135009765625,-0.021379653364419937,-0.08002099394798279,0.09590301662683487
1667267183155532800,0.31953271484375,-0.016492875292897224,-0.08185353130102158,0.08735115826129913
1667267183157930500,0.321930419921875,-0.011606098152697086,-0.08246438205242157,0.08490777015686035
1667267183160328400,0.324328369140625,-0.00916270911693573,-0.08490777015686035,0.07696675509214401
1667267183162726100,0.32672607421875,-0.005497625097632408,-0.08796200156211853,0.07146912813186646
1667267183165123800,0.329123779296875,-0.0006108472589403391,-0.08979454636573792,0.06413896381855011
1667267183167521500,0.331521484375,0.0024433890357613564,-0.08674030750989914,0.061084724962711334
1667267183169919500,0.33391943359375,0.006108472589403391,-0.08368607610464096,0.05497625470161438
1667267183172317200,0.336317138671875,0.00916270911693573,-0.08124268800020218,0.05070032179355621
1667267183174715000,0.33871484375,0.010995250195264816,-0.0781884491443634,0.04703523963689804
1667267183177112600,0.341112548828125,0.012216945178806782,-0.0794101431965828,0.04092676565051079
1667267183179510300,0.34351025390625,0.014660334214568138,-0.08429691940546036,0.037261683493852615
1667267183181908200,0.345908203125,0.01832541823387146,-0.08857285231351852,0.03298575058579445
1667267183184306000,0.348305908203125,0.018936265259981155,-0.0916270911693573,0.030542362481355667
1667267183186703600,0.35070361328125,0.017714571207761765,-0.08857285231351852,0.029320668429136276
1667267183189101300,0.353101318359375,0.016492875292897224,-0.09040539711713791,0.029320668429136276
1667267183191499300,0.355499267578125,0.014660334214568138,-0.09040539711713791,0.029320668429136276
1667267183193897000,0.35789697265625,0.012827792204916477,-0.08796200156211853,0.030542362481355667
1667267183196294700,0.360294677734375,0.012216945178806782,-0.08551861345767975,0.03176405653357506
1667267183198692400,0.3626923828125,0.007330167107284069,-0.08185353130102158,0.03298575058579445
1667267183201090300,0.36509033203125,0.008551862090826035,-0.07757759839296341,0.03420744836330414
1667267183203488000,0.367488037109375,0.005497625097632408,-0.07391251623630524,0.038483377546072006
1667267183205885700,0.3698857421875,0.0036650835536420345,-0.07207997888326645,0.04092676565051079
1667267183208283400,0.372283447265625,0.004886778071522713,-0.06719319522380829,0.04153761267662048
1667267183210681300,0.374681396484375,0.0030542362947016954,-0.0653606578707695,0.04214845970273018
1667267183213079000,0.3770791015625,0.0036650835536420345,-0.0659715011715889,0.04031591862440109
1667267183215476700,0.379476806640625,0.0036650835536420345,-0.062306419014930725,0.0397050715982914
1667267183217874400,0.38187451171875,0.0006108472589403391,-0.06658235192298889,0.04214845970273018
1667267183220272400,0.3842724609375,0,-0.06963659077882767,0.04092676565051079
1667267183222670000,0.386670166015625,0.0012216945178806782,-0.07269082218408585,0.0397050715982914
1667267183225067800,0.38906787109375,-0.0006108472589403391,-0.07696675509214401,0.03665083646774292
1667267183227465500,0.391465576171875,-0.0006108472589403391,-0.08124268800020218,0.03298575058579445
1667267183229863200,0.39386328125,0,-0.08002099394798279,0.03298575058579445
1667267183232261000,0.39626123046875,-0.0030542362947016954,-0.07757759839296341,0.02993151545524597
1667267183234658800,0.398658935546875,-0.006719320081174374,-0.06902574002742767,0.02748812735080719
1667267183237056500,0.401056396484375,-0.011606098152697086,-0.06780404597520828,0.02626643143594265
1667267183239454200,0.4034541015625,-0.01588202826678753,-0.06719319522380829,0.026877280324697495
1667267183241852200,0.40585205078125,-0.021990500390529633,-0.06291726976633072,0.02626643143594265
1667267183244249900,0.408249755859375,-0.02626643143594265,-0.05741964280605316,0.023823043331503868
1667267183246647600,0.4106474609375,-0.031153209507465363,-0.051922015845775604,0.020157959312200546
1667267183249045200,0.413045166015625,-0.037261683493852615,-0.04886778071522713,0.015271181240677834
1667267183251443000,0.41544287109375,-0.04092676565051079,-0.04459185153245926,0.014049487188458443
1667267183253841000,0.4178408203125,-0.042759306728839874,-0.04031591862440109,0.01038440316915512
1667267183256238600,0.420238525390625,-0.042759306728839874,-0.03787253051996231,0.005497625097632408
1667267183258636300,0.42263623046875,-0.043981000781059265,-0.03665083646774292,0.0006108472589403391
1667267183261034000,0.425033935546875,-0.04214845970273018,-0.03665083646774292,-0.004275931045413017
1667267183263432000,0.427431884765625,-0.038483377546072006,-0.03298575058579445,-0.007941014133393764
1667267183265829600,0.42982958984375,-0.03542914241552353,-0.02993151545524597,-0.011606098152697086
1667267183268227300,0.432227294921875,-0.03420744836330414,-0.030542362481355667,-0.011606098152697086
1667267183270625000,0.434625,-0.030542362481355667,-0.02626643143594265,-0.01588202826678753
1667267183273023000,0.43702294921875,-0.02626643143594265,-0.025655584409832954,-0.018936265259981155
1667267183275420700,0.439420654296875,-0.022601349279284477,-0.021990500390529633,-0.02076880633831024
1667267183277818400,0.441818359375,-0.01954711228609085,-0.020157959312200546,-0.021379653364419937
1667267183280216000,0.444216064453125,-0.013438640162348747,-0.023823043331503868,-0.023823043331503868
1667267183282613800,0.44661376953125,-0.009773556143045425,-0.025655584409832954,-0.02748812735080719
1667267183285011700,0.44901171875,-0.005497625097632408,-0.02870982140302658,-0.02870982140302658
1667267183287409400,0.451409423828125,-0.0006108472589403391,-0.03176405653357506,-0.029320668429136276
1667267183289807000,0.45380712890625,0.0006108472589403391,-0.031153209507465363,-0.029320668429136276
1667267183292204800,0.456204833984375,0.0024433890357613564,-0.03298575058579445,-0.030542362481355667
1667267183294602800,0.458602783203125,0.006108472589403391,-0.03237490355968475,-0.026877280324697495
1667267183297000400,0.46100048828125,0.007330167107284069,-0.030542362481355667,-0.02504473738372326
1667267183299398100,0.463398193359375,0.00916270911693573,-0.030542362481355667,-0.023823043331503868
1667267183301795800,0.4657958984375,0.01038440316915512,-0.03298575058579445,-0.021990500390529633
1667267183304193800,0.46819384765625,0.012827792204916477,-0.03665083646774292,-0.018936265259981155
1667267183306591500,0.470591552734375,0.014049487188458443,-0.037261683493852615,-0.017714571207761765
1667267183308989200,0.4729892578125,0.013438640162348747,-0.045202698558568954,-0.01710372418165207
1667267183311387000,0.475386962890625,0.011606098152697086,-0.04703523963689804,-0.01588202826678753
1667267183313784800,0.477784912109375,0.012216945178806782,-0.0525328628718853,-0.01588202826678753
1667267183316182500,0.4801826171875,0.009773556143045425,-0.053143709897994995,-0.016492875292897224
1667267183318580200,0.482580322265625,0.009773556143045425,-0.051922015845775604,-0.01710372418165207
1667267183320978000,0.48497802734375,0.007330167107284069,-0.04886778071522713,-0.017714571207761765
1667267183323375900,0.4873759765625,0.004886778071522713,-0.04459185153245926,-0.018936265259981155
1667267183325773600,0.489773681640625,0.004275931045413017,-0.043981000781059265,-0.01832541823387146
1667267183328171300,0.492171142578125,0.0030542362947016954,-0.03787253051996231,-0.01954711228609085
1667267183330569000,0.49456884765625,0.0030542362947016954,-0.034818295389413834,-0.02076880633831024
1667267183332966700,0.496966552734375,0.0006108472589403391,-0.030542362481355667,-0.02076880633831024
1667267183335364600,0.499364501953125,-0.0006108472589403391,-0.02993151545524597,-0.020157959312200546
1667267183337762300,0.50176220703125,0,-0.024433890357613564,-0.02076880633831024
1667267183340160000,0.504159912109375,-0.0012216945178806782,-0.023212196305394173,-0.020157959312200546
1667267183342557700,0.5065576171875,-0.0006108472589403391,-0.021990500390529633,-0.020157959312200546
1667267183344955600,0.50895556640625,0,-0.018936265259981155,-0.020157959312200546
1667267183347353300,0.511353271484375,-0.0024433890357613564,-0.015271181240677834,-0.020157959312200546
1667267183349751000,0.5137509765625,-0.0012216945178806782,-0.012827792204916477,-0.01954711228609085
1667267183352148700,0.516148681640625,0,-0.013438640162348747,-0.021990500390529633
1667267183354546700,0.518546630859375,0,-0.01588202826678753,-0.021990500390529633
1667267183356944400,0.5209443359375,0.0018325417768210173,-0.01588202826678753,-0.021990500390529633
1667267183359342000,0.523342041015625,0.0006108472589403391,-0.014049487188458443,-0.021379653364419937
1667267183361739800,0.52573974609375,0.0012216945178806782,-0.017714571207761765,-0.022601349279284477
1667267183364137500,0.528137451171875,0.0006108472589403391,-0.023823043331503868,-0.02504473738372326
1667267183366535400,0.530535400390625,0.0006108472589403391,-0.029320668429136276,-0.02626643143594265
1667267183368933000,0.53293310546875,-0.0012216945178806782,-0.034818295389413834,-0.02870982140302658
1667267183371330800,0.535330810546875,-0.0024433890357613564,-0.04153761267662048,-0.028098974376916885
1667267183373728500,0.537728515625,-0.0024433890357613564,-0.047646086663007736,-0.02748812735080719
1667267183376126500,0.54012646484375,-0.0036650835536420345,-0.053143709897994995,-0.02748812735080719
1667267183378524200,0.542524169921875,-0.0024433890357613564,-0.05497625470161438,-0.02504473738372326
1667267183380921900,0.544921875,-0.0030542362947016954,-0.05741964280605316,-0.024433890357613564
1667267183383319600,0.547319580078125,-0.0030542362947016954,-0.06047387793660164,-0.01954711228609085
1667267183385717500,0.549717529296875,-0.0024433890357613564,-0.06352811306715012,-0.018936265259981155
1667267183388115200,0.552115234375,-0.004886778071522713,-0.06658235192298889,-0.01832541823387146
1667267183390513000,0.554512939453125,-0.0030542362947016954,-0.0653606578707695,-0.012216945178806782
1667267183392910600,0.55691064453125,-0.0030542362947016954,-0.06658235192298889,-0.011606098152697086
1667267183395308300,0.559308349609375,-0.006719320081174374,-0.06719319522380829,-0.006719320081174374
1667267183397706200,0.561706298828125,-0.006719320081174374,-0.0659715011715889,-0.0036650835536420345
1667267183400104000,0.56410400390625,-0.007330167107284069,-0.06413896381855011,0
1667267183402501600,0.566501708984375,-0.007330167107284069,-0.06047387793660164,0.0030542362947016954
1667267183404899300,0.5688994140625,-0.007941014133393764,-0.056808795779943466,0.006719320081174374
1667267183407297300,0.57129736328125,-0.008551862090826035,-0.055587101727724075,0.011606098152697086
1667267183409695000,0.573695068359375,-0.006719320081174374,-0.0525328628718853,0.013438640162348747
1667267183412092700,0.5760927734375,-0.007330167107284069,-0.05131116881966591,0.017714571207761765
1667267183414490400,0.578490478515625,-0.006719320081174374,-0.047646086663007736,0.01954711228609085
1667267183416888300,0.580888427734375,-0.005497625097632408,-0.047646086663007736,0.021990500390529633
1667267183419286000,0.5832861328125,-0.004886778071522713,-0.04825693368911743,0.022601349279284477
1667267183421683700,0.58568359375,-0.004275931045413017,-0.047646086663007736,0.023212196305394173
1667267183424081400,0.588081298828125,-0.0024433890357613564,-0.05008947476744652,0.025655584409832954
1667267183426479400,0.590479248046875,-0.004275931045413017,-0.054365407675504684,0.024433890357613564
1667267183428877000,0.592876953125,-0.0036650835536420345,-0.054365407675504684,0.024433890357613564
1667267183431274800,0.595274658203125,-0.0012216945178806782,-0.056808795779943466,0.023212196305394173
1667267183433672400,0.59767236328125,0,-0.05864133685827255,0.025655584409832954
1667267183436070400,0.6000703125,-0.0006108472589403391,-0.06047387793660164,0.021379653364419937
1667267183438468000,0.602468017578125,0,-0.05925218388438225,0.020157959312200546
1667267183440865800,0.60486572265625,-0.0006108472589403391,-0.056808795779943466,0.018936265259981155
1667267183443263500,0.607263427734375,-0.0018325417768210173,-0.055587101727724075,0.01832541823387146
1667267183445661400,0.609661376953125,-0.0018325417768210173,-0.05497625470161438,0.017714571207761765
1667267183448059100,0.61205908203125,0,-0.053143709897994995,0.01832541823387146
1667267183450456800,0.614456787109375,0.0006108472589403391,-0.053143709897994995,0.014660334214568138
1667267183452854500,0.6168544921875,0,-0.05070032179355621,0.014049487188458443
1667267183455252200,0.619252197265625,-0.0018325417768210173,-0.04825693368911743,0.011606098152697086
1667267183457650200,0.621650146484375,-0.0018325417768210173,-0.04886778071522713,0.009773556143045425
1667267183460048000,0.6240478515625,0.0006108472589403391,-0.04947862774133682,0.006719320081174374
1667267183462445600,0.626445556640625,-0.0012216945178806782,-0.05070032179355621,0.0024433890357613564
1667267183464843300,0.62884326171875,-0.0012216945178806782,-0.05131116881966591,0.0006108472589403391
1667267183467241200,0.6312412109375,-0.0018325417768210173,-0.05070032179355621,-0.0024433890357613564
1667267183469639000,0.633638916015625,-0.0024433890357613564,-0.051922015845775604,-0.004886778071522713
1667267183472036600,0.63603662109375,0.0006108472589403391,-0.046424392610788345,-0.007330167107284069
1667267183474434300,0.638434326171875,-0.0006108472589403391,-0.042759306728839874,-0.007941014133393764
1667267183476832300,0.640832275390625,0.0006108472589403391,-0.038483377546072006,-0.008551862090826035
1667267183479230000,0.64322998046875,-0.0006108472589403391,-0.03420744836330414,-0.009773556143045425
1667267183481627600,0.645627685546875,-0.0012216945178806782,-0.02870982140302658,-0.010995250195264816
1667267183484025300,0.648025390625,0,-0.024433890357613564,-0.009773556143045425
1667267183486423000,0.650423095703125,-0.0006108472589403391,-0.01954711228609085,-0.011606098152697086
1667267183488821000,0.652821044921875,0,-0.017714571207761765,-0.011606098152697086
1667267183491218700,0.65521875,-0.0006108472589403391,-0.01832541823387146,-0.014049487188458443
1667267183493616400,0.657616455078125,0,-0.017714571207761765,-0.012216945178806782
1667267183496014000,0.66001416015625,0.0018325417768210173,-0.021990500390529633,-0.01710372418165207
1667267183498412000,0.662412109375,0.0018325417768210173,-0.023823043331503868,-0.01832541823387146
1667267183500809700,0.664809814453125,0.0018325417768210173,-0.023823043331503868,-0.022601349279284477
1667267183503207400,0.66720751953125,0.0030542362947016954,-0.023212196305394173,-0.02626643143594265
1667267183505605000,0.669605224609375,0.0030542362947016954,-0.023212196305394173,-0.031153209507465363
1667267183508003000,0.672003173828125,0.0024433890357613564,-0.021379653364419937,-0.03542914241552353
1667267183510400800,0.67440087890625,0,-0.018936265259981155,-0.0390942245721817
1667267183512798500,0.676798583984375,0.0030542362947016954,-0.01588202826678753,-0.04214845970273018
1667267183515196200,0.679196044921875,0.0012216945178806782,-0.016492875292897224,-0.046424392610788345
1667267183517593900,0.68159375,-0.0006108472589403391,-0.01710372418165207,-0.04703523963689804
1667267183519991800,0.68399169921875,-0.0006108472589403391,-0.01588202826678753,-0.046424392610788345
1667267183522389500,0.686389404296875,0.0006108472589403391,-0.006719320081174374,-0.046424392610788345
1667267183524787200,0.688787109375,0.0018325417768210173,-0.0012216945178806782,-0.046424392610788345
1667267183527185000,0.691184814453125,0.004275931045413017,0.0030542362947016954,-0.04703523963689804
1667267183529582800,0.693582763671875,0.005497625097632408,0.006108472589403391,-0.047646086663007736
1667267183531980500,0.69598046875,0.007330167107284069,0.008551862090826035,-0.04947862774133682
1667267183534378200,0.698378173828125,0.009773556143045425,0.004886778071522713,-0.05008947476744652
1667267183536776200,0.700776123046875,0.010995250195264816,0.0030542362947016954,-0.053143709897994995
1667267183539174000,0.703173828125,0.011606098152697086,0.0036650835536420345,-0.05497625470161438
1667267183541571600,0.705571533203125,0.010995250195264816,-0.0012216945178806782,-0.05925218388438225
1667267183543969300,0.70796923828125,0.012827792204916477,-0.0024433890357613564,-0.06169557198882103
1667267183546367000,0.710366943359375,0.012827792204916477,-0.005497625097632408,-0.06352811306715012
1667267183548765000,0.712764892578125,0.011606098152697086,-0.004886778071522713,-0.0659715011715889
1667267183551162600,0.71516259765625,0.00916270911693573,-0.006719320081174374,-0.06902574002742767
1667267183553560300,0.717560302734375,0.006719320081174374,-0.008551862090826035,-0.06780404597520828
1667267183555958000,0.7199580078125,0.0036650835536420345,-0.005497625097632408,-0.06719319522380829
1667267183558356000,0.72235595703125,0.0030542362947016954,-0.0006108472589403391,-0.06780404597520828
1667267183560753700,0.724753662109375,0.0036650835536420345,0.0018325417768210173,-0.0647498071193695
1667267183563151400,0.7271513671875,0.0006108472589403391,0.007330167107284069,-0.06169557198882103
1667267183565549000,0.729549072265625,0.0018325417768210173,0.011606098152697086,-0.055587101727724075
1667267183567947000,0.731947021484375,0,0.014660334214568138,-0.047646086663007736
1667267183570344700,0.7343447265625,-0.0006108472589403391,0.017714571207761765,-0.04337015375494957
1667267183572742400,0.736742431640625,-0.0006108472589403391,0.017714571207761765,-0.03420744836330414
1667267183575140000,0.73914013671875,-0.0012216945178806782,0.014049487188458443,-0.029320668429136276
1667267183577537800,0.741537841796875,0,0.008551862090826035,-0.021990500390529633
1667267183579935700,0.743935791015625,-0.0006108472589403391,0.0012216945178806782,-0.015271181240677834
1667267183582333400,0.74633349609375,0.0012216945178806782,-0.006719320081174374,-0.010995250195264816
1667267183584731100,0.748731201171875,0.0006108472589403391,-0.014049487188458443,-0.004275931045413017
1667267183587128800,0.75112890625,0.0006108472589403391,-0.02076880633831024,0.0036650835536420345
1667267183589526800,0.75352685546875,0.0018325417768210173,-0.028098974376916885,0.01038440316915512
1667267183591924500,0.755924560546875,0.0018325417768210173,-0.03420744836330414,0.014660334214568138
1667267183594322200,0.758322265625,0.0018325417768210173,-0.038483377546072006,0.018936265259981155
1667267183596719900,0.760719970703125,0.004886778071522713,-0.04703523963689804,0.023823043331503868
1667267183599117800,0.763117919921875,0.007941014133393764,-0.04886778071522713,0.02748812735080719
1667267183601515500,0.765515625,0.007941014133393764,-0.055587101727724075,0.028098974376916885
1667267183603913200,0.767913330078125,0.009773556143045425,-0.05864133685827255,0.02993151545524597
1667267183606311000,0.770310791015625,0.01038440316915512,-0.06047387793660164,0.030542362481355667
1667267183608708600,0.77270849609375,0.01038440316915512,-0.0647498071193695,0.02993151545524597
1667267183611106600,0.7751064453125,0.009773556143045425,-0.06719319522380829,0.02870982140302658
1667267183613504300,0.777504150390625,0.008551862090826035,-0.06841489672660828,0.024433890357613564
1667267183615902000,0.77990185546875,0.007941014133393764,-0.07024743407964706,0.021379653364419937
1667267183618299600,0.782299560546875,0.006719320081174374,-0.06841489672660828,0.021379653364419937
1667267183620697600,0.784697509765625,0.004886778071522713,-0.06780404597520828,0.021379653364419937
1667267183623095300,0.78709521484375,0.005497625097632408,-0.06658235192298889,0.015271181240677834
1667267183625493000,0.789492919921875,0.0018325417768210173,-0.062306419014930725,0.011606098152697086
1667267183627890700,0.791890625,0.0030542362947016954,-0.061084724962711334,0.012827792204916477
1667267183630288600,0.79428857421875,0.0012216945178806782,-0.05803048983216286,0.009773556143045425
1667267183632686300,0.796686279296875,0.0006108472589403391,-0.054365407675504684,0.007330167107284069
1667267183635084000,0.799083984375,0.0006108472589403391,-0.054365407675504684,0.0036650835536420345
1667267183637481700,0.801481689453125,-0.0030542362947016954,-0.05008947476744652,0
1667267183639879700,0.803879638671875,-0.0036650835536420345,-0.05008947476744652,-0.004886778071522713
1667267183642277400,0.80627734375,-0.005497625097632408,-0.053143709897994995,-0.007330167107284069
1667267183644675000,0.808675048828125,-0.007941014133393764,-0.054365407675504684,-0.011606098152697086
1667267183647072800,0.81107275390625,-0.011606098152697086,-0.05619794875383377,-0.013438640162348747
1667267183649470700,0.813470703125,-0.014660334214568138,-0.05741964280605316,-0.01832541823387146
1667267183651868400,0.815868408203125,-0.020157959312200546,-0.061084724962711334,-0.021379653364419937
1667267183654266000,0.81826611328125,-0.02076880633831024,-0.0653606578707695,-0.025655584409832954
1667267183656663800,0.820663818359375,-0.023212196305394173,-0.06902574002742767,-0.026877280324697495
1667267183659061800,0.823061767578125,-0.023823043331503868,-0.06963659077882767,-0.02870982140302658
1667267183661459500,0.82545947265625,-0.020157959312200546,-0.06658235192298889,-0.03420744836330414
1667267183663857200,0.827857177734375,-0.021379653364419937,-0.06169557198882103,-0.03542914241552353
1667267183666254800,0.8302548828125,-0.018936265259981155,-0.05619794875383377,-0.03787253051996231
1667267183668652800,0.83265283203125,-0.016492875292897224,-0.04825693368911743,-0.038483377546072006
1667267183671050500,0.835050537109375,-0.01588202826678753,-0.03787253051996231,-0.0390942245721817
1667267183673448200,0.8374482421875,-0.01038440316915512,-0.02870982140302658,-0.0390942245721817
1667267183675846000,0.839845947265625,-0.005497625097632408,-0.01954711228609085,-0.03787253051996231
1667267183678243800,0.842243896484375,-0.006108472589403391,-0.010995250195264816,-0.038483377546072006
1667267183680641500,0.8446416015625,-0.0024433890357613564,-0.004275931045413017,-0.03665083646774292
1667267183683039200,0.847039306640625,-0.0012216945178806782,0.0024433890357613564,-0.03787253051996231
1667267183685437000,0.84943701171875,0.0024433890357613564,0.007941014133393764,-0.036039989441633224
1667267183687835000,0.8518349609375,0.004275931045413017,0.011606098152697086,-0.03542914241552353
1667267183690232600,0.854232666015625,0.007941014133393764,0.014660334214568138,-0.036039989441633224
1667267183692630300,0.85663037109375,0.011606098152697086,0.01832541823387146,-0.037261683493852615
1667267183695028000,0.859028076171875,0.015271181240677834,0.021379653364419937,-0.038483377546072006
1667267183697425700,0.86142578125,0.015271181240677834,0.022601349279284477,-0.0390942245721817
1667267183699823600,0.86382373046875,0.01588202826678753,0.024433890357613564,-0.04092676565051079
1667267183702221300,0.86622119140625,0.01710372418165207,0.023823043331503868,-0.04153761267662048
1667267183704619000,0.868618896484375,0.016492875292897224,0.023823043331503868,-0.04153761267662048
1667267183707016700,0.8710166015625,0.01832541823387146,0.024433890357613564,-0.04153761267662048
1667267183709414700,0.87341455078125,0.018936265259981155,0.024433890357613564,-0.04092676565051079
1667267183711812400,0.875812255859375,0.018936265259981155,0.024433890357613564,-0.04153761267662048
1667267183714210000,0.8782099609375,0.017714571207761765,0.02076880633831024,-0.04214845970273018
1667267183716607700,0.880607666015625,0.018936265259981155,0.017714571207761765,-0.04214845970273018
1667267183719005700,0.883005615234375,0.017714571207761765,0.01038440316915512,-0.0397050715982914
1667267183721403400,0.8854033203125,0.017714571207761765,0.0036650835536420345,-0.04031591862440109
1667267183723801000,0.887801025390625,0.01710372418165207,-0.0012216945178806782,-0.0397050715982914
1667267183726198800,0.89019873046875,0.014049487188458443,-0.006108472589403391,-0.038483377546072006
1667267183728596700,0.8925966796875,0.015271181240677834,-0.01038440316915512,-0.03542914241552353
1667267183730994400,0.894994384765625,0.013438640162348747,-0.013438640162348747,-0.02993151545524597
1667267183733392100,0.89739208984375,0.014660334214568138,-0.015271181240677834,-0.02626643143594265
1667267183735789800,0.899789794921875,0.013438640162348747,-0.017714571207761765,-0.025655584409832954
1667267183738187800,0.902187744140625,0.012827792204916477,-0.013438640162348747,-0.022601349279284477
1667267183740585500,0.90458544921875,0.011606098152697086,-0.014660334214568138,-0.017714571207761765
1667267183742983200,0.906983154296875,0.011606098152697086,-0.015271181240677834,-0.014049487188458443
1667267183745380900,0.909380859375,0.012827792204916477,-0.015271181240677834,-0.009773556143045425
1667267183747778600,0.911778564453125,0.014049487188458443,-0.01832541823387146,-0.004886778071522713
1667267183750176500,0.914176513671875,0.012216945178806782,-0.018936265259981155,-0.0030542362947016954
1667267183752574200,0.91657421875,0.014049487188458443,-0.022601349279284477,-0.0006108472589403391
1667267183754972000,0.918971923828125,0.014660334214568138,-0.024433890357613564,0.0012216945178806782
1667267183757369600,0.92136962890625,0.01588202826678753,-0.02870982140302658,0.0012216945178806782
1667267183759767600,0.923767578125,0.015271181240677834,-0.033596597611904144,0
1667267183762165200,0.926165283203125,0.014660334214568138,-0.036039989441633224,0.0006108472589403391
1667267183764563000,0.92856298828125,0.014049487188458443,-0.0390942245721817,-0.0006108472589403391
1667267183766960600,0.930960693359375,0.014660334214568138,-0.04031591862440109,-0.005497625097632408
1667267183769358600,0.933358642578125,0.014660334214568138,-0.0397050715982914,-0.006719320081174374
1667267183771756300,0.93575634765625,0.01588202826678753,-0.038483377546072006,-0.009773556143045425
1667267183774154000,0.938154052734375,0.012827792204916477,-0.0390942245721817,-0.015271181240677834
1667267183776551700,0.9405517578125,0.014660334214568138,-0.03787253051996231,-0.018936265259981155
1667267183778949600,0.94294970703125,0.012827792204916477,-0.04153761267662048,-0.028098974376916885
1667267183781347300,0.945347412109375,0.014049487188458443,-0.046424392610788345,-0.03298575058579445
1667267183783745000,0.9477451171875,0.013438640162348747,-0.04947862774133682,-0.0397050715982914
1667267183786142700,0.950142822265625,0.014660334214568138,-0.05864133685827255,-0.04886778071522713
1667267183788540700,0.952540771484375,0.01588202826678753,-0.06658235192298889,-0.05741964280605316
1667267183790938400,0.9549384765625,0.01710372418165207,-0.07696675509214401,-0.06658235192298889
1667267183793336000,0.957336181640625,0.016492875292897224,-0.08246438205242157,-0.07391251623630524
1667267183795733800,0.959733642578125,0.01710372418165207,-0.08796200156211853,-0.08002099394798279
1667267183798131700,0.962131591796875,0.01588202826678753,-0.08857285231351852,-0.08612946420907974
1667267183800529400,0.964529296875,0.01588202826678753,-0.08674030750989914,-0.0910162404179573
1667267183802927000,0.966927001953125,0.01588202826678753,-0.08796200156211853,-0.09590301662683487
1667267183805324800,0.96932470703125,0.01588202826678753,-0.08368607610464096,-0.09956810623407364
1667267183807722800,0.97172265625,0.014660334214568138,-0.08246438205242157,-0.1050657257437706
1667267183810120400,0.974120361328125,0.012827792204916477,-0.07513421028852463,-0.10811996459960938
1667267183812532500,0.976532470703125,0.010995250195264816,-0.06719319522380829,-0.11300674080848694
1667267183814915800,0.978915771484375,0.01038440316915512,-0.06169557198882103,-0.11667182296514511
1667267183817313800,0.981313720703125,0.010995250195264816,-0.05741964280605316,-0.12033691257238388
1667267183819711500,0.98371142578125,0.013438640162348747,-0.05497625470161438,-0.12339114397764206
1667267183822109200,0.986109130859375,0.014049487188458443,-0.056808795779943466,-0.12705622613430023
1667267183824507000,0.9885068359375,0.014049487188458443,-0.05741964280605316,-0.130721315741539
1667267183826904800,0.99090478515625,0.014660334214568138,-0.0647498071193695,-0.1325538605451584
1667267183829302500,0.993302490234375,0.014660334214568138,-0.07207997888326645,-0.1319430023431778
1667267183831700200,0.9957001953125,0.012827792204916477,-0.08185353130102158,-0.129499614238739
1667267183834098000,0.998097900390625,0.01038440316915512,-0.08796200156211853,-0.12278030067682266
1667267183836496000,1.000495849609375,0.007941014133393764,-0.0916270911693573,-0.11667182296514511
1667267183838893600,1.0028935546875,0.006719320081174374,-0.0922379344701767,-0.1044548824429512
1667267183841291300,1.005291259765625,0.0012216945178806782,-0.08979454636573792,-0.09345962852239609
1667267183843689000,1.00768896484375,-0.005497625097632408,-0.08612946420907974,-0.08185353130102158
1667267183846087000,1.0100869140625,-0.012216945178806782,-0.08368607610464096,-0.06841489672660828
1667267183848484600,1.012484619140625,-0.017714571207761765,-0.08124268800020218,-0.05497625470161438
1667267183850882300,1.01488232421875,-0.021990500390529633,-0.0794101431965828,-0.04337015375494957
1667267183853280000,1.017280029296875,-0.028098974376916885,-0.0781884491443634,-0.02993151545524597
1667267183855678000,1.019677978515625,-0.031153209507465363,-0.07513421028852463,-0.01832541823387146
1667267183858075600,1.02207568359375,-0.03542914241552353,-0.07330167293548584,-0.007941014133393764
1667267183860473300,1.024473388671875,-0.04092676565051079,-0.06963659077882767,-0.0006108472589403391
1667267183862871000,1.02687109375,-0.042759306728839874,-0.06719319522380829,0.007941014133393764
1667267183865269000,1.02926904296875,-0.047646086663007736,-0.0653606578707695,0.012827792204916477
1667267183867666700,1.031666748046875,-0.0525328628718853,-0.05986303091049194,0.017714571207761765
1667267183870064400,1.034064453125,-0.06169557198882103,-0.0525328628718853,0.021379653364419937
1667267183872462000,1.036462158203125,-0.06780404597520828,-0.04703523963689804,0.023212196305394173
1667267183874860000,1.038860107421875,-0.07207997888326645,-0.042759306728839874,0.022601349279284477
1667267183877257700,1.0412578125,-0.07391251623630524,-0.037261683493852615,0.017714571207761765
1667267183879655400,1.043655517578125,-0.07207997888326645,-0.029320668429136276,0.016492875292897224
1667267183882053000,1.04605322265625,-0.07330167293548584,-0.025655584409832954,0.01038440316915512
1667267183884451000,1.048451171875,-0.07146912813186646,-0.015271181240677834,0.007941014133393764
1667267183886848800,1.050848876953125,-0.07085828483104706,-0.005497625097632408,0
1667267183889246500,1.05324658203125,-0.07207997888326645,0.007941014133393764,-0.004275931045413017
1667267183891644200,1.05564404296875,-0.07269082218408585,0.02504473738372326,-0.007330167107284069
1667267183894042000,1.0580419921875,-0.07207997888326645,0.04581354558467865,-0.012827792204916477
1667267183896439800,1.060439697265625,-0.07269082218408585,0.07146912813186646,-0.018936265259981155
1667267183898837500,1.06283740234375,-0.07391251623630524,0.10078980028629303,-0.021379653364419937
1667267183901235200,1.065235107421875,-0.07635590434074402,0.12644538283348083,-0.02504473738372326
1667267183903633000,1.0676328125,-0.0787992998957634,0.1575985997915268,-0.026877280324697495
1667267183906030800,1.07003076171875,-0.08124268800020218,0.1832541823387146,-0.029320668429136276
1667267183908428500,1.072428466796875,-0.08674030750989914,0.20646637678146362,-0.031153209507465363
1667267183910826200,1.074826171875,-0.0916270911693573,0.22784602642059326,-0.03176405653357506
1667267183913224000,1.077223876953125,-0.09895725548267365,0.2473931461572647,-0.03298575058579445
1667267183915622000,1.079621826171875,-0.1050657257437706,0.26632940769195557,-0.034818295389413834
1667267183918019600,1.08201953125,-0.11239589750766754,0.28221142292022705,-0.034818295389413834
1667267183920417300,1.084417236328125,-0.12278030067682266,0.3017585575580597,-0.03665083646774292
1667267183922815000,1.08681494140625,-0.13377554714679718,0.32252734899520874,-0.03665083646774292
1667267183925213000,1.089212890625,-0.1453816443681717,0.3408527672290802,-0.03542914241552353
1667267183927610600,1.091610595703125,-0.1575985997915268,0.35978904366493225,-0.034818295389413834
1667267183930008300,1.09400830078125,-0.16859383881092072,0.3830012381076813,-0.03237490355968475
1667267183932406000,1.096406005859375,-0.17775654792785645,0.4074351191520691,-0.03176405653357506
1667267183934804000,1.098803955078125,-0.18875180184841156,0.4330907166004181,-0.028098974376916885
1667267183937201700,1.10120166015625,-0.1966928243637085,0.4587462842464447,-0.026877280324697495
1667267183939599400,1.103599365234375,-0.20524467527866364,0.4862344264984131,-0.023212196305394173
1667267183941997000,1.1059970703125,-0.2107423096895218,0.5112791657447815,-0.023823043331503868
1667267183944395000,1.10839501953125,-0.21746163070201874,0.5338805317878723,-0.023212196305394173
1667267183946792700,1.110792724609375,-0.2211267054080963,0.5540384650230408,-0.022601349279284477
1667267183949190400,1.1131904296875,-0.22601348161697388,0.5723638534545898,-0.024433890357613564
1667267183951588000,1.115588134765625,-0.22723518311977386,0.5894675850868225,-0.023212196305394173
1667267183953986000,1.117986083984375,-0.22723518311977386,0.5998520255088806,-0.02626643143594265
1667267183956383700,1.1203837890625,-0.22479179501533508,0.6108472347259521,-0.03237490355968475
1667267183958781400,1.122781494140625,-0.2241809368133545,0.6163448691368103,-0.03787253051996231
1667267183961179100,1.12517919921875,-0.22479179501533508,0.6035171151161194,-0.045202698558568954
1667267183963577000,1.1275771484375,-0.23028941452503204,0.5699204802513123,-0.051922015845775604
1667267183965974800,1.129974853515625,-0.24006296694278717,0.5369347333908081,-0.056808795779943466
1667267183968372500,1.13237255859375,-0.25472331047058105,0.5070032477378845,-0.05741964280605316
1667267183970770200,1.134770263671875,-0.2620534598827362,0.4947862923145294,-0.053143709897994995
1667267183973168000,1.137168212890625,-0.2638860046863556,0.48989951610565186,-0.05070032179355621
1667267183975565800,1.13956591796875,-0.26938363909721375,0.47768256068229675,-0.04947862774133682
1667267183977963500,1.141963623046875,-0.2742704153060913,0.4593571424484253,-0.04581354558467865
1667267183980361200,1.144361328125,-0.27915719151496887,0.4343124032020569,-0.043981000781059265
1667267183982759200,1.14675927734375,-0.2761029601097107,0.40071579813957214,-0.045202698558568954
1667267183985156900,1.149156982421875,-0.2724378705024719,0.367730051279068,-0.04886778071522713
1667267183987554600,1.151554443359375,-0.26816195249557495,0.33413344621658325,-0.0525328628718853
1667267183989952300,1.1539521484375,-0.2602209448814392,0.3054236173629761,-0.055587101727724075
1667267183992350200,1.15635009765625,-0.2510582208633423,0.2852656841278076,-0.056808795779943466
1667267183994748000,1.158747802734375,-0.24189551174640656,0.26632940769195557,-0.06047387793660164
1667267183997145600,1.1611455078125,-0.23151111602783203,0.2492256760597229,-0.06352811306715012
1667267183999543300,1.163543212890625,-0.2217375487089157,0.23090025782585144,-0.06780404597520828
1667267184001941200,1.165941162109375,-0.21318569779396057,0.21868331730365753,-0.07146912813186646
1667267184004339000,1.1683388671875,-0.20157960057258606,0.208298921585083,-0.07757759839296341
1667267184006736600,1.170736572265625,-0.19424942135810852,0.1960819661617279,-0.08063183724880219
1667267184009134300,1.17313427734375,-0.1850867122411728,0.19241689145565033,-0.08674030750989914
1667267184011532300,1.1755322265625,-0.17286977171897888,0.19241689145565033,-0.0910162404179573
1667267184013930000,1.177929931640625,-0.15943112969398499,0.19913621246814728,-0.09834641218185425
1667267184016327700,1.18032763671875,-0.14782503247261047,0.208298921585083,-0.10323318839073181
1667267184018725400,1.182725341796875,-0.13988402485847473,0.21807247400283813,-0.10995250940322876
1667267184021123300,1.185123291015625,-0.1313321590423584,0.22662433981895447,-0.12033691257238388
1667267184023521000,1.18752099609375,-0.12278030067682266,0.23884128034114838,-0.12644538283348083
1667267184025918700,1.189918701171875,-0.1185043677687645,0.2510582208633423,-0.13560809195041656
1667267184028316400,1.19231640625,-0.10995250940322876,0.261442631483078,-0.1429382562637329
1667267184030714400,1.19471435546875,-0.10140064358711243,0.2736595869064331,-0.15210096538066864
1667267184033112000,1.197112060546875,-0.09407047927379608,0.2852656841278076,-0.16248537600040436
1667267184035509800,1.199509765625,-0.08979454636573792,0.29442837834358215,-0.17286977171897888
1667267184037907500,1.201907470703125,-0.08429691940546036,0.29259583353996277,-0.1850867122411728
1667267184040305400,1.204305419921875,-0.08063183724880219,0.2742704153060913,-0.1954711228609085
1667267184042703000,1.206703125,-0.08063183724880219,0.26816195249557495,-0.20463383197784424
1667267184045100800,1.209100830078125,-0.07574506103992462,0.2736595869064331,-0.21257483959197998
1667267184047498500,1.21149853515625,-0.07085828483104706,0.28282228112220764,-0.21807247400283813
1667267184049896400,1.213896484375,-0.06291726976633072,0.29320669174194336,-0.2229592502117157
1667267184052294100,1.216294189453125,-0.05619794875383377,0.3023693859577179,-0.23090025782585144
1667267184054691800,1.21869189453125,-0.04947862774133682,0.30725616216659546,-0.2345653474330902
1667267184057089500,1.221089599609375,-0.04092676565051079,0.3035911023616791,-0.23945212364196777
1667267184059487500,1.223487548828125,-0.03665083646774292,0.29381752014160156,-0.24556060135364532
1667267184061885200,1.22588525390625,-0.034818295389413834,0.28037887811660767,-0.25472331047058105
1667267184064283000,1.228282958984375,-0.033596597611904144,0.26755109429359436,-0.2620534598827362
1667267184066680600,1.2306806640625,-0.033596597611904144,0.25533416867256165,-0.26999449729919434
1667267184069078500,1.23307861328125,-0.03237490355968475,0.24372805655002594,-0.27854636311531067
1667267184071476200,1.235476318359375,-0.03176405653357506,0.22967857122421265,-0.2852656841278076
1667267184073874000,1.2378740234375,-0.031153209507465363,0.21990501880645752,-0.29442837834358215
1667267184076271600,1.240271728515625,-0.02870982140302658,0.20585553348064423,-0.3029802441596985
1667267184078669600,1.242669677734375,-0.02504473738372326,0.19363857805728912,-0.31092125177383423
1667267184081067300,1.2450673828125,-0.021990500390529633,0.17470231652259827,-0.31947311758995056
1667267184083465000,1.24746484375,-0.018936265259981155,0.13316470384597778,-0.32252734899520874
1667267184085862700,1.249862548828125,-0.017714571207761765,0.10995250940322876,-0.3243598937988281
1667267184088260600,1.252260498046875,-0.01710372418165207,0.09834641218185425,-0.3243598937988281
1667267184090658300,1.254658203125,-0.011606098152697086,0.09834641218185425,-0.31886225938796997
1667267184093056000,1.257055908203125,-0.0036650835536420345,0.10384403169155121,-0.3115321099758148
1667267184095454000,1.259453857421875,0.006108472589403391,0.1050657257437706,-0.30481278896331787
1667267184097851600,1.2618515625,0.018936265259981155,0.10384403169155121,-0.3005368411540985
1667267184100249300,1.264249267578125,0.031153209507465363,0.09590301662683487,-0.29442837834358215
1667267184102647000,1.26664697265625,0.04337015375494957,0.0794101431965828,-0.291374146938324
1667267184105045000,1.269044921875,0.056808795779943466,0.06963659077882767,-0.2877090573310852
1667267184107442700,1.271442626953125,0.06719319522380829,0.0653606578707695,-0.28221142292022705
1667267184109840400,1.27384033203125,0.0781884491443634,0.06352811306715012,-0.27854636311531067
1667267184112238000,1.276238037109375,0.08674030750989914,0.06169557198882103,-0.2718270421028137
1667267184114636000,1.278635986328125,0.09284878522157669,0.06291726976633072,-0.2632751762866974
1667267184117033700,1.28103369140625,0.09956810623407364,0.06169557198882103,-0.25655585527420044
1667267184119431400,1.283431396484375,0.10262233763933182,0.06047387793660164,-0.24372805655002594
1667267184121829000,1.2858291015625,0.1056765764951706,0.05864133685827255,-0.23212195932865143
1667267184124227000,1.28822705078125,0.10934165865182877,0.05741964280605316,-0.21990501880645752
1667267184126624800,1.290624755859375,0.11117420345544815,0.051922015845775604,-0.20646637678146362
1667267184129022500,1.2930224609375,0.11606097966432571,0.043981000781059265,-0.1954711228609085
1667267184131420200,1.295420166015625,0.11911521852016449,0.03542914241552353,-0.1820324808359146
1667267184133818000,1.297818115234375,0.12216944992542267,0.026877280324697495,-0.1710372269153595
1667267184136215800,1.3002158203125,0.12827792763710022,0.02076880633831024,-0.1588202863931656
1667267184138613500,1.302613525390625,0.13499724864959717,0.015271181240677834,-0.14721418917179108
1667267184141011200,1.30501123046875,0.13866232335567474,0.009773556143045425,-0.13927318155765533
1667267184143409200,1.3074091796875,0.1459924876689911,0.004886778071522713,-0.1301104724407196
1667267184145806800,1.309806884765625,0.15210096538066864,0,-0.12278030067682266
1667267184148204500,1.31220458984375,0.15943112969398499,-0.0030542362947016954,-0.11667182296514511
1667267184150602200,1.314602294921875,0.16615045070648193,-0.0036650835536420345,-0.11361759155988693
1667267184153000200,1.317000244140625,0.17225892841815948,-0.0018325417768210173,-0.10995250940322876
1667267184155398000,1.31939794921875,0.18019993603229523,-0.0012216945178806782,-0.11056335270404816
1667267184157795600,1.321795654296875,0.18691925704479218,0.007330167107284069,-0.10934165865182877
1667267184160193300,1.324193359375,0.19363857805728912,0.012827792204916477,-0.10934165865182877
1667267184162591200,1.32659130859375,0.20157960057258606,0.02504473738372326,-0.11239589750766754
1667267184164989000,1.328989013671875,0.2095206081867218,0.04153761267662048,-0.11300674080848694
1667267184167386600,1.33138671875,0.21379654109477997,0.05864133685827255,-0.11667182296514511
1667267184169784300,1.333784423828125,0.21868331730365753,0.08002099394798279,-0.12033691257238388
1667267184172182300,1.336182373046875,0.2223484069108963,0.10384403169155121,-0.12583453953266144
1667267184174580000,1.338580078125,0.22540263831615448,0.12400199472904205,-0.1319430023431778
1667267184176977700,1.340977783203125,0.22906772792339325,0.14721418917179108,-0.13988402485847473
1667267184179375400,1.343375244140625,0.23151111602783203,0.1704263836145401,-0.1459924876689911
1667267184181773300,1.345773193359375,0.23334364593029022,0.19302773475646973,-0.15515519678592682
1667267184184171000,1.3481708984375,0.2339545041322708,0.21623992919921875,-0.16370706260204315
1667267184186568700,1.350568603515625,0.237008735537529,0.24128466844558716,-0.17225892841815948
1667267184188966400,1.35296630859375,0.2376195788383484,0.2632751762866974,-0.18019993603229523
1667267184191364400,1.3553642578125,0.2363978922367096,0.2870981991291046,-0.18875180184841156
1667267184193762000,1.357761962890625,0.237008735537529,0.30908870697021484,-0.20157960057258606
1667267184196159700,1.36015966796875,0.2376195788383484,0.3280249834060669,-0.21196399629116058
1667267184198557400,1.362557373046875,0.2376195788383484,0.34512871503829956,-0.21990501880645752
1667267184200955400,1.364955322265625,0.23945212364196777,0.35978904366493225,-0.23151111602783203
1667267184203353000,1.36735302734375,0.24128466844558716,0.37506023049354553,-0.24189551174640656
1667267184205750800,1.369750732421875,0.24250635504722595,0.38605546951293945,-0.2510582208633423
1667267184208148700,1.372148681640625,0.24494975805282593,0.3946073353290558,-0.2602209448814392
1667267184210546400,1.37454638671875,0.2492256760597229,0.39949411153793335,-0.2724378705024719
1667267184212944100,1.376944091796875,0.25350162386894226,0.39766156673431396,-0.28282228112220764
1667267184215341800,1.379341796875,0.25594499707221985,0.3958290219306946,-0.2919849753379822
1667267184217739800,1.38173974609375,0.2626643180847168,0.3927747905254364,-0.3023693859577179
1667267184220137500,1.384137451171875,0.26694026589393616,0.38422292470932007,-0.31031039357185364
1667267184222535200,1.38653515625,0.27121618390083313,0.37567105889320374,-0.32008397579193115
1667267184224932900,1.388932861328125,0.2754921019077301,0.3695625960826874,-0.3304683566093445
1667267184227330800,1.391330810546875,0.27976804971694946,0.36101073026657104,-0.3384093940258026
1667267184229728500,1.393728515625,0.284654825925827,0.3530697226524353,-0.34451785683631897
1667267184232126200,1.396126220703125,0.2858765125274658,0.3414636254310608,-0.34879377484321594
1667267184234524000,1.39852392578125,0.2858765125274658,0.3292466700077057,-0.3555130958557129
1667267184236921900,1.400921875,0.291374146938324,0.31947311758995056,-0.35917818546295166
1667267184239319600,1.403319580078125,0.29320669174194336,0.30908870697021484,-0.3646758198738098
1667267184241717200,1.40571728515625,0.29442837834358215,0.29381752014160156,-0.3683409094810486
1667267184244115000,1.408114990234375,0.29748260974884033,0.2761029601097107,-0.37139514088630676
1667267184246513000,1.410512939453125,0.29626092314720154,0.2602209448814392,-0.37506023049354553
1667267184248910600,1.41291064453125,0.29687178134918213,0.24372805655002594,-0.3775036036968231
1667267184251308300,1.415308349609375,0.29687178134918213,0.22540263831615448,-0.3811686933040619
1667267184253706000,1.4177060546875,0.29626092314720154,0.20646637678146362,-0.3836120665073395
1667267184256104000,1.42010400390625,0.29503923654556274,0.18691925704479218,-0.3817795515060425
1667267184258501600,1.422501708984375,0.29626092314720154,0.16492876410484314,-0.3836120665073395
1667267184260899300,1.4248994140625,0.29565006494522095,0.1441599577665329,-0.3793361485004425
1667267184263297000,1.427297119140625,0.29565006494522095,0.12094775587320328,-0.3787252902984619
1667267184265695000,1.429695068359375,0.29503923654556274,0.09712471067905426,-0.3775036036968231
1667267184268092700,1.4320927734375,0.29320669174194336,0.07085828483104706,-0.37506023049354553
1667267184270490400,1.434490478515625,0.29259583353996277,0.04337015375494957,-0.37078428268432617
1667267184272888000,1.43688818359375,0.2895416021347046,0.014660334214568138,-0.3683409094810486
1667267184275286000,1.4392861328125,0.2870981991291046,-0.010995250195264816,-0.3665083646774292
1667267184277683700,1.44168359375,0.284654825925827,-0.03420744836330414,-0.3665083646774292
1667267184280081400,1.444081298828125,0.27915719151496887,-0.05619794875383377,-0.3665083646774292
1667267184282479000,1.44647900390625,0.2718270421028137,-0.07391251623630524,-0.367730051279068
1667267184284877000,1.448876953125,0.2632751762866974,-0.08674030750989914,-0.3701734244823456
1667267184287274800,1.451274658203125,0.25350162386894226,-0.0916270911693573,-0.3683409094810486
1667267184289672400,1.45367236328125,0.24250635504722595,-0.09529217332601547,-0.3683409094810486
1667267184292070100,1.456070068359375,0.2339545041322708,-0.09773556143045425,-0.3689517378807068
1667267184294468000,1.458468017578125,0.22540263831615448,-0.09345962852239609,-0.365286648273468
1667267184296865800,1.46086572265625,0.21562908589839935,-0.08979454636573792,-0.3646758198738098
1667267184299263500,1.463263427734375,0.20585553348064423,-0.08796200156211853,-0.36039987206459045
1667267184301661200,1.4656611328125,0.20157960057258606,-0.08307522535324097,-0.3573456406593323
1667267184304059100,1.46805908203125,0.19302773475646973,-0.07696675509214401,-0.3506263196468353
1667267184306456800,1.470456787109375,0.18630841374397278,-0.07330167293548584,-0.34573954343795776
1667267184308854500,1.4728544921875,0.182643324136734,-0.07269082218408585,-0.3384093940258026
1667267184311252500,1.47525244140625,0.17409147322177887,-0.07269082218408585,-0.3292466700077057
1667267184313650200,1.477650146484375,0.1704263836145401,-0.0781884491443634,-0.32191649079322815
1667267184316048000,1.4800478515625,0.16615045070648193,-0.08246438205242157,-0.31092125177383423
1667267184318445600,1.482445556640625,0.15943112969398499,-0.08735115826129913,-0.3035911023616791
1667267184320843500,1.484843505859375,0.15332266688346863,-0.09590301662683487,-0.2919849753379822
1667267184323241200,1.4872412109375,0.14904673397541046,-0.10262233763933182,-0.28037887811660767
1667267184325639000,1.489638916015625,0.1429382562637329,-0.10995250940322876,-0.26938363909721375
1667267184328036600,1.49203662109375,0.13621893525123596,-0.1185043677687645,-0.25716668367385864
1667267184330434600,1.4944345703125,0.129499614238739,-0.12583453953266144,-0.24617144465446472
1667267184332832300,1.496832275390625,0.12400199472904205,-0.13621893525123596,-0.2345653474330902
1667267184335230000,1.49922998046875,0.1185043677687645,-0.14782503247261047,-0.22662433981895447
1667267184337627600,1.501627685546875,0.11056335270404816,-0.16309621930122375,-0.21562908589839935
1667267184340025600,1.504025634765625,0.1056765764951706,-0.17592400312423706,-0.20646637678146362
1667267184342423300,1.50642333984375,0.10140064358711243,-0.18936264514923096,-0.19913621246814728
1667267184344821000,1.508821044921875,0.09590301662683487,-0.20096874237060547,-0.19302773475646973
1667267184347218700,1.51121875,0.08979454636573792,-0.2095206081867218,-0.18569757044315338
1667267184349616600,1.51361669921875,0.08490777015686035,-0.21807247400283813,-0.17958909273147583
1667267184352014300,1.516014404296875,0.0781884491443634,-0.22723518311977386,-0.17286977171897888
1667267184354412000,1.518412109375,0.07330167293548584,-0.2357870489358902,-0.16859383881092072
1667267184356809700,1.520809814453125,0.06658235192298889,-0.24372805655002594,-0.16248537600040436
1667267184359207700,1.523207763671875,0.06352811306715012,-0.2486148327589035,-0.1557660549879074
1667267184361605400,1.52560546875,0.06047387793660164,-0.25472331047058105,-0.15210096538066864
1667267184364003000,1.528003173828125,0.055587101727724075,-0.2620534598827362,-0.1453816443681717
1667267184366400800,1.53040087890625,0.0525328628718853,-0.26816195249557495,-0.14110571146011353
1667267184368798700,1.532798828125,0.051922015845775604,-0.2730487287044525,-0.13560809195041656
1667267184371196400,1.535196533203125,0.05131116881966591,-0.28282228112220764,-0.12888877093791962
1667267184373594000,1.537593994140625,0.04703523963689804,-0.2870981991291046,-0.12216944992542267
1667267184375992000,1.539991943359375,0.047646086663007736,-0.29503923654556274,-0.11483928561210632
1667267184378389800,1.5423896484375,0.047646086663007736,-0.3035911023616791,-0.10934165865182877
1667267184380787500,1.544787353515625,0.04337015375494957,-0.30847787857055664,-0.10140064358711243
1667267184383185200,1.54718505859375,0.046424392610788345,-0.31092125177383423,-0.09345962852239609
1667267184385583000,1.5495830078125,0.046424392610788345,-0.31092125177383423,-0.08796200156211853
1667267184387980800,1.551980712890625,0.04459185153245926,-0.3042019307613373,-0.08063183724880219
1667267184390378500,1.55437841796875,0.04459185153245926,-0.29442837834358215,-0.07635590434074402
1667267184392776200,1.556776123046875,0.043981000781059265,-0.28098973631858826,-0.07207997888326645
1667267184395174100,1.559174072265625,0.04337015375494957,-0.2620534598827362,-0.06841489672660828
1667267184397571800,1.56157177734375,0.04337015375494957,-0.24006296694278717,-0.06841489672660828
1667267184399969500,1.563969482421875,0.042759306728839874,-0.21562908589839935,-0.06841489672660828
1667267184402367200,1.5663671875,0.04092676565051079,-0.18753011524677277,-0.06902574002742767
1667267184404765200,1.56876513671875,0.038483377546072006,-0.15332266688346863,-0.07330167293548584
1667267184407163000,1.571162841796875,0.034818295389413834,-0.12033691257238388,-0.0787992998957634
1667267184409560600,1.573560546875,0.033596597611904144,-0.08612946420907974,-0.08735115826129913
1667267184411958300,1.575958251953125,0.02748812735080719,-0.04947862774133682,-0.09712471067905426
1667267184414356200,1.578356201171875,0.02504473738372326,-0.012827792204916477,-0.10750912129878998
1667267184416754000,1.58075390625,0.021379653364419937,0.02504473738372326,-0.12278030067682266
1667267184419151600,1.583151611328125,0.017714571207761765,0.062306419014930725,-0.13682979345321655
1667267184421549300,1.58554931640625,0.016492875292897224,0.10017894953489304,-0.15149012207984924
1667267184423947300,1.587947265625,0.015271181240677834,0.13621893525123596,-0.16676130890846252
1667267184426345000,1.590344970703125,0.01588202826678753,0.16615045070648193,-0.1844758689403534
1667267184428742700,1.59274267578125,0.01588202826678753,0.18997350335121155,-0.20219044387340546
1667267184431140400,1.595140380859375,0.018936265259981155,0.21501824259757996,-0.22051586210727692
1667267184433538300,1.597538330078125,0.021990500390529633,0.237008735537529,-0.2376195788383484
1667267184435936000,1.59993603515625,0.024433890357613564,0.25289076566696167,-0.25411245226860046
1667267184438333700,1.602333740234375,0.028098974376916885,0.26999449729919434,-0.26694026589393616
1667267184440731600,1.604731689453125,0.03237490355968475,0.2895416021347046,-0.27976804971694946
1667267184443129300,1.60712939453125,0.0390942245721817,0.30603447556495667,-0.29442837834358215
1667267184445527000,1.609527099609375,0.04459185153245926,0.31947311758995056,-0.3042019307613373
1667267184447924700,1.6119248046875,0.04886778071522713,0.3280249834060669,-0.3164188861846924
1667267184450322700,1.61432275390625,0.055587101727724075,0.3384093940258026,-0.3255815804004669
1667267184452720400,1.616720458984375,0.061084724962711334,0.342074453830719,-0.33596599102020264
1667267184455118000,1.6191181640625,0.06902574002742767,0.3426853120326996,-0.34451785683631897
1667267184457515800,1.621515869140625,0.07391251623630524,0.337798535823822,-0.3542914092540741
1667267184459913700,1.623913818359375,0.08246438205242157,0.3280249834060669,-0.363454133272171
1667267184462311400,1.6263115234375,0.09040539711713791,0.3170297145843506,-0.37139514088630676
1667267184464709000,1.628709228515625,0.09834641218185425,0.3017585575580597,-0.3805578351020813
1667267184467106800,1.63110693359375,0.1050657257437706,0.2858765125274658,-0.38544461131095886
1667267184469504800,1.6335048828125,0.11483928561210632,0.26938363909721375,-0.3939964771270752
1667267184471902500,1.63590234375,0.12155860662460327,0.2522799074649811,-0.40010493993759155
1667267184474300200,1.638300048828125,0.12888877093791962,0.2357870489358902,-0.4043808877468109
1667267184476697900,1.64069775390625,0.13744063675403595,0.2211267054080963,-0.40987852215766907
1667267184479095800,1.643095703125,0.1435490995645523,0.20646637678146362,-0.41354358196258545
1667267184481493500,1.645493408203125,0.15026842057704926,0.19302773475646973,-0.416597843170166
1667267184483891200,1.64789111328125,0.1575985997915268,0.1844758689403534,-0.4196520745754242
1667267184486289000,1.650288818359375,0.16309621930122375,0.1716480851173401,-0.4214846193790436
1667267184488686800,1.652686767578125,0.16676130890846252,0.1582094430923462,-0.4214846193790436
1667267184491084500,1.65508447265625,0.17225892841815948,0.1453816443681717,-0.4227063059806824
1667267184493482200,1.657482177734375,0.17592400312423706,0.1301104724407196,-0.420873761177063
1667267184495880000,1.6598798828125,0.17836740612983704,0.11606097966432571,-0.42392799258232117
1667267184498278000,1.66227783203125,0.17836740612983704,0.10750912129878998,-0.42392799258232117
1667267184500675600,1.664675537109375,0.17775654792785645,0.09651386737823486,-0.42331716418266296
1667267184503073300,1.6670732421875,0.18019993603229523,0.08185353130102158,-0.42453885078430176
1667267184505471200,1.66947119140625,0.17836740612983704,0.06413896381855011,-0.4227063059806824
1667267184507869000,1.671868896484375,0.17531315982341766,0.045202698558568954,-0.420873761177063
1667267184510266600,1.6742666015625,0.14782503247261047,0.009773556143045425,-0.4196520745754242
1667267184512664300,1.676664306640625,0.10873081535100937,-0.012827792204916477,-0.41537612676620483
1667267184515062300,1.679062255859375,0.07696675509214401,-0.01588202826678753,-0.4062134325504303
1667267184517460000,1.6814599609375,0.045202698558568954,-0.01588202826678753,-0.40010493993759155
1667267184519857700,1.683857666015625,0.01832541823387146,-0.01588202826678753,-0.395218163728714
1667267184522255400,1.68625537109375,-0.0030542362947016954,-0.014660334214568138,-0.390942245721817
1667267184524653300,1.6886533203125,-0.021379653364419937,-0.007330167107284069,-0.3903313875198364
1667267184527051000,1.691051025390625,-0.034818295389413834,0.0012216945178806782,-0.38788801431655884
1667267184529448700,1.69344873046875,-0.043981000781059265,0.016492875292897224,-0.38483378291130066
1667267184531846400,1.695846435546875,-0.0525328628718853,0.03237490355968475,-0.3836120665073395
1667267184534244400,1.698244384765625,-0.05741964280605316,0.05131116881966591,-0.3817795515060425
1667267184536642000,1.70064208984375,-0.05986303091049194,0.07269082218408585,-0.3805578351020813
1667267184539039700,1.703039794921875,-0.05986303091049194,0.10384403169155121,-0.3793361485004425
1667267184541437400,1.7054375,-0.05986303091049194,0.13805148005485535,-0.3762819170951843
1667267184543835400,1.70783544921875,-0.05864133685827255,0.17836740612983704,-0.37139514088630676
1667267184546233000,1.710233154296875,-0.05497625470161438,0.2235700935125351,-0.37200596928596497
1667267184548630800,1.712630859375,-0.051922015845775604,0.27121618390083313,-0.365286648273468
1667267184551028700,1.71502880859375,-0.047646086663007736,0.3249707520008087,-0.36162158846855164
1667267184553426400,1.717426513671875,-0.04092676565051079,0.3799470067024231,-0.3573456406593323
1667267184555824000,1.71982421875,-0.037261683493852615,0.43858832120895386,-0.3549022674560547
1667267184558221800,1.722221923828125,-0.029320668429136276,0.499673068523407,-0.3567348122596741
1667267184560619800,1.724619873046875,-0.023823043331503868,0.5595360994338989,-0.3573456406593323
1667267184563017500,1.727017578125,-0.010995250195264816,0.6157340407371521,-0.36039987206459045
1667267184565415200,1.729415283203125,-0.0012216945178806782,0.6725428104400635,-0.36162158846855164
1667267184567812900,1.731812744140625,0.012827792204916477,0.731184184551239,-0.37139514088630676
1667267184570210800,1.7342109375,0.029320668429136276,0.7916580438613892,-0.3781144618988037
1667267184572608500,1.7366083984375,0.04337015375494957,0.8454126119613647,-0.38727715611457825
1667267184575006200,1.739006103515625,0.054365407675504684,0.8997780084609985,-0.39766156673431396
1667267184577404000,1.74140380859375,0.05497625470161438,0.9517000317573547,-0.41476529836654663
1667267184579801900,1.7438017578125,0.04947862774133682,0.9926267862319946,-0.4282039403915405
1667267184582199600,1.746199462890625,0.033596597611904144,1.0213366746902466,-0.4446968138217926
1667267184584597200,1.74859716796875,0.01038440316915512,1.0463813543319702,-0.4618005156517029
1667267184586995000,1.750994873046875,-0.017714571207761765,1.0750911235809326,-0.47890424728393555
1667267184589393000,1.753392822265625,-0.05070032179355621,1.1025793552398682,-0.4984513521194458
1667267184591790600,1.75579052734375,-0.0910162404179573,1.1288456916809082,-0.518609344959259
1667267184594188300,1.758188232421875,-0.1325538605451584,1.1435060501098633,-0.5369347333908081
1667267184596586200,1.760586181640625,-0.17775654792785645,1.1312891244888306,-0.5564818382263184
1667267184598984000,1.76298388671875,-0.22723518311977386,1.105022668838501,-0.573585569858551
1667267184601381600,1.765381591796875,-0.26877278089523315,1.0915840864181519,-0.5900784730911255
1667267184603779300,1.767779296875,-0.3054236173629761,1.0842539072036743,-0.6047387719154358
1667267184606177300,1.77017724609375,-0.337798535823822,1.0720369815826416,-0.6206207871437073
1667267184608575000,1.772574951171875,-0.36223241686820984,1.0537115335464478,-0.6358919739723206
1667267184610972700,1.77497265625,-0.3805578351020813,1.0298885107040405,-0.6499415040016174
1667267184613370400,1.777370361328125,-0.3927747905254364,0.9962918758392334,-0.6652126908302307
1667267184615768300,1.779768310546875,-0.39643988013267517,0.9486457705497742,-0.6810947060585022
1667267184618166000,1.782166015625,-0.39643988013267517,0.8887827396392822,-0.6933116316795349
1667267184620563700,1.784563720703125,-0.3939964771270752,0.8301414251327515,-0.7043069005012512
1667267184622961400,1.78696142578125,-0.38727715611457825,0.7769976854324341,-0.7140804529190063
1667267184625359400,1.789359375,-0.3799470067024231,0.7220214605331421,-0.7226322889328003
1667267184627757000,1.791757080078125,-0.37139514088630676,0.6700994372367859,-0.7275190949440002
1667267184630154800,1.79415478515625,-0.3640649616718292,0.6340594291687012,-0.730573296546936
1667267184632552400,1.796552490234375,-0.3512371778488159,0.5986303091049194,-0.7348492741584778
1667267184634950400,1.798950439453125,-0.3390202224254608,0.5558710098266602,-0.7379034757614136
1667267184637348000,1.80134814453125,-0.3249707520008087,0.5021164417266846,-0.7452336549758911
1667267184639745800,1.803745849609375,-0.312142938375473,0.44042086601257324,-0.7495095729827881
1667267184642143700,1.806143798828125,-0.29687178134918213,0.37261682748794556,-0.7562289237976074
1667267184644541400,1.80854150390625,-0.28343313932418823,0.30664533376693726,-0.7660024762153625
1667267184646939100,1.810939208984375,-0.26694026589393616,0.24311721324920654,-0.7727217674255371
1667267184649336800,1.8133369140625,-0.25411245226860046,0.18142163753509521,-0.7776085734367371
1667267184651734800,1.81573486328125,-0.24006296694278717,0.11911521852016449,-0.7812736630439758
1667267184654132500,1.818132568359375,-0.22906772792339325,0.06413896381855011,-0.7849387526512146
1667267184656530200,1.8205302734375,-0.21868331730365753,0.01038440316915512,-0.786160409450531
1667267184658927900,1.822927978515625,-0.2095206081867218,-0.037261683493852615,-0.786160409450531
1667267184661325800,1.825325927734375,-0.20096874237060547,-0.08063183724880219,-0.7843278646469116
1667267184663723500,1.8277236328125,-0.19363857805728912,-0.1185043677687645,-0.7849387526512146
1667267184666121200,1.830121337890625,-0.183865025639534,-0.15332266688346863,-0.7824953198432922
1667267184668519000,1.832518798828125,-0.17286977171897888,-0.182643324136734,-0.7849387526512146
1667267184670916900,1.834916748046875,-0.16004198789596558,-0.2107423096895218,-0.7837170362472534
1667267184673314600,1.837314453125,-0.14721418917179108,-0.2363978922367096,-0.7843278646469116
1667267184675712300,1.839712158203125,-0.13621893525123596,-0.2608317732810974,-0.7892146706581116
1667267184678110000,1.84210986328125,-0.12339114397764206,-0.28098973631858826,-0.7934905886650085
1667267184680508000,1.8445078125,-0.11056335270404816,-0.2999260127544403,-0.8020424246788025
1667267184682905600,1.846905517578125,-0.09773556143045425,-0.33169007301330566,-0.8118160367012024
1667267184685303300,1.84930322265625,-0.09712471067905426,-0.40254834294319153,-0.818535327911377
1667267184687701000,1.851700927734375,-0.09834641218185425,-0.4343124032020569,-0.8209787011146545
1667267184690099000,1.854098876953125,-0.10017894953489304,-0.4227063059806824,-0.8252546191215515
1667267184692496600,1.85649658203125,-0.09712471067905426,-0.39827242493629456,-0.8258655071258545
1667267184694894300,1.858894287109375,-0.09345962852239609,-0.3683409094810486,-0.8258655071258545
1667267184697292000,1.8612919921875,-0.08735115826129913,-0.33718767762184143,-0.8246437907218933
1667267184699690000,1.86368994140625,-0.08429691940546036,-0.3170297145843506,-0.8246437907218933
1667267184702087700,1.866087646484375,-0.08002099394798279,-0.30847787857055664,-0.8234221339225769
1667267184704485400,1.8684853515625,-0.07757759839296341,-0.30725616216659546,-0.8197570443153381
1667267184706883000,1.870883056640625,-0.07146912813186646,-0.30908870697021484,-0.8160919547080994
1667267184709281000,1.873281005859375,-0.06902574002742767,-0.3127537965774536,-0.8087617754936218
1667267184711678700,1.8756787109375,-0.06902574002742767,-0.32252734899520874,-0.7971556782722473
1667267184714076400,1.878076416015625,-0.06902574002742767,-0.3390202224254608,-0.7782194018363953
1667267184716474400,1.880474365234375,-0.07269082218408585,-0.35795649886131287,-0.758672297000885
1667267184718872000,1.8828720703125,-0.08185353130102158,-0.3775036036968231,-0.731184184551239
1667267184721269800,1.885269775390625,-0.0922379344701767,-0.40132665634155273,-0.7024743556976318
1667267184723667500,1.88766748046875,-0.1056765764951706,-0.42576053738594055,-0.6682668924331665
1667267184726065400,1.8900654296875,-0.12339114397764206,-0.45202696323394775,-0.6310052275657654
1667267184728463000,1.892463134765625,-0.1423274129629135,-0.4721849262714386,-0.5900784730911255
1667267184730860800,1.89486083984375,-0.15943112969398499,-0.49051034450531006,-0.5467082858085632
1667267184733258500,1.897258544921875,-0.17836740612983704,-0.5106683373451233,-0.503948986530304
1667267184735656400,1.899656494140625,-0.19302773475646973,-0.5247178077697754,-0.45385950803756714
1667267184738054100,1.90205419921875,-0.20646637678146362,-0.5363239049911499,-0.40254834294319153
1667267184740451800,1.904451904296875,-0.21685077250003815,-0.5479300022125244,-0.3536805510520935
1667267184742849500,1.906849609375,-0.22540263831615448,-0.5570927262306213,-0.3011476993560791
1667267184745247500,1.90924755859375,-0.23334364593029022,-0.5595360994338989,-0.2473931461572647
1667267184747645200,1.911645263671875,-0.24067382514476776,-0.5589252710342407,-0.1979145109653473
1667267184750043000,1.91404296875,-0.24678228795528412,-0.5607577562332153,-0.14965757727622986
1667267184752440600,1.916440673828125,-0.25533416867256165,-0.5583143830299377,-0.09712471067905426
1667267184754838500,1.918838623046875,-0.2638860046863556,-0.5589252710342407,-0.05131116881966591
1667267184757236200,1.921236328125,-0.2748812735080719,-0.5534276366233826,-0.004275931045413017
1667267184759634000,1.923634033203125,-0.2858765125274658,-0.5442649126052856,0.04214845970273018
1667267184762031600,1.926031494140625,-0.3005368411540985,-0.5296045541763306,0.08551861345767975
1667267184764429600,1.9284296875,-0.3158080279827118,-0.5082249045372009,0.12339114397764206
1667267184766827300,1.9308271484375,-0.33413344621658325,-0.47646087408065796,0.1575985997915268
1667267184769225000,1.933224853515625,-0.35795649886131287,-0.43797749280929565,0.18814095854759216
1667267184771623000,1.935622802734375,-0.3805578351020813,-0.40193748474121094,0.2113531529903412
1667267184774020600,1.9380205078125,-0.39949411153793335,-0.36284327507019043,0.22540263831615448
1667267184776418300,1.940418212890625,-0.40987852215766907,-0.31947311758995056,0.23273280262947083
1667267184778816000,1.94281591796875,-0.41232189536094666,-0.26999449729919434,0.23334364593029022
1667267184781214000,1.9452138671875,-0.4092676639556885,-0.22051586210727692,0.2241809368133545
1667267184783611600,1.947611572265625,-0.39888325333595276,-0.16187451779842377,0.208298921585083
1667267184786009300,1.95000927734375,-0.3836120665073395,-0.10017894953489304,0.1832541823387146
1667267184788407000,1.952406982421875,-0.36284327507019043,-0.037261683493852615,0.15515519678592682
1667267184790805000,1.954804931640625,-0.3408527672290802,0.02504473738372326,0.1178935244679451
1667267184793202700,1.95720263671875,-0.3158080279827118,0.08551861345767975,0.07757759839296341
1667267184795600400,1.959600341796875,-0.2907632887363434,0.1453816443681717,0.031153209507465363
1667267184797998000,1.961998046875,-0.26694026589393616,0.20341213047504425,-0.017714571207761765
1667267184800396000,1.96439599609375,-0.2498365342617035,0.25411245226860046,-0.07207997888326645
1667267184802793700,1.966793701171875,-0.23334364593029022,0.3005368411540985,-0.130721315741539
1667267184805191400,1.96919140625,-0.2223484069108963,0.3390202224254608,-0.19424942135810852
1667267184807589000,1.971589111328125,-0.21318569779396057,0.37383851408958435,-0.25716668367385864
1667267184809987000,1.973987060546875,-0.20402298867702484,0.40254834294319153,-0.3261924386024475
1667267184812384800,1.976384765625,-0.1979145109653473,0.42576053738594055,-0.3939964771270752
1667267184814782500,1.978782470703125,-0.18997350335121155,0.4459185004234314,-0.46241137385368347
1667267184817180400,1.981180419921875,-0.17897824943065643,0.4575245976448059,-0.5332696437835693
1667267184819578000,1.983578125,-0.16798299551010132,0.46668729186058044,-0.5980194807052612
1667267184821975800,1.985975830078125,-0.15149012207984924,0.4715740978717804,-0.6633801460266113
1667267184824373500,1.98837353515625,-0.13560809195041656,0.474017471075058,-0.7256865501403809
1667267184826771500,1.990771484375,-0.1172826737165451,0.4709632396697998,-0.7879929542541504
1667267184829169200,1.993169189453125,-0.09651386737823486,0.46607646346092224,-0.8441908955574036
1667267184831566800,1.99556689453125,-0.07269082218408585,0.4605788290500641,-0.897334635257721
1667267184833964500,1.997964599609375,-0.05008947476744652,0.4563029110431671,-0.9486457705497742
1667267184836362500,2.000362548828125,-0.023823043331503868,0.45141613483428955,-0.9969027042388916
1667267184838760200,2.00276025390625,0.004886778071522713,0.45263782143592834,-1.0408837795257568
1667267184841158000,2.005157958984375,0.03542914241552353,0.4587462842464447,-1.0793671607971191
1667267184843555600,2.0075556640625,0.06902574002742767,0.469741553068161,-1.113574504852295
1667267184845953500,2.00995361328125,0.10262233763933182,0.4856235682964325,-1.1398409605026245
1667267184848351200,2.012351318359375,0.13805148005485535,0.5057815313339233,-1.1624423265457153
1667267184850749000,2.0147490234375,0.1704263836145401,0.527161180973053,-1.180156946182251
1667267184853147000,2.01714697265625,0.20585553348064423,0.5515950918197632,-1.1935955286026
1667267184855544600,2.019544677734375,0.23823043704032898,0.5729747414588928,-1.202147364616394
1667267184857942300,2.0219423828125,0.26816195249557495,0.5931326746940613,-1.2113101482391357
1667267184860340000,2.024340087890625,0.2987042963504791,0.6077930331230164,-1.2125318050384521
1667267184862738000,2.026738037109375,0.32191649079322815,0.6193991303443909,-1.2186403274536133
1667267184865135600,2.029135498046875,0.34451785683631897,0.6224533319473267,-1.2198619842529297
1667267184867533300,2.031533203125,0.3671191930770874,0.6181774139404297,-1.2241379022598267
1667267184869931000,2.033930908203125,0.38422292470932007,0.6108472347259521,-1.225359559059143
1667267184872329000,2.036328857421875,0.40010493993759155,0.6004628539085388,-1.2278029918670654
1667267184874726700,2.0387265625,0.41476529836654663,0.5882459282875061,-1.2278029918670654
1667267184877124400,2.041124267578125,0.4294256269931793,0.5717530250549316,-1.230857253074646
1667267184879522000,2.04352197265625,0.4434750974178314,0.5540384650230408,-1.22963547706604
1667267184881920000,2.045919921875,0.4581354558467865,0.5344913601875305,-1.226581335067749
1667267184884317700,2.048317626953125,0.4727957844734192,0.5155550837516785,-1.221083641052246
1667267184886715400,2.05071533203125,0.4886777997016907,0.49417543411254883,-1.216196894645691
1667267184889113300,2.05311328125,0.5015056133270264,0.4734066128730774,-1.2052016258239746
1667267184891511000,2.055510986328125,0.5143333673477173,0.45385950803756714,-1.1911520957946777
1667267184893908700,2.05790869140625,0.5265503525733948,0.4343124032020569,-1.174659252166748
1667267184896306400,2.060306396484375,0.5375455617904663,0.416597843170166,-1.151447057723999
1667267184898704400,2.062704345703125,0.5467082858085632,0.39949411153793335,-1.1270132064819336
1667267184901102000,2.06510205078125,0.5522059202194214,0.3817795515060425,-1.0970816612243652
1667267184903499800,2.067499755859375,0.5570927262306213,0.35917818546295166,-1.0579874515533447
1667267184905897500,2.0698974609375,0.5577035546302795,0.33169007301330566,-1.0213366746902466
1667267184908295400,2.07229541015625,0.5619794726371765,0.2999260127544403,-0.9797990322113037
1667267184910693000,2.074693115234375,0.5625903010368347,0.2632751762866974,-0.9333745837211609
1667267184913090800,2.0770908203125,0.5650337338447571,0.2217375487089157,-0.8845068216323853
1667267184915488500,2.079488525390625,0.5656445622444153,0.17714570462703705,-0.833195686340332
1667267184917886500,2.081886474609375,0.5656445622444153,0.12888877093791962,-0.7794411182403564
1667267184920284200,2.0842841796875,0.5656445622444153,0.08551861345767975,-0.7195780873298645
1667267184922681900,2.086681884765625,0.5632011890411377,0.05008947476744652,-0.6603258848190308
1667267184925079600,2.08907958984375,0.5619794726371765,0.010995250195264816,-0.5967977643013
1667267184927477500,2.0914775390625,0.5632011890411377,-0.028098974376916885,-0.5351021885871887
1667267184929875200,2.093875244140625,0.5668662786483765,-0.0647498071193695,-0.4715740978717804
1667267184932273000,2.09627294921875,0.5754181146621704,-0.1056765764951706,-0.40987852215766907
1667267184934670800,2.0986708984375,0.5851916670799255,-0.15087927877902985,-0.34879377484321594
1667267184937068500,2.101068603515625,0.5906893014907837,-0.18936264514923096,-0.2895416021347046
1667267184939466200,2.10346630859375,0.5974085927009583,-0.20768806338310242,-0.23028941452503204
1667267184941864000,2.105864013671875,0.6016845703125,-0.21685077250003815,-0.17653486132621765
1667267184944262000,2.108261962890625,0.6035171151161194,-0.22906772792339325,-0.12766708433628082
1667267184946659600,2.11065966796875,0.6004628539085388,-0.24189551174640656,-0.0787992998957634
1667267184949057300,2.113057373046875,0.5937435626983643,-0.25289076566696167,-0.03542914241552353
1667267184951455000,2.115455078125,0.5870242118835449,-0.26816195249557495,0.0030542362947016954
1667267184953853000,2.11785302734375,0.5803049206733704,-0.2870981991291046,0.0390942245721817
1667267184956250600,2.120250732421875,0.5754181146621704,-0.31825143098831177,0.06841489672660828
1667267184958648300,2.1226484375,0.5711421966552734,-0.3384093940258026,0.09712471067905426
1667267184961046000,2.1250458984375,0.5644228458404541,-0.34940463304519653,0.12278030067682266
1667267184963444000,2.12744384765625,0.5558710098266602,-0.3542914092540741,0.1447708010673523
1667267184965841700,2.129841552734375,0.5485408306121826,-0.36223241686820984,0.16309621930122375
1667267184968239400,2.1322392578125,0.5387672781944275,-0.37261682748794556,0.17897824943065643
1667267184970637300,2.13463720703125,0.5277720093727112,-0.38544461131095886,0.18997350335121155
1667267184973035000,2.137034912109375,0.5137225389480591,-0.4074351191520691,0.1960819661617279
1667267184975432700,2.1394326171875,0.499673068523407,-0.42392799258232117,0.20157960057258606
1667267184977830400,2.141830322265625,0.4831801950931549,-0.4294256269931793,0.20646637678146362
1667267184980228400,2.144228271484375,0.46424391865730286,-0.4282039403915405,0.208298921585083
1667267184982626000,2.1466259765625,0.4446968138217926,-0.4202629029750824,0.20768806338310242
1667267184985023700,2.149023681640625,0.4196520745754242,-0.41171106696128845,0.20157960057258606
1667267184987421400,2.15142138671875,0.3915531039237976,-0.39888325333595276,0.1966928243637085
1667267184989819400,2.1538193359375,0.36101073026657104,-0.38666632771492004,0.19363857805728912
1667267184992217000,2.156217041015625,0.3304683566093445,-0.37506023049354553,0.18630841374397278
1667267184994614800,2.15861474609375,0.29565006494522095,-0.36101073026657104,0.17958909273147583
1667267184997012500,2.161012451171875,0.2608317732810974,-0.3500154912471771,0.17286977171897888
1667267184999410400,2.163410400390625,0.22601348161697388,-0.33230090141296387,0.16737215220928192
1667267185001808100,2.16580810546875,0.19058434665203094,-0.32191649079322815,0.16248537600040436
1667267185004205800,2.168205810546875,0.15943112969398499,-0.3054236173629761,0.16065283119678497
1667267185006603800,2.170603759765625,0.12766708433628082,-0.27854636311531067,0.1588202863931656
1667267185009001500,2.17300146484375,0.08979454636573792,-0.24311721324920654,0.16065283119678497
1667267185011399200,2.175399169921875,0.05375456064939499,-0.20157960057258606,0.16248537600040436
1667267185013796900,2.177796875,0.012216945178806782,-0.1575985997915268,0.16492876410484314
1667267185016194800,2.18019482421875,-0.033596597611904144,-0.11056335270404816,0.1710372269153595
1667267185018592500,2.182592529296875,-0.07574506103992462,-0.06352811306715012,0.17958909273147583
1667267185020990200,2.184990234375,-0.11972606182098389,-0.023823043331503868,0.18997350335121155
1667267185023388000,2.187387939453125,-0.16004198789596558,0.011606098152697086,0.20524467527866364
1667267185025785900,2.189785888671875,-0.1973036676645279,0.045202698558568954,0.22662433981895447
1667267185028183600,2.19218359375,-0.22479179501533508,0.06658235192298889,0.2486148327589035
1667267185030581200,2.194581298828125,-0.24617144465446472,0.08796200156211853,0.2742704153060913
1667267185032979000,2.19697900390625,-0.2644968628883362,0.11056335270404816,0.3011476993560791
1667267185035377000,2.199376953125,-0.2748812735080719,0.12644538283348083,0.3292466700077057
1667267185037774600,2.201774658203125,-0.27976804971694946,0.13805148005485535,0.35917818546295166
1667267185040172300,2.20417236328125,-0.2773246467113495,0.1441599577665329,0.390942245721817
1667267185042570000,2.206570068359375,-0.2742704153060913,0.1453816443681717,0.42453885078430176
1667267185044968000,2.208968017578125,-0.265718549489975,0.14110571146011353,0.4581354558467865
1667267185047365600,2.21136572265625,-0.25655585527420044,0.1319430023431778,0.48928865790367126
1667267185049763300,2.213763427734375,-0.24189551174640656,0.11606097966432571,0.5210527181625366
1667267185052161300,2.216161376953125,-0.23151111602783203,0.09712471067905426,0.5497625470161438
1667267185054559000,2.21855908203125,-0.21929416060447693,0.07513421028852463,0.578472375869751
1667267185056956700,2.220956787109375,-0.20585553348064423,0.05497625470161438,0.6041279435157776
1667267185059354400,2.223354248046875,-0.19363857805728912,0.03665083646774292,0.6310052275657654
1667267185061752300,2.22575244140625,-0.1850867122411728,0.01954711228609085,0.6529957056045532
1667267185064150000,2.22814990234375,-0.17714570462703705,0.0012216945178806782,0.6737645268440247
1667267185066547700,2.230547607421875,-0.17225892841815948,-0.011606098152697086,0.6939224600791931
1667267185068945400,2.2329453125,-0.1716480851173401,-0.026877280324697495,0.707361102104187
1667267185071343400,2.23534326171875,-0.17348061501979828,-0.038483377546072006,0.7207997441291809
1667267185073741000,2.237740966796875,-0.17653486132621765,-0.04886778071522713,0.7299624681472778
1667267185076138800,2.240138671875,-0.18019993603229523,-0.05925218388438225,0.7372926473617554
1667267185078536400,2.242536376953125,-0.18691925704479218,-0.0659715011715889,0.7385143637657166
1667267185080934400,2.244934326171875,-0.19363857805728912,-0.0647498071193695,0.7427902817726135
1667267185083332000,2.24733203125,-0.1979145109653473,-0.06291726976633072,0.7434011101722717
1667267185085729800,2.249729736328125,-0.20402298867702484,-0.056808795779943466,0.7427902817726135
1667267185088127700,2.252127685546875,-0.2107423096895218,-0.045202698558568954,0.7427902817726135
1667267185090525400,2.254525390625,-0.21318569779396057,-0.03542914241552353,0.7434011101722717
1667267185092923100,2.256923095703125,-0.21440738439559937,-0.02626643143594265,0.7440119385719299
1667267185095320800,2.25932080078125,-0.21379654109477997,-0.014049487188458443,0.7427902817726135
1667267185097718800,2.26171875,-0.21379654109477997,0,0.7434011101722717
1667267185100116500,2.264116455078125,-0.21623992919921875,0.010995250195264816,0.7427902817726135
1667267185102514200,2.26651416015625,-0.21807247400283813,0.01954711228609085,0.7415685653686523
1667267185104912000,2.268911865234375,-0.2223484069108963,0.025655584409832954,0.7403468489646912
1667267185107309800,2.271309814453125,-0.22540263831615448,0.02504473738372326,0.7446228265762329
1667267185109707500,2.27370751953125,-0.22967857122421265,0.02504473738372326,0.7458444833755493
1667267185112105200,2.276105224609375,-0.23212195932865143,0.020157959312200546,0.7482879161834717
1667267185114503000,2.2785029296875,-0.2351761907339096,0.01038440316915512,0.7531746625900269
1667267185116900900,2.28090087890625,-0.2339545041322708,-0.004275931045413017,0.7568397521972656
1667267185119298600,2.283298583984375,-0.2339545041322708,-0.018936265259981155,0.7641699314117432
1667267185121696300,2.2856962890625,-0.23151111602783203,-0.036039989441633224,0.7708892226219177
1667267185124094200,2.28809423828125,-0.22723518311977386,-0.04947862774133682,0.7776085734367371
1667267185126492000,2.290491943359375,-0.2217375487089157,-0.06352811306715012,0.7843278646469116
1667267185128889600,2.2928896484375,-0.21685077250003815,-0.0781884491443634,0.7916580438613892
1667267185131287300,2.295287353515625,-0.2101314514875412,-0.0922379344701767,0.7983773946762085
1667267185133685200,2.297685302734375,-0.20707722008228302,-0.10384403169155121,0.8014315962791443
1667267185136083000,2.3000830078125,-0.19974705576896667,-0.11606097966432571,0.8044858574867249
1667267185138480600,2.302480712890625,-0.1954711228609085,-0.12278030067682266,0.8063184022903442
1667267185140878300,2.30487841796875,-0.19241689145565033,-0.1301104724407196,0.8063184022903442
1667267185143276300,2.3072763671875,-0.18814095854759216,-0.13499724864959717,0.8038749694824219
1667267185145674000,2.309674072265625,-0.1850867122411728,-0.13866232335567474,0.8002098798751831
1667267185148071700,2.31207177734375,-0.17958909273147583,-0.13866232335567474,0.7941014170646667
1667267185150469400,2.314469482421875,-0.17653486132621765,-0.13805148005485535,0.7873821258544922
1667267185152867300,2.316867431640625,-0.17592400312423706,-0.14110571146011353,0.7769976854324341
1667267185155265000,2.31926513671875,-0.17714570462703705,-0.1447708010673523,0.7653915882110596
1667267185157662700,2.321662841796875,-0.18142163753509521,-0.14904673397541046,0.7550072073936462
1667267185160060400,2.324060302734375,-0.1850867122411728,-0.15393351018428802,0.7385143637657166
1667267185162458400,2.326458251953125,-0.18997350335121155,-0.1575985997915268,0.7238540053367615
1667267185164856000,2.32885595703125,-0.1960819661617279,-0.16248537600040436,0.7055285573005676
1667267185167253800,2.331253662109375,-0.20157960057258606,-0.17225892841815948,0.6902574300765991
1667267185169651700,2.333651611328125,-0.20646637678146362,-0.17714570462703705,0.6725428104400635
1667267185172049400,2.33604931640625,-0.21501824259757996,-0.1832541823387146,0.6517740488052368
1667267185174447000,2.338447021484375,-0.2217375487089157,-0.19058434665203094,0.6346703171730042
1667267185176844800,2.3408447265625,-0.22906772792339325,-0.1985253542661667,0.6139014959335327
1667267185179242800,2.34324267578125,-0.2345653474330902,-0.20280128717422485,0.5943543910980225
1667267185181640400,2.345640380859375,-0.24067382514476776,-0.20463383197784424,0.5760289430618286
1667267185184038100,2.3480380859375,-0.2473931461572647,-0.2095206081867218,0.5558710098266602
1667267185186435800,2.350435791015625,-0.2510582208633423,-0.2113531529903412,0.5363239049911499
1667267185188833800,2.352833740234375,-0.25350162386894226,-0.2095206081867218,0.5192201733589172
1667267185191231500,2.3552314453125,-0.25716668367385864,-0.2095206081867218,0.5021164417266846
1667267185193629200,2.357629150390625,-0.258999228477478,-0.20585553348064423,0.4844018816947937
1667267185196027000,2.36002685546875,-0.25655585527420044,-0.1973036676645279,0.4703523814678192
1667267185198424800,2.3624248046875,-0.25411245226860046,-0.19119518995285034,0.45324867963790894
1667267185200822500,2.364822509765625,-0.25289076566696167,-0.17897824943065643,0.43797749280929565
1667267185203220200,2.36722021484375,-0.2504473626613617,-0.1710372269153595,0.42453885078430176
1667267185205618000,2.369617919921875,-0.24494975805282593,-0.16065283119678497,0.41354358196258545
1667267185208016000,2.372015869140625,-0.24128466844558716,-0.15026842057704926,0.40071579813957214
1667267185210413600,2.37441357421875,-0.23945212364196777,-0.13499724864959717,0.3897205591201782
1667267185212811300,2.376811279296875,-0.237008735537529,-0.12339114397764206,0.3793361485004425
1667267185215209000,2.379208984375,-0.2345653474330902,-0.10873081535100937,0.37139514088630676
1667267185217607000,2.38160693359375,-0.23028941452503204,-0.0922379344701767,0.3646758198738098
1667267185220004600,2.384004638671875,-0.22967857122421265,-0.07635590434074402,0.35917818546295166
1667267185222402300,2.38640234375,-0.22967857122421265,-0.06291726976633072,0.3536805510520935
1667267185224800000,2.388800048828125,-0.22967857122421265,-0.0525328628718853,0.34818294644355774
1667267185227198000,2.391197998046875,-0.22845686972141266,-0.04153761267662048,0.3439069986343384
1667267185229595600,2.393595703125,-0.22784602642059326,-0.02870982140302658,0.3390202224254608
1667267185231993300,2.395993408203125,-0.22479179501533508,-0.01710372418165207,0.33413344621658325
1667267185234391300,2.398391357421875,-0.2223484069108963,-0.006108472589403391,0.3274141252040863
1667267185236789000,2.4007890625,-0.21929416060447693,0.0024433890357613564,0.32313820719718933
1667267185239186700,2.403186767578125,-0.21929416060447693,0.006108472589403391,0.3176405727863312
1667267185241584400,2.40558447265625,-0.21868331730365753,0.012216945178806782,0.3127537965774536
1667267185243982300,2.407982421875,-0.21807247400283813,0.015271181240677834,0.31031039357185364
1667267185246380000,2.410380126953125,-0.21685077250003815,0.013438640162348747,0.30786702036857605
1667267185248777700,2.41277783203125,-0.21318569779396057,0.01038440316915512,0.3042019307613373
1667267185251175400,2.415175537109375,-0.208298921585083,0.0024433890357613564,0.3023693859577179
1667267185253573400,2.417573486328125,-0.20280128717422485,-0.004275931045413017,0.3042019307613373
1667267185255971000,2.41997119140625,-0.1985253542661667,-0.020157959312200546,0.3042019307613373
1667267185258368800,2.42236865234375,-0.19424942135810852,-0.034818295389413834,0.3042019307613373
1667267185260766500,2.424766357421875,-0.18875180184841156,-0.053143709897994995,0.30725616216659546
1667267185263164400,2.427164306640625,-0.1820324808359146,-0.0781884491443634,0.31031039357185364
1667267185265562000,2.42956201171875,-0.17897824943065643,-0.10323318839073181,0.3170297145843506
1667267185267959800,2.431959716796875,-0.1704263836145401,-0.130721315741539,0.3249707520008087
1667267185270357800,2.434357666015625,-0.16187451779842377,-0.1588202863931656,0.33474430441856384
1667267185272755500,2.43675537109375,-0.1569877415895462,-0.18814095854759216,0.34940463304519653
1667267185275153200,2.439153076171875,-0.14904673397541046,-0.2211267054080963,0.36162158846855164
1667267185277550800,2.44155078125,-0.1429382562637329,-0.2504473626613617,0.3762819170951843
1667267185279948800,2.44394873046875,-0.13744063675403595,-0.2773246467113495,0.3927747905254364
1667267185282346500,2.446346435546875,-0.1319430023431778,-0.30481278896331787,0.4068242609500885
1667267185284744200,2.448744140625,-0.12583453953266144,-0.3268032968044281,0.42453885078430176
1667267185287142000,2.451141845703125,-0.12033691257238388,-0.34940463304519653,0.4428642690181732
1667267185289539800,2.453539794921875,-0.11606097966432571,-0.367730051279068,0.4618005156517029
1667267185291937500,2.4559375,-0.11361759155988693,-0.3817795515060425,0.48073679208755493
1667267185294335200,2.458335205078125,-0.10873081535100937,-0.3958290219306946,0.4984513521194458
1667267185296733000,2.46073291015625,-0.10628741979598999,-0.4062134325504303,0.517998456954956
1667267185299131000,2.463130859375,-0.1050657257437706,-0.41415444016456604,0.5363239049911499
1667267185301528600,2.465528564453125,-0.10078980028629303,-0.418430358171463,0.5558710098266602
1667267185303926300,2.46792626953125,-0.09895725548267365,-0.4220954477787018,0.5717530250549316
1667267185306324200,2.47032421875,-0.09773556143045425,-0.42637139558792114,0.5900784730911255
1667267185308722000,2.472721923828125,-0.09773556143045425,-0.42759308218955994,0.6041279435157776
1667267185311119600,2.47511962890625,-0.09895725548267365,-0.42392799258232117,0.6212316751480103
1667267185313517300,2.477517333984375,-0.10323318839073181,-0.420873761177063,0.6365028619766235
1667267185315915300,2.479915283203125,-0.10995250940322876,-0.41171106696128845,0.6517740488052368
1667267185318313000,2.48231298828125,-0.11606097966432571,-0.40071579813957214,0.6652126908302307
1667267185320710700,2.484710693359375,-0.12033691257238388,-0.393385648727417,0.6810947060585022
1667267185323108400,2.4871083984375,-0.12705622613430023,-0.38910970091819763,0.6951441764831543
1667267185325506300,2.48950634765625,-0.1313321590423584,-0.38849884271621704,0.7085828185081482
1667267185327904000,2.491904052734375,-0.13560809195041656,-0.38788801431655884,0.7214106321334839
1667267185330301700,2.4943017578125,-0.13988402485847473,-0.38544461131095886,0.7330167293548584
1667267185332699400,2.496699462890625,-0.1429382562637329,-0.3836120665073395,0.7470661997795105
1667267185335097300,2.499097412109375,-0.14660334587097168,-0.3811686933040619,0.758672297000885
1667267185337495000,2.5014951171875,-0.14660334587097168,-0.3805578351020813,0.7708892226219177
1667267185339892700,2.503892822265625,-0.14721418917179108,-0.3817795515060425,0.7849387526512146
1667267185342290700,2.506290771484375,-0.15149012207984924,-0.3836120665073395,0.7983773946762085
1667267185344688400,2.5086884765625,-0.15026842057704926,-0.38849884271621704,0.8160919547080994
1667267185347086000,2.511086181640625,-0.14965757727622986,-0.3915531039237976,0.8301414251327515
1667267185349483800,2.51348388671875,-0.14782503247261047,-0.3946073353290558,0.8423583507537842
1667267185351881700,2.5158818359375,-0.1435490995645523,-0.39888325333595276,0.8533536195755005
1667267185354279400,2.518279541015625,-0.14049486815929413,-0.40010493993759155,0.8680139780044556
1667267185356677000,2.520677001953125,-0.13499724864959717,-0.40254834294319153,0.8808417320251465
1667267185359074800,2.52307470703125,-0.12644538283348083,-0.4043808877468109,0.8912261724472046
1667267185361472800,2.52547265625,-0.12155860662460327,-0.4074351191520691,0.9009997248649597
1667267185363870500,2.527870361328125,-0.12094775587320328,-0.41293275356292725,0.9052756428718567
1667267185366268200,2.53026806640625,-0.11911521852016449,-0.420873761177063,0.9101623892784119
1667267185368665900,2.532665771484375,-0.11545012891292572,-0.4294256269931793,0.9101623892784119
1667267185371063800,2.535063720703125,-0.11606097966432571,-0.43614494800567627,0.9071081876754761
1667267185373461500,2.53746142578125,-0.1185043677687645,-0.4459185004234314,0.9040539264678955
1667267185375859200,2.539859130859375,-0.12094775587320328,-0.44958359003067017,0.9003888368606567
1667267185378257200,2.542257080078125,-0.12278030067682266,-0.45141613483428955,0.8936695456504822
1667267185380654800,2.54465478515625,-0.12888877093791962,-0.45202696323394775,0.8875610828399658
1667267185383052500,2.547052490234375,-0.13377554714679718,-0.45263782143592834,0.8777875304222107
1667267185385450200,2.5494501953125,-0.14171656966209412,-0.45019441843032837,0.869235634803772
1667267185387848200,2.55184814453125,-0.15271180868148804,-0.44103172421455383,0.8600729703903198
1667267185390246000,2.554245849609375,-0.16737215220928192,-0.4324798583984375,0.8496885299682617
1667267185392643600,2.5566435546875,-0.17836740612983704,-0.4214846193790436,0.841747522354126
1667267185395041300,2.559041259765625,-0.18875180184841156,-0.40987852215766907,0.8319739699363708
1667267185397439200,2.561439208984375,-0.1960819661617279,-0.3921639323234558,0.8215895891189575
1667267185399837000,2.5638369140625,-0.20585553348064423,-0.3799470067024231,0.813648521900177
1667267185402234600,2.566234619140625,-0.21257483959197998,-0.365286648273468,0.8063184022903442
1667267185404632300,2.56863232421875,-0.21868331730365753,-0.3506263196468353,0.7971556782722473
1667267185407030300,2.5710302734375,-0.2235700935125351,-0.33535513281822205,0.7892146706581116
1667267185409428000,2.573427978515625,-0.2241809368133545,-0.32252734899520874,0.7800519466400146
1667267185411825700,2.57582568359375,-0.22540263831615448,-0.30847787857055664,0.7733326554298401
1667267185414223600,2.5782236328125,-0.2241809368133545,-0.2987042963504791,0.7647807598114014
1667267185416621300,2.580621337890625,-0.22051586210727692,-0.2907632887363434,0.7556180357933044
1667267185419019000,2.58301904296875,-0.21929416060447693,-0.28098973631858826,0.7495095729827881
1667267185421416700,2.585416748046875,-0.21623992919921875,-0.2748812735080719,0.7421793937683105
1667267185423814700,2.587814697265625,-0.21318569779396057,-0.27121618390083313,0.7348492741584778
1667267185426212400,2.59021240234375,-0.2107423096895218,-0.2638860046863556,0.7287407517433167
1667267185428610000,2.592610107421875,-0.20585553348064423,-0.2583884000778198,0.7226322889328003
1667267185431007700,2.5950078125,-0.20341213047504425,-0.25411245226860046,0.7140804529190063
1667267185433405700,2.59740576171875,-0.1985253542661667,-0.2486148327589035,0.7098045349121094
1667267185435803400,2.599803466796875,-0.1948602795600891,-0.24311721324920654,0.70308518409729
1667267185438201000,2.602201171875,-0.1948602795600891,-0.2351761907339096,0.6945333480834961
1667267185440598800,2.604598876953125,-0.1960819661617279,-0.22723518311977386,0.6878139972686768
1667267185442996700,2.606996826171875,-0.1966928243637085,-0.21868331730365753,0.679872989654541
1667267185445394400,2.60939453125,-0.19974705576896667,-0.20768806338310242,0.6731536984443665
1667267185447792000,2.611792236328125,-0.20280128717422485,-0.19180603325366974,0.6652126908302307
1667267185450190000,2.614190185546875,-0.20585553348064423,-0.17653486132621765,0.6560499668121338
1667267185452587800,2.616587890625,-0.21196399629116058,-0.1575985997915268,0.6462764143943787
1667267185454985500,2.6189853515625,-0.21685077250003815,-0.13805148005485535,0.6365028619766235
1667267185457383200,2.621383056640625,-0.2229592502117157,-0.11422843486070633,0.6206207871437073
1667267185459781000,2.623781005859375,-0.22906772792339325,-0.08796200156211853,0.605960488319397
1667267185462178800,2.6261787109375,-0.23334364593029022,-0.061084724962711334,0.5937435626983643
1667267185464576500,2.628576416015625,-0.2363978922367096,-0.03542914241552353,0.5772506594657898
1667267185466974200,2.63097412109375,-0.23823043704032898,-0.004886778071522713,0.5589252710342407
1667267185469372200,2.6333720703125,-0.237008735537529,0.02748812735080719,0.5424323678016663
1667267185471769900,2.635769775390625,-0.2357870489358902,0.062306419014930725,0.5283828973770142
1667267185474167600,2.63816748046875,-0.23028941452503204,0.09345962852239609,0.5125008225440979
1667267185476565200,2.640565185546875,-0.22723518311977386,0.12522368133068085,0.4978405237197876
1667267185478963200,2.642963134765625,-0.2235700935125351,0.15454435348510742,0.4837910234928131
1667267185481361000,2.64536083984375,-0.21685077250003815,0.1820324808359146,0.4721849262714386
1667267185483758600,2.647758544921875,-0.21196399629116058,0.2089097648859024,0.4605788290500641
1667267185486156500,2.650156494140625,-0.20768806338310242,0.2345653474330902,0.4489727318286896
1667267185488554200,2.65255419921875,-0.20463383197784424,0.25655585527420044,0.44103172421455383
1667267185490952000,2.654951904296875,-0.20402298867702484,0.2779355049133301,0.4330907166004181
1667267185493349600,2.657349609375,-0.20341213047504425,0.29503923654556274,0.42576053738594055
1667267185495747600,2.65974755859375,-0.20585553348064423,0.30908870697021484,0.418430358171463
1667267185498145300,2.662145263671875,-0.208298921585083,0.31886225938796997,0.41232189536094666
1667267185500543000,2.66454296875,-0.21196399629116058,0.3249707520008087,0.4043808877468109
1667267185502940700,2.666940673828125,-0.21623992919921875,0.32191649079322815,0.395218163728714
1667267185505338600,2.669338623046875,-0.21929416060447693,0.3164188861846924,0.3836120665073395
1667267185507736300,2.671736328125,-0.21990501880645752,0.30969956517219543,0.37200596928596497
1667267185510134000,2.674134033203125,-0.21868331730365753,0.3005368411540985,0.35795649886131287
1667267185512531700,2.67653173828125,-0.21746163070201874,0.2864873707294464,0.3432961702346802
1667267185514929700,2.6789296875,-0.21562908589839935,0.27121618390083313,0.32313820719718933
1667267185517327400,2.681327392578125,-0.2113531529903412,0.25777754187583923,0.3005368411540985
1667267185519725000,2.68372509765625,-0.2095206081867218,0.24556060135364532,0.27976804971694946
1667267185522123000,2.686123046875,-0.20402298867702484,0.22784602642059326,0.25350162386894226
1667267185524520700,2.688520751953125,-0.1985253542661667,0.2113531529903412,0.22479179501533508
1667267185526918400,2.69091845703125,-0.19058434665203094,0.1973036676645279,0.1954711228609085
1667267185529316000,2.693316162109375,-0.182643324136734,0.183865025639534,0.16309621930122375
1667267185531714000,2.695714111328125,-0.17409147322177887,0.17531315982341766,0.12522368133068085
1667267185534111700,2.69811181640625,-0.16309621930122375,0.16798299551010132,0.0916270911693573
1667267185536509400,2.700509521484375,-0.15210096538066864,0.16309621930122375,0.05619794875383377
1667267185538907100,2.7029072265625,-0.14110571146011353,0.16065283119678497,0.023212196305394173
1667267185541305000,2.70530517578125,-0.1313321590423584,0.1582094430923462,-0.00916270911693573
1667267185543702800,2.707702880859375,-0.12033691257238388,0.1563768982887268,-0.0397050715982914
1667267185546100500,2.7101005859375,-0.11117420345544815,0.16004198789596558,-0.0653606578707695
1667267185548498200,2.712498291015625,-0.10323318839073181,0.16248537600040436,-0.08674030750989914
1667267185550896000,2.714896240234375,-0.09712471067905426,0.15943112969398499,-0.1050657257437706
1667267185553293800,2.7172939453125,-0.09284878522157669,0.15943112969398499,-0.12278030067682266
1667267185555691500,2.71969140625,-0.0922379344701767,0.15393351018428802,-0.13316470384597778
1667267185558089500,2.72208935546875,-0.09345962852239609,0.1435490995645523,-0.1453816443681717
1667267185560487200,2.724487060546875,-0.09407047927379608,0.13316470384597778,-0.15149012207984924
1667267185562884900,2.726884765625,-0.0922379344701767,0.12216944992542267,-0.1557660549879074
1667267185565282600,2.729282470703125,-0.08918370306491852,0.10628741979598999,-0.1575985997915268
1667267185567680500,2.731680419921875,-0.08918370306491852,0.09284878522157669,-0.1575985997915268
1667267185570078200,2.734078125,-0.08429691940546036,0.07513421028852463,-0.14965757727622986
1667267185572476000,2.736475830078125,-0.07574506103992462,0.061084724962711334,-0.14049486815929413
1667267185574873600,2.73887353515625,-0.06658235192298889,0.045202698558568954,-0.129499614238739
1667267185577271600,2.741271484375,-0.056808795779943466,0.033596597611904144,-0.11545012891292572
1667267185579669200,2.743669189453125,-0.04581354558467865,0.01832541823387146,-0.10078980028629303
1667267185582067000,2.74606689453125,-0.034818295389413834,0.0036650835536420345,-0.08490777015686035
1667267185584464600,2.748464599609375,-0.021990500390529633,-0.012216945178806782,-0.0659715011715889
1667267185586862600,2.750862548828125,-0.007941014133393764,-0.02993151545524597,-0.04825693368911743
1667267185589260300,2.75326025390625,0.004886778071522713,-0.045202698558568954,-0.02993151545524597
1667267185591658000,2.755657958984375,0.018936265259981155,-0.05864133685827255,-0.014049487188458443
1667267185594055700,2.7580556640625,0.03542914241552353,-0.07452336698770523,-0.0030542362947016954
1667267185596453600,2.76045361328125,0.04886778071522713,-0.09040539711713791,0.012216945178806782
1667267185598851300,2.762851318359375,0.06719319522380829,-0.10262233763933182,0.02504473738372326
1667267185601249000,2.7652490234375,0.08368607610464096,-0.11117420345544815,0.03542914241552353
1667267185603646700,2.767646728515625,0.10262233763933182,-0.11606097966432571,0.045202698558568954
1667267185606044700,2.770044677734375,0.11972606182098389,-0.12033691257238388,0.055587101727724075
1667267185608442400,2.7724423828125,0.13621893525123596,-0.11972606182098389,0.06291726976633072
1667267185610840000,2.774840087890625,0.15454435348510742,-0.1172826737165451,0.06841489672660828
1667267185613237800,2.77723779296875,0.17409147322177887,-0.11667182296514511,0.07574506103992462
1667267185615635700,2.7796357421875,0.19302773475646973,-0.11361759155988693,0.08124268800020218
1667267185618033400,2.782033447265625,0.2095206081867218,-0.11056335270404816,0.08612946420907974
1667267185620431000,2.78443115234375,0.22601348161697388,-0.10995250940322876,0.08979454636573792
1667267185622829000,2.7868291015625,0.24006296694278717,-0.10811996459960938,0.09345962852239609
1667267185625226800,2.789226806640625,0.25350162386894226,-0.10995250940322876,0.09712471067905426
1667267185627624400,2.79162451171875,0.26755109429359436,-0.10811996459960938,0.09651386737823486
1667267185630022100,2.794022216796875,0.27915719151496887,-0.10689827054738998,0.09773556143045425
1667267185632420000,2.796420166015625,0.2901524603366852,-0.10384403169155121,0.09651386737823486
1667267185634817800,2.79881787109375,0.2993151545524597,-0.10201149433851242,0.09468132257461548
1667267185637215500,2.801215576171875,0.30908870697021484,-0.09651386737823486,0.08918370306491852
1667267185639613200,2.80361328125,0.31825143098831177,-0.09284878522157669,0.08246438205242157
1667267185642011100,2.80601123046875,0.3286358118057251,-0.08979454636573792,0.07635590434074402
1667267185644408800,2.808408935546875,0.337798535823822,-0.08490777015686035,0.06658235192298889
1667267185646806500,2.810806640625,0.34696123003959656,-0.07757759839296341,0.05803048983216286
1667267185649204200,2.813204345703125,0.3561239540576935,-0.06719319522380829,0.04703523963689804
1667267185651602200,2.815602294921875,0.365286648273468,-0.053143709897994995,0.03665083646774292
1667267185653999900,2.817999755859375,0.37078428268432617,-0.03787253051996231,0.02748812735080719
1667267185656397600,2.8203974609375,0.37689274549484253,-0.02076880633831024,0.01954711228609085
1667267185658795300,2.822795166015625,0.3811686933040619,-0.007330167107284069,0.009773556143045425
1667267185661193200,2.825193115234375,0.3830012381076813,0.008551862090826035,0.0024433890357613564
1667267185663591000,2.8275908203125,0.38605546951293945,0.017714571207761765,-0.0030542362947016954
1667267185665988600,2.829988525390625,0.38544461131095886,0.02626643143594265,-0.01038440316915512
1667267185668386600,2.832386474609375,0.38788801431655884,0.03176405653357506,-0.02076880633831024
1667267185670784300,2.8347841796875,0.38849884271621704,0.03542914241552353,-0.030542362481355667
1667267185673182000,2.837181884765625,0.38666632771492004,0.038483377546072006,-0.04092676565051079
1667267185675579600,2.83957958984375,0.38483378291130066,0.04153761267662048,-0.054365407675504684
1667267185677977600,2.8419775390625,0.3830012381076813,0.042759306728839874,-0.0653606578707695
1667267185680375300,2.844375244140625,0.3781144618988037,0.04459185153245926,-0.07757759839296341
1667267185682773000,2.84677294921875,0.37444937229156494,0.04459185153245926,-0.08796200156211853
1667267185685170700,2.849170654296875,0.3683409094810486,0.04092676565051079,-0.10017894953489304
1667267185687568600,2.851568603515625,0.36284327507019043,0.04153761267662048,-0.11300674080848694
1667267185689966300,2.85396630859375,0.3561239540576935,0.03665083646774292,-0.12278030067682266
1667267185692364000,2.856364013671875,0.3500154912471771,0.036039989441633224,-0.13682979345321655
1667267185694761700,2.85876171875,0.342074453830719,0.03665083646774292,-0.14843589067459106
1667267185697159700,2.86115966796875,0.33413344621658325,0.03542914241552353,-0.16004198789596558
1667267185699557400,2.863557373046875,0.3292466700077057,0.0390942245721817,-0.17286977171897888
1667267185701955000,2.865955078125,0.3249707520008087,0.042759306728839874,-0.183865025639534
1667267185704353000,2.86835302734375,0.31825143098831177,0.045202698558568954,-0.1979145109653473
1667267185706750700,2.870750732421875,0.314586341381073,0.05008947476744652,-0.20768806338310242
1667267185709148400,2.8731484375,0.3127537965774536,0.05986303091049194,-0.21562908589839935
1667267185711546000,2.875546142578125,0.30786702036857605,0.0647498071193695,-0.2217375487089157
1667267185713944000,2.877944091796875,0.30847787857055664,0.07269082218408585,-0.22906772792339325
1667267185716341800,2.880341796875,0.3023693859577179,0.0794101431965828,-0.2345653474330902
1667267185718739500,2.882739501953125,0.29687178134918213,0.08979454636573792,-0.2363978922367096
1667267185721137200,2.88513720703125,0.291374146938324,0.10201149433851242,-0.23884128034114838
1667267185723535000,2.88753515625,0.28282228112220764,0.10995250940322876,-0.24067382514476776
1667267185725932800,2.889932861328125,0.2754921019077301,0.12155860662460327,-0.23884128034114838
1667267185728330500,2.89233056640625,0.2638860046863556,0.1313321590423584,-0.2351761907339096
1667267185730728200,2.894728271484375,0.25411245226860046,0.1435490995645523,-0.23028941452503204
1667267185733126100,2.897126220703125,0.24494975805282593,0.15515519678592682,-0.22540263831615448
1667267185735523800,2.89952392578125,0.2363978922367096,0.16798299551010132,-0.21807247400283813
1667267185737921500,2.901921630859375,0.22784602642059326,0.17531315982341766,-0.21196399629116058
1667267185740319500,2.904319580078125,0.2235700935125351,0.17775654792785645,-0.20707722008228302
1667267185742717200,2.90671728515625,0.21807247400283813,0.17897824943065643,-0.20219044387340546
1667267185745115000,2.909114990234375,0.21379654109477997,0.17775654792785645,-0.1973036676645279
1667267185747512600,2.9115126953125,0.2101314514875412,0.17286977171897888,-0.19424942135810852
1667267185749910500,2.91391064453125,0.20707722008228302,0.16431790590286255,-0.18936264514923096
1667267185752308200,2.91630810546875,0.20463383197784424,0.15332266688346863,-0.18753011524677277
1667267185754706000,2.918705810546875,0.20096874237060547,0.1423274129629135,-0.1850867122411728
1667267185757103600,2.921103515625,0.1960819661617279,0.1313321590423584,-0.18142163753509521
1667267185759501600,2.92350146484375,0.19302773475646973,0.1178935244679451,-0.17836740612983704
1667267185761899300,2.925899169921875,0.18997350335121155,0.1056765764951706,-0.17531315982341766
1667267185764297000,2.928296875,0.18753011524677277,0.09284878522157669,-0.1716480851173401
1667267185766694700,2.930694580078125,0.17958909273147583,0.08368607610464096,-0.16492876410484314
1667267185769092600,2.933092529296875,0.17531315982341766,0.07452336698770523,-0.16004198789596558
1667267185771490300,2.935490234375,0.16859383881092072,0.0659715011715889,-0.15149012207984924
1667267185773888000,2.937887939453125,0.16126367449760437,0.05803048983216286,-0.1453816443681717
1667267185776285700,2.94028564453125,0.15454435348510742,0.04703523963689804,-0.13927318155765533
1667267185778683600,2.94268359375,0.1453816443681717,0.04092676565051079,-0.1301104724407196
1667267185781081300,2.945081298828125,0.13866232335567474,0.03420744836330414,-0.12155860662460327
1667267185783479000,2.94747900390625,0.129499614238739,0.030542362481355667,-0.11483928561210632
1667267185785877000,2.949876953125,0.12033691257238388,0.023212196305394173,-0.1056765764951706
1667267185788274700,2.952274658203125,0.11178504675626755,0.01832541823387146,-0.09284878522157669
1667267185790672400,2.95467236328125,0.10201149433851242,0.014660334214568138,-0.08246438205242157
1667267185793070000,2.957070068359375,0.09590301662683487,0.007330167107284069,-0.07146912813186646
1667267185795468000,2.959468017578125,0.08796200156211853,-0.0006108472589403391,-0.05986303091049194
1667267185797865700,2.96186572265625,0.08063183724880219,-0.010995250195264816,-0.04886778071522713
1667267185800263400,2.964263427734375,0.07391251623630524,-0.023823043331503868,-0.04153761267662048
1667267185802661000,2.9666611328125,0.0653606578707695,-0.038483377546072006,-0.036039989441633224
1667267185805059000,2.96905908203125,0.06169557198882103,-0.05375456064939499,-0.033596597611904144
1667267185807456800,2.971456787109375,0.05925218388438225,-0.07024743407964706,-0.03298575058579445
1667267185809854500,2.9738544921875,0.05986303091049194,-0.08490777015686035,-0.03237490355968475
1667267185812252400,2.97625244140625,0.05864133685827255,-0.09651386737823486,-0.030542362481355667
1667267185814650000,2.978650146484375,0.062306419014930725,-0.10628741979598999,-0.03237490355968475
1667267185817047800,2.9810478515625,0.06780404597520828,-0.10995250940322876,-0.03237490355968475
1667267185819445500,2.983445556640625,0.07391251623630524,-0.11422843486070633,-0.03176405653357506
1667267185821843500,2.985843505859375,0.08002099394798279,-0.11361759155988693,-0.031153209507465363
1667267185824241200,2.9882412109375,0.08307522535324097,-0.10934165865182877,-0.03298575058579445
1667267185826638800,2.990638916015625,0.08551861345767975,-0.1050657257437706,-0.03298575058579445
1667267185829036500,2.99303662109375,0.08612946420907974,-0.09651386737823486,-0.033596597611904144
1667267185831434500,2.9954345703125,0.08490777015686035,-0.08674030750989914,-0.03176405653357506
1667267185833832200,2.997832275390625,0.08307522535324097,-0.07757759839296341,-0.03237490355968475
1667267185836230000,3.00022998046875,0.08063183724880219,-0.06963659077882767,-0.03420744836330414
1667267185838627600,3.002627685546875,0.07574506103992462,-0.062306419014930725,-0.03665083646774292
1667267185841025500,3.005025634765625,0.07330167293548584,-0.05619794875383377,-0.03787253051996231
1667267185843423200,3.00742333984375,0.07207997888326645,-0.05070032179355621,-0.042759306728839874
1667267185845821000,3.009821044921875,0.06902574002742767,-0.047646086663007736,-0.04825693368911743
