time,seconds_elapsed,z,y,x
1667267182922950700,0.08695068359375,0.0038177953101694584,0.09338327497243881,-0.020310672000050545
1667267182925348400,0.089348388671875,0.0007635590736754239,0.10437852889299393,-0.03130592033267021
1667267182927746000,0.09174609375,-0.0010689827613532543,0.11231953650712967,-0.03802524134516716
1667267182930143700,0.094143798828125,-0.004734066314995289,0.11903885751962662,-0.045355409383773804
1667267182932541700,0.096541748046875,-0.007788302376866341,0.12392564117908478,-0.05085303261876106
1667267182934939400,0.098939453125,-0.010842538438737392,0.12697987258434296,-0.05757235363125801
1667267182937337000,0.101337158203125,-0.013285927474498749,0.12575818598270416,-0.06062658876180649
1667267182939734800,0.10373486328125,-0.01572931744158268,0.1214822456240654,-0.06245913356542587
1667267182942132700,0.1061328125,-0.01695101149380207,0.11293038725852966,-0.06306997686624527
1667267182944530400,0.108530517578125,-0.01817270554602146,0.1080436110496521,-0.06306997686624527
1667267182946928000,0.11092822265625,-0.017561858519911766,0.09643751382827759,-0.06368082761764526
1667267182949325800,0.113325927734375,-0.017561858519911766,0.08605311065912247,-0.06001574173569679
1667267182951723500,0.1157236328125,-0.019394399598240852,0.07444700598716736,-0.05757235363125801
1667267182954121500,0.11812158203125,-0.018783552572131157,0.061619218438863754,-0.05268557742238045
1667267182956519200,0.120519287109375,-0.01817270554602146,0.050013117492198944,-0.049020491540431976
1667267182958916900,0.122916748046875,-0.01695101149380207,0.03901786729693413,-0.04230117425322533
1667267182961314600,0.125314453125,-0.01695101149380207,0.02802261710166931,-0.036192700266838074
1667267182963712500,0.12771240234375,-0.014507622458040714,0.018249060958623886,-0.030695075169205666
1667267182966110200,0.130110107421875,-0.01572931744158268,0.009697199799120426,-0.023364907130599022
1667267182968508000,0.1325078125,-0.012675080448389053,0.0005344913806766272,-0.019088976085186005
1667267182970905600,0.134905517578125,-0.008399149402976036,-0.008017370477318764,-0.012369656935334206
1667267182973303300,0.13730322265625,-0.008399149402976036,-0.011682453565299511,-0.008093725889921188
1667267182975701200,0.139701171875,-0.008399149402976036,-0.014736690558493137,-0.0038177953101694584
1667267182978099000,0.142098876953125,-0.008399149402976036,-0.014736690558493137,0.0004581354442052543
1667267182980496600,0.14449658203125,-0.007788302376866341,-0.015347537584602833,0.0022906772792339325
1667267182982894300,0.146894287109375,-0.007177455350756645,-0.014736690558493137,0.004123218823224306
1667267182985292300,0.149292236328125,-0.007788302376866341,-0.012904148548841476,0.007788302376866341
1667267182987690000,0.15168994140625,-0.009009997360408306,-0.007406522985547781,0.008399149402976036
1667267182990087700,0.154087646484375,-0.012675080448389053,-0.004352286923676729,0.011453386396169662
1667267182992485400,0.1564853515625,-0.013896775431931019,0.0029778804164379835,0.01511846948415041
1667267182994883300,0.15888330078125,-0.016340164467692375,0.00908635277301073,0.01695101149380207
1667267182997281000,0.161281005859375,-0.020616095513105392,0.015194825828075409,0.016340164467692375
1667267182999678700,0.1636787109375,-0.023059483617544174,0.021303297951817513,0.020616095513105392
1667267183002076400,0.166076416015625,-0.025502873584628105,0.02924431301653385,0.023059483617544174
1667267183004474400,0.168474365234375,-0.027946261689066887,0.03962871432304382,0.0261137206107378
1667267183006872000,0.1708720703125,-0.032222192734479904,0.04390464723110199,0.029778804630041122
1667267183009269800,0.173269775390625,-0.03588727489113808,0.04818057641386986,0.032222192734479904
1667267183011667500,0.17566748046875,-0.04016320779919624,0.053678203374147415,0.031000498682260513
1667267183014065400,0.1780654296875,-0.04016320779919624,0.059175826609134674,0.03405473381280899
1667267183016463000,0.180463134765625,-0.04016320779919624,0.061619218438863754,0.03527642786502838
1667267183018860800,0.18286083984375,-0.03894151374697685,0.06223006546497345,0.037108972668647766
1667267183021258500,0.185258544921875,-0.03894151374697685,0.06039752438664436,0.03955236077308655
1667267183023656200,0.18765625,-0.037108972668647766,0.05795413255691528,0.04199574887752533
1667267183026054100,0.19005419921875,-0.03649812191724777,0.05306735634803772,0.04443913698196411
1667267183028451800,0.192451904296875,-0.0328330397605896,0.04818057641386986,0.0462716780602932
1667267183030849500,0.194849609375,-0.0328330397605896,0.044515494257211685,0.04871506989002228
1667267183033247200,0.197247314453125,-0.03161134570837021,0.036574479192495346,0.052990999072790146
1667267183035645200,0.199645263671875,-0.028557108715176582,0.029855160042643547,0.05665608495473862
1667267183038043000,0.20204296875,-0.029167955741286278,0.02008160389959812,0.0584886260330677
1667267183040440600,0.204440673828125,-0.026724567636847496,0.010308047756552696,0.06032116711139679
1667267183042838300,0.20683837890625,-0.027946261689066887,-0.00007635590736754239,0.06337540596723557
1667267183045236200,0.209236328125,-0.02733541466295719,-0.011071606539189816,0.06765133142471313
1667267183047634000,0.211634033203125,-0.02733541466295719,-0.0165692325681448,0.06765133142471313
1667267183050031600,0.214031494140625,-0.02489202655851841,-0.02145601063966751,0.07009471952915192
1667267183052429300,0.21642919921875,-0.02244863659143448,-0.023288551717996597,0.0719272643327713
1667267183054827000,0.218826904296875,-0.020005248486995697,-0.024510245770215988,0.07375980913639069
1667267183057225000,0.221224853515625,-0.017561858519911766,-0.025121092796325684,0.07803573459386826
1667267183059622700,0.22362255859375,-0.013896775431931019,-0.025731941685080528,0.07864658534526825
1667267183062020400,0.226020263671875,-0.008399149402976036,-0.02817532978951931,0.07864658534526825
1667267183064418000,0.22841796875,-0.005955760832875967,-0.025731941685080528,0.08231166750192642
1667267183066816000,0.23081591796875,-0.0029015245381742716,-0.023288551717996597,0.08292251825332642
1667267183069213700,0.233213623046875,-0.0029015245381742716,-0.023288551717996597,0.0847550556063652
1667267183071611400,0.235611328125,-0.0010689827613532543,-0.022677704691886902,0.08658760040998459
1667267183074009000,0.238009033203125,-0.0010689827613532543,-0.023288551717996597,0.09025268256664276
1667267183076406800,0.24040673828125,-0.0004581354442052543,-0.024510245770215988,0.09147437661886215
1667267183078804700,0.2428046875,-0.0022906772792339325,-0.025731941685080528,0.09208522737026215
1667267183081202400,0.245202392578125,-0.0010689827613532543,-0.028786176815629005,0.09513945877552032
1667267183083600100,0.24760009765625,-0.0010689827613532543,-0.03245126083493233,0.0981936976313591
1667267183085997800,0.249997802734375,-0.0016798300202935934,-0.034283801913261414,0.0981936976313591
1667267183088395800,0.252395751953125,-0.0029015245381742716,-0.036727190017700195,0.10246963053941727
1667267183090793500,0.25479345703125,-0.0065666078589856625,-0.039170581847429276,0.10674555599689484
1667267183093191200,0.257191162109375,-0.007177455350756645,-0.040392275899648666,0.10796725004911423
1667267183095588900,0.2595888671875,-0.009620844386518002,-0.04527905210852623,0.1122431829571724
1667267183097986800,0.26198681640625,-0.009620844386518002,-0.04405735805630684,0.11651911586523056
1667267183100384500,0.264384521484375,-0.010842538438737392,-0.04650074616074562,0.12018419802188873
1667267183102782200,0.2667822265625,-0.013285927474498749,-0.044668205082416534,0.12201674282550812
1667267183105180000,0.269179931640625,-0.01572931744158268,-0.049554985016584396,0.12751436233520508
1667267183107577900,0.271577880859375,-0.021837789565324783,-0.0623827762901783,0.13484452664852142
1667267183109975600,0.2739755859375,-0.029778804630041122,-0.06726955622434616,0.13973131775856018
1667267183112373200,0.276373291015625,-0.031000498682260513,-0.06665870547294617,0.14645062386989594
1667267183114771000,0.27877099609375,-0.033443886786699295,-0.0623827762901783,0.1513374149799347
1667267183117169000,0.2811689453125,-0.03833066672086716,-0.05810684710741043,0.15500248968601227
1667267183119566600,0.283566650390625,-0.04016320779919624,-0.05688514932990074,0.15988926589488983
1667267183121964300,0.28596435546875,-0.041384901851415634,-0.055052608251571655,0.1623326539993286
1667267183124362000,0.288362060546875,-0.04077405482530594,-0.05810684710741043,0.164165198802948
1667267183126759700,0.290759765625,-0.04077405482530594,-0.0623827762901783,0.16172181069850922
1667267183129157600,0.29315771484375,-0.03833066672086716,-0.06604786217212677,0.15927842259407043
1667267183131555300,0.295555419921875,-0.037108972668647766,-0.06910209357738495,0.15622419118881226
1667267183133953000,0.297953125,-0.037108972668647766,-0.07093463838100433,0.15316994488239288
1667267183136350700,0.300350830078125,-0.03649812191724777,-0.07215633243322372,0.1519482582807541
1667267183138748700,0.302748779296875,-0.03527642786502838,-0.07643226534128189,0.14400723576545715
1667267183141146400,0.305146484375,-0.03833066672086716,-0.07826480269432068,0.1378987729549408
1667267183143544000,0.3075439453125,-0.03588727489113808,-0.08009734749794006,0.13240113854408264
1667267183145941800,0.309941650390625,-0.03894151374697685,-0.08437328040599823,0.12690351903438568
1667267183148339700,0.312339599609375,-0.03833066672086716,-0.08559497445821762,0.12018419802188873
1667267183150737400,0.3147373046875,-0.03527642786502838,-0.08376242965459824,0.11346487700939178
1667267183153135000,0.317135009765625,-0.031000498682260513,-0.08254073560237885,0.10735640674829483
1667267183155532800,0.31953271484375,-0.0261137206107378,-0.08437328040599823,0.0988045409321785
1667267183157930500,0.321930419921875,-0.021226942539215088,-0.08498412370681763,0.09636115282773972
1667267183160328400,0.324328369140625,-0.018783552572131157,-0.08742751181125641,0.08842013776302338
1667267183162726100,0.32672607421875,-0.01511846948415041,-0.09048175066709518,0.08292251825332642
1667267183165123800,0.329123779296875,-0.010231691412627697,-0.09231429547071457,0.07559234648942947
1667267183167521500,0.331521484375,-0.007177455350756645,-0.0892600566148758,0.0725381150841713
1667267183169919500,0.33391943359375,-0.0035123717971146107,-0.08620581775903702,0.06642963737249374
1667267183172317200,0.336317138671875,-0.0004581354442052543,-0.08376242965459824,0.062153708189725876
1667267183174715000,0.33871484375,0.001374406274408102,-0.08070819079875946,0.0584886260330677
1667267183177112600,0.341112548828125,0.00259610079228878,-0.08192989230155945,0.05238015204668045
1667267183179510300,0.34351025390625,0.0050394898280501366,-0.08681666851043701,0.04871506989002228
1667267183181908200,0.345908203125,0.008704573847353458,-0.09109259396791458,0.04443913698196411
1667267183184306000,0.348305908203125,0.009315420873463154,-0.09414683282375336,0.04199574887752533
1667267183186703600,0.35070361328125,0.008093725889921188,-0.09109259396791458,0.04077405482530594
1667267183189101300,0.353101318359375,0.0068720318377017975,-0.09292513877153397,0.04077405482530594
1667267183191499300,0.355499267578125,0.0050394898280501366,-0.09292513877153397,0.04077405482530594
1667267183193897000,0.35789697265625,0.0032069480512291193,-0.09048175066709518,0.04199574887752533
1667267183196294700,0.360294677734375,0.00259610079228878,-0.0880383625626564,0.04321744292974472
1667267183198692400,0.3626923828125,-0.0022906772792339325,-0.08437328040599823,0.04443913698196411
1667267183201090300,0.36509033203125,-0.0010689827613532543,-0.08009734749794006,0.0456608310341835
1667267183203488000,0.367488037109375,-0.004123218823224306,-0.07643226534128189,0.04993676394224167
1667267183205885700,0.3698857421875,-0.005955760832875967,-0.0745997205376625,0.05238015204668045
1667267183208283400,0.372283447265625,-0.004734066314995289,-0.06971294432878494,0.052990999072790146
1667267183210681300,0.374681396484375,-0.0065666078589856625,-0.06788039952516556,0.05360184609889984
1667267183213079000,0.3770791015625,-0.005955760832875967,-0.06849125027656555,0.051769305020570755
1667267183215476700,0.379476806640625,-0.005955760832875967,-0.06482616811990738,0.05115845799446106
1667267183217874400,0.38187451171875,-0.009009997360408306,-0.06910209357738495,0.05360184609889984
1667267183220272400,0.3842724609375,-0.009620844386518002,-0.07215633243322372,0.05238015204668045
1667267183222670000,0.386670166015625,-0.008399149402976036,-0.0752105712890625,0.05115845799446106
1667267183225067800,0.38906787109375,-0.010231691412627697,-0.07948649674654007,0.04810422286391258
1667267183227465500,0.391465576171875,-0.010231691412627697,-0.08376242965459824,0.04443913698196411
1667267183229863200,0.39386328125,-0.009620844386518002,-0.08254073560237885,0.04443913698196411
1667267183232261000,0.39626123046875,-0.012675080448389053,-0.08009734749794006,0.041384901851415634
1667267183234658800,0.398658935546875,-0.016340164467692375,-0.07154548168182373,0.03894151374697685
1667267183237056500,0.401056396484375,-0.021226942539215088,-0.07032378762960434,0.03771981969475746
1667267183239454200,0.4034541015625,-0.025502873584628105,-0.06971294432878494,0.03833066672086716
1667267183241852200,0.40585205078125,-0.03161134570837021,-0.06543701142072678,0.03771981969475746
1667267183244249900,0.408249755859375,-0.03588727489113808,-0.05993938818573952,0.03527642786502838
1667267183246647600,0.4106474609375,-0.04077405482530594,-0.05444176122546196,0.03161134570837021
1667267183249045200,0.413045166015625,-0.04688252881169319,-0.05138752609491348,0.026724567636847496
1667267183251443000,0.41544287109375,-0.050547610968351364,-0.047111593186855316,0.025502873584628105
1667267183253841000,0.4178408203125,-0.05238015204668045,-0.04283566400408745,0.021837789565324783
1667267183256238600,0.420238525390625,-0.05238015204668045,-0.040392275899648666,0.01695101149380207
1667267183258636300,0.42263623046875,-0.05360184609889984,-0.039170581847429276,0.012064233422279358
1667267183261034000,0.425033935546875,-0.051769305020570755,-0.039170581847429276,0.007177455350756645
1667267183263432000,0.427431884765625,-0.04810422286391258,-0.035505495965480804,0.0035123717971146107
1667267183265829600,0.42982958984375,-0.04504998400807381,-0.03245126083493233,-0.00015271181473508477
1667267183268227300,0.432227294921875,-0.043828289955854416,-0.03306210786104202,-0.00015271181473508477
1667267183270625000,0.434625,-0.04016320779919624,-0.028786176815629005,-0.004428642801940441
1667267183273023000,0.43702294921875,-0.03588727489113808,-0.02817532978951931,-0.007482878863811493
1667267183275420700,0.439420654296875,-0.032222192734479904,-0.024510245770215988,-0.009315420873463154
1667267183277818400,0.441818359375,-0.029167955741286278,-0.022677704691886902,-0.00992626789957285
1667267183280216000,0.444216064453125,-0.023059483617544174,-0.026342788711190224,-0.012369656935334206
1667267183282613800,0.44661376953125,-0.019394399598240852,-0.02817532978951931,-0.016034740954637527
1667267183285011700,0.44901171875,-0.01511846948415041,-0.031229566782712936,-0.01725643500685692
1667267183287409400,0.451409423828125,-0.010231691412627697,-0.034283801913261414,-0.017867282032966614
1667267183289807000,0.45380712890625,-0.009009997360408306,-0.03367295488715172,-0.017867282032966614
1667267183292204800,0.456204833984375,-0.007177455350756645,-0.035505495965480804,-0.019088976085186005
1667267183294602800,0.458602783203125,-0.0035123717971146107,-0.03489464893937111,-0.015423892997205257
1667267183297000400,0.46100048828125,-0.0022906772792339325,-0.03306210786104202,-0.013591351918876171
1667267183299398100,0.463398193359375,-0.0004581354442052543,-0.03306210786104202,-0.012369656935334206
1667267183301795800,0.4657958984375,0.0007635590736754239,-0.035505495965480804,-0.010537114925682545
1667267183304193800,0.46819384765625,0.0032069480512291193,-0.039170581847429276,-0.007482878863811493
1667267183306591500,0.470591552734375,0.004428642801940441,-0.03978142887353897,-0.006261184345930815
1667267183308989200,0.4729892578125,0.0038177953101694584,-0.04772244393825531,-0.005650337319821119
1667267183311387000,0.475386962890625,0.001985253533348441,-0.049554985016584396,-0.004428642801940441
1667267183313784800,0.477784912109375,0.00259610079228878,-0.055052608251571655,-0.004428642801940441
1667267183316182500,0.4801826171875,0.00015271181473508477,-0.05566345527768135,-0.0050394898280501366
1667267183318580200,0.482580322265625,0.00015271181473508477,-0.05444176122546196,-0.005650337319821119
1667267183320978000,0.48497802734375,-0.0022906772792339325,-0.05138752609491348,-0.006261184345930815
1667267183323375900,0.4873759765625,-0.004734066314995289,-0.047111593186855316,-0.007482878863811493
1667267183325773600,0.489773681640625,-0.005344913341104984,-0.04650074616074562,-0.0068720318377017975
1667267183328171300,0.492171142578125,-0.0065666078589856625,-0.040392275899648666,-0.008093725889921188
1667267183330569000,0.49456884765625,-0.0065666078589856625,-0.03733803704380989,-0.009315420873463154
1667267183332966700,0.496966552734375,-0.009009997360408306,-0.03306210786104202,-0.009315420873463154
1667267183335364600,0.499364501953125,-0.010231691412627697,-0.03245126083493233,-0.008704573847353458
1667267183337762300,0.50176220703125,-0.009620844386518002,-0.02695363573729992,-0.009315420873463154
1667267183340160000,0.504159912109375,-0.010842538438737392,-0.025731941685080528,-0.008704573847353458
1667267183342557700,0.5065576171875,-0.010231691412627697,-0.024510245770215988,-0.008704573847353458
1667267183344955600,0.50895556640625,-0.009620844386518002,-0.02145601063966751,-0.008704573847353458
1667267183347353300,0.511353271484375,-0.012064233422279358,-0.01779092662036419,-0.008704573847353458
1667267183349751000,0.5137509765625,-0.010842538438737392,-0.015347537584602833,-0.008093725889921188
1667267183352148700,0.516148681640625,-0.009620844386518002,-0.015958385542035103,-0.010537114925682545
1667267183354546700,0.518546630859375,-0.009620844386518002,-0.018401773646473885,-0.010537114925682545
1667267183356944400,0.5209443359375,-0.007788302376866341,-0.018401773646473885,-0.010537114925682545
1667267183359342000,0.523342041015625,-0.009009997360408306,-0.0165692325681448,-0.00992626789957285
1667267183361739800,0.52573974609375,-0.008399149402976036,-0.02023431472480297,-0.011147962883114815
1667267183364137500,0.528137451171875,-0.009009997360408306,-0.026342788711190224,-0.013591351918876171
1667267183366535400,0.530535400390625,-0.009009997360408306,-0.03184041380882263,-0.014813045971095562
1667267183368933000,0.53293310546875,-0.010842538438737392,-0.03733803704380989,-0.01725643500685692
1667267183371330800,0.535330810546875,-0.012064233422279358,-0.04405735805630684,-0.016645587980747223
1667267183373728500,0.537728515625,-0.012064233422279358,-0.05016583204269409,-0.016034740954637527
1667267183376126500,0.54012646484375,-0.013285927474498749,-0.05566345527768135,-0.016034740954637527
1667267183378524200,0.542524169921875,-0.012064233422279358,-0.057496000081300735,-0.013591351918876171
1667267183380921900,0.544921875,-0.012675080448389053,-0.05993938818573952,-0.012980503961443901
1667267183383319600,0.547319580078125,-0.012675080448389053,-0.062993623316288,-0.008093725889921188
1667267183385717500,0.549717529296875,-0.012064233422279358,-0.06604786217212677,-0.007482878863811493
1667267183388115200,0.552115234375,-0.014507622458040714,-0.06910209357738495,-0.0068720318377017975
1667267183390513000,0.554512939453125,-0.012675080448389053,-0.06788039952516556,-0.0007635590736754239
1667267183392910600,0.55691064453125,-0.012675080448389053,-0.06910209357738495,-0.00015271181473508477
1667267183395308300,0.559308349609375,-0.016340164467692375,-0.06971294432878494,0.004734066314995289
1667267183397706200,0.561706298828125,-0.016340164467692375,-0.06849125027656555,0.007788302376866341
1667267183400104000,0.56410400390625,-0.01695101149380207,-0.06665870547294617,0.011453386396169662
1667267183402501600,0.566501708984375,-0.01695101149380207,-0.062993623316288,0.014507622458040714
1667267183404899300,0.5688994140625,-0.017561858519911766,-0.05932854115962982,0.01817270554602146
1667267183407297300,0.57129736328125,-0.01817270554602146,-0.05810684710741043,0.023059483617544174
1667267183409695000,0.573695068359375,-0.016340164467692375,-0.055052608251571655,0.02489202655851841
1667267183412092700,0.5760927734375,-0.01695101149380207,-0.053830914199352264,0.029167955741286278
1667267183414490400,0.578490478515625,-0.016340164467692375,-0.05016583204269409,0.031000498682260513
1667267183416888300,0.580888427734375,-0.01511846948415041,-0.05016583204269409,0.033443886786699295
1667267183419286000,0.5832861328125,-0.014507622458040714,-0.05077667906880379,0.03405473381280899
1667267183421683700,0.58568359375,-0.013896775431931019,-0.05016583204269409,0.034665580838918686
1667267183424081400,0.588081298828125,-0.012064233422279358,-0.052609220147132874,0.037108972668647766
1667267183426479400,0.590479248046875,-0.013896775431931019,-0.05688514932990074,0.03588727489113808
1667267183428877000,0.592876953125,-0.013285927474498749,-0.05688514932990074,0.03588727489113808
1667267183431274800,0.595274658203125,-0.010842538438737392,-0.05932854115962982,0.034665580838918686
1667267183433672400,0.59767236328125,-0.009620844386518002,-0.06116108223795891,0.037108972668647766
1667267183436070400,0.6000703125,-0.010231691412627697,-0.062993623316288,0.0328330397605896
1667267183438468000,0.602468017578125,-0.009620844386518002,-0.061771929264068604,0.03161134570837021
1667267183440865800,0.60486572265625,-0.010231691412627697,-0.05932854115962982,0.030389651656150818
1667267183443263500,0.607263427734375,-0.011453386396169662,-0.05810684710741043,0.029778804630041122
1667267183445661400,0.609661376953125,-0.011453386396169662,-0.057496000081300735,0.029167955741286278
1667267183448059100,0.61205908203125,-0.009620844386518002,-0.05566345527768135,0.029778804630041122
1667267183450456800,0.614456787109375,-0.009009997360408306,-0.05566345527768135,0.0261137206107378
1667267183452854500,0.6168544921875,-0.009620844386518002,-0.05322006717324257,0.025502873584628105
1667267183455252200,0.619252197265625,-0.011453386396169662,-0.05077667906880379,0.023059483617544174
1667267183457650200,0.621650146484375,-0.011453386396169662,-0.05138752609491348,0.021226942539215088
1667267183460048000,0.6240478515625,-0.009009997360408306,-0.05199837312102318,0.01817270554602146
1667267183462445600,0.626445556640625,-0.010842538438737392,-0.05322006717324257,0.013896775431931019
1667267183464843300,0.62884326171875,-0.010842538438737392,-0.053830914199352264,0.012064233422279358
1667267183467241200,0.6312412109375,-0.011453386396169662,-0.05322006717324257,0.009009997360408306
1667267183469639000,0.633638916015625,-0.012064233422279358,-0.05444176122546196,0.0065666078589856625
1667267183472036600,0.63603662109375,-0.009009997360408306,-0.0489441379904747,0.004123218823224306
1667267183474434300,0.638434326171875,-0.010231691412627697,-0.04527905210852623,0.0035123717971146107
1667267183476832300,0.640832275390625,-0.009009997360408306,-0.04100312292575836,0.0029015245381742716
1667267183479230000,0.64322998046875,-0.010231691412627697,-0.036727190017700195,0.0016798300202935934
1667267183481627600,0.645627685546875,-0.010842538438737392,-0.031229566782712936,0.0004581354442052543
1667267183484025300,0.648025390625,-0.009620844386518002,-0.02695363573729992,0.0016798300202935934
1667267183486423000,0.650423095703125,-0.010231691412627697,-0.022066857665777206,-0.00015271181473508477
1667267183488821000,0.652821044921875,-0.009620844386518002,-0.02023431472480297,-0.00015271181473508477
1667267183491218700,0.65521875,-0.010231691412627697,-0.020845163613557816,-0.00259610079228878
1667267183493616400,0.657616455078125,-0.009620844386518002,-0.02023431472480297,-0.0007635590736754239
1667267183496014000,0.66001416015625,-0.007788302376866341,-0.024510245770215988,-0.005650337319821119
1667267183498412000,0.662412109375,-0.007788302376866341,-0.026342788711190224,-0.0068720318377017975
1667267183500809700,0.664809814453125,-0.007788302376866341,-0.026342788711190224,-0.011147962883114815
1667267183503207400,0.66720751953125,-0.0065666078589856625,-0.025731941685080528,-0.014813045971095562
1667267183505605000,0.669605224609375,-0.0065666078589856625,-0.025731941685080528,-0.01969982497394085
1667267183508003000,0.672003173828125,-0.007177455350756645,-0.023899398744106293,-0.023975754156708717
1667267183510400800,0.67440087890625,-0.009620844386518002,-0.02145601063966751,-0.02764083817601204
1667267183512798500,0.676798583984375,-0.0065666078589856625,-0.018401773646473885,-0.030695075169205666
1667267183515196200,0.679196044921875,-0.008399149402976036,-0.01901262067258358,-0.03497100621461868
1667267183517593900,0.68159375,-0.010231691412627697,-0.019623467698693275,-0.03558185324072838
1667267183519991800,0.68399169921875,-0.010231691412627697,-0.018401773646473885,-0.03497100621461868
1667267183522389500,0.686389404296875,-0.009009997360408306,-0.009239064529538155,-0.03497100621461868
1667267183524787200,0.688787109375,-0.007788302376866341,-0.0037414394319057465,-0.03497100621461868
1667267183527185000,0.691184814453125,-0.005344913341104984,0.0005344913806766272,-0.03558185324072838
1667267183529582800,0.693582763671875,-0.004123218823224306,0.0035887276753783226,-0.036192700266838074
1667267183531980500,0.69598046875,-0.0022906772792339325,0.006032116711139679,-0.03802524134516716
1667267183534378200,0.698378173828125,0.00015271181473508477,0.0023670331574976444,-0.038636088371276855
1667267183536776200,0.700776123046875,0.001374406274408102,0.0005344913806766272,-0.04169032722711563
1667267183539174000,0.703173828125,0.001985253533348441,0.0011453386396169662,-0.04352286830544472
1667267183541571600,0.705571533203125,0.001374406274408102,-0.0037414394319057465,-0.047798797488212585
1667267183543969300,0.70796923828125,0.0032069480512291193,-0.004963133949786425,-0.05024218559265137
1667267183546367000,0.710366943359375,0.0032069480512291193,-0.008017370477318764,-0.05207473039627075
1667267183548765000,0.712764892578125,0.001985253533348441,-0.007406522985547781,-0.054518118500709534
1667267183551162600,0.71516259765625,-0.0004581354442052543,-0.009239064529538155,-0.05757235363125801
1667267183553560300,0.717560302734375,-0.0029015245381742716,-0.011071606539189816,-0.05635065957903862
1667267183555958000,0.7199580078125,-0.005955760832875967,-0.008017370477318764,-0.055739812552928925
1667267183558356000,0.72235595703125,-0.0065666078589856625,-0.0031305921729654074,-0.05635065957903862
1667267183560753700,0.724753662109375,-0.005955760832875967,-0.000687203137204051,-0.05329642444849014
1667267183563151400,0.7271513671875,-0.009009997360408306,0.004810422193259001,-0.05024218559265137
1667267183565549000,0.729549072265625,-0.007788302376866341,0.00908635277301073,-0.04413371533155441
1667267183567947000,0.731947021484375,-0.009620844386518002,0.012140588834881783,-0.036192700266838074
1667267183570344700,0.7343447265625,-0.010231691412627697,0.015194825828075409,-0.031916771084070206
1667267183572742400,0.736742431640625,-0.010231691412627697,0.015194825828075409,-0.022754060104489326
1667267183575140000,0.73914013671875,-0.010842538438737392,0.011529741808772087,-0.017867282032966614
1667267183577537800,0.741537841796875,-0.009620844386518002,0.006032116711139679,-0.010537114925682545
1667267183579935700,0.743935791015625,-0.010231691412627697,-0.00129805039614439,-0.0038177953101694584
1667267183582333400,0.74633349609375,-0.008399149402976036,-0.009239064529538155,0.0004581354442052543
1667267183584731100,0.748731201171875,-0.009009997360408306,-0.0165692325681448,0.007177455350756645
1667267183587128800,0.75112890625,-0.009009997360408306,-0.023288551717996597,0.01511846948415041
1667267183589526800,0.75352685546875,-0.007788302376866341,-0.03061871975660324,0.021837789565324783
1667267183591924500,0.755924560546875,-0.007788302376866341,-0.036727190017700195,0.0261137206107378
1667267183594322200,0.758322265625,-0.007788302376866341,-0.04100312292575836,0.030389651656150818
1667267183596719900,0.760719970703125,-0.004734066314995289,-0.049554985016584396,0.03527642786502838
1667267183599117800,0.763117919921875,-0.0016798300202935934,-0.05138752609491348,0.03894151374697685
1667267183601515500,0.765515625,-0.0016798300202935934,-0.05810684710741043,0.03955236077308655
1667267183603913200,0.767913330078125,0.00015271181473508477,-0.06116108223795891,0.041384901851415634
1667267183606311000,0.770310791015625,0.0007635590736754239,-0.062993623316288,0.04199574887752533
1667267183608708600,0.77270849609375,0.0007635590736754239,-0.06726955622434616,0.041384901851415634
1667267183611106600,0.7751064453125,0.00015271181473508477,-0.06971294432878494,0.04016320779919624
1667267183613504300,0.777504150390625,-0.0010689827613532543,-0.07093463838100433,0.03588727489113808
1667267183615902000,0.77990185546875,-0.0016798300202935934,-0.07276718318462372,0.0328330397605896
1667267183618299600,0.782299560546875,-0.0029015245381742716,-0.07093463838100433,0.0328330397605896
1667267183620697600,0.784697509765625,-0.004734066314995289,-0.07032378762960434,0.0328330397605896
1667267183623095300,0.78709521484375,-0.004123218823224306,-0.06910209357738495,0.026724567636847496
1667267183625493000,0.789492919921875,-0.007788302376866341,-0.06482616811990738,0.023059483617544174
1667267183627890700,0.791890625,-0.0065666078589856625,-0.06360447406768799,0.024281177669763565
1667267183630288600,0.79428857421875,-0.008399149402976036,-0.06055023521184921,0.021226942539215088
1667267183632686300,0.796686279296875,-0.009009997360408306,-0.05688514932990074,0.018783552572131157
1667267183635084000,0.799083984375,-0.009009997360408306,-0.05688514932990074,0.01511846948415041
1667267183637481700,0.801481689453125,-0.012675080448389053,-0.052609220147132874,0.011453386396169662
1667267183639879700,0.803879638671875,-0.013285927474498749,-0.052609220147132874,0.0065666078589856625
1667267183642277400,0.80627734375,-0.01511846948415041,-0.05566345527768135,0.004123218823224306
1667267183644675000,0.808675048828125,-0.017561858519911766,-0.05688514932990074,-0.00015271181473508477
1667267183647072800,0.81107275390625,-0.021226942539215088,-0.058717694133520126,-0.001985253533348441
1667267183649470700,0.813470703125,-0.024281177669763565,-0.05993938818573952,-0.0068720318377017975
1667267183651868400,0.815868408203125,-0.029778804630041122,-0.06360447406768799,-0.00992626789957285
1667267183654266000,0.81826611328125,-0.030389651656150818,-0.06788039952516556,-0.014202198944985867
1667267183656663800,0.820663818359375,-0.0328330397605896,-0.07154548168182373,-0.015423892997205257
1667267183659061800,0.823061767578125,-0.033443886786699295,-0.07215633243322372,-0.01725643500685692
1667267183661459500,0.82545947265625,-0.029778804630041122,-0.06910209357738495,-0.022754060104489326
1667267183663857200,0.827857177734375,-0.031000498682260513,-0.06421531736850739,-0.023975754156708717
1667267183666254800,0.8302548828125,-0.028557108715176582,-0.058717694133520126,-0.02641914412379265
1667267183668652800,0.83265283203125,-0.0261137206107378,-0.05077667906880379,-0.027029991149902344
1667267183671050500,0.835050537109375,-0.025502873584628105,-0.040392275899648666,-0.02764083817601204
1667267183673448200,0.8374482421875,-0.020005248486995697,-0.031229566782712936,-0.02764083817601204
1667267183675846000,0.839845947265625,-0.01511846948415041,-0.022066857665777206,-0.02641914412379265
1667267183678243800,0.842243896484375,-0.01572931744158268,-0.013514995574951172,-0.027029991149902344
1667267183680641500,0.8446416015625,-0.012064233422279358,-0.0067956759594380856,-0.025197450071573257
1667267183683039200,0.847039306640625,-0.010842538438737392,-0.00007635590736754239,-0.02641914412379265
1667267183685437000,0.84943701171875,-0.007177455350756645,0.005421269219368696,-0.024586603045463562
1667267183687835000,0.8518349609375,-0.005344913341104984,0.00908635277301073,-0.023975754156708717
1667267183690232600,0.854232666015625,-0.0016798300202935934,0.012140588834881783,-0.024586603045463562
1667267183692630300,0.85663037109375,0.001985253533348441,0.015805672854185104,-0.025808297097682953
1667267183695028000,0.859028076171875,0.005650337319821119,0.01885990984737873,-0.027029991149902344
1667267183697425700,0.86142578125,0.005650337319821119,0.02008160389959812,-0.02764083817601204
1667267183699823600,0.86382373046875,0.006261184345930815,0.021914144977927208,-0.029473381116986275
1667267183702221300,0.86622119140625,0.007482878863811493,0.021303297951817513,-0.03008422814309597
1667267183704619000,0.868618896484375,0.0068720318377017975,0.021303297951817513,-0.03008422814309597
1667267183707016700,0.8710166015625,0.008704573847353458,0.021914144977927208,-0.03008422814309597
1667267183709414700,0.87341455078125,0.009315420873463154,0.021914144977927208,-0.029473381116986275
1667267183711812400,0.875812255859375,0.009315420873463154,0.021914144977927208,-0.03008422814309597
1667267183714210000,0.8782099609375,0.008093725889921188,0.018249060958623886,-0.030695075169205666
1667267183716607700,0.880607666015625,0.009315420873463154,0.015194825828075409,-0.030695075169205666
1667267183719005700,0.883005615234375,0.008093725889921188,0.00786465872079134,-0.028251685202121735
1667267183721403400,0.8854033203125,0.008093725889921188,0.0011453386396169662,-0.02886253222823143
1667267183723801000,0.887801025390625,0.007482878863811493,-0.0037414394319057465,-0.028251685202121735
1667267183726198800,0.89019873046875,0.004428642801940441,-0.00862821750342846,-0.027029991149902344
1667267183728596700,0.8925966796875,0.005650337319821119,-0.012904148548841476,-0.023975754156708717
1667267183730994400,0.894994384765625,0.0038177953101694584,-0.015958385542035103,-0.01847812905907631
1667267183733392100,0.89739208984375,0.0050394898280501366,-0.01779092662036419,-0.014813045971095562
1667267183735789800,0.899789794921875,0.0038177953101694584,-0.02023431472480297,-0.014202198944985867
1667267183738187800,0.902187744140625,0.0032069480512291193,-0.015958385542035103,-0.011147962883114815
1667267183740585500,0.90458544921875,0.001985253533348441,-0.017180079594254494,-0.006261184345930815
1667267183742983200,0.906983154296875,0.001985253533348441,-0.01779092662036419,-0.00259610079228878
1667267183745380900,0.909380859375,0.0032069480512291193,-0.01779092662036419,0.0016798300202935934
1667267183747778600,0.911778564453125,0.004428642801940441,-0.020845163613557816,0.0065666078589856625
1667267183750176500,0.914176513671875,0.00259610079228878,-0.02145601063966751,0.008399149402976036
1667267183752574200,0.91657421875,0.004428642801940441,-0.025121092796325684,0.010842538438737392
1667267183754972000,0.918971923828125,0.0050394898280501366,-0.02695363573729992,0.012675080448389053
1667267183757369600,0.92136962890625,0.006261184345930815,-0.031229566782712936,0.012675080448389053
1667267183759767600,0.923767578125,0.005650337319821119,-0.0361163429915905,0.011453386396169662
1667267183762165200,0.926165283203125,0.0050394898280501366,-0.03855973482131958,0.012064233422279358
1667267183764563000,0.92856298828125,0.004428642801940441,-0.04161396995186806,0.010842538438737392
1667267183766960600,0.930960693359375,0.0050394898280501366,-0.04283566400408745,0.005955760832875967
1667267183769358600,0.933358642578125,0.0050394898280501366,-0.04222481697797775,0.004734066314995289
1667267183771756300,0.93575634765625,0.006261184345930815,-0.04100312292575836,0.0016798300202935934
1667267183774154000,0.938154052734375,0.0032069480512291193,-0.04161396995186806,-0.0038177953101694584
1667267183776551700,0.9405517578125,0.0050394898280501366,-0.040392275899648666,-0.007482878863811493
1667267183778949600,0.94294970703125,0.0032069480512291193,-0.04405735805630684,-0.016645587980747223
1667267183781347300,0.945347412109375,0.004428642801940441,-0.0489441379904747,-0.021532366052269936
1667267183783745000,0.9477451171875,0.0038177953101694584,-0.05199837312102318,-0.028251685202121735
1667267183786142700,0.950142822265625,0.0050394898280501366,-0.06116108223795891,-0.037414394319057465
1667267183788540700,0.952540771484375,0.006261184345930815,-0.06910209357738495,-0.0459662564098835
1667267183790938400,0.9549384765625,0.007482878863811493,-0.07948649674654007,-0.05512896552681923
1667267183793336000,0.957336181640625,0.0068720318377017975,-0.08498412370681763,-0.06245913356542587
1667267183795733800,0.959733642578125,0.007482878863811493,-0.09048175066709518,-0.06856760382652283
1667267183798131700,0.962131591796875,0.006261184345930815,-0.09109259396791458,-0.07467607408761978
1667267183800529400,0.964529296875,0.006261184345930815,-0.0892600566148758,-0.07956285774707794
1667267183802927000,0.966927001953125,0.006261184345930815,-0.09048175066709518,-0.0844496339559555
1667267183805324800,0.96932470703125,0.006261184345930815,-0.08620581775903702,-0.08811471611261368
1667267183807722800,0.97172265625,0.0050394898280501366,-0.08498412370681763,-0.09361234307289124
1667267183810120400,0.974120361328125,0.0032069480512291193,-0.07765395939350128,-0.09666658192873001
1667267183812532500,0.976532470703125,0.001374406274408102,-0.06971294432878494,-0.10155335813760757
1667267183814915800,0.978915771484375,0.0007635590736754239,-0.06421531736850739,-0.10521844029426575
1667267183817313800,0.981313720703125,0.001374406274408102,-0.05993938818573952,-0.10888352245092392
1667267183819711500,0.98371142578125,0.0038177953101694584,-0.057496000081300735,-0.1119377613067627
1667267183822109200,0.986109130859375,0.004428642801940441,-0.05932854115962982,-0.11560284346342087
1667267183824507000,0.9885068359375,0.004428642801940441,-0.05993938818573952,-0.11926792562007904
1667267183826904800,0.99090478515625,0.0050394898280501366,-0.06726955622434616,-0.12110047042369843
1667267183829302500,0.993302490234375,0.0050394898280501366,-0.0745997205376625,-0.12048961967229843
1667267183831700200,0.9957001953125,0.0032069480512291193,-0.08437328040599823,-0.11804623156785965
1667267183834098000,0.998097900390625,0.0007635590736754239,-0.09048175066709518,-0.1113269105553627
1667267183836496000,1.000495849609375,-0.0016798300202935934,-0.09414683282375336,-0.10521844029426575
1667267183838893600,1.0028935546875,-0.0029015245381742716,-0.09475768357515335,-0.09300149232149124
1667267183841291300,1.005291259765625,-0.008399149402976036,-0.09231429547071457,-0.08200624585151672
1667267183843689000,1.00768896484375,-0.01511846948415041,-0.0886492058634758,-0.07040014863014221
1667267183846087000,1.0100869140625,-0.021837789565324783,-0.08620581775903702,-0.056961506605148315
1667267183848484600,1.012484619140625,-0.02733541466295719,-0.08376242965459824,-0.04352286830544472
1667267183850882300,1.01488232421875,-0.03161134570837021,-0.08192989230155945,-0.031916771084070206
1667267183853280000,1.017280029296875,-0.03771981969475746,-0.08070819079875946,-0.01847812905907631
1667267183855678000,1.019677978515625,-0.04077405482530594,-0.07765395939350128,-0.0068720318377017975
1667267183858075600,1.02207568359375,-0.04504998400807381,-0.0758214145898819,0.0035123717971146107
1667267183860473300,1.024473388671875,-0.050547610968351364,-0.07215633243322372,0.010842538438737392
1667267183862871000,1.02687109375,-0.05238015204668045,-0.06971294432878494,0.019394399598240852
1667267183865269000,1.02926904296875,-0.05726693198084831,-0.06788039952516556,0.024281177669763565
1667267183867666700,1.031666748046875,-0.062153708189725876,-0.0623827762901783,0.029167955741286278
1667267183870064400,1.034064453125,-0.0713164210319519,-0.055052608251571655,0.0328330397605896
1667267183872462000,1.036462158203125,-0.07742489129304886,-0.049554985016584396,0.034665580838918686
1667267183874860000,1.038860107421875,-0.08170082420110703,-0.04527905210852623,0.03405473381280899
1667267183877257700,1.0412578125,-0.08353336155414581,-0.03978142887353897,0.029167955741286278
1667267183879655400,1.043655517578125,-0.08170082420110703,-0.03184041380882263,0.027946261689066887
1667267183882053000,1.04605322265625,-0.08292251825332642,-0.02817532978951931,0.021837789565324783
1667267183884451000,1.048451171875,-0.08108997344970703,-0.01779092662036419,0.019394399598240852
1667267183886848800,1.050848876953125,-0.08047912269830704,-0.008017370477318764,0.011453386396169662
1667267183889246500,1.05324658203125,-0.08170082420110703,0.005421269219368696,0.007177455350756645
1667267183891644200,1.05564404296875,-0.08231166750192642,0.022524992004036903,0.004123218823224306
1667267183894042000,1.0580419921875,-0.08170082420110703,0.043293800204992294,-0.001374406274408102
1667267183896439800,1.060439697265625,-0.08231166750192642,0.0689493864774704,-0.007482878863811493
1667267183898837500,1.06283740234375,-0.08353336155414581,0.09827005118131638,-0.00992626789957285
1667267183901235200,1.065235107421875,-0.0859767496585846,0.12392564117908478,-0.013591351918876171
1667267183903633000,1.0676328125,-0.08842013776302338,0.15507884323596954,-0.015423892997205257
1667267183906030800,1.07003076171875,-0.09086353331804276,0.18073442578315735,-0.017867282032966614
1667267183908428500,1.072428466796875,-0.09636115282773972,0.20394663512706757,-0.01969982497394085
1667267183910826200,1.074826171875,-0.10124793648719788,0.2253262847661972,-0.020310672000050545
1667267183913224000,1.077223876953125,-0.10857810080051422,0.24487338960170746,-0.021532366052269936
1667267183915622000,1.079621826171875,-0.11468657106161118,0.2638096511363983,-0.023364907130599022
1667267183918019600,1.08201953125,-0.12201674282550812,0.2796916961669922,-0.023364907130599022
1667267183920417300,1.084417236328125,-0.13240113854408264,0.29923880100250244,-0.025197450071573257
1667267183922815000,1.08681494140625,-0.14339639246463776,0.3200076222419739,-0.025197450071573257
1667267183925213000,1.089212890625,-0.15500248968601227,0.33833301067352295,-0.023975754156708717
1667267183927610600,1.091610595703125,-0.16721943020820618,0.357269287109375,-0.023364907130599022
1667267183930008300,1.09400830078125,-0.1782146841287613,0.380481481552124,-0.02092151902616024
1667267183932406000,1.096406005859375,-0.18737739324569702,0.40491536259651184,-0.020310672000050545
1667267183934804000,1.098803955078125,-0.19837264716625214,0.43057096004486084,-0.016645587980747223
1667267183937201700,1.10120166015625,-0.20631365478038788,0.45622655749320984,-0.015423892997205257
1667267183939599400,1.103599365234375,-0.2148655205965042,0.48371466994285583,-0.01175880990922451
1667267183941997000,1.1059970703125,-0.22036315500736237,0.5087594389915466,-0.012369656935334206
1667267183944395000,1.10839501953125,-0.22708246111869812,0.5313607454299927,-0.01175880990922451
1667267183946792700,1.110792724609375,-0.2307475507259369,0.5515187382698059,-0.011147962883114815
1667267183949190400,1.1131904296875,-0.23563432693481445,0.569844126701355,-0.012980503961443901
1667267183951588000,1.115588134765625,-0.23685602843761444,0.5869478583335876,-0.01175880990922451
1667267183953986000,1.117986083984375,-0.23685602843761444,0.597332239151001,-0.014813045971095562
1667267183956383700,1.1203837890625,-0.23441264033317566,0.6083275079727173,-0.02092151902616024
1667267183958781400,1.122781494140625,-0.23380178213119507,0.6138251423835754,-0.02641914412379265
1667267183961179100,1.12517919921875,-0.23441264033317566,0.6009973287582397,-0.03374931216239929
1667267183963577000,1.1275771484375,-0.23991025984287262,0.5674007534980774,-0.04046862944960594
1667267183965974800,1.129974853515625,-0.24968381226062775,0.5344150066375732,-0.045355409383773804
1667267183968372500,1.13237255859375,-0.26434415578842163,0.5044834613800049,-0.0459662564098835
1667267183970770200,1.134770263671875,-0.2716743052005768,0.49226653575897217,-0.04169032722711563
1667267183973168000,1.137168212890625,-0.27350685000419617,0.4873797595500946,-0.03924693539738655
1667267183975565800,1.13956591796875,-0.2790044844150543,0.4751628041267395,-0.03802524134516716
1667267183977963500,1.141963623046875,-0.2838912606239319,0.45683738589286804,-0.03436015918850899
1667267183980361200,1.144361328125,-0.28877803683280945,0.43179264664649963,-0.0325276181101799
1667267183982759200,1.14675927734375,-0.28572380542755127,0.3981960713863373,-0.03374931216239929
1667267183985156900,1.149156982421875,-0.2820587158203125,0.36521029472351074,-0.037414394319057465
1667267183987554600,1.151554443359375,-0.2777827978134155,0.3316137194633484,-0.04107947647571564
1667267183989952300,1.1539521484375,-0.2698417901992798,0.3029038906097412,-0.04413371533155441
1667267183992350200,1.15635009765625,-0.26067906618118286,0.28274592757225037,-0.045355409383773804
1667267183994748000,1.158747802734375,-0.2515163719654083,0.2638096511363983,-0.049020491540431976
1667267183997145600,1.1611455078125,-0.2411319613456726,0.24670593440532684,-0.05207473039627075
1667267183999543300,1.163543212890625,-0.2313583940267563,0.22838051617145538,-0.05635065957903862
1667267184001941200,1.165941162109375,-0.22280654311180115,0.21616357564926147,-0.06001574173569679
1667267184004339000,1.1683388671875,-0.21120044589042664,0.20577916502952576,-0.06612421572208405
1667267184006736600,1.170736572265625,-0.2038702666759491,0.19356222450733185,-0.06917845457792282
1667267184009134300,1.17313427734375,-0.19470755755901337,0.18989713490009308,-0.07528692483901978
1667267184011532300,1.1755322265625,-0.18249061703681946,0.18989713490009308,-0.07956285774707794
1667267184013930000,1.177929931640625,-0.16905197501182556,0.19661645591259003,-0.08689302206039429
1667267184016327700,1.18032763671875,-0.15744587779045105,0.20577916502952576,-0.09177979826927185
1667267184018725400,1.182725341796875,-0.1495048701763153,0.21555273234844208,-0.0984991192817688
1667267184021123300,1.185123291015625,-0.14095300436019897,0.22410458326339722,-0.10888352245092392
1667267184023521000,1.18752099609375,-0.13240113854408264,0.23632153868675232,-0.11499200016260147
1667267184025918700,1.189918701171875,-0.12812520563602448,0.24853847920894623,-0.1241547018289566
1667267184028316400,1.19231640625,-0.11957334727048874,0.25892287492752075,-0.13148486614227295
1667267184030714400,1.19471435546875,-0.111021488904953,0.27113983035087585,-0.14064757525920868
1667267184033112000,1.197112060546875,-0.10369132459163666,0.28274592757225037,-0.1510319858789444
1667267184035509800,1.199509765625,-0.09941539168357849,0.2919086217880249,-0.16141638159751892
1667267184037907500,1.201907470703125,-0.09391776472330093,0.2900761067867279,-0.17363333702087402
1667267184040305400,1.204305419921875,-0.09025268256664276,0.27175068855285645,-0.18401773273944855
1667267184042703000,1.206703125,-0.09025268256664276,0.2656421959400177,-0.19318044185638428
1667267184045100800,1.209100830078125,-0.0853659063577652,0.27113983035087585,-0.2011214643716812
1667267184047498500,1.21149853515625,-0.08047912269830704,0.2803025245666504,-0.20661908388137817
1667267184049896400,1.213896484375,-0.0725381150841713,0.2906869351863861,-0.21150586009025574
1667267184052294100,1.216294189453125,-0.06581879407167435,0.29984965920448303,-0.21944688260555267
1667267184054691800,1.21869189453125,-0.0590994730591774,0.3047364354133606,-0.22311195731163025
1667267184057089500,1.221089599609375,-0.050547610968351364,0.3010713458061218,-0.2279987335205078
1667267184059487500,1.223487548828125,-0.0462716780602932,0.2912977933883667,-0.23410721123218536
1667267184061885200,1.22588525390625,-0.04443913698196411,0.2778591513633728,-0.2432699203491211
1667267184064283000,1.228282958984375,-0.04321744292974472,0.2650313675403595,-0.25060009956359863
1667267184066680600,1.2306806640625,-0.04321744292974472,0.2528144121170044,-0.2585411071777344
1667267184069078500,1.23307861328125,-0.04199574887752533,0.24120831489562988,-0.2670929729938507
1667267184071476200,1.235476318359375,-0.041384901851415634,0.2271588295698166,-0.27381229400634766
1667267184073874000,1.2378740234375,-0.04077405482530594,0.21738526225090027,-0.2829749882221222
1667267184076271600,1.240271728515625,-0.03833066672086716,0.20333577692508698,-0.2915268540382385
1667267184078669600,1.242669677734375,-0.034665580838918686,0.19111883640289307,-0.29946786165237427
1667267184081067300,1.2450673828125,-0.03161134570837021,0.1721825748682022,-0.3080197274684906
1667267184083465000,1.24746484375,-0.028557108715176582,0.13064496219158173,-0.3110739588737488
1667267184085862700,1.249862548828125,-0.02733541466295719,0.1074327602982521,-0.31290650367736816
1667267184088260600,1.252260498046875,-0.026724567636847496,0.0958266630768776,-0.31290650367736816
1667267184090658300,1.254658203125,-0.021226942539215088,0.0958266630768776,-0.30740886926651
1667267184093056000,1.257055908203125,-0.013285927474498749,0.10132429003715515,-0.30007871985435486
1667267184095454000,1.259453857421875,-0.0035123717971146107,0.10254598408937454,-0.2933593988418579
1667267184097851600,1.2618515625,0.009315420873463154,0.10132429003715515,-0.28908345103263855
1667267184100249300,1.264249267578125,0.021532366052269936,0.09338327497243881,-0.2829749882221222
1667267184102647000,1.26664697265625,0.03374931216239929,0.07689040154218674,-0.279920756816864
1667267184105045000,1.269044921875,0.04718795046210289,0.06711684167385101,-0.27625566720962524
1667267184107442700,1.271442626953125,0.05757235363125801,0.06284090876579285,-0.2707580327987671
1667267184109840400,1.27384033203125,0.06856760382652283,0.06100837141275406,-0.2670929729938507
1667267184112238000,1.276238037109375,0.07711946964263916,0.059175826609134674,-0.26037365198135376
1667267184114636000,1.278635986328125,0.08322793990373611,0.06039752438664436,-0.2518217861652374
1667267184117033700,1.28103369140625,0.08994726091623306,0.059175826609134674,-0.24510246515274048
1667267184119431400,1.283431396484375,0.09300149232149124,0.05795413255691528,-0.23227466642856598
1667267184121829000,1.2858291015625,0.09605573117733002,0.0561215914785862,-0.22066856920719147
1667267184124227000,1.28822705078125,0.09972081333398819,0.054899897426366806,-0.20845162868499756
1667267184126624800,1.290624755859375,0.10155335813760757,0.04940227046608925,-0.19501298666000366
1667267184129022500,1.2930224609375,0.10644013434648514,0.04146125912666321,-0.18401773273944855
1667267184131420200,1.295420166015625,0.10949437320232391,0.03290939703583717,-0.17057909071445465
1667267184133818000,1.297818115234375,0.11254860460758209,0.02435753494501114,-0.15958385169506073
1667267184136215800,1.3002158203125,0.11865708231925964,0.018249060958623886,-0.14736689627170563
1667267184138613500,1.302613525390625,0.1253764033317566,0.012751436792314053,-0.13576079905033112
1667267184141011200,1.30501123046875,0.12904147803783417,0.007253811229020357,-0.12781979143619537
1667267184143409200,1.3074091796875,0.1363716572523117,0.0023670331574976444,-0.11865708231925964
1667267184145806800,1.309806884765625,0.14248012006282806,-0.0025197449140250683,-0.1113269105553627
1667267184148204500,1.31220458984375,0.1498102843761444,-0.005573981441557407,-0.10521844029426575
1667267184150602200,1.314602294921875,0.15652960538864136,-0.006184828467667103,-0.10216420143842697
1667267184153000200,1.317000244140625,0.1626380831003189,-0.004352286923676729,-0.0984991192817688
1667267184155398000,1.31939794921875,0.17057909071445465,-0.0037414394319057465,-0.09910997003316879
1667267184157795600,1.321795654296875,0.1772984117269516,0.004810422193259001,-0.0978882759809494
1667267184160193300,1.324193359375,0.18401773273944855,0.010308047756552696,-0.0978882759809494
1667267184162591200,1.32659130859375,0.19195875525474548,0.022524992004036903,-0.10094250738620758
1667267184164989000,1.328989013671875,0.19989976286888123,0.03901786729693413,-0.10155335813760757
1667267184167386600,1.33138671875,0.2041756957769394,0.0561215914785862,-0.10521844029426575
1667267184169784300,1.333784423828125,0.20906247198581696,0.07750124484300613,-0.10888352245092392
1667267184172182300,1.336182373046875,0.21272756159305573,0.10132429003715515,-0.11438114941120148
1667267184174580000,1.338580078125,0.2157817929983139,0.1214822456240654,-0.12048961967229843
1667267184176977700,1.340977783203125,0.21944688260555267,0.14469444751739502,-0.12843063473701477
1667267184179375400,1.343375244140625,0.22189027070999146,0.16790664196014404,-0.13453911244869232
1667267184181773300,1.345773193359375,0.22372281551361084,0.19050799310207367,-0.14370182156562805
1667267184184171000,1.3481708984375,0.22433365881443024,0.2137201875448227,-0.1522536724805832
1667267184186568700,1.350568603515625,0.22738789021968842,0.2387649267911911,-0.16080553829669952
1667267184188966400,1.35296630859375,0.2279987335205078,0.26075541973114014,-0.16874656081199646
1667267184191364400,1.3553642578125,0.22677704691886902,0.28457847237586975,-0.1772984117269516
1667267184193762000,1.357761962890625,0.22738789021968842,0.30656898021698,-0.1901262104511261
1667267184196159700,1.36015966796875,0.2279987335205078,0.32550522685050964,-0.20051060616970062
1667267184198557400,1.362557373046875,0.2279987335205078,0.3426089584827423,-0.20845162868499756
1667267184200955400,1.364955322265625,0.2298312783241272,0.357269287109375,-0.22005772590637207
1667267184203353000,1.36735302734375,0.23166382312774658,0.3725404739379883,-0.2304421216249466
1667267184205750800,1.369750732421875,0.23288552463054657,0.3835357129573822,-0.23960483074188232
1667267184208148700,1.372148681640625,0.23532891273498535,0.39208757877349854,-0.24876753985881805
1667267184210546400,1.37454638671875,0.23960483074188232,0.3969743549823761,-0.26098448038101196
1667267184212944100,1.376944091796875,0.2438807636499405,0.3951418101787567,-0.2713688910007477
1667267184215341800,1.379341796875,0.24632415175437927,0.39330926537513733,-0.2805316150188446
1667267184217739800,1.38173974609375,0.2530434727668762,0.39025503396987915,-0.29091599583625793
1667267184220137500,1.384137451171875,0.2573194205760956,0.3817031681537628,-0.29885703325271606
1667267184222535200,1.38653515625,0.26159533858299255,0.37315133213996887,-0.3086305856704712
1667267184224932900,1.388932861328125,0.2658712565898895,0.3670428395271301,-0.3190149664878845
1667267184227330800,1.391330810546875,0.2701472043991089,0.3584909737110138,-0.32695600390434265
1667267184229728500,1.393728515625,0.27503398060798645,0.35054996609687805,-0.333064466714859
1667267184232126200,1.396126220703125,0.27625566720962524,0.33894386887550354,-0.337340384721756
1667267184234524000,1.39852392578125,0.27625566720962524,0.32672691345214844,-0.34405970573425293
1667267184236921900,1.400921875,0.2817533016204834,0.3169533610343933,-0.3477247953414917
1667267184239319600,1.403319580078125,0.2835858464241028,0.30656898021698,-0.35322242975234985
1667267184241717200,1.40571728515625,0.2848075330257416,0.2912977933883667,-0.3568875193595886
1667267184244115000,1.408114990234375,0.28786176443099976,0.27358320355415344,-0.3599417507648468
1667267184246513000,1.410512939453125,0.28664007782936096,0.25770118832588196,-0.36360684037208557
1667267184248910600,1.41291064453125,0.28725093603134155,0.24120831489562988,-0.36605021357536316
1667267184251308300,1.415308349609375,0.28725093603134155,0.22288289666175842,-0.36971530318260193
1667267184253706000,1.4177060546875,0.28664007782936096,0.20394663512706757,-0.3721587061882019
1667267184256104000,1.42010400390625,0.28541839122772217,0.18439951539039612,-0.3703261613845825
1667267184258501600,1.422501708984375,0.28664007782936096,0.1624090075492859,-0.3721587061882019
1667267184260899300,1.4248994140625,0.28602921962738037,0.14164020121097565,-0.36788275837898254
1667267184263297000,1.427297119140625,0.28602921962738037,0.11842801421880722,-0.36727190017700195
1667267184265695000,1.429695068359375,0.28541839122772217,0.0946049690246582,-0.36605021357536316
1667267184268092700,1.4320927734375,0.2835858464241028,0.0683385357260704,-0.36360684037208557
1667267184270490400,1.434490478515625,0.2829749882221222,0.04085041210055351,-0.3593308925628662
1667267184272888000,1.43688818359375,0.279920756816864,0.012140588834881783,-0.3568875193595886
1667267184275286000,1.4392861328125,0.27747735381126404,-0.013514995574951172,-0.35505497455596924
1667267184277683700,1.44168359375,0.27503398060798645,-0.036727190017700195,-0.35505497455596924
1667267184280081400,1.444081298828125,0.2695363461971283,-0.058717694133520126,-0.35505497455596924
1667267184282479000,1.44647900390625,0.26220619678497314,-0.07643226534128189,-0.35627666115760803
1667267184284877000,1.448876953125,0.2536543309688568,-0.0892600566148758,-0.358720064163208
1667267184287274800,1.451274658203125,0.2438807636499405,-0.09414683282375336,-0.3568875193595886
1667267184289672400,1.45367236328125,0.23288552463054657,-0.09781191498041153,-0.3568875193595886
1667267184292070100,1.456070068359375,0.22433365881443024,-0.10025530308485031,-0.3574983477592468
1667267184294468000,1.458468017578125,0.2157817929983139,-0.09597937762737274,-0.35383328795433044
1667267184296865800,1.46086572265625,0.20600824058055878,-0.09231429547071457,-0.35322242975234985
1667267184299263500,1.463263427734375,0.19623468816280365,-0.09048175066709518,-0.3489464819431305
1667267184301661200,1.4656611328125,0.19195875525474548,-0.08559497445821762,-0.3458922505378723
1667267184304059100,1.46805908203125,0.18340688943862915,-0.07948649674654007,-0.33917292952537537
1667267184306456800,1.470456787109375,0.1766875684261322,-0.0758214145898819,-0.3342861533164978
1667267184308854500,1.4728544921875,0.17302247881889343,-0.0752105712890625,-0.32695600390434265
1667267184311252500,1.47525244140625,0.1644706279039383,-0.0752105712890625,-0.3177932798862457
1667267184313650200,1.477650146484375,0.16080553829669952,-0.08070819079875946,-0.3104631304740906
1667267184316048000,1.4800478515625,0.15652960538864136,-0.08498412370681763,-0.29946786165237427
1667267184318445600,1.482445556640625,0.1498102843761444,-0.08987089991569519,-0.2921377122402191
1667267184320843500,1.484843505859375,0.14370182156562805,-0.09842276573181152,-0.2805316150188446
1667267184323241200,1.4872412109375,0.13942588865756989,-0.10514208674430847,-0.2689255177974701
1667267184325639000,1.489638916015625,0.13331741094589233,-0.11247225105762482,-0.2579302489757538
1667267184328036600,1.49203662109375,0.12659808993339539,-0.12102411687374115,-0.24571330845355988
1667267184330434600,1.4944345703125,0.11987877637147903,-0.1283542811870575,-0.23471805453300476
1667267184332832300,1.496832275390625,0.11438114941120148,-0.13873867690563202,-0.22311195731163025
1667267184335230000,1.49922998046875,0.10888352245092392,-0.15034478902816772,-0.2151709496974945
1667267184337627600,1.501627685546875,0.10094250738620758,-0.1656159609556198,-0.2041756957769394
1667267184340025600,1.504025634765625,0.09605573117733002,-0.1784437596797943,-0.19501298666000366
1667267184342423300,1.50642333984375,0.09177979826927185,-0.1918824017047882,-0.18768282234668732
1667267184344821000,1.508821044921875,0.08628217875957489,-0.20348849892616272,-0.18157434463500977
1667267184347218700,1.51121875,0.08017370104789734,-0.21204034984111786,-0.17424418032169342
1667267184349616600,1.51361669921875,0.07528692483901978,-0.2205922156572342,-0.16813570261001587
1667267184352014300,1.516014404296875,0.06856760382652283,-0.22975492477416992,-0.16141638159751892
1667267184354412000,1.518412109375,0.06368082761764526,-0.23830679059028625,-0.15714046359062195
1667267184356809700,1.520809814453125,0.056961506605148315,-0.246247798204422,-0.1510319858789444
1667267184359207700,1.523207763671875,0.05390727147459984,-0.25113457441329956,-0.14431266486644745
1667267184361605400,1.52560546875,0.05085303261876106,-0.2572430372238159,-0.14064757525920868
1667267184364003000,1.528003173828125,0.0459662564098835,-0.26457321643829346,-0.13392825424671173
1667267184366400800,1.53040087890625,0.04291202127933502,-0.2706816792488098,-0.12965233623981476
1667267184368798700,1.532798828125,0.04230117425322533,-0.2755684554576874,-0.1241547018289566
1667267184371196400,1.535196533203125,0.04169032722711563,-0.2853420376777649,-0.11743538826704025
1667267184373594000,1.537593994140625,0.037414394319057465,-0.28961795568466187,-0.1107160672545433
1667267184375992000,1.539991943359375,0.03802524134516716,-0.2975589632987976,-0.10338589549064636
1667267184378389800,1.5423896484375,0.03802524134516716,-0.30611082911491394,-0.0978882759809494
1667267184380787500,1.544787353515625,0.03374931216239929,-0.3109976053237915,-0.08994726091623306
1667267184383185200,1.54718505859375,0.03680354729294777,-0.3134410083293915,-0.08200624585151672
1667267184385583000,1.5495830078125,0.03680354729294777,-0.3134410083293915,-0.07650861889123917
1667267184387980800,1.551980712890625,0.03497100621461868,-0.30672168731689453,-0.06917845457792282
1667267184390378500,1.55437841796875,0.03497100621461868,-0.2969481348991394,-0.06490252166986465
1667267184392776200,1.556776123046875,0.03436015918850899,-0.2835094928741455,-0.06062658876180649
1667267184395174100,1.559174072265625,0.03374931216239929,-0.26457321643829346,-0.056961506605148315
1667267184397571800,1.56157177734375,0.03374931216239929,-0.24258272349834442,-0.056961506605148315
1667267184399969500,1.563969482421875,0.0331384651362896,-0.2181488275527954,-0.056961506605148315
1667267184402367200,1.5663671875,0.03130592033267021,-0.19004985690116882,-0.05757235363125801
1667267184404765200,1.56876513671875,0.02886253222823143,-0.15584240853786469,-0.06184828653931618
1667267184407163000,1.571162841796875,0.025197450071573257,-0.12285665422677994,-0.06734590977430344
1667267184409560600,1.573560546875,0.023975754156708717,-0.0886492058634758,-0.07589777559041977
1667267184411958300,1.575958251953125,0.017867282032966614,-0.05199837312102318,-0.0856713280081749
1667267184414356200,1.578356201171875,0.015423892997205257,-0.015347537584602833,-0.09605573117733002
1667267184416754000,1.58075390625,0.01175880990922451,0.022524992004036903,-0.1113269105553627
1667267184419151600,1.583151611328125,0.008093725889921188,0.05978667363524437,-0.1253764033317566
1667267184421549300,1.58554931640625,0.0068720318377017975,0.09765920788049698,-0.14003673195838928
1667267184423947300,1.587947265625,0.005650337319821119,0.1336991935968399,-0.15530791878700256
1667267184426345000,1.590344970703125,0.006261184345930815,0.16363070905208588,-0.17302247881889343
1667267184428742700,1.59274267578125,0.006261184345930815,0.1874537467956543,-0.1907370537519455
1667267184431140400,1.595140380859375,0.009315420873463154,0.2124984860420227,-0.20906247198581696
1667267184433538300,1.597538330078125,0.012369656935334206,0.23448899388313293,-0.22616620361804962
1667267184435936000,1.59993603515625,0.014813045971095562,0.2503710091114044,-0.2426590770483017
1667267184438333700,1.602333740234375,0.01847812905907631,0.2674747407436371,-0.2554868757724762
1667267184440731600,1.604731689453125,0.022754060104489326,0.28702184557914734,-0.2683146595954895
1667267184443129300,1.60712939453125,0.029473381116986275,0.3035147190093994,-0.2829749882221222
1667267184445527000,1.609527099609375,0.03497100621461868,0.3169533610343933,-0.2927485406398773
1667267184447924700,1.6119248046875,0.03924693539738655,0.32550522685050964,-0.3049654960632324
1667267184450322700,1.61432275390625,0.0459662564098835,0.33588963747024536,-0.31412819027900696
1667267184452720400,1.616720458984375,0.051463883370161057,0.33955472707748413,-0.3245126008987427
1667267184455118000,1.6191181640625,0.0594048947095871,0.34016555547714233,-0.333064466714859
1667267184457515800,1.621515869140625,0.06429167091846466,0.33527877926826477,-0.34283801913261414
1667267184459913700,1.623913818359375,0.072843536734581,0.32550522685050964,-0.35200074315071106
1667267184462311400,1.6263115234375,0.08078455179929733,0.3145099878311157,-0.3599417507648468
1667267184464709000,1.628709228515625,0.08872556686401367,0.29923880100250244,-0.36910444498062134
1667267184467106800,1.63110693359375,0.09544488787651062,0.28335678577423096,-0.3739912211894989
1667267184469504800,1.6335048828125,0.10521844029426575,0.2668638825416565,-0.38254308700561523
1667267184471902500,1.63590234375,0.1119377613067627,0.24976016581058502,-0.388651579618454
1667267184474300200,1.638300048828125,0.11926792562007904,0.23326729238033295,-0.39292749762535095
1667267184476697900,1.64069775390625,0.12781979143619537,0.21860696375370026,-0.3984251320362091
1667267184479095800,1.643095703125,0.13392825424671173,0.20394663512706757,-0.4020902216434479
1667267184481493500,1.645493408203125,0.14064757525920868,0.19050799310207367,-0.40514445304870605
1667267184483891200,1.64789111328125,0.14797775447368622,0.18195612728595734,-0.40819868445396423
1667267184486289000,1.650288818359375,0.15347537398338318,0.16912832856178284,-0.4100312292575836
1667267184488686800,1.652686767578125,0.15714046359062195,0.15568970143795013,-0.4100312292575836
1667267184491084500,1.65508447265625,0.1626380831003189,0.14286190271377563,-0.4112529158592224
1667267184493482200,1.657482177734375,0.16630317270755768,0.12759071588516235,-0.409420371055603
1667267184495880000,1.6598798828125,0.16874656081199646,0.11354123055934906,-0.4124746024608612
1667267184498278000,1.66227783203125,0.16874656081199646,0.10498937219381332,-0.4124746024608612
1667267184500675600,1.664675537109375,0.16813570261001587,0.09399411827325821,-0.411863774061203
1667267184503073300,1.6670732421875,0.17057909071445465,0.07933378964662552,-0.4130854606628418
1667267184505471200,1.66947119140625,0.16874656081199646,0.061619218438863754,-0.4112529158592224
1667267184507869000,1.671868896484375,0.1656923145055771,0.0426829531788826,-0.409420371055603
1667267184510266600,1.6742666015625,0.1382041871547699,0.007253811229020357,-0.40819868445396423
1667267184512664300,1.676664306640625,0.09910997003316879,-0.015347537584602833,-0.4039227366447449
1667267184515062300,1.679062255859375,0.06734590977430344,-0.018401773646473885,-0.39476004242897034
1667267184517460000,1.6814599609375,0.03558185324072838,-0.018401773646473885,-0.388651579618454
1667267184519857700,1.683857666015625,0.008704573847353458,-0.018401773646473885,-0.3837648034095764
1667267184522255400,1.68625537109375,-0.012675080448389053,-0.017180079594254494,-0.37948885560035706
1667267184524653300,1.6886533203125,-0.031000498682260513,-0.009849912486970425,-0.37887802720069885
1667267184527051000,1.691051025390625,-0.04443913698196411,-0.00129805039614439,-0.3764346241950989
1667267184529448700,1.69344873046875,-0.05360184609889984,0.013973130844533443,-0.3733803927898407
1667267184531846400,1.695846435546875,-0.062153708189725876,0.029855160042643547,-0.3721587061882019
1667267184534244400,1.698244384765625,-0.06704048812389374,0.04879142343997955,-0.3703261613845825
1667267184536642000,1.70064208984375,-0.06948387622833252,0.07017108052968979,-0.36910444498062134
1667267184539039700,1.703039794921875,-0.06948387622833252,0.10132429003715515,-0.36788275837898254
1667267184541437400,1.7054375,-0.06948387622833252,0.1355317384004593,-0.36482852697372437
1667267184543835400,1.70783544921875,-0.06826218217611313,0.17584764957427979,-0.3599417507648468
1667267184546233000,1.710233154296875,-0.06459710001945496,0.22105035185813904,-0.3605526089668274
1667267184548630800,1.712630859375,-0.06154286116361618,0.2686964273452759,-0.35383328795433044
1667267184551028700,1.71502880859375,-0.05726693198084831,0.32245099544525146,-0.3501681983470917
1667267184553426400,1.717426513671875,-0.050547610968351364,0.37742725014686584,-0.3458922505378723
1667267184555824000,1.71982421875,-0.04688252881169319,0.436068594455719,-0.3434488773345947
1667267184558221800,1.722221923828125,-0.03894151374697685,0.49715331196784973,-0.3452814221382141
1667267184560619800,1.724619873046875,-0.033443886786699295,0.5570163726806641,-0.3458922505378723
1667267184563017500,1.727017578125,-0.020616095513105392,0.6132143139839172,-0.3489464819431305
1667267184565415200,1.729415283203125,-0.010842538438737392,0.6700230836868286,-0.3501681983470917
1667267184567812900,1.731812744140625,0.0032069480512291193,0.7286643981933594,-0.3599417507648468
1667267184570210800,1.7342109375,0.01969982497394085,0.7891383171081543,-0.36666107177734375
1667267184572608500,1.7366083984375,0.03374931216239929,0.8428928852081299,-0.3758237659931183
1667267184575006200,1.739006103515625,0.04474456235766411,0.8972582817077637,-0.386208176612854
1667267184577404000,1.74140380859375,0.045355409383773804,0.9491803050041199,-0.40331190824508667
1667267184579801900,1.7438017578125,0.039857782423496246,0.9901070594787598,-0.41675055027008057
1667267184582199600,1.746199462890625,0.023975754156708717,1.0188168287277222,-0.43324342370033264
1667267184584597200,1.74859716796875,0.0007635590736754239,1.0438616275787354,-0.4503471553325653
1667267184586995000,1.750994873046875,-0.02733541466295719,1.0725713968276978,-0.4674508571624756
1667267184589393000,1.753392822265625,-0.06032116711139679,1.1000595092773438,-0.4869979918003082
1667267184591790600,1.75579052734375,-0.10063708573579788,1.1263259649276733,-0.5071559548377991
1667267184594188300,1.758188232421875,-0.14217470586299896,1.1409863233566284,-0.5254813432693481
1667267184596586200,1.760586181640625,-0.18737739324569702,1.1287693977355957,-0.5450284481048584
1667267184598984000,1.76298388671875,-0.23685602843761444,1.1025029420852661,-0.5621321797370911
1667267184601381600,1.765381591796875,-0.27839362621307373,1.089064359664917,-0.5786250829696655
1667267184603779300,1.767779296875,-0.31504446268081665,1.0817341804504395,-0.5932853817939758
1667267184606177300,1.77017724609375,-0.3474193811416626,1.0695171356201172,-0.6091674566268921
1667267184608575000,1.772574951171875,-0.3718532621860504,1.051191806793213,-0.6244385838508606
1667267184610972700,1.77497265625,-0.3901786804199219,1.0273687839508057,-0.6384881138801575
1667267184613370400,1.777370361328125,-0.402395635843277,0.9937721490859985,-0.6537593007087708
1667267184615768300,1.779768310546875,-0.40606072545051575,0.9461260437965393,-0.6696413159370422
1667267184618166000,1.782166015625,-0.40606072545051575,0.8862630128860474,-0.681858241558075
1667267184620563700,1.784563720703125,-0.40361732244491577,0.8276216983795166,-0.6928535103797913
1667267184622961400,1.78696142578125,-0.3968980014324188,0.7744779586791992,-0.7026270627975464
1667267184625359400,1.789359375,-0.38956785202026367,0.7195017337799072,-0.7111788988113403
1667267184627757000,1.791757080078125,-0.38101598620414734,0.667579710483551,-0.7160657048225403
1667267184630154800,1.79415478515625,-0.3736858069896698,0.6315397024154663,-0.7191199064254761
1667267184632552400,1.796552490234375,-0.3608580231666565,0.5961105823516846,-0.7233958840370178
1667267184634950400,1.798950439453125,-0.3486410677433014,0.5533512830734253,-0.7264500856399536
1667267184637348000,1.80134814453125,-0.3345915973186493,0.4995967149734497,-0.7337802648544312
1667267184639745800,1.803745849609375,-0.3217637836933136,0.4379011392593384,-0.7380561828613281
1667267184642143700,1.806143798828125,-0.3064926266670227,0.3700970709323883,-0.7447755336761475
1667267184644541400,1.80854150390625,-0.2930539846420288,0.30412557721138,-0.7545490860939026
1667267184646939100,1.810939208984375,-0.27656111121177673,0.2405974566936493,-0.7612683773040771
1667267184649336800,1.8133369140625,-0.26373329758644104,0.17890189588069916,-0.7661551833152771
1667267184651734800,1.81573486328125,-0.24968381226062775,0.11659546941518784,-0.7698202729225159
1667267184654132500,1.818132568359375,-0.23868857324123383,0.061619218438863754,-0.7734853625297546
1667267184656530200,1.8205302734375,-0.2283041626214981,0.00786465872079134,-0.774707019329071
1667267184658927900,1.822927978515625,-0.21914145350456238,-0.03978142887353897,-0.774707019329071
1667267184661325800,1.825325927734375,-0.21058958768844604,-0.08315158635377884,-0.7728744745254517
1667267184663723500,1.8277236328125,-0.2032594233751297,-0.12102411687374115,-0.7734853625297546
1667267184666121200,1.830121337890625,-0.19348587095737457,-0.15584240853786469,-0.7710419297218323
1667267184668519000,1.832518798828125,-0.18249061703681946,-0.18516308069229126,-0.7734853625297546
1667267184670916900,1.834916748046875,-0.16966283321380615,-0.21326205134391785,-0.7722636461257935
1667267184673314600,1.837314453125,-0.15683503448963165,-0.23891763389110565,-0.7728744745254517
1667267184675712300,1.839712158203125,-0.14583978056907654,-0.26335152983665466,-0.7777612805366516
1667267184678110000,1.84210986328125,-0.13301199674606323,-0.2835094928741455,-0.7820371985435486
1667267184680508000,1.8445078125,-0.12018419802188873,-0.30244573950767517,-0.7905890941619873
1667267184682905600,1.846905517578125,-0.10735640674829483,-0.3342097997665405,-0.8003626465797424
1667267184685303300,1.84930322265625,-0.10674555599689484,-0.4050680994987488,-0.807081937789917
1667267184687701000,1.851700927734375,-0.10796725004911423,-0.43683215975761414,-0.8095253109931946
1667267184690099000,1.854098876953125,-0.10979979485273361,-0.4252260625362396,-0.8138012886047363
1667267184692496600,1.85649658203125,-0.10674555599689484,-0.4007921516895294,-0.8144121170043945
1667267184694894300,1.858894287109375,-0.10308047384023666,-0.37086063623428345,-0.8144121170043945
1667267184697292000,1.8612919921875,-0.09697200357913971,-0.3397074341773987,-0.8131904006004333
1667267184699690000,1.86368994140625,-0.09391776472330093,-0.31954947113990784,-0.8131904006004333
1667267184702087700,1.866087646484375,-0.08964183181524277,-0.3109976053237915,-0.8119687438011169
1667267184704485400,1.8684853515625,-0.08719844371080399,-0.3097759187221527,-0.8083036541938782
1667267184706883000,1.870883056640625,-0.08108997344970703,-0.3116084635257721,-0.8046385645866394
1667267184709281000,1.873281005859375,-0.07864658534526825,-0.31527355313301086,-0.7973083853721619
1667267184711678700,1.8756787109375,-0.07864658534526825,-0.325047105550766,-0.7857022881507874
1667267184714076400,1.878076416015625,-0.07864658534526825,-0.34153997898101807,-0.7667660117149353
1667267184716474400,1.880474365234375,-0.08231166750192642,-0.36047622561454773,-0.747218906879425
1667267184718872000,1.8828720703125,-0.09147437661886215,-0.38002336025238037,-0.719730794429779
1667267184721269800,1.885269775390625,-0.10185877978801727,-0.4038463830947876,-0.6910209655761719
1667267184723667500,1.88766748046875,-0.11529742181301117,-0.4282802939414978,-0.6568135023117065
1667267184726065400,1.8900654296875,-0.13301199674606323,-0.454546719789505,-0.6195518374443054
1667267184728463000,1.892463134765625,-0.1519482582807541,-0.47470468282699585,-0.5786250829696655
1667267184730860800,1.89486083984375,-0.16905197501182556,-0.4930301010608673,-0.5352548956871033
1667267184733258500,1.897258544921875,-0.18798823654651642,-0.5131880640983582,-0.492495596408844
1667267184735656400,1.899656494140625,-0.2026485800743103,-0.5272375345230103,-0.4424061179161072
1667267184738054100,1.90205419921875,-0.2160872220993042,-0.5388436317443848,-0.39109495282173157
1667267184740451800,1.904451904296875,-0.22647161781787872,-0.5504497289657593,-0.34222719073295593
1667267184742849500,1.906849609375,-0.23502348363399506,-0.5596124529838562,-0.28969430923461914
1667267184745247500,1.90924755859375,-0.2429644912481308,-0.5620558261871338,-0.23593975603580475
1667267184747645200,1.911645263671875,-0.25029465556144714,-0.5614449977874756,-0.18646112084388733
1667267184750043000,1.91404296875,-0.2564031481742859,-0.563277542591095,-0.1382041871547699
1667267184752440600,1.916440673828125,-0.26495498418807983,-0.5608341693878174,-0.0856713280081749
1667267184754838500,1.918838623046875,-0.27350685000419617,-0.5614449977874756,-0.039857782423496246
1667267184757236200,1.921236328125,-0.2845021188259125,-0.5559473633766174,0.007177455350756645
1667267184759634000,1.923634033203125,-0.2954973578453064,-0.5467846393585205,0.05360184609889984
1667267184762031600,1.926031494140625,-0.3101576864719391,-0.5321243405342102,0.09697200357913971
1667267184764429600,1.9284296875,-0.32542887330055237,-0.5107446908950806,0.13484452664852142
1667267184766827300,1.9308271484375,-0.34375429153442383,-0.4789806008338928,0.16905197501182556
1667267184769225000,1.933224853515625,-0.36757734417915344,-0.4404972195625305,0.19959434866905212
1667267184771623000,1.935622802734375,-0.3901786804199219,-0.4044572412967682,0.22280654311180115
1667267184774020600,1.9380205078125,-0.4091149568557739,-0.3653630316257477,0.23685602843761444
1667267184776418300,1.940418212890625,-0.41949936747550964,-0.3219928741455078,0.2441861927509308
1667267184778816000,1.94281591796875,-0.42194274067878723,-0.2725142240524292,0.24479703605175018
1667267184781214000,1.9452138671875,-0.41888850927352905,-0.22303560376167297,0.23563432693481445
1667267184783611600,1.947611572265625,-0.40850409865379333,-0.16439427435398102,0.21975229680538177
1667267184786009300,1.95000927734375,-0.39323291182518005,-0.10269869863986969,0.19470755755901337
1667267184788407000,1.952406982421875,-0.372464120388031,-0.03978142887353897,0.16660858690738678
1667267184790805000,1.954804931640625,-0.3504736125469208,0.022524992004036903,0.12934690713882446
1667267184793202700,1.95720263671875,-0.32542887330055237,0.08299887180328369,0.08903098851442337
1667267184795600400,1.959600341796875,-0.30038413405418396,0.14286190271377563,0.042606595903635025
1667267184797998000,1.961998046875,-0.27656111121177673,0.2008923888206482,-0.006261184345930815
1667267184800396000,1.96439599609375,-0.25945737957954407,0.2515927255153656,-0.06062658876180649
1667267184802793700,1.966793701171875,-0.2429644912481308,0.29801711440086365,-0.11926792562007904
1667267184805191400,1.96919140625,-0.23196925222873688,0.33650049567222595,-0.18279604613780975
1667267184807589000,1.971589111328125,-0.22280654311180115,0.3713187873363495,-0.24571330845355988
1667267184809987000,1.973987060546875,-0.21364383399486542,0.4000285863876343,-0.31473904848098755
1667267184812384800,1.976384765625,-0.20753535628318787,0.4232407808303833,-0.38254308700561523
1667267184814782500,1.978782470703125,-0.19959434866905212,0.44339874386787415,-0.4509579837322235
1667267184817180400,1.981180419921875,-0.188599094748497,0.45500484108924866,-0.5218162536621094
1667267184819578000,1.983578125,-0.1776038408279419,0.4641675651073456,-0.5865660905838013
1667267184821975800,1.985975830078125,-0.16111096739768982,0.46905434131622314,-0.6519267559051514
1667267184824373500,1.98837353515625,-0.14522893726825714,0.47149771451950073,-0.7142331600189209
1667267184826771500,1.990771484375,-0.12690351903438568,0.46844348311424255,-0.7765395641326904
1667267184829169200,1.993169189453125,-0.10613471269607544,0.463556706905365,-0.8327375054359436
1667267184831566800,1.99556689453125,-0.08231166750192642,0.4580591022968292,-0.885881245136261
1667267184833964500,1.997964599609375,-0.059710320085287094,0.45378315448760986,-0.9371923804283142
1667267184836362500,2.000362548828125,-0.033443886786699295,0.4488963782787323,-0.9854493141174316
1667267184838760200,2.00276025390625,-0.004734066314995289,0.4501180648803711,-1.0294303894042969
1667267184841158000,2.005157958984375,0.025808297097682953,0.45622655749320984,-1.0679137706756592
1667267184843555600,2.0075556640625,0.0594048947095871,0.46722179651260376,-1.102121114730835
1667267184845953500,2.00995361328125,0.09300149232149124,0.48310381174087524,-1.1283875703811646
1667267184848351200,2.012351318359375,0.12843063473701477,0.5032618045806885,-1.1509889364242554
1667267184850749000,2.0147490234375,0.16080553829669952,0.5246414542198181,-1.168703556060791
1667267184853147000,2.01714697265625,0.19623468816280365,0.5490753054618835,-1.1821421384811401
1667267184855544600,2.019544677734375,0.2286095917224884,0.5704549551010132,-1.190693974494934
1667267184857942300,2.0219423828125,0.2585411071777344,0.5906129479408264,-1.1998567581176758
1667267184860340000,2.024340087890625,0.28908345103263855,0.6052733063697815,-1.2010784149169922
1667267184862738000,2.026738037109375,0.31229567527770996,0.616879403591156,-1.2071869373321533
1667267184865135600,2.029135498046875,0.3348970115184784,0.6199336051940918,-1.2084085941314697
1667267184867533300,2.031533203125,0.3574983477592468,0.6156576871871948,-1.2126845121383667
1667267184869931000,2.033930908203125,0.3746020793914795,0.6083275079727173,-1.213906168937683
1667267184872329000,2.036328857421875,0.39048412442207336,0.597943127155304,-1.2163496017456055
1667267184874726700,2.0387265625,0.40514445304870605,0.5857261419296265,-1.2163496017456055
1667267184877124400,2.041124267578125,0.41980478167533875,0.5692332983016968,-1.219403862953186
1667267184879522000,2.04352197265625,0.43385425209999084,0.5515187382698059,-1.21818208694458
1667267184881920000,2.045919921875,0.4485146105289459,0.5319716334342957,-1.215127944946289
1667267184884317700,2.048317626953125,0.4631749391555786,0.5130353569984436,-1.2096302509307861
1667267184886715400,2.05071533203125,0.4790569543838501,0.4916556775569916,-1.204743504524231
1667267184889113300,2.05311328125,0.4918847680091858,0.47088688611984253,-1.1937482357025146
1667267184891511000,2.055510986328125,0.5047125220298767,0.4513397812843323,-1.1796988248825073
1667267184893908700,2.05790869140625,0.5169295072555542,0.43179264664649963,-1.163205862045288
1667267184896306400,2.060306396484375,0.5279247164726257,0.41407808661460876,-1.139993667602539
1667267184898704400,2.062704345703125,0.5370874404907227,0.3969743549823761,-1.1155598163604736
1667267184901102000,2.06510205078125,0.5425850749015808,0.37925979495048523,-1.0856282711029053
1667267184903499800,2.067499755859375,0.5474718809127808,0.3566584289073944,-1.0465340614318848
1667267184905897500,2.0698974609375,0.548082709312439,0.3291703164577484,-1.0098832845687866
1667267184908295400,2.07229541015625,0.5523586273193359,0.29740625619888306,-0.9683456420898438
1667267184910693000,2.074693115234375,0.5529694557189941,0.26075541973114014,-0.9219212532043457
1667267184913090800,2.0770908203125,0.5554128885269165,0.21921780705451965,-0.8730534315109253
1667267184915488500,2.079488525390625,0.5560237169265747,0.174625962972641,-0.8217422962188721
1667267184917886500,2.081886474609375,0.5560237169265747,0.12636902928352356,-0.7679877281188965
1667267184920284200,2.0842841796875,0.5560237169265747,0.08299887180328369,-0.7081246972084045
1667267184922681900,2.086681884765625,0.5535803437232971,0.04756972938776016,-0.6488724946975708
1667267184925079600,2.08907958984375,0.5523586273193359,0.008475505746901035,-0.5853443741798401
1667267184927477500,2.0914775390625,0.5535803437232971,-0.03061871975660324,-0.5236487984657288
1667267184929875200,2.093875244140625,0.5572454333305359,-0.06726955622434616,-0.46012070775032043
1667267184932273000,2.09627294921875,0.5657972693443298,-0.10819631814956665,-0.3984251320362091
1667267184934670800,2.0986708984375,0.575570821762085,-0.1533990204334259,-0.337340384721756
1667267184937068500,2.101068603515625,0.5810684561729431,-0.1918824017047882,-0.27808821201324463
1667267184939466200,2.10346630859375,0.5877877473831177,-0.21020781993865967,-0.21883602440357208
1667267184941864000,2.105864013671875,0.5920637249946594,-0.2193705290555954,-0.1650814712047577
1667267184944262000,2.108261962890625,0.5938962697982788,-0.2315874695777893,-0.11621369421482086
1667267184946659600,2.11065966796875,0.5908420085906982,-0.2444152534008026,-0.06734590977430344
1667267184949057300,2.113057373046875,0.5841227173805237,-0.2554105222225189,-0.023975754156708717
1667267184951455000,2.115455078125,0.5774033665657043,-0.2706816792488098,0.014507622458040714
1667267184953853000,2.11785302734375,0.5706840753555298,-0.28961795568466187,0.050547610968351364
1667267184956250600,2.120250732421875,0.5657972693443298,-0.32077115774154663,0.07986827939748764
1667267184958648300,2.1226484375,0.5615213513374329,-0.3409291207790375,0.10857810080051422
1667267184961046000,2.1250458984375,0.5548020005226135,-0.3519243896007538,0.13423368334770203
1667267184963444000,2.12744384765625,0.5462501645088196,-0.35681116580963135,0.15622419118881226
1667267184965841700,2.129841552734375,0.538919985294342,-0.3647521734237671,0.17454960942268372
1667267184968239400,2.1322392578125,0.5291464328765869,-0.3751365840435028,0.1904316395521164
1667267184970637300,2.13463720703125,0.5181511640548706,-0.3879643678665161,0.20142687857151031
1667267184973035000,2.137034912109375,0.5041016936302185,-0.40995487570762634,0.20753535628318787
1667267184975432700,2.1394326171875,0.4900522232055664,-0.4264477491378784,0.21303297579288483
1667267184977830400,2.141830322265625,0.47355934977531433,-0.4319453537464142,0.21791976690292358
1667267184980228400,2.144228271484375,0.4546230733394623,-0.4307236671447754,0.21975229680538177
1667267184982626000,2.1466259765625,0.435075968503952,-0.42278265953063965,0.21914145350456238
1667267184985023700,2.149023681640625,0.4100312292575836,-0.4142307937145233,0.21303297579288483
1667267184987421400,2.15142138671875,0.38193225860595703,-0.40140300989151,0.20814619958400726
1667267184989819400,2.1538193359375,0.35138988494873047,-0.3891860544681549,0.20509196817874908
1667267184992217000,2.156217041015625,0.3208475112915039,-0.3775799572467804,0.19776180386543274
1667267184994614800,2.15861474609375,0.28602921962738037,-0.3635304868221283,0.1910424828529358
1667267184997012500,2.161012451171875,0.25121092796325684,-0.352535218000412,0.18432316184043884
1667267184999410400,2.163410400390625,0.2163926362991333,-0.3348206579685211,0.17882554233074188
1667267185001808100,2.16580810546875,0.18096350133419037,-0.3244362473487854,0.17393875122070312
1667267185004205800,2.168205810546875,0.1498102843761444,-0.3079433739185333,0.17210622131824493
1667267185006603800,2.170603759765625,0.11804623156785965,-0.28106608986854553,0.17027367651462555
1667267185009001500,2.17300146484375,0.08017370104789734,-0.2456369549036026,0.17210622131824493
1667267185011399200,2.175399169921875,0.04413371533155441,-0.20409934222698212,0.17393875122070312
1667267185013796900,2.177796875,0.00259610079228878,-0.16011834144592285,0.1763821393251419
1667267185016194800,2.18019482421875,-0.04321744292974472,-0.11308310180902481,0.18249061703681946
1667267185018592500,2.182592529296875,-0.0853659063577652,-0.06604786217212677,0.1910424828529358
1667267185020990200,2.184990234375,-0.12934690713882446,-0.026342788711190224,0.20142687857151031
1667267185023388000,2.187387939453125,-0.16966283321380615,0.00908635277301073,0.2166980654001236
1667267185025785900,2.189785888671875,-0.20692451298236847,0.0426829531788826,0.23807771503925323
1667267185028183600,2.19218359375,-0.23441264033317566,0.06406260281801224,0.26006820797920227
1667267185030581200,2.194581298828125,-0.2557922899723053,0.08544225990772247,0.28572380542755127
1667267185032979000,2.19697900390625,-0.27411770820617676,0.1080436110496521,0.31267744302749634
1667267185035377000,2.199376953125,-0.2845021188259125,0.12392564117908478,0.3407764136791229
1667267185037774600,2.201774658203125,-0.28938889503479004,0.1355317384004593,0.3707079291343689
1667267185040172300,2.20417236328125,-0.28694549202919006,0.14164020121097565,0.40247198939323425
1667267185042570000,2.206570068359375,-0.2838912606239319,0.14286190271377563,0.436068594455719
1667267185044968000,2.208968017578125,-0.27533939480781555,0.13858596980571747,0.46966519951820374
1667267185047365600,2.21136572265625,-0.266176700592041,0.12942326068878174,0.5008183717727661
1667267185049763300,2.213763427734375,-0.2515163719654083,0.11354123055934906,0.5325824618339539
1667267185052161300,2.216161376953125,-0.2411319613456726,0.0946049690246582,0.561292290687561
1667267185054559000,2.21855908203125,-0.2289150059223175,0.07261446863412857,0.5900021195411682
1667267185056956700,2.220956787109375,-0.2154763638973236,0.052456509321928024,0.6156576871871948
1667267185059354400,2.223354248046875,-0.2032594233751297,0.034131091088056564,0.6425349712371826
1667267185061752300,2.22575244140625,-0.19470755755901337,0.017027366906404495,0.6645254492759705
1667267185064150000,2.22814990234375,-0.18676654994487762,-0.00129805039614439,0.6852942705154419
1667267185066547700,2.230547607421875,-0.18187977373600006,-0.014125842601060867,0.7054522037506104
1667267185068945400,2.2329453125,-0.18126893043518066,-0.0293970238417387,0.7188908457756042
1667267185071343400,2.23534326171875,-0.18310146033763885,-0.04100312292575836,0.7323294878005981
1667267185073741000,2.237740966796875,-0.18615570664405823,-0.05138752609491348,0.7414922118186951
1667267185076138800,2.240138671875,-0.1898207813501358,-0.061771929264068604,0.7488223910331726
1667267185078536400,2.242536376953125,-0.19654010236263275,-0.06849125027656555,0.7500441074371338
1667267185080934400,2.244934326171875,-0.2032594233751297,-0.06726955622434616,0.7543200254440308
1667267185083332000,2.24733203125,-0.20753535628318787,-0.06543701142072678,0.754930853843689
1667267185085729800,2.249729736328125,-0.21364383399486542,-0.05932854115962982,0.7543200254440308
1667267185088127700,2.252127685546875,-0.22036315500736237,-0.04772244393825531,0.7543200254440308
1667267185090525400,2.254525390625,-0.22280654311180115,-0.037948887795209885,0.754930853843689
1667267185092923100,2.256923095703125,-0.22402822971343994,-0.028786176815629005,0.7555416822433472
1667267185095320800,2.25932080078125,-0.22341738641262054,-0.0165692325681448,0.7543200254440308
1667267185097718800,2.26171875,-0.22341738641262054,-0.0025197449140250683,0.754930853843689
1667267185100116500,2.264116455078125,-0.22586077451705933,0.008475505746901035,0.7543200254440308
1667267185102514200,2.26651416015625,-0.2276933193206787,0.017027366906404495,0.7530983090400696
1667267185104912000,2.268911865234375,-0.23196925222873688,0.0231358390301466,0.7518765926361084
1667267185107309800,2.271309814453125,-0.23502348363399506,0.022524992004036903,0.7561525702476501
1667267185109707500,2.27370751953125,-0.23929941654205322,0.022524992004036903,0.7573742270469666
1667267185112105200,2.276105224609375,-0.241742804646492,0.01763821393251419,0.7598176598548889
1667267185114503000,2.2785029296875,-0.24479703605175018,0.00786465872079134,0.7647044062614441
1667267185116900900,2.28090087890625,-0.2435753494501114,-0.0067956759594380856,0.7683694958686829
1667267185119298600,2.283298583984375,-0.2435753494501114,-0.02145601063966751,0.7756996750831604
1667267185121696300,2.2856962890625,-0.2411319613456726,-0.03855973482131958,0.782418966293335
1667267185124094200,2.28809423828125,-0.23685602843761444,-0.05199837312102318,0.7891383171081543
1667267185126492000,2.290491943359375,-0.2313583940267563,-0.06604786217212677,0.7958576083183289
1667267185128889600,2.2928896484375,-0.22647161781787872,-0.08070819079875946,0.8031877875328064
1667267185131287300,2.295287353515625,-0.21975229680538177,-0.09475768357515335,0.8099071383476257
1667267185133685200,2.297685302734375,-0.2166980654001236,-0.10636378079652786,0.8129613399505615
1667267185136083000,2.3000830078125,-0.20936790108680725,-0.11858072131872177,0.8160156011581421
1667267185138480600,2.302480712890625,-0.20509196817874908,-0.12530004978179932,0.8178481459617615
1667267185140878300,2.30487841796875,-0.2020377367734909,-0.13263021409511566,0.8178481459617615
1667267185143276300,2.3072763671875,-0.19776180386543274,-0.13751699030399323,0.8154047131538391
1667267185145674000,2.309674072265625,-0.19470755755901337,-0.141182079911232,0.8117396235466003
1667267185148071700,2.31207177734375,-0.1892099380493164,-0.141182079911232,0.805631160736084
1667267185150469400,2.314469482421875,-0.18615570664405823,-0.1405712217092514,0.7989118695259094
1667267185152867300,2.316867431640625,-0.18554484844207764,-0.14362546801567078,0.7885274291038513
1667267185155265000,2.31926513671875,-0.18676654994487762,-0.14729054272174835,0.7769213318824768
1667267185157662700,2.321662841796875,-0.1910424828529358,-0.15156647562980652,0.7665369510650635
1667267185160060400,2.324060302734375,-0.19470755755901337,-0.15645325183868408,0.7500441074371338
1667267185162458400,2.326458251953125,-0.19959434866905212,-0.16011834144592285,0.7353837490081787
1667267185164856000,2.32885595703125,-0.20570281147956848,-0.16500511765480042,0.7170583009719849
1667267185167253800,2.331253662109375,-0.21120044589042664,-0.17477867007255554,0.7017871737480164
1667267185169651700,2.333651611328125,-0.2160872220993042,-0.1796654462814331,0.6840725541114807
1667267185172049400,2.33604931640625,-0.22463907301425934,-0.18577392399311066,0.663303792476654
1667267185174447000,2.338447021484375,-0.2313583940267563,-0.193104088306427,0.6462000608444214
1667267185176844800,2.3408447265625,-0.23868857324123383,-0.20104511082172394,0.62543123960495
1667267185179242800,2.34324267578125,-0.2441861927509308,-0.2053210288286209,0.6058841347694397
1667267185181640400,2.345640380859375,-0.25029465556144714,-0.2071535736322403,0.5875586867332458
1667267185184038100,2.3480380859375,-0.2570139765739441,-0.21204034984111786,0.5674007534980774
1667267185186435800,2.350435791015625,-0.26067906618118286,-0.21387289464473724,0.5478536486625671
1667267185188833800,2.352833740234375,-0.26312246918678284,-0.21204034984111786,0.5307499170303345
1667267185191231500,2.3552314453125,-0.2667875289916992,-0.21204034984111786,0.5136461853981018
1667267185193629200,2.357629150390625,-0.2686200737953186,-0.20837527513504028,0.49593162536621094
1667267185196027000,2.36002685546875,-0.266176700592041,-0.19982340931892395,0.48188212513923645
1667267185198424800,2.3624248046875,-0.26373329758644104,-0.1937149316072464,0.4647783935070038
1667267185200822500,2.364822509765625,-0.26251161098480225,-0.1814979910850525,0.4495072364807129
1667267185203220200,2.36722021484375,-0.26006820797920227,-0.17355698347091675,0.436068594455719
1667267185205618000,2.369617919921875,-0.2545706033706665,-0.16317257285118103,0.4250733256340027
1667267185208016000,2.372015869140625,-0.25090551376342773,-0.1527881771326065,0.4122455418109894
1667267185210413600,2.37441357421875,-0.24907296895980835,-0.13751699030399323,0.40125030279159546
1667267185212811300,2.376811279296875,-0.24662958085536957,-0.1259108930826187,0.39086589217185974
1667267185215209000,2.379208984375,-0.2441861927509308,-0.11125055700540543,0.382924884557724
1667267185217607000,2.38160693359375,-0.23991025984287262,-0.09475768357515335,0.37620556354522705
1667267185220004600,2.384004638671875,-0.23929941654205322,-0.07887565344572067,0.3707079291343689
1667267185222402300,2.38640234375,-0.23929941654205322,-0.06543701142072678,0.36521029472351074
1667267185224800000,2.388800048828125,-0.23929941654205322,-0.055052608251571655,0.359712690114975
1667267185227198000,2.391197998046875,-0.23807771503925323,-0.04405735805630684,0.3554367423057556
1667267185229595600,2.393595703125,-0.23746687173843384,-0.031229566782712936,0.35054996609687805
1667267185231993300,2.395993408203125,-0.23441264033317566,-0.019623467698693275,0.3456631898880005
1667267185234391300,2.398391357421875,-0.23196925222873688,-0.00862821750342846,0.33894386887550354
1667267185236789000,2.4007890625,-0.2289150059223175,-0.00007635590736754239,0.33466795086860657
1667267185239186700,2.403186767578125,-0.2289150059223175,0.0035887276753783226,0.3291703164577484
1667267185241584400,2.40558447265625,-0.2283041626214981,0.009697199799120426,0.32428354024887085
1667267185243982300,2.407982421875,-0.2276933193206787,0.012751436792314053,0.3218401372432709
1667267185246380000,2.410380126953125,-0.22647161781787872,0.010918894782662392,0.3193967640399933
1667267185248777700,2.41277783203125,-0.22280654311180115,0.00786465872079134,0.3157316744327545
1667267185251175400,2.415175537109375,-0.21791976690292358,-0.00007635590736754239,0.31389912962913513
1667267185253573400,2.417573486328125,-0.21242213249206543,-0.0067956759594380856,0.3157316744327545
1667267185255971000,2.41997119140625,-0.20814619958400726,-0.022677704691886902,0.3157316744327545
1667267185258368800,2.42236865234375,-0.2038702666759491,-0.03733803704380989,0.3157316744327545
1667267185260766500,2.424766357421875,-0.19837264716625214,-0.05566345527768135,0.3187859058380127
1667267185263164400,2.427164306640625,-0.1916533261537552,-0.08070819079875946,0.3218401372432709
1667267185265562000,2.42956201171875,-0.188599094748497,-0.10575293004512787,0.3285594582557678
1667267185267959800,2.431959716796875,-0.18004722893238068,-0.13324105739593506,0.33650049567222595
1667267185270357800,2.434357666015625,-0.17149536311626434,-0.16134002804756165,0.3462740480899811
1667267185272755500,2.43675537109375,-0.16660858690738678,-0.19066070020198822,0.36093437671661377
1667267185275153200,2.439153076171875,-0.15866757929325104,-0.22364644706249237,0.37315133213996887
1667267185277550800,2.44155078125,-0.1525591015815735,-0.25296711921691895,0.38781166076660156
1667267185279948800,2.44394873046875,-0.14706148207187653,-0.27984440326690674,0.40430453419685364
1667267185282346500,2.446346435546875,-0.14156384766101837,-0.30733251571655273,0.41835400462150574
1667267185284744200,2.448744140625,-0.13545538485050201,-0.32932302355766296,0.436068594455719
1667267185287142000,2.451141845703125,-0.12995775043964386,-0.3519243896007538,0.45439401268959045
1667267185289539800,2.453539794921875,-0.1256818175315857,-0.37024980783462524,0.4733302593231201
1667267185291937500,2.4559375,-0.12323843687772751,-0.38429927825927734,0.49226653575897217
1667267185294335200,2.458335205078125,-0.11835165321826935,-0.39834877848625183,0.509981095790863
1667267185296733000,2.46073291015625,-0.11590826511383057,-0.40873315930366516,0.5295282006263733
1667267185299131000,2.463130859375,-0.11468657106161118,-0.4166741967201233,0.5478536486625671
1667267185301528600,2.465528564453125,-0.1104106456041336,-0.42095011472702026,0.5674007534980774
1667267185303926300,2.46792626953125,-0.10857810080051422,-0.42461520433425903,0.5832827687263489
1667267185306324200,2.47032421875,-0.10735640674829483,-0.428891122341156,0.6016082167625427
1667267185308722000,2.472721923828125,-0.10735640674829483,-0.4301128387451172,0.6156576871871948
1667267185311119600,2.47511962890625,-0.10857810080051422,-0.4264477491378784,0.6327614188194275
1667267185313517300,2.477517333984375,-0.11285403370857239,-0.42339351773262024,0.6480326056480408
1667267185315915300,2.479915283203125,-0.11957334727048874,-0.4142307937145233,0.663303792476654
1667267185318313000,2.48231298828125,-0.1256818175315857,-0.4032355546951294,0.676742434501648
1667267185320710700,2.484710693359375,-0.12995775043964386,-0.39590537548065186,0.6926244497299194
1667267185323108400,2.4871083984375,-0.1366770714521408,-0.3916294574737549,0.7066739201545715
1667267185325506300,2.48950634765625,-0.14095300436019897,-0.3910185992717743,0.7201125621795654
1667267185327904000,2.491904052734375,-0.14522893726825714,-0.3904077410697937,0.7329403758049011
1667267185330301700,2.4943017578125,-0.1495048701763153,-0.3879643678665161,0.7445464730262756
1667267185332699400,2.496699462890625,-0.1525591015815735,-0.38613182306289673,0.7585959434509277
1667267185335097300,2.499097412109375,-0.15622419118881226,-0.38368842005729675,0.7702020406723022
1667267185337495000,2.5014951171875,-0.15622419118881226,-0.38307759165763855,0.782418966293335
1667267185339892700,2.503892822265625,-0.15683503448963165,-0.38429927825927734,0.7964684963226318
1667267185342290700,2.506290771484375,-0.16111096739768982,-0.38613182306289673,0.8099071383476257
1667267185344688400,2.5086884765625,-0.15988926589488983,-0.3910185992717743,0.8276216983795166
1667267185347086000,2.511086181640625,-0.15927842259407043,-0.39407283067703247,0.8416711688041687
1667267185349483800,2.51348388671875,-0.15744587779045105,-0.39712706208229065,0.8538880944252014
1667267185351881700,2.5158818359375,-0.15316994488239288,-0.40140300989151,0.8648833632469177
1667267185354279400,2.518279541015625,-0.1501157134771347,-0.4026246964931488,0.8795437216758728
1667267185356677000,2.520677001953125,-0.14461809396743774,-0.4050680994987488,0.8923714756965637
1667267185359074800,2.52307470703125,-0.1360662281513214,-0.40690064430236816,0.9027559161186218
1667267185361472800,2.52547265625,-0.13117945194244385,-0.40995487570762634,0.912529468536377
1667267185363870500,2.527870361328125,-0.13056860864162445,-0.4154524803161621,0.9168053865432739
1667267185366268200,2.53026806640625,-0.12873606383800507,-0.42339351773262024,0.9216921329498291
1667267185368665900,2.532665771484375,-0.1250709742307663,-0.4319453537464142,0.9216921329498291
1667267185371063800,2.535063720703125,-0.1256818175315857,-0.43866467475891113,0.9186379313468933
1667267185373461500,2.53746142578125,-0.12812520563602448,-0.44843825697898865,0.9155836701393127
1667267185375859200,2.539859130859375,-0.13056860864162445,-0.45210331678390503,0.911918580532074
1667267185378257200,2.542257080078125,-0.13240113854408264,-0.4539358615875244,0.9051992893218994
1667267185380654800,2.54465478515625,-0.1385096162557602,-0.454546719789505,0.8990908265113831
1667267185383052500,2.547052490234375,-0.14339639246463776,-0.4551575779914856,0.8893172740936279
1667267185385450200,2.5494501953125,-0.1513374149799347,-0.4527141749858856,0.8807653784751892
1667267185387848200,2.55184814453125,-0.1623326539993286,-0.4435514807701111,0.8716026544570923
1667267185390246000,2.554245849609375,-0.1769929975271225,-0.43499961495399475,0.861218273639679
1667267185392643600,2.5566435546875,-0.18798823654651642,-0.42400434613227844,0.8532772660255432
1667267185395041300,2.559041259765625,-0.19837264716625214,-0.41239824891090393,0.8435037136077881
1667267185397439200,2.561439208984375,-0.20570281147956848,-0.39468368887901306,0.8331193327903748
1667267185399837000,2.5638369140625,-0.2154763638973236,-0.38246673345565796,0.8251782655715942
1667267185402234600,2.566234619140625,-0.22219568490982056,-0.36780640482902527,0.8178481459617615
1667267185404632300,2.56863232421875,-0.2283041626214981,-0.3531460762023926,0.8086854219436646
1667267185407030300,2.5710302734375,-0.23319093883037567,-0.3378748893737793,0.8007444143295288
1667267185409428000,2.573427978515625,-0.23380178213119507,-0.325047105550766,0.7915816903114319
1667267185411825700,2.57582568359375,-0.23502348363399506,-0.3109976053237915,0.7848623991012573
1667267185414223600,2.5782236328125,-0.23380178213119507,-0.3012240529060364,0.7763105034828186
1667267185416621300,2.580621337890625,-0.2301367074251175,-0.29328304529190063,0.7671477794647217
1667267185419019000,2.58301904296875,-0.2289150059223175,-0.2835094928741455,0.7610393166542053
1667267185421416700,2.585416748046875,-0.22586077451705933,-0.27740100026130676,0.7537091374397278
1667267185423814700,2.587814697265625,-0.22280654311180115,-0.2737359404563904,0.746379017829895
1667267185426212400,2.59021240234375,-0.22036315500736237,-0.26640576124191284,0.7402704954147339
1667267185428610000,2.592610107421875,-0.2154763638973236,-0.2609081268310547,0.7341620326042175
1667267185431007700,2.5950078125,-0.21303297579288483,-0.2566322088241577,0.7256101965904236
1667267185433405700,2.59740576171875,-0.20814619958400726,-0.25113457441329956,0.7213342785835266
1667267185435803400,2.599803466796875,-0.2044811248779297,-0.2456369549036026,0.7146149277687073
1667267185438201000,2.602201171875,-0.2044811248779297,-0.23769593238830566,0.7060630917549133
1667267185440598800,2.604598876953125,-0.20570281147956848,-0.22975492477416992,0.699343740940094
1667267185442996700,2.606996826171875,-0.20631365478038788,-0.2212030589580536,0.6914027333259583
1667267185445394400,2.60939453125,-0.20936790108680725,-0.21020781993865967,0.6846834421157837
1667267185447792000,2.611792236328125,-0.21242213249206543,-0.194325789809227,0.676742434501648
1667267185450190000,2.614190185546875,-0.2154763638973236,-0.1790546029806137,0.667579710483551
1667267185452587800,2.616587890625,-0.22158484160900116,-0.16011834144592285,0.6578061580657959
1667267185454985500,2.6189853515625,-0.22647161781787872,-0.1405712217092514,0.6480326056480408
1667267185457383200,2.621383056640625,-0.23258009552955627,-0.11674818396568298,0.6321505308151245
1667267185459781000,2.623781005859375,-0.23868857324123383,-0.09048175066709518,0.6174902319908142
1667267185462178800,2.6261787109375,-0.2429644912481308,-0.06360447406768799,0.6052733063697815
1667267185464576500,2.628576416015625,-0.24601873755455017,-0.037948887795209885,0.588780403137207
1667267185466974200,2.63097412109375,-0.24785128235816956,-0.007406522985547781,0.5704549551010132
1667267185469372200,2.6333720703125,-0.24662958085536957,0.024968381971120834,0.5539621114730835
1667267185471769900,2.635769775390625,-0.24540787935256958,0.05978667363524437,0.5399126410484314
1667267185474167600,2.63816748046875,-0.23991025984287262,0.09093988686800003,0.5240305662155151
1667267185476565200,2.640565185546875,-0.23685602843761444,0.12270393967628479,0.5093702673912048
1667267185478963200,2.642963134765625,-0.23319093883037567,0.15202461183071136,0.49532076716423035
1667267185481361000,2.64536083984375,-0.22647161781787872,0.17951273918151855,0.48371466994285583
1667267185483758600,2.647758544921875,-0.22158484160900116,0.20639002323150635,0.4721085727214813
1667267185486156500,2.650156494140625,-0.217308908700943,0.23204560577869415,0.4605024755001068
1667267185488554200,2.65255419921875,-0.21425467729568481,0.2540360987186432,0.45256146788597107
1667267185490952000,2.654951904296875,-0.21364383399486542,0.2754157483577728,0.4446204602718353
1667267185493349600,2.657349609375,-0.21303297579288483,0.2925194799900055,0.4372902810573578
1667267185495747600,2.65974755859375,-0.2154763638973236,0.30656898021698,0.42996010184288025
1667267185498145300,2.662145263671875,-0.21791976690292358,0.3163425326347351,0.4238516390323639
1667267185500543000,2.66454296875,-0.22158484160900116,0.32245099544525146,0.41591063141822815
1667267185502940700,2.666940673828125,-0.22586077451705933,0.3193967640399933,0.4067479074001312
1667267185505338600,2.669338623046875,-0.2289150059223175,0.31389912962913513,0.3951418101787567
1667267185507736300,2.671736328125,-0.2295258641242981,0.3071798086166382,0.3835357129573822
1667267185510134000,2.674134033203125,-0.2283041626214981,0.29801711440086365,0.3694862425327301
1667267185512531700,2.67653173828125,-0.22708246111869812,0.28396761417388916,0.3548259139060974
1667267185514929700,2.6789296875,-0.22524993121623993,0.2686964273452759,0.33466795086860657
1667267185517327400,2.681327392578125,-0.22097399830818176,0.255257785320282,0.31206658482551575
1667267185519725000,2.68372509765625,-0.21914145350456238,0.24304085969924927,0.2912214398384094
1667267185522123000,2.686123046875,-0.21364383399486542,0.2253262847661972,0.26495498418807983
1667267185524520700,2.688520751953125,-0.20814619958400726,0.20883341133594513,0.23624517023563385
1667267185526918400,2.69091845703125,-0.20020519196987152,0.19478392601013184,0.20692451298236847
1667267185529316000,2.693316162109375,-0.19226416945457458,0.18134528398513794,0.17454960942268372
1667267185531714000,2.695714111328125,-0.18371231853961945,0.1727934181690216,0.1366770714521408
1667267185534111700,2.69811181640625,-0.17271706461906433,0.16546325385570526,0.10308047384023666
1667267185536509400,2.700509521484375,-0.16172181069850922,0.1605764776468277,0.06765133142471313
1667267185538907100,2.7029072265625,-0.1507265567779541,0.15813308954238892,0.034665580838918686
1667267185541305000,2.70530517578125,-0.14095300436019897,0.15568970143795013,0.0022906772792339325
1667267185543702800,2.707702880859375,-0.12995775043964386,0.15385715663433075,-0.028251685202121735
1667267185546100500,2.7101005859375,-0.12079504877328873,0.15752223134040833,-0.05390727147459984
1667267185548498200,2.712498291015625,-0.11285403370857239,0.1599656194448471,-0.07528692483901978
1667267185550896000,2.714896240234375,-0.10674555599689484,0.15691138803958893,-0.09361234307289124
1667267185553293800,2.7172939453125,-0.10246963053941727,0.15691138803958893,-0.1113269105553627
1667267185555691500,2.71969140625,-0.10185877978801727,0.15141376852989197,-0.12171131372451782
1667267185558089500,2.72208935546875,-0.10308047384023666,0.14102935791015625,-0.13392825424671173
1667267185560487200,2.724487060546875,-0.10369132459163666,0.13064496219158173,-0.14003673195838928
1667267185562884900,2.726884765625,-0.10185877978801727,0.11964970827102661,-0.14431266486644745
1667267185565282600,2.729282470703125,-0.0988045409321785,0.10376767814159393,-0.14614520967006683
1667267185567680500,2.731680419921875,-0.0988045409321785,0.09032903611660004,-0.14614520967006683
1667267185570078200,2.734078125,-0.09391776472330093,0.07261446863412857,-0.1382041871547699
1667267185572476000,2.736475830078125,-0.0853659063577652,0.05856497958302498,-0.12904147803783417
1667267185574873600,2.73887353515625,-0.07620319724082947,0.0426829531788826,-0.11804623156785965
1667267185577271600,2.741271484375,-0.06642963737249374,0.031076854094862938,-0.10399674624204636
1667267185579669200,2.743669189453125,-0.05543438717722893,0.015805672854185104,-0.08933641016483307
1667267185582067000,2.74606689453125,-0.04443913698196411,0.0011453386396169662,-0.07345438003540039
1667267185584464600,2.748464599609375,-0.03161134570837021,-0.014736690558493137,-0.054518118500709534
1667267185586862600,2.750862548828125,-0.017561858519911766,-0.03245126083493233,-0.03680354729294777
1667267185589260300,2.75326025390625,-0.004734066314995289,-0.04772244393825531,-0.01847812905907631
1667267185591658000,2.755657958984375,0.009315420873463154,-0.06116108223795891,-0.00259610079228878
1667267185594055700,2.7580556640625,0.025808297097682953,-0.07704310864210129,0.008399149402976036
1667267185596453600,2.76045361328125,0.03924693539738655,-0.09292513877153397,0.02367033064365387
1667267185598851300,2.762851318359375,0.05757235363125801,-0.10514208674430847,0.03649812191724777
1667267185601249000,2.7652490234375,0.07406523078680038,-0.11369394510984421,0.04688252881169319
1667267185603646700,2.767646728515625,0.09300149232149124,-0.11858072131872177,0.05665608495473862
1667267185606044700,2.770044677734375,0.11010521650314331,-0.12285665422677994,0.06704048812389374
1667267185608442400,2.7724423828125,0.12659808993339539,-0.12224581092596054,0.07437065243721008
1667267185610840000,2.774840087890625,0.14492350816726685,-0.11980241537094116,0.07986827939748764
1667267185613237800,2.77723779296875,0.1644706279039383,-0.11919157207012177,0.08719844371080399
1667267185615635700,2.7796357421875,0.18340688943862915,-0.11613733321428299,0.09269607067108154
1667267185618033400,2.782033447265625,0.19989976286888123,-0.11308310180902481,0.0975828468799591
1667267185620431000,2.78443115234375,0.2163926362991333,-0.11247225105762482,0.10124793648719788
1667267185622829000,2.7868291015625,0.2304421216249466,-0.11063970625400543,0.10491301864385605
1667267185625226800,2.789226806640625,0.2438807636499405,-0.11247225105762482,0.10857810080051422
1667267185627624400,2.79162451171875,0.2579302489757538,-0.11063970625400543,0.10796725004911423
1667267185630022100,2.794022216796875,0.2695363461971283,-0.10941801220178604,0.10918894410133362
1667267185632420000,2.796420166015625,0.2805316150188446,-0.10636378079652786,0.10796725004911423
1667267185634817800,2.79881787109375,0.28969430923461914,-0.10453123599290848,0.10613471269607544
1667267185637215500,2.801215576171875,0.29946786165237427,-0.09903360903263092,0.10063708573579788
1667267185639613200,2.80361328125,0.3086305856704712,-0.09536852687597275,0.09391776472330093
1667267185642011100,2.80601123046875,0.3190149664878845,-0.09231429547071457,0.08780929446220398
1667267185644408800,2.808408935546875,0.32817769050598145,-0.08742751181125641,0.07803573459386826
1667267185646806500,2.810806640625,0.337340384721756,-0.08009734749794006,0.06948387622833252
1667267185649204200,2.813204345703125,0.3465031087398529,-0.06971294432878494,0.0584886260330677
1667267185651602200,2.815602294921875,0.35566580295562744,-0.05566345527768135,0.04810422286391258
1667267185653999900,2.817999755859375,0.3611634373664856,-0.040392275899648666,0.03894151374697685
1667267185656397600,2.8203974609375,0.36727190017700195,-0.023288551717996597,0.031000498682260513
1667267185658795300,2.822795166015625,0.3715478479862213,-0.009849912486970425,0.021226942539215088
1667267185661193200,2.825193115234375,0.3733803927898407,0.006032116711139679,0.013896775431931019
1667267185663591000,2.8275908203125,0.3764346241950989,0.015194825828075409,0.008399149402976036
1667267185665988600,2.829988525390625,0.3758237659931183,0.023746687918901443,0.0010689827613532543
1667267185668386600,2.832386474609375,0.37826716899871826,0.02924431301653385,-0.009315420873463154
1667267185670784300,2.8347841796875,0.37887802720069885,0.03290939703583717,-0.019088976085186005
1667267185673182000,2.837181884765625,0.37704548239707947,0.03596363216638565,-0.029473381116986275
1667267185675579600,2.83957958984375,0.3752129375934601,0.03901786729693413,-0.04291202127933502
1667267185677977600,2.8419775390625,0.3733803927898407,0.04023956134915352,-0.05390727147459984
1667267185680375300,2.844375244140625,0.36849361658096313,0.0420721061527729,-0.06612421572208405
1667267185682773000,2.84677294921875,0.36482852697372437,0.0420721061527729,-0.07650861889123917
1667267185685170700,2.849170654296875,0.358720064163208,0.03840702027082443,-0.08872556686401367
1667267185687568600,2.851568603515625,0.35322242975234985,0.03901786729693413,-0.10155335813760757
1667267185689966300,2.85396630859375,0.3465031087398529,0.034131091088056564,-0.1113269105553627
1667267185692364000,2.856364013671875,0.34039464592933655,0.03352024406194687,-0.1253764033317566
1667267185694761700,2.85876171875,0.3324536085128784,0.034131091088056564,-0.1369825005531311
1667267185697159700,2.86115966796875,0.3245126008987427,0.03290939703583717,-0.14858859777450562
1667267185699557400,2.863557373046875,0.3196258246898651,0.036574479192495346,-0.16141638159751892
1667267185701955000,2.865955078125,0.31534990668296814,0.04023956134915352,-0.17241163551807404
1667267185704353000,2.86835302734375,0.3086305856704712,0.0426829531788826,-0.18646112084388733
1667267185706750700,2.870750732421875,0.3049654960632324,0.04756972938776016,-0.19623468816280365
1667267185709148400,2.8731484375,0.30313295125961304,0.05734328553080559,-0.2041756957769394
1667267185711546000,2.875546142578125,0.2982461750507355,0.06223006546497345,-0.21028417348861694
1667267185713944000,2.877944091796875,0.29885703325271606,0.07017108052968979,-0.2176143378019333
1667267185716341800,2.880341796875,0.2927485406398773,0.07689040154218674,-0.22311195731163025
1667267185718739500,2.882739501953125,0.28725093603134155,0.08727480471134186,-0.22494450211524963
1667267185721137200,2.88513720703125,0.2817533016204834,0.09949174523353577,-0.22738789021968842
1667267185723535000,2.88753515625,0.27320143580436707,0.1074327602982521,-0.2292204350233078
1667267185725932800,2.889932861328125,0.2658712565898895,0.11903885751962662,-0.22738789021968842
1667267185728330500,2.89233056640625,0.254265159368515,0.12881241738796234,-0.22372281551361084
1667267185730728200,2.894728271484375,0.24449162185192108,0.14102935791015625,-0.21883602440357208
1667267185733126100,2.897126220703125,0.23532891273498535,0.15263545513153076,-0.21394924819469452
1667267185735523800,2.89952392578125,0.22677704691886902,0.16546325385570526,-0.20661908388137817
1667267185737921500,2.901921630859375,0.21822518110275269,0.1727934181690216,-0.20051060616970062
1667267185740319500,2.904319580078125,0.21394924819469452,0.1752368062734604,-0.19562382996082306
1667267185742717200,2.90671728515625,0.20845162868499756,0.17645850777626038,-0.1907370537519455
1667267185745115000,2.909114990234375,0.2041756957769394,0.1752368062734604,-0.18585027754306793
1667267185747512600,2.9115126953125,0.20051060616970062,0.17035003006458282,-0.18279604613780975
1667267185749910500,2.91391064453125,0.19745637476444244,0.1617981642484665,-0.1779092699289322
1667267185752308200,2.91630810546875,0.19501298666000366,0.15080291032791138,-0.1760767251253128
1667267185754706000,2.918705810546875,0.1913478970527649,0.13980767130851746,-0.17363333702087402
1667267185757103600,2.921103515625,0.18646112084388733,0.12881241738796234,-0.16996824741363525
1667267185759501600,2.92350146484375,0.18340688943862915,0.11537377536296844,-0.16691401600837708
1667267185761899300,2.925899169921875,0.18035265803337097,0.10315682739019394,-0.1638597846031189
1667267185764297000,2.928296875,0.1779092699289322,0.09032903611660004,-0.16019469499588013
1667267185766694700,2.930694580078125,0.16996824741363525,0.0811663269996643,-0.15347537398338318
1667267185769092600,2.933092529296875,0.1656923145055771,0.07200361788272858,-0.14858859777450562
1667267185771490300,2.935490234375,0.15897299349308014,0.06345175951719284,-0.14003673195838928
1667267185773888000,2.937887939453125,0.1516428291797638,0.0555107444524765,-0.13392825424671173
1667267185776285700,2.94028564453125,0.14492350816726685,0.044515494257211685,-0.12781979143619537
1667267185778683600,2.94268359375,0.13576079905033112,0.03840702027082443,-0.11865708231925964
1667267185781081300,2.945081298828125,0.12904147803783417,0.03168770298361778,-0.11010521650314331
1667267185783479000,2.94747900390625,0.11987877637147903,0.02802261710166931,-0.10338589549064636
1667267185785877000,2.949876953125,0.1107160672545433,0.020692450925707817,-0.09422318637371063
1667267185788274700,2.952274658203125,0.10216420143842697,0.015805672854185104,-0.08139539510011673
1667267185790672400,2.95467236328125,0.09239064902067184,0.012140588834881783,-0.07101099193096161
1667267185793070000,2.957070068359375,0.08628217875957489,0.004810422193259001,-0.06001574173569679
1667267185795468000,2.959468017578125,0.07834116369485855,-0.0031305921729654074,-0.04840964451432228
1667267185797865700,2.96186572265625,0.07101099193096161,-0.013514995574951172,-0.037414394319057465
1667267185800263400,2.964263427734375,0.06429167091846466,-0.026342788711190224,-0.03008422814309597
1667267185802661000,2.9666611328125,0.055739812552928925,-0.04100312292575836,-0.024586603045463562
1667267185805059000,2.96905908203125,0.05207473039627075,-0.056274302303791046,-0.02214321307837963
1667267185807456800,2.971456787109375,0.04963133856654167,-0.07276718318462372,-0.021532366052269936
1667267185809854500,2.9738544921875,0.05024218559265137,-0.08742751181125641,-0.02092151902616024
1667267185812252400,2.97625244140625,0.049020491540431976,-0.09903360903263092,-0.019088976085186005
1667267185814650000,2.978650146484375,0.05268557742238045,-0.10880716890096664,-0.02092151902616024
1667267185817047800,2.9810478515625,0.058183200657367706,-0.11247225105762482,-0.02092151902616024
1667267185819445500,2.983445556640625,0.06429167091846466,-0.11674818396568298,-0.020310672000050545
1667267185821843500,2.985843505859375,0.07040014863014221,-0.11613733321428299,-0.01969982497394085
1667267185824241200,2.9882412109375,0.07345438003540039,-0.11186140775680542,-0.021532366052269936
1667267185826638800,2.990638916015625,0.07589777559041977,-0.10758547484874725,-0.021532366052269936
1667267185829036500,2.99303662109375,0.07650861889123917,-0.09903360903263092,-0.02214321307837963
1667267185831434500,2.9954345703125,0.07528692483901978,-0.0892600566148758,-0.020310672000050545
1667267185833832200,2.997832275390625,0.07345438003540039,-0.08009734749794006,-0.02092151902616024
