time,seconds_elapsed,z,y,x
1667266555095074300,0.10407421875,10.953145980834961,-2.729313373565674,2.4394826889038086
1667266555097472300,0.10647216796875,10.770992279052734,-2.746062994003296,2.365305185317993
1667266555099870000,0.108869873046875,10.584351539611816,-2.7580273151397705,2.26959228515625
1667266555102268000,0.111267822265625,10.414461135864258,-2.738884687423706,2.2241287231445312
1667266555104665600,0.11366552734375,10.203594207763672,-2.731706142425537,2.1571295261383057
1667266555107063600,0.1160634765625,9.993025779724121,-2.7340989112854004,2.094916343688965
1667266555109461200,0.118461181640625,9.758230209350586,-2.7173492908477783,2.025524377822876
1667266555111859000,0.12085888671875,9.523733139038086,-2.683849811553955,1.9680966138839722
1667266555114257000,0.1232568359375,9.28445053100586,-2.645564556121826,1.896012783050537
1667266555116654600,0.125654541015625,9.090332984924316,-2.6240291595458984,1.83619225025177
1667266555119052500,0.128052490234375,8.913264274597168,-2.5929224491119385,1.7907286882400513
1667266555121450200,0.1304501953125,8.752944946289062,-2.564208507537842,1.7476578950881958
1667266555123848200,0.13284814453125,8.604290962219238,-2.5283162593841553,1.690230131149292
1667266555126246000,0.135245849609375,8.467900276184082,-2.4921247959136963,1.6304094791412354
1667266555128643600,0.1376435546875,8.31715202331543,-2.4299113750457764,1.6016956567764282
1667266555131041500,0.14004150390625,8.250153541564941,-2.365305185317993,1.5777673721313477
1667266555133439200,0.142439208984375,8.20229721069336,-2.3222343921661377,1.561017632484436
1667266555135837200,0.144837158203125,8.166404724121094,-2.2576282024383545,1.5634105205535889
1667266555138235000,0.14723486328125,8.134998321533203,-2.183450698852539,1.5897315740585327
1667266555140632800,0.1496328125,8.15683364868164,-2.1379871368408203,1.651944875717163
1667266555143030500,0.152030517578125,8.187939643859863,-2.066202402114868,1.7237296104431152
1667266555145428200,0.15442822265625,8.257331848144531,-2.0303099155426025,1.831406593322754
1667266555147826200,0.156826171875,8.400900840759277,-1.970489501953125,1.9247267246246338
1667266555150224000,0.159223876953125,8.43440055847168,-1.9414764642715454,2.0303099155426025
1667266555152621800,0.161621826171875,8.484649658203125,-1.9438693523406982,2.1308085918426514
1667266555155019500,0.16401953125,8.589934349060059,-1.9390836954116821,2.2169501781463623
1667266555157417500,0.16641748046875,8.717052459716797,-1.9630118608474731,2.317448616027832
1667266555159815200,0.168815185546875,8.8438720703125,-1.9968105554580688,2.386840581893921
1667266555162213000,0.171213134765625,8.963513374328613,-2.0231316089630127,2.4610180854797363
1667266555164610800,0.17361083984375,9.052047729492188,-2.063809633255005,2.5283162593841553
1667266555167008800,0.1760087890625,9.140582084655762,-2.097309112548828,2.5618157386779785
1667266555169406500,0.178406494140625,9.207581520080566,-2.1379871368408203,2.588136672973633
1667266555171804200,0.18080419921875,9.236295700073242,-2.1930220127105713,2.6264219284057617
1667266555174202000,0.1832021484375,9.257830619812012,-2.214557409286499,2.643171787261963
1667266555176599800,0.185599853515625,9.20997428894043,-2.23848557472229,2.6479573249816895
1667266555178997800,0.187997802734375,9.147761344909668,-2.262413740158081,2.652743101119995
1667266555181395500,0.1903955078125,9.116654396057129,-2.2815563678741455,2.6383860111236572
1667266555183793400,0.19279345703125,9.087940216064453,-2.3030917644500732,2.674278497695923
1667266555186191000,0.195191162109375,9.061619758605957,-2.3820550441741943,2.7364916801452637
1667266555188588800,0.1975888671875,9.059226989746094,-2.379662036895752,2.7029922008514404
1667266555190986800,0.19998681640625,9.025727272033691,-2.355733871459961,2.645564556121826
1667266555193384400,0.202384521484375,8.94676399230957,-2.3509483337402344,2.6001009941101074
1667266555195782400,0.204782470703125,8.901300430297852,-2.317448616027832,2.5618157386779785
1667266555198180000,0.20718017578125,8.86780071258545,-2.324627161026001,2.4993033409118652
1667266555200578000,0.209578125,8.779266357421875,-2.317448616027832,2.4323041439056396
1667266555202975700,0.211975830078125,8.692825317382812,-2.317448616027832,2.36291241645813
1667266555205373400,0.21437353515625,8.625826835632324,-2.3222343921661377,2.2983062267303467
1667266555207771400,0.216771484375,8.54447078704834,-2.317448616027832,2.2432711124420166
1667266555210169000,0.219169189453125,8.499007225036621,-2.307877540588379,2.17627215385437
1667266555212567000,0.221567138671875,8.415258407592773,-2.3030917644500732,2.1332013607025146
1667266555214964700,0.22396484375,8.350651741027832,-2.3030917644500732,2.073380708694458
1667266555217362700,0.22636279296875,8.300402641296387,-2.317448616027832,2.042274236679077
1667266555219760400,0.228760498046875,8.216653823852539,-2.3126630783081055,2.008774518966675
1667266555222158300,0.231158447265625,8.175975799560547,-2.310270309448242,1.994417667388916
1667266555224556000,0.23355615234375,8.180761337280273,-2.276770830154419,1.9848463535308838
1667266555226954000,0.2359541015625,8.154440879821777,-2.2743778228759766,1.9776679277420044
1667266555229351700,0.2383515625,8.072785377502441,-2.26959228515625,1.9606190919876099
1667266555231749400,0.240749267578125,8.034500122070312,-2.26959228515625,1.9728822708129883
1667266555234147300,0.243147216796875,8.051250457763672,-2.262413740158081,1.9896320104599
1667266555236545000,0.245544921875,8.115856170654297,-2.252842426300049,2.0039889812469482
1667266555238943000,0.24794287109375,8.228617668151855,-2.2337000370025635,2.0207388401031494
1667266555241340700,0.250340576171875,8.369794845581055,-2.2121646404266357,2.063809633255005
1667266555243738600,0.252738525390625,8.52772045135498,-2.181057929992676,2.121237277984619
1667266555246136300,0.25513623046875,8.688039779663086,-2.1379871368408203,2.190629243850708
1667266555248534000,0.257533935546875,8.841479301452637,-2.118844509124756,2.2480568885803223
1667266555250932000,0.259931884765625,8.97787094116211,-2.11405873298645,2.3150558471679688
1667266555253329700,0.26232958984375,9.083154678344727,-2.1092731952667236,2.3748764991760254
1667266555255727600,0.2647275390625,9.169296264648438,-2.1308085918426514,2.4131617546081543
1667266555258125300,0.267125244140625,9.243474006652832,-2.1403799057006836,2.465803623199463
1667266555260523300,0.269523193359375,9.282057762145996,-2.152343988418579,2.4993033409118652
1667266555262921000,0.2719208984375,9.294022560119629,-2.181057929992676,2.504088878631592
1667266555265318700,0.274318603515625,9.327521324157715,-2.2097716331481934,2.5112674236297607
1667266555267716600,0.276716552734375,9.339486122131348,-2.2480568885803223,2.506481647491455
1667266555270114300,0.2791142578125,9.332307815551758,-2.2983062267303467,2.4705893993377686
1667266555272512300,0.28151220703125,9.344271659851074,-2.334198474884033,2.4059832096099854
1667266555274910000,0.283909912109375,9.346664428710938,-2.3748764991760254,2.3676979541778564
1667266555277308000,0.286307861328125,9.358628273010254,-2.3988046646118164,2.334198474884033
1667266555279705600,0.28870556640625,9.353842735290527,-2.449054002761841,2.276770830154419
1667266555282103600,0.291103515625,9.361021041870117,-2.496910333633423,2.20737886428833
1667266555284501200,0.293501220703125,9.37059211730957,-2.5232315063476562,2.1332013607025146
1667266555286899000,0.29589892578125,9.368199348449707,-2.5474588871002197,2.0614166259765625
1667266555289297000,0.298296875,9.384949684143066,-2.533101797103882,1.9920248985290527
1667266555291694600,0.300694580078125,9.37059211730957,-2.566601276397705,1.953440546989441
1667266555294092500,0.303092529296875,9.361021041870117,-2.549851655960083,1.9366908073425293
1667266555296490200,0.305490234375,9.3490571975708,-2.542673110961914,1.9414764642715454
1667266555298888200,0.30788818359375,9.322735786437988,-2.5450658798217773,1.9486548900604248
1667266555301286000,0.310285888671875,9.272486686706543,-2.5160529613494873,1.994417667388916
1667266555303683600,0.31268359375,9.207581520080566,-2.5112674236297607,2.0398812294006348
1667266555306081500,0.31508154296875,9.150154113769531,-2.4921247959136963,2.080559253692627
1667266555308479200,0.317479248046875,9.123832702636719,-2.465803623199463,2.128415822982788
1667266555310877200,0.319877197265625,9.10229778289795,-2.4155545234680176,2.190629243850708
1667266555313275000,0.32227490234375,9.087940216064453,-2.3748764991760254,2.2504496574401855
1667266555315672800,0.3246728515625,9.080761909484863,-2.33180570602417,2.3126630783081055
1667266555318070500,0.327070556640625,9.078369140625,-2.286342144012451,2.379662036895752
1667266555320468200,0.32946826171875,9.083154678344727,-2.2432711124420166,2.465803623199463
1667266555322866200,0.3318662109375,9.09990406036377,-2.2025933265686035,2.566601276397705
1667266555325264000,0.334263916015625,9.116654396057129,-2.166700839996338,2.6647071838378906
1667266555327661800,0.336661865234375,9.107083320617676,-2.152343988418579,2.7508487701416016
1667266555330059500,0.3390595703125,9.09272575378418,-2.149951219558716,2.834597587585449
1667266555332457500,0.34145751953125,9.049654960632324,-2.118844509124756,2.903989315032959
1667266555334855200,0.343855224609375,9.001798629760742,-2.1236300468444824,2.944667339324951
1667266555337252900,0.3462529296875,8.934800148010254,-2.135594129562378,2.9949166774749756
1667266555339650800,0.34865087890625,8.874979019165039,-2.152343988418579,3.028416156768799
1667266555342048500,0.351048583984375,8.788837432861328,-2.1643080711364746,3.0427730083465576
1667266555344446500,0.353446533203125,8.72183895111084,-2.204986095428467,3.061915636062622
1667266555346844200,0.35584423828125,8.65932559967041,-2.2337000370025635,3.05234432220459
1667266555349242000,0.3582421875,8.582756042480469,-2.255235433578491,3.0236306190490723
1667266555351639800,0.360639892578125,8.501399993896484,-2.2648067474365234,2.9925239086151123
1667266555354037800,0.363037841796875,8.429615020751953,-2.2911276817321777,2.9638099670410156
1667266555356435500,0.365435546875,8.376973152160645,-2.310270309448242,2.92073917388916
1667266555358833400,0.36783349609375,8.305188179016113,-2.3222343921661377,2.8944180011749268
1667266555361231000,0.370231201171875,8.223832130432129,-2.3365912437438965,2.8585257530212402
1667266555363628800,0.37262890625,8.17119026184082,-2.341377019882202,2.8058836460113525
1667266555366026800,0.37502685546875,8.115856170654297,-2.3126630783081055,2.7747769355773926
1667266555368424400,0.377424560546875,8.075178146362305,-2.334198474884033,2.7508487701416016
1667266555370822400,0.379822509765625,8.063214302062988,-2.324627161026001,2.724527597427368
1667266555373220000,0.38222021484375,8.082356452941895,-2.3150558471679688,2.705385208129883
1667266555375618000,0.3846181640625,8.12542724609375,-2.3126630783081055,2.722134828567505
1667266555378015700,0.387015625,8.16401195526123,-2.3054845333099365,2.729313373565674
1667266555380413400,0.389413330078125,8.231010437011719,-2.2959132194519043,2.7412774562835693
1667266555382811400,0.391811279296875,8.293224334716797,-2.2719850540161133,2.746062994003296
1667266555385209000,0.394208984375,8.369794845581055,-2.2576282024383545,2.7747769355773926
1667266555387607000,0.39660693359375,8.44157886505127,-2.2911276817321777,2.8226335048675537
1667266555390004700,0.399004638671875,8.496614456176758,-2.310270309448242,2.839383125305176
1667266555392402700,0.401402587890625,8.546863555908203,-2.334198474884033,2.848954439163208
1667266555394800400,0.40380029296875,8.592327117919922,-2.3844478130340576,2.863311290740967
1667266555397198000,0.406197998046875,8.601898193359375,-2.427518606185913,2.8920252323150635
1667266555399596000,0.408595947265625,8.604290962219238,-2.4466612339019775,2.8776683807373047
1667266555401993700,0.41099365234375,8.594719886779785,-2.5112674236297607,2.8537402153015137
1667266555404391700,0.4133916015625,8.592327117919922,-2.564208507537842,2.8202404975891113
1667266555406789400,0.415789306640625,8.554041862487793,-2.588136672973633,2.7819554805755615
1667266555409187300,0.418187255859375,8.499007225036621,-2.612065076828003,2.7269206047058105
1667266555411585000,0.4205849609375,8.465507507324219,-2.6336004734039307,2.676671266555786
1667266555413982700,0.422982666015625,8.424829483032227,-2.6623141765594482,2.628814697265625
1667266555416380700,0.425380615234375,8.384151458740234,-2.6718854904174805,2.5833511352539062
1667266555418778400,0.4277783203125,8.369794845581055,-2.669492721557617,2.533101797103882
1667266555421176300,0.43017626953125,8.365009307861328,-2.674278497695923,2.4681966304779053
1667266555423574000,0.432573974609375,8.348258972167969,-2.6886353492736816,2.420340061187744
1667266555425972000,0.434971923828125,8.372187614440918,-2.6814568042755127,2.396411895751953
1667266555428369700,0.43736962890625,8.432007789611816,-2.691028118133545,2.365305185317993
1667266555430767600,0.439767578125,8.499007225036621,-2.6647071838378906,2.348555326461792
1667266555433165300,0.442165283203125,8.56600570678711,-2.6647071838378906,2.341377019882202
1667266555435563300,0.444563232421875,8.68325424194336,-2.6623141765594482,2.365305185317993
1667266555437961000,0.4469609375,8.776873588562012,-2.6551358699798584,2.3988046646118164
1667266555440358700,0.449358642578125,8.839086532592773,-2.667099952697754,2.4323041439056396
1667266555442756600,0.451756591796875,8.930013656616211,-2.676671266555786,2.4777679443359375
1667266555445154300,0.454154296875,8.994620323181152,-2.669492721557617,2.5307090282440186
1667266555447552300,0.45655224609375,9.052047729492188,-2.6886353492736816,2.597707986831665
1667266555449950000,0.458949951171875,9.109476089477539,-2.700599431991577,2.6168506145477295
1667266555452347600,0.46134765625,9.159725189208984,-2.6886353492736816,2.659921407699585
1667266555454745600,0.46374560546875,9.183652877807617,-2.676671266555786,2.676671266555786
1667266555457143300,0.466143310546875,9.212367057800293,-2.6886353492736816,2.7029922008514404
1667266555459541200,0.468541259765625,9.241081237792969,-2.6790640354156494,2.7340989112854004
1667266555461939000,0.47093896484375,9.253045082092285,-2.6814568042755127,2.753241539001465
1667266555464337000,0.4733369140625,9.241081237792969,-2.674278497695923,2.769991397857666
1667266555466734600,0.475734619140625,9.200403213500977,-2.7125635147094727,2.7819554805755615
1667266555469132300,0.47813232421875,9.131011009216309,-2.707777976989746,2.8226335048675537
1667266555471530200,0.4805302734375,9.068798065185547,-2.738884687423706,2.8441689014434814
1667266555473928000,0.482927978515625,8.997013092041016,-2.753241539001465,2.863311290740967
1667266555476326000,0.485325927734375,8.903693199157715,-2.7723841667175293,2.896811008453369
1667266555478723600,0.4877236328125,8.81515884399414,-2.793919563293457,2.9255247116088867
1667266555481121500,0.49012158203125,8.714659690856934,-2.8298118114471436,2.9374887943267822
1667266555483519200,0.492519287109375,8.633005142211914,-2.863311290740967,2.927917718887329
1667266555485917000,0.4949169921875,8.55882740020752,-2.8609185218811035,2.918346405029297
1667266555488315000,0.49731494140625,8.475078582763672,-2.848954439163208,2.896811008453369
1667266555490712600,0.499712646484375,8.393722534179688,-2.841775894165039,2.8585257530212402
1667266555493110500,0.502110595703125,8.338687896728516,-2.8441689014434814,2.834597587585449
1667266555495508200,0.50450830078125,8.293224334716797,-2.817847728729248,2.8058836460113525
1667266555497906200,0.50690625,8.2788667678833,-2.8034908771514893,2.793919563293457
1667266555500304000,0.509303955078125,8.264510154724121,-2.7819554805755615,2.762812852859497
1667266555502701800,0.511701904296875,8.266902923583984,-2.7675983905792236,2.738884687423706
1667266555505099500,0.514099609375,8.28126049041748,-2.7819554805755615,2.700599431991577
1667266555507497500,0.51649755859375,8.290831565856934,-2.784348249435425,2.6862425804138184
1667266555509895200,0.518895263671875,8.283653259277344,-2.784348249435425,2.6814568042755127
1667266555512292900,0.52129296875,8.274081230163574,-2.7891337871551514,2.7029922008514404
1667266555514690800,0.52369091796875,8.257331848144531,-2.7915267944335938,2.7101707458496094
1667266555517088500,0.526088623046875,8.247760772705078,-2.801098108291626,2.714956283569336
1667266555519486500,0.528486572265625,8.211868286132812,-2.8154549598693848,2.7484560012817383
1667266555521884200,0.53088427734375,8.180761337280273,-2.8274190425872803,2.7795627117156982
1667266555524282000,0.5332822265625,8.149654388427734,-2.839383125305176,2.8058836460113525
1667266555526679800,0.5356796875,8.130212783813477,-2.832204818725586,2.8298118114471436
1667266555529077500,0.538077392578125,8.084749221801758,-2.810669183731079,2.832204818725586
1667266555531475500,0.540475341796875,8.053643226623535,-2.7987051010131836,2.863311290740967
1667266555533873200,0.542873046875,8.051250457763672,-2.784348249435425,2.865704298019409
1667266555536271000,0.54527099609375,8.03210735321045,-2.7747769355773926,2.8896324634552
1667266555538668800,0.547668701171875,8.053643226623535,-2.762812852859497,2.913560628890991
1667266555541066800,0.550066650390625,8.079963684082031,-2.7675983905792236,2.944667339324951
1667266555543464400,0.55246435546875,8.09671401977539,-2.7508487701416016,2.949453115463257
1667266555545862100,0.554862060546875,8.140083312988281,-2.722134828567505,2.9470601081848145
1667266555548260000,0.557260009765625,8.183154106140137,-2.691028118133545,2.9638099670410156
1667266555550657800,0.55965771484375,8.204689979553223,-2.693420886993408,2.9709885120391846
1667266555553055700,0.5620556640625,8.221439361572266,-2.676671266555786,2.9709885120391846
1667266555555453400,0.564453369140625,8.238189697265625,-2.6862425804138184,2.975774049758911
1667266555557851400,0.566851318359375,8.231010437011719,-2.6814568042755127,2.9709885120391846
1667266555560249000,0.5692490234375,8.221439361572266,-2.6862425804138184,2.9542386531829834
1667266555562646800,0.571646728515625,8.20947551727295,-2.691028118133545,2.973381280899048
1667266555565044700,0.574044677734375,8.17119026184082,-2.698206663131714,2.968595504760742
1667266555567442400,0.5764423828125,8.154440879821777,-2.700599431991577,2.9542386531829834
1667266555569840400,0.57884033203125,8.13260555267334,-2.729313373565674,2.9398818016052246
1667266555572238000,0.581238037109375,8.077570915222168,-2.7675983905792236,2.9327032566070557
1667266555574636000,0.583635986328125,8.044071197509766,-2.786741018295288,2.92073917388916
1667266555577033700,0.58603369140625,7.991429328918457,-2.8154549598693848,2.8776683807373047
1667266555579431700,0.588431640625,7.953144073486328,-2.8226335048675537,2.880061149597168
1667266555581829400,0.590829345703125,7.9316086769104,-2.810669183731079,2.8274190425872803
1667266555584227000,0.59322705078125,7.881359577178955,-2.8154549598693848,2.7987051010131836
1667266555586625000,0.595625,7.8287177085876465,-2.810669183731079,2.786741018295288
1667266555589022700,0.598022705078125,7.788039684295654,-2.7891337871551514,2.8034908771514893
1667266555591420700,0.600420654296875,7.771289825439453,-2.760420083999634,2.817847728729248
1667266555593818400,0.602818359375,7.718647480010986,-2.7508487701416016,2.834597587585449
1667266555596216300,0.60521630859375,7.675576686859131,-2.729313373565674,2.841775894165039
1667266555598614000,0.607614013671875,7.630113124847412,-2.7173492908477783,2.8752756118774414
1667266555601011700,0.61001171875,7.613363265991211,-2.714956283569336,2.8776683807373047
1667266555603409700,0.61240966796875,7.5942206382751465,-2.707777976989746,2.887239694595337
1667266555605807400,0.614807373046875,7.574779033660889,-2.729313373565674,2.911167860031128
1667266555608205300,0.617205322265625,7.5652079582214355,-2.7675983905792236,2.9398818016052246
1667266555610603000,0.61960302734375,7.58225679397583,-2.7795627117156982,2.9566314220428467
1667266555613001000,0.6220009765625,7.579864025115967,-2.832204818725586,2.9638099670410156
1667266555615398700,0.624398681640625,7.572386264801025,-2.8896324634552,2.9566314220428467
1667266555617796400,0.62679638671875,7.555636405944824,-2.9542386531829834,2.9542386531829834
1667266555620194300,0.6291943359375,7.548458099365234,-2.9925239086151123,2.944667339324951
1667266555622592000,0.631592041015625,7.524529933929443,-3.0164520740509033,2.9159533977508545
1667266555624990000,0.633989990234375,7.514958381652832,-3.0116662979125977,2.8992037773132324
1667266555627387600,0.6363876953125,7.512565612792969,-2.9781668186187744,2.8920252323150635
1667266555629785600,0.63878564453125,7.505387306213379,-2.9374887943267822,2.834597587585449
1667266555632183300,0.641183349609375,7.526922702789307,-2.944667339324951,2.7197420597076416
1667266555634581000,0.6435810546875,7.512565612792969,-2.98295259475708,2.6407787799835205
1667266555636979000,0.64597900390625,7.45992374420166,-3.030808925628662,2.597707986831665
1667266555639376600,0.648376708984375,7.3761749267578125,-3.0810582637786865,2.604886531829834
1667266555641774600,0.650774658203125,7.285247802734375,-3.1076784133911133,2.621636390686035
1667266555644172300,0.65317236328125,7.182356357574463,-3.1339993476867676,2.645564556121826
1667266555646570200,0.6555703125,7.115357398986816,-3.19860577583313,2.669492721557617
1667266555648968000,0.657968017578125,7.048357963562012,-3.2297122478485107,2.6718854904174805
1667266555651366000,0.660365966796875,6.990631580352783,-3.2656047344207764,2.6647071838378906
1667266555653763600,0.662763671875,6.981060028076172,-3.279961585998535,2.6718854904174805
1667266555656161300,0.665161376953125,6.964310169219971,-3.301496982574463,2.6312077045440674
1667266555658559200,0.667559326171875,6.935596466064453,-3.308675527572632,2.6096723079681396
1667266555660957000,0.66995703125,6.911668300628662,-3.301496982574463,2.5833511352539062
1667266555663355000,0.67235498046875,6.926024913787842,-3.294318675994873,2.5378875732421875
1667266555665752600,0.674752685546875,6.937989234924316,-3.270390272140503,2.5546371936798096
1667266555668150500,0.677150634765625,6.981060028076172,-3.2416765689849854,2.5857439041137695
1667266555670548200,0.67954833984375,7.0292158126831055,-3.1962127685546875,2.6336004734039307
1667266555672946200,0.6819462890625,7.098607540130615,-3.177070379257202,2.669492721557617
1667266555675344000,0.68434375,7.1871418952941895,-3.1579277515411377,2.714956283569336
1667266555677741600,0.686741455078125,7.309175968170166,-3.160320520401001,2.769991397857666
1667266555680139500,0.689139404296875,7.431210041046143,-3.1627132892608643,2.8513472080230713
1667266555682537200,0.691537109375,7.546065330505371,-3.232105255126953,2.927917718887329
1667266555684935200,0.69393505859375,7.694719314575195,-3.2895328998565674,2.9853453636169434
1667266555687332900,0.696332763671875,7.800003528594971,-3.3541390895843506,3.0643084049224854
1667266555689730800,0.698730712890625,7.929215908050537,-3.442673683166504,3.119642496109009
1667266555692128500,0.70112841796875,8.058428764343262,-3.528815269470215,3.1435706615448
1667266555694526200,0.703526123046875,8.185546875,-3.6197423934936523,3.169891834259033
1667266555696924200,0.705924072265625,8.333902359008789,-3.6966118812561035,3.1746773719787598
1667266555699321900,0.70832177734375,8.496614456176758,-3.7755749225616455,3.145963668823242
1667266555701719800,0.7107197265625,8.666504859924316,-3.8521454334259033,3.1100711822509766
1667266555704117500,0.713117431640625,8.819944381713867,-3.9263229370117188,3.0643084049224854
1667266555706515200,0.71551513671875,8.97787094116211,-4.033999919891357,3.0020952224731445
1667266555708913200,0.7179130859375,9.119047164916992,-4.127319812774658,2.949453115463257
1667266555711310800,0.720310791015625,9.272486686706543,-4.2209391593933105,2.903989315032959
1667266555713708800,0.722708740234375,9.382556915283203,-4.285545349121094,2.865704298019409
1667266555716106500,0.7251064453125,9.50459098815918,-4.340580463409424,2.848954439163208
1667266555718504400,0.72750439453125,9.588339805603027,-4.41475772857666,2.832204818725586
1667266555720902100,0.729902099609375,9.676874160766602,-4.48414945602417,2.8513472080230713
1667266555723300000,0.732300048828125,9.7366943359375,-4.522434711456299,2.8680970668792725
1667266555725697800,0.73469775390625,9.774979591369629,-4.570291042327881,2.9303104877471924
1667266555728095700,0.737095703125,9.789336204528809,-4.579862594604492,3.0164520740509033
1667266555730493400,0.739493408203125,9.786943435668945,-4.575077056884766,3.1100711822509766
1667266555732891100,0.74189111328125,9.75105094909668,-4.613361835479736,3.246462106704712
1667266555735289000,0.7442890625,9.696016311645508,-4.632504463195801,3.373281717300415
1667266555737686800,0.746686767578125,9.602696418762207,-4.6372904777526855,3.4953157901763916
1667266555740084700,0.749084716796875,9.506983757019043,-4.615755081176758,3.6583266258239746
1667266555742482400,0.751482421875,9.38016414642334,-4.618147850036621,3.78753924369812
1667266555744880400,0.75388037109375,9.27009391784668,-4.613361835479736,3.904787540435791
1667266555747278000,0.756278076171875,9.166903495788574,-4.589433670043945,3.9789650440216064
1667266555749675800,0.75867578125,9.078369140625,-4.563112735748291,4.036392688751221
1667266555752073700,0.76107373046875,9.001798629760742,-4.500899314880371,4.079463481903076
1667266555754471400,0.763471435546875,8.927620887756348,-4.41475772857666,4.108177185058594
1667266555756869400,0.765869384765625,8.86062240600586,-4.335794448852539,4.110570430755615
1667266555759267000,0.76826708984375,8.819944381713867,-4.254438877105713,4.127319812774658
1667266555761665000,0.7706650390625,8.776873588562012,-4.151247978210449,4.134498596191406
1667266555764062700,0.773062744140625,8.72183895111084,-4.055535316467285,4.16799783706665
1667266555766460400,0.77546044921875,8.707481384277344,-3.9622151851654053,4.187140464782715
1667266555768858400,0.7778583984375,8.731410026550293,-3.842574119567871,4.230510234832764
1667266555771256000,0.780256103515625,8.755337715148926,-3.7253258228302,4.247260093688965
1667266555773654000,0.782654052734375,8.824729919433594,-3.5886356830596924,4.309473514556885
1667266555776051700,0.7850517578125,8.927620887756348,-3.466601848602295,4.369294166564941
1667266555778449700,0.78744970703125,9.080761909484863,-3.3541390895843506,4.450650215148926
1667266555780847400,0.789847412109375,9.27009391784668,-3.239283561706543,4.543970108032227
1667266555783245300,0.792245361328125,9.48784065246582,-3.145963668823242,4.658825874328613
1667266555785643000,0.79464306640625,9.72233772277832,-3.08345103263855,4.752145767211914
1667266555788040700,0.797040771484375,9.964311599731445,-3.05234432220459,4.845765113830566
1667266555790438700,0.799438720703125,10.232307434082031,-3.059522867202759,4.939085006713867
1667266555792836400,0.80183642578125,10.469496726989746,-3.061915636062622,5.00369119644165
1667266555795234300,0.804234375,10.694421768188477,-3.1148569583892822,5.056333541870117
1667266555797632000,0.806632080078125,10.893026351928711,-3.1746773719787598,5.0587263107299805
1667266555800030000,0.809030029296875,11.065608024597168,-3.246462106704712,5.044369220733643
1667266555802427600,0.811427734375,11.235498428344727,-3.325425386428833,4.991727352142334
1667266555804825600,0.81382568359375,11.3718900680542,-3.397209882736206,4.924727916717529
1667266555807223300,0.816223388671875,11.462817192077637,-3.4618160724639893,4.833800792694092
1667266555809621000,0.81862109375,11.53250789642334,-3.514458179473877,4.701896667480469
1667266555812019000,0.82101904296875,11.580364227294922,-3.583850145339966,4.570291042327881
1667266555814416600,0.823416748046875,11.599507331848145,-3.6583266258239746,4.398007869720459
1667266555816814600,0.825814697265625,11.604292869567871,-3.7588253021240234,4.249652862548828
1667266555819212300,0.82821240234375,11.580364227294922,-3.849752426147461,4.065106391906738
1667266555821610200,0.8306103515625,11.537293434143066,-3.952643871307373,3.8617167472839355
1667266555824008000,0.833008056640625,11.501102447509766,-4.048357009887695,3.670290946960449
1667266555826405600,0.835405517578125,11.474781036376953,-4.16799783706665,3.4809587001800537
1667266555828803600,0.837803466796875,11.436495780944824,-4.244867324829102,3.308675527572632
1667266555831201300,0.840201171875,11.376675605773926,-4.328616142272949,3.1268210411071777
1667266555833599200,0.84259912109375,11.33360481262207,-4.3788652420043945,2.927917718887329
1667266555835997000,0.844996826171875,11.290534019470215,-4.450650215148926,2.7436702251434326
1667266555838395000,0.847394775390625,11.271390914916992,-4.515256404876709,2.564208507537842
1667266555840792600,0.84979248046875,11.307283401489258,-4.54636287689209,2.4131617546081543
1667266555843190300,0.852190185546875,11.364710807800293,-4.565505504608154,2.2671995162963867
1667266555845588200,0.854588134765625,11.436495780944824,-4.610969066619873,2.149951219558716
1667266555847986000,0.85698583984375,11.527722358703613,-4.639683246612549,2.0614166259765625
1667266555850384000,0.8593837890625,11.601900100708008,-4.658825874328613,1.9776679277420044
1667266555852781600,0.861781494140625,11.659327507019043,-4.701896667480469,1.903191328048706
1667266555855179500,0.864179443359375,11.719147682189941,-4.754538536071777,1.8026927709579468
1667266555857577200,0.8665771484375,11.740683555603027,-4.802694320678711,1.7261223793029785
1667266555859975200,0.86897509765625,11.769397735595703,-4.836193561553955,1.6615161895751953
1667266555862372900,0.871372802734375,11.75025463104248,-4.84815788269043,1.6064813137054443
1667266555864770800,0.873770751953125,11.700005531311035,-4.864907741546631,1.5418751239776611
1667266555867168500,0.87616845703125,11.616256713867188,-4.867300510406494,1.4605190753936768
1667266555869566200,0.878566162109375,11.520544052124023,-4.864907741546631,1.3621143102645874
1667266555871964200,0.880964111328125,11.417353630065918,-4.84815788269043,1.2592228651046753
1667266555874361900,0.88336181640625,11.307283401489258,-4.781158924102783,1.170688509941101
1667266555876759800,0.885759765625,11.190034866333008,-4.680361270904541,1.1132607460021973
1667266555879157500,0.888157470703125,11.075180053710938,-4.575077056884766,1.0821540355682373
1667266555881555200,0.89055517578125,10.96032428741455,-4.4482574462890625,1.072582721710205
1667266555883953200,0.892953125,10.830812454223633,-4.342973232269287,1.1228320598602295
1667266555886350800,0.895350830078125,10.67288589477539,-4.230510234832764,1.2113664150238037
1667266555888748800,0.897748779296875,10.526924133300781,-4.117748737335205,1.316650629043579
1667266555891146500,0.900146484375,10.385747909545898,-4.036392688751221,1.4676976203918457
1667266555893544400,0.90254443359375,10.284950256347656,-3.928715705871582,1.623231053352356
1667266555895942100,0.904942138671875,10.227521896362305,-3.840181350708008,1.8218353986740112
1667266555898339800,0.90733984375,10.24905776977539,-3.7444684505462646,2.008774518966675
1667266555900737800,0.90973779296875,10.356734275817871,-3.6125640869140625,2.183450698852539
1667266555903135500,0.912135498046875,10.524531364440918,-3.514458179473877,2.348555326461792
1667266555905533400,0.914533447265625,10.727921485900879,-3.4163525104522705,2.4538395404815674
1667266555907931100,0.91693115234375,10.953145980834961,-3.349353551864624,2.549851655960083
1667266555910329000,0.9193291015625,11.168499946594238,-3.315854072570801,2.635993242263794
1667266555912726800,0.921726806640625,11.35513973236084,-3.294318675994873,2.707777976989746
1667266555915124700,0.924124755859375,11.496315956115723,-3.277568817138672,2.8130621910095215
1667266555917522400,0.9265224609375,11.644970893859863,-3.2512478828430176,2.9231319427490234
1667266555919920400,0.92892041015625,11.723933219909668,-3.2201411724090576,3.028416156768799
1667266555922318000,0.931318115234375,11.77418327331543,-3.208176851272583,3.1172497272491455
1667266555924715800,0.9337158203125,11.752647399902344,-3.19860577583313,3.2033913135528564
1667266555927113700,0.93611376953125,11.726326942443848,-3.16749906539917,3.2895328998565674
1667266555929511400,0.938511474609375,11.716754913330078,-3.1579277515411377,3.3684961795806885
1667266555931909400,0.940909423828125,11.680862426757812,-3.1435706615448,3.4737801551818848
1667266555934307000,0.94330712890625,11.642578125,-3.1435706615448,3.5886356830596924
1667266555936705000,0.945705078125,11.580364227294922,-3.1579277515411377,3.677469253540039
1667266555939102700,0.948102783203125,11.566007614135742,-3.2129626274108887,3.7420754432678223
1667266555941500400,0.95050048828125,11.585149765014648,-3.248854875564575,3.75643253326416
1667266555943898400,0.9528984375,11.585149765014648,-3.325425386428833,3.7683966159820557
1667266555946296000,0.955296142578125,11.599507331848145,-3.3828530311584473,3.749253988265991
1667266555948694000,0.957694091796875,11.601900100708008,-3.435495138168335,3.7181472778320312
1667266555951091700,0.960091796875,11.630613327026367,-3.514458179473877,3.684647798538208
1667266555953489700,0.96248974609375,11.67846965789795,-3.593421459197998,3.6511483192443848
1667266555955887400,0.964887451171875,11.752647399902344,-3.6798620223999023,3.6125640869140625
1667266555958285000,0.96728515625,11.838788986206055,-3.7755749225616455,3.545564889907837
1667266555960683000,0.96968310546875,11.927323341369629,-3.8545382022857666,3.4785659313201904
1667266555963080700,0.972080810546875,12.023036003112793,-3.9143588542938232,3.397209882736206
1667266555965478700,0.974478759765625,12.111869812011719,-3.9813578128814697,3.3302109241485596
1667266555967876400,0.97687646484375,12.186047554016113,-4.062713623046875,3.284747362136841
1667266555970274300,0.9792744140625,12.224332809448242,-4.144069671630859,3.2751760482788086
1667266555972672000,0.981672119140625,12.226725578308105,-4.225724697113037,3.2751760482788086
1667266555975070000,0.984070068359375,12.217154502868652,-4.314259052276611,3.2823543548583984
1667266555977467600,0.986467529296875,12.224332809448242,-4.383651256561279,3.301496982574463
1667266555979865600,0.988865478515625,12.233903884887695,-4.457828521728516,3.3445677757263184
1667266555982263300,0.99126318359375,12.255439758300781,-4.524827480316162,3.411566972732544
1667266555984661000,0.993660888671875,12.29372501373291,-4.596612453460693,3.476173162460327
1667266555987059000,0.996058837890625,12.372687339782715,-4.666004180908203,3.5407793521881104
1667266555989456600,0.99845654296875,12.477972030639648,-4.716253280639648,3.624528169631958
1667266555991854600,1.0008544921875,12.638589859008789,-4.759324073791504,3.7109687328338623
1667266555994252300,1.003252197265625,12.825230598449707,-4.809872627258301,3.8210387229919434
1667266555996650200,1.005650146484375,13.023834228515625,-4.843372344970703,3.9646079540252686
1667266555999048000,1.0080478515625,13.256237030029297,-4.884049892425537,4.1129631996154785
1667266556001445600,1.010445556640625,13.567304611206055,-4.9175496101379395,4.273581027984619
1667266556003843600,1.012843505859375,13.964812278747559,-4.979763031005859,4.433900356292725
1667266556006241300,1.0152412109375,14.450854301452637,-5.032404899597168,4.599005222320557
1667266556008639200,1.01763916015625,15.01107406616211,-5.0826544761657715,4.833800792694092
1667266556011037000,1.020036865234375,15.619150161743164,-5.180759906768799,5.068297386169434
1667266556013435000,1.022434814453125,16.291831970214844,-5.266901969909668,5.305186748504639
1667266556015832600,1.02483251953125,17.024333953857422,-5.372485160827637,5.547161102294922
1667266556018230300,1.027230224609375,17.749958038330078,-5.482554912567139,5.774479389190674
1667266556020628200,1.029628173828125,18.484853744506836,-5.585446357727051,5.980561256408691
1667266556023026000,1.03202587890625,19.198213577270508,-5.705087184906006,6.203093528747559
1667266556025424000,1.034423828125,19.89961051940918,-5.8749775886535645,6.408876419067383
1667266556027821600,1.036821533203125,20.608484268188477,-6.093023777008057,6.583851337432861
1667266556030219500,1.039219482421875,20.799909591674805,-6.341877460479736,6.6006011962890625
1667266556032617200,1.0416171875,20.905193328857422,-6.579065799713135,6.674778938293457
1667266556035015200,1.04401513671875,21.400808334350586,-6.794419765472412,6.667600154876709
1667266556037412900,1.046412841796875,22.13809585571289,-6.990631580352783,6.569494724273682
1667266556039810800,1.048810791015625,23.03360939025879,-7.084250450134277,6.28205680847168
1667266556042208500,1.05120849609375,23.723041534423828,-7.215855598449707,6.035595893859863
1667266556044606200,1.053606201171875,24.24736976623535,-7.450352191925049,5.925526142120361
1667266556047004200,1.056004150390625,24.625734329223633,-7.682755470275879,5.827121257781982
1667266556049401900,1.05840185546875,24.970300674438477,-7.859824180603027,5.726622581481934
1667266556051799800,1.0607998046875,25.217060089111328,-7.979465484619141,5.602196216583252
1667266556054197500,1.063197509765625,25.439592361450195,-7.99382209777832,5.44426965713501
1667266556056595200,1.06559521484375,25.71506690979004,-7.9244303703308105,5.269294738769531
1667266556058993200,1.0679931640625,25.911277770996094,-7.800003528594971,5.085047245025635
1667266556061390800,1.070390869140625,25.7318172454834,-7.632505893707275,4.903192520141602
1667266556063788800,1.072788818359375,25.2601318359375,-7.46710205078125,4.752145767211914
1667266556066186500,1.0751865234375,24.63051986694336,-7.239784240722656,4.59421968460083
1667266556068584400,1.07758447265625,23.888444900512695,-6.983452796936035,4.46979284286499
1667266556070982100,1.079982177734375,23.06232452392578,-6.756134510040283,4.364508628845215
1667266556073380000,1.082380126953125,22.1671085357666,-6.521637916564941,4.230510234832764
1667266556075777800,1.08477783203125,21.295522689819336,-6.310770511627197,4.091427803039551
1667266556078175500,1.087175537109375,20.507986068725586,-6.128916263580322,3.928715705871582
1667266556080573400,1.089573486328125,19.76800537109375,-5.930311679840088,3.75643253326416
1667266556082971100,1.09197119140625,19.12403678894043,-5.733801364898682,3.583850145339966
1667266556085369000,1.094369140625,18.487247467041016,-5.549553871154785,3.4019956588745117
1667266556087766800,1.096766845703125,17.95334815979004,-5.317151069641113,3.1722846031188965
1667266556090164700,1.099164794921875,17.400306701660156,-5.1209397315979,2.944667339324951
1667266556092562400,1.1015625,16.789838790893555,-4.963013172149658,2.7269206047058105
1667266556094960400,1.10396044921875,16.17936897277832,-4.800301551818848,2.4705893993377686
1667266556097358000,1.106358154296875,15.62393569946289,-4.632504463195801,2.1882362365722656
1667266556099755800,1.108755859375,15.094822883605957,-4.450650215148926,1.9079769849777222
1667266556102153700,1.11115380859375,14.551352500915527,-4.268795490264893,1.6998014450073242
1667266556104551400,1.113551513671875,14.170595169067383,-3.9957146644592285,1.4676976203918457
1667266556106949400,1.115949462890625,13.881063461303711,-3.749253988265991,1.2352946996688843
1667266556109347000,1.11834716796875,13.596017837524414,-3.545564889907837,1.0917253494262695
1667266556111745000,1.1207451171875,13.304094314575195,-3.3684961795806885,1.0055837631225586
1667266556114142700,1.123142822265625,13.033406257629395,-3.1890344619750977,1.0199406147003174
1667266556116540400,1.12554052734375,12.839587211608887,-3.045166015625,1.0821540355682373
1667266556118938400,1.1279384765625,12.686446189880371,-2.9303104877471924,1.2089736461639404
1667266556121336000,1.130336181640625,12.585648536682129,-2.841775894165039,1.3716856241226196
1667266556123734000,1.132734130859375,12.542577743530273,-2.817847728729248,1.5705889463424683
1667266556126131700,1.135131591796875,12.592827796936035,-2.8776683807373047,1.7356936931610107
1667266556128529700,1.13752978515625,12.71755313873291,-3.0188448429107666,1.8266209363937378
1667266556130927400,1.13992724609375,12.916157722473145,-3.2057840824127197,1.86729896068573
1667266556133325300,1.1423251953125,13.165011405944824,-3.428316593170166,1.8457635641098022
1667266556135723000,1.144722900390625,13.473984718322754,-3.6487553119659424,1.7404793500900269
1667266556138121000,1.147120849609375,13.814064025878906,-3.849752426147461,1.6016956567764282
1667266556140518700,1.1495185546875,14.172987937927246,-4.048357009887695,1.438983678817749
1667266556142916400,1.151916259765625,14.529817581176758,-4.247260093688965,1.287936806678772
1667266556145314300,1.154314208984375,14.860026359558105,-4.4482574462890625,1.194616675376892
1667266556147712000,1.1567119140625,15.202499389648438,-4.697110652923584,1.1084750890731812
1667266556150110000,1.15910986328125,15.523436546325684,-4.967798709869385,1.0295119285583496
1667266556152507600,1.161507568359375,15.848860740661621,-5.281258583068848,0.9840483069419861
1667266556154905600,1.163905517578125,16.198511123657227,-5.669195175170898,0.9385846853256226
1667266556157303300,1.16630322265625,16.538291931152344,-6.061916828155518,0.9074779748916626
1667266556159701000,1.168700927734375,16.861623764038086,-6.504888534545898,0.8715856671333313
1667266556162099000,1.171098876953125,17.120346069335938,-6.952346324920654,0.8428717851638794
1667266556164496600,1.17349658203125,17.385950088500977,-7.385746002197266,0.7923234105110168
1667266556166894600,1.17589453125,17.59891128540039,-7.76889705657959,0.7181459069252014
1667266556169292300,1.178292236328125,17.77867317199707,-8.161619186401367,0.6391827464103699
1667266556171690200,1.180690185546875,17.895919799804688,-8.518149375915527,0.5530411601066589
1667266556174088000,1.183087890625,18.003597259521484,-8.8438720703125,0.4334000051021576
1667266556176485600,1.185485595703125,18.015562057495117,-9.145368576049805,0.2994019389152527
1667266556178883600,1.187883544921875,17.984455108642578,-9.435198783874512,0.15553347766399384
1667266556181281300,1.19028125,17.927026748657227,-9.72951602935791,-0.016749758273363113
1667266556183679200,1.19267919921875,17.86481475830078,-9.954740524291992,-0.17946170270442963
1667266556186077000,1.195076904296875,17.77867317199707,-10.13180923461914,-0.33050861954689026
1667266556188475000,1.197474853515625,17.66112518310547,-10.28016471862793,-0.4549354016780853
1667266556190872600,1.19987255859375,17.52712631225586,-10.383355140686035,-0.5362913608551025
1667266556193270500,1.2022705078125,17.259130477905273,-10.445568084716797,-0.5362913608551025
1667266556195668200,1.204668212890625,16.543079376220703,-10.491031646728516,-0.4094717800617218
1667266556198066200,1.207066162109375,16.215261459350586,-10.400104522705078,-0.3089732229709625
1667266556200464000,1.2094638671875,15.973287582397461,-10.232307434082031,-0.1746760457754135
1667266556202861600,1.211861572265625,15.779468536376953,-10.033703804016113,-0.014356935396790504
1667266556205259500,1.214259521484375,15.65264892578125,-9.779765129089355,0.22013968229293823
1667266556207657200,1.2166572265625,15.53779411315918,-9.514162063598633,0.5195416212081909
1667266556210055200,1.21905517578125,15.417853355407715,-9.214759826660156,0.8353942036628723
1667266556212452900,1.221452880859375,15.343676567077637,-8.937192916870117,1.1994023323059082
1667266556214850800,1.223850830078125,15.264713287353516,-8.671290397644043,1.572981834411621
1667266556217248500,1.22624853515625,15.12592887878418,-8.417651176452637,1.9752750396728516
1667266556219646200,1.228646240234375,15.042180061340332,-8.15683364868164,2.389233350753784
1667266556222044200,1.231044189453125,14.797813415527344,-7.941180229187012,2.7963123321533203
1667266556224441900,1.23344189453125,14.417354583740234,-7.7353973388671875,3.193819999694824
1667266556226839800,1.23583984375,13.979168891906738,-7.5341010093688965,3.528815269470215
1667266556229237500,1.238237548828125,13.51705551147461,-7.340282440185547,3.804288864135742
1667266556231635500,1.240635498046875,13.1123685836792,-7.175177574157715,3.976572036743164
1667266556234033200,1.243033203125,12.770195007324219,-6.990631580352783,4.069892406463623
1667266556236431000,1.24543115234375,12.456436157226562,-6.849454879760742,4.079463481903076
1667266556238828800,1.247828857421875,12.193225860595703,-6.732206344604492,4.062713623046875
1667266556241226500,1.2502265625,11.960823059082031,-6.617351055145264,3.967000722885132
1667266556243624400,1.25262451171875,11.747861862182617,-6.519245147705078,3.8377883434295654
1667266556246022100,1.255022216796875,11.566007614135742,-6.451947212219238,3.6870405673980713
1667266556248420000,1.257420166015625,11.357532501220703,-6.404090881347656,3.5264222621917725
1667266556250817800,1.25981787109375,11.158928871154785,-6.365805625915527,3.356531858444214
1667266556253215700,1.2622158203125,10.955538749694824,-6.322734832763672,3.193819999694824
1667266556255613400,1.264613525390625,10.770992279052734,-6.294020652770996,3.0355947017669678
1667266556258011100,1.26701123046875,10.608280181884766,-6.246164321899414,2.8752756118774414
1667266556260409000,1.2694091796875,10.44796085357666,-6.200700759887695,2.7508487701416016
1667266556262806800,1.271806884765625,10.328021049499512,-6.15045166015625,2.635993242263794
1667266556265204700,1.274204833984375,10.220343589782715,-6.0834527015686035,2.5785655975341797
1667266556267602400,1.2766025390625,10.127023696899414,-5.994917869567871,2.5307090282440186
1667266556270000400,1.27900048828125,10.05284595489502,-5.906383514404297,2.5307090282440186
1667266556272398000,1.281398193359375,9.978668212890625,-5.831906795501709,2.564208507537842
1667266556274796000,1.283796142578125,9.930811882019043,-5.748157978057861,2.6264219284057617
1667266556277193700,1.28619384765625,9.894919395446777,-5.671587944030762,2.7101707458496094
1667266556279591400,1.28859130859375,9.878170013427734,-5.62373161315918,2.817847728729248
1667266556281989400,1.2909892578125,9.873384475708008,-5.580660820007324,2.9063823223114014
1667266556284387000,1.293386962890625,9.878170013427734,-5.551946640014648,2.9709885120391846
1667266556286785000,1.295784912109375,9.870991706848145,-5.525625705718994,3.0236306190490723
1667266556289182700,1.2981826171875,9.835099220275879,-5.496912002563477,3.0643084049224854
1667266556291580700,1.30058056640625,9.786943435668945,-5.439484119415283,3.0571300983428955
1667266556293978400,1.302978271484375,9.72951602935791,-5.341378211975098,3.01405930519104
1667266556296376300,1.305376220703125,9.664909362792969,-5.250152111053467,2.9566314220428467
1667266556298774000,1.30777392578125,9.59791088104248,-5.140082359313965,2.8776683807373047
1667266556301171700,1.310171630859375,9.509376525878906,-5.022833824157715,2.7891337871551514
1667266556303569700,1.312569580078125,9.411270141601562,-4.905585289001465,2.7029922008514404
1667266556305967400,1.31496728515625,9.298808097839355,-4.790729999542236,2.6192433834075928
1667266556308365300,1.317365234375,9.174081802368164,-4.685146808624268,2.549851655960083
1667266556310763000,1.319762939453125,9.008976936340332,-4.59421968460083,2.475374937057495
1667266556313161000,1.322160888671875,8.82233715057373,-4.515256404876709,2.403590440750122
1667266556315558700,1.32455859375,8.613862037658691,-4.42193603515625,2.3270199298858643
1667266556317956400,1.326956298828125,8.410472869873047,-4.326223373413086,2.2576282024383545
1667266556320354300,1.329354248046875,8.204689979553223,-4.218546390533447,2.159522533416748
1667266556322752000,1.331751953125,7.991429328918457,-4.1057844161987305,2.090130567550659
1667266556325150000,1.33414990234375,7.77607536315918,-3.9957146644592285,2.0063817501068115
1667266556327547600,1.336547607421875,7.579864025115967,-3.842574119567871,1.9486548900604248
1667266556329945600,1.338945556640625,7.380960464477539,-3.6966118812561035,1.89840567111969
1667266556332343300,1.34134326171875,7.203891754150391,-3.524029493331909,1.8744773864746094
1667266556334741200,1.3437412109375,7.012166976928711,-3.3708889484405518,1.8481563329696655
1667266556337139000,1.346138916015625,6.835097789764404,-3.2344980239868164,1.8409779071807861
1667266556339537000,1.348536865234375,6.658029079437256,-3.088535785675049,1.8553348779678345
1667266556341934600,1.3509345703125,6.495316982269287,-2.973381280899048,1.9007984399795532
1667266556344332300,1.353332275390625,6.334698677062988,-2.903989315032959,1.953440546989441
1667266556346730200,1.355730224609375,6.191129684448242,-2.8226335048675537,1.9992033243179321
1667266556349128000,1.3581279296875,6.037988662719727,-2.755634307861328,2.0518453121185303
1667266556351526000,1.36052587890625,5.915955066680908,-2.705385208129883,2.090130567550659
1667266556353923600,1.362923583984375,5.800800323486328,-2.6407787799835205,2.142772674560547
1667266556356321500,1.365321533203125,5.664409637451172,-2.5833511352539062,2.159522533416748
1667266556358719200,1.36771923828125,5.535196781158447,-2.5378875732421875,2.197807550430298
1667266556361117000,1.370116943359375,5.396413326263428,-2.4873390197753906,2.231307029724121
1667266556363515000,1.372514892578125,5.266901969909668,-2.4299113750457764,2.2504496574401855
1667266556365912600,1.37491259765625,5.125725269317627,-2.3509483337402344,2.26959228515625
1667266556368310500,1.377310546875,5.022833824157715,-2.293520450592041,2.286342144012451
1667266556370708200,1.379708251953125,4.915156841278076,-2.2504496574401855,2.2815563678741455
1667266556373106200,1.382106201171875,4.805087089538574,-2.183450698852539,2.26959228515625
1667266556375504000,1.38450390625,4.72582483291626,-2.1164517402648926,2.2193429470062256
1667266556377901800,1.38690185546875,4.6540398597717285,-2.0279171466827393,2.159522533416748
1667266556380299500,1.389299560546875,4.610969066619873,-1.9510477781295776,2.080559253692627
1667266556382697500,1.391697509765625,4.555934429168701,-1.8649061918258667,2.0135602951049805
1667266556385095200,1.39409521484375,4.481756687164307,-1.7883358001708984,1.9390836954116821
1667266556387492900,1.396492919921875,4.319045066833496,-1.709372639656067,1.9007984399795532
1667266556389890800,1.398890869140625,4.194318771362305,-1.6016956567764282,1.8290138244628906
1667266556392288500,1.40128857421875,4.124927043914795,-1.537089467048645,1.7668004035949707
1667266556394686500,1.4036865234375,4.0435709953308105,-1.470090389251709,1.7404793500900269
1667266556397084200,1.406084228515625,3.9717864990234375,-1.3908281326293945,1.721336841583252
1667266556399482000,1.408482177734375,3.895216226577759,-1.3310075998306274,1.7237296104431152
1667266556401879800,1.4108798828125,3.780360698699951,-1.2903295755386353,1.7356936931610107
1667266556404277500,1.413277587890625,3.6966118812561035,-1.2640085220336914,1.77397882938385
1667266556406675500,1.415675537109375,3.631706476211548,-1.2664014101028442,1.7787644863128662
1667266556409073200,1.4180732421875,3.5886356830596924,-1.2687941789627075,1.7787644863128662
1667266556411471000,1.42047119140625,3.5886356830596924,-1.2783654928207397,1.776371717453003
1667266556413868800,1.422868896484375,3.6436707973480225,-1.3094722032546997,1.7668004035949707
1667266556416266800,1.425266845703125,3.653541088104248,-1.3142578601837158,1.7572290897369385
1667266556418664400,1.42766455078125,3.677469253540039,-1.3310075998306274,1.7596219778060913
1667266556421062100,1.430062255859375,3.70139741897583,-1.3573286533355713,1.7404793500900269
1667266556423460000,1.432460205078125,3.7181472778320312,-1.3932210206985474,1.7189439535140991
1667266556425857800,1.43485791015625,3.739682674407959,-1.4485549926757812,1.6878372430801392
1667266556428255700,1.437255859375,3.811467409133911,-1.4796617031097412,1.6447664499282837
1667266556430653400,1.4396533203125,3.8712878227233887,-1.5179468393325806,1.5801602602005005
1667266556433051400,1.442051513671875,3.91914439201355,-1.55623197555542,1.5107684135437012
1667266556435449000,1.444448974609375,3.9957146644592285,-1.5753746032714844,1.4246268272399902
1667266556437847000,1.446846923828125,4.045963764190674,-1.5897315740585327,1.350150227546692
1667266556440244700,1.44924462890625,4.110570430755615,-1.6423736810684204,1.2951152324676514
1667266556442642700,1.451642578125,4.163212299346924,-1.6710875034332275,1.2352946996688843
1667266556445040400,1.454040283203125,4.208974838256836,-1.6734803915023804,1.1682956218719482
1667266556447438000,1.45643798828125,4.235296249389648,-1.7021942138671875,1.0941181182861328
1667266556449836000,1.4588359375,4.252045631408691,-1.6854444742202759,1.0295119285583496
1667266556452233700,1.461233642578125,4.252045631408691,-1.6926229000091553,0.9672985672950745
1667266556454631700,1.463631591796875,4.249652862548828,-1.654337763786316,0.8883354067802429
1667266556457029400,1.466029296875,4.29033088684082,-1.6351951360702515,0.7851449251174927
1667266556459427300,1.46842724609375,4.273581027984619,-1.6112669706344604,0.643968403339386
1667266556461825000,1.470824951171875,4.299902439117432,-1.5825530290603638,0.5267201066017151
1667266556464222700,1.47322265625,4.326223373413086,-1.5490535497665405,0.38793638348579407
1667266556466620700,1.47562060546875,4.34536600112915,-1.4868401288986206,0.2273181527853012
1667266556469018400,1.478018310546875,4.359723091125488,-1.4126626253128052,0.07417750358581543
1667266556471416300,1.480416259765625,4.402793884277344,-1.323829174041748,-0.07896314561367035
1667266556473814000,1.48281396484375,4.479363918304443,-1.197009563446045,-0.22971096634864807
1667266556476212000,1.4852119140625,4.577469825744629,-1.074975609779358,-0.368793785572052
1667266556478609700,1.487609619140625,4.689932346343994,-0.9266205430030823,-0.5147559642791748
1667266556481007600,1.490007568359375,4.77876615524292,-0.7851449251174927,-0.612861692905426
1667266556483405300,1.4924052734375,4.850550651550293,-0.6726822853088379,-0.7181459069252014
1667266556485803300,1.49480322265625,4.927121162414551,-0.5554339289665222,-0.7995018362998962
1667266556488201000,1.497200927734375,4.974977493286133,-0.39032918214797974,-0.8401798605918884
1667266556490598700,1.4995986328125,5.015655517578125,-0.2946162819862366,-0.8644071817398071
1667266556492996600,1.50199658203125,5.051547527313232,-0.2153540402650833,-0.9026923179626465
1667266556495394300,1.504394287109375,5.075475692749023,-0.14356936514377594,-0.9194421172142029
1667266556497792300,1.506792236328125,5.094618320465088,-0.09571290761232376,-0.9194421172142029
1667266556500190000,1.50918994140625,5.094618320465088,-0.08135596662759781,-0.8979067206382751
1667266556502587600,1.511587646484375,5.070690155029297,-0.059820566326379776,-0.8306085467338562
1667266556504985600,1.513985595703125,5.06590461730957,-0.031106693670153618,-0.7707880139350891
1667266556507383300,1.51638330078125,5.06590461730957,-0.04546362906694412,-0.7157530784606934
1667266556509781200,1.51878125,5.068297386169434,-0.031106693670153618,-0.6320042610168457
1667266556512179000,1.521178955078125,5.068297386169434,-0.05742774158716202,-0.5362913608551025
1667266556514577000,1.523576904296875,5.108975410461426,-0.09810572862625122,-0.38793638348579407
1667266556516974600,1.525974609375,5.19033145904541,-0.15074782073497772,-0.2994019389152527
1667266556519372500,1.52837255859375,5.214259624481201,-0.2153540402650833,-0.16749759018421173
1667266556521770200,1.530770263671875,5.254937648773193,-0.28983065485954285,-0.02871387079358101
1667266556524168000,1.53316796875,5.293222904205322,-0.38315072655677795,0.08614161610603333
1667266556526566000,1.53556591796875,5.293222904205322,-0.4573282301425934,0.1986042857170105
1667266556528963600,1.537963623046875,5.293222904205322,-0.5602195858955383,0.31375887989997864
1667266556531361500,1.540361572265625,5.281258583068848,-0.6583253145217896,0.4046861231327057
1667266556533759200,1.54275927734375,5.262115955352783,-0.732502818107605,0.5075774788856506
1667266556536157200,1.5451572265625,5.278865814208984,-0.7779664397239685,0.48843491077423096
1667266556538555000,1.547554931640625,5.290830135345459,-0.732502818107605,0.3975076675415039
1667266556540952800,1.549952880859375,5.266901969909668,-0.7923234105110168,0.39990049600601196
1667266556543350500,1.5523505859375,5.238187789916992,-0.9026923179626465,0.39032918214797974
1667266556545748200,1.554748291015625,5.211866855621338,-0.9984052777290344,0.40229329466819763
1667266556548146200,1.557146240234375,5.204688549041748,-1.0941181182861328,0.40229329466819763
1667266556550544000,1.5595439453125,5.199902534484863,-1.2041879892349243,0.3975076675415039
1667266556552941800,1.56194189453125,5.199902534484863,-1.2951152324676514,0.42382872104644775
1667266556555339500,1.564339599609375,5.1783671379089355,-1.3716856241226196,0.45254257321357727
1667266556557737500,1.566737548828125,5.1544389724731445,-1.4294124841690063,0.48364928364753723
1667266556560135200,1.56913525390625,5.13529634475708,-1.474876046180725,0.524327278137207
1667266556562532900,1.571532958984375,5.097011566162109,-1.505982756614685,0.5530411601066589
1667266556564930800,1.573930908203125,5.068297386169434,-1.5394822359085083,0.5865406394004822
1667266556567328500,1.57632861328125,4.919942378997803,-1.623231053352356,0.5817549824714661
1667266556569726500,1.5787265625,4.805087089538574,-1.6375880241394043,0.6535396575927734
1667266556572124200,1.581124267578125,4.737788677215576,-1.592124342918396,0.7085745930671692
1667266556574522000,1.583522216796875,4.735395908355713,-1.5394822359085083,0.734895646572113
1667266556576919800,1.585919921875,4.764110088348389,-1.5131611824035645,0.7707880139350891
1667266556579317800,1.58831787109375,4.802694320678711,-1.446162223815918,0.7827520966529846
1667266556581715500,1.590715576171875,4.817050933837891,-1.3525429964065552,0.7755736112594604
1667266556584113400,1.593113525390625,4.819443702697754,-1.2640085220336914,0.7612167000770569
1667266556586511000,1.595510986328125,4.814658164978027,-1.1563315391540527,0.768395185470581
1667266556588908800,1.59790869140625,4.817050933837891,-1.0342975854873657,0.766002357006073
1667266556591306800,1.600306640625,4.800301551818848,-0.9290133714675903,0.7947162389755249
1667266556593704400,1.602704345703125,4.800301551818848,-0.8066803216934204,0.8042874932289124
1667266556596102400,1.605102294921875,4.8074798583984375,-0.6702894568443298,0.8377870321273804
1667266556598500000,1.6075,4.8074798583984375,-0.5338985323905945,0.8353942036628723
1667266556600898000,1.60989794921875,4.852943420410156,-0.39990049600601196,0.8500502705574036
1667266556603295700,1.612295654296875,4.903192520141602,-0.27038896083831787,0.8763712644577026
1667266556605693400,1.614693359375,4.919942378997803,-0.14117653667926788,0.8859425783157349
1667266556608091400,1.61709130859375,4.958227634429932,-0.014356935396790504,0.893121063709259
1667266556610489000,1.619489013671875,4.970191955566406,0.08614161610603333,0.9266205430030823
1667266556612887000,1.621886962890625,4.970191955566406,0.1866401731967926,0.9218349456787109
1667266556615284700,1.62428466796875,4.934299468994141,0.2727817893028259,0.9266205430030823
1667266556617682700,1.6266826171875,4.898406982421875,0.33529427647590637,0.9146564602851868
1667266556620080400,1.629080322265625,4.845765113830566,0.38315072655677795,0.893121063709259
1667266556622478300,1.631478271484375,4.764110088348389,0.40707895159721375,0.859621524810791
1667266556624876000,1.6338759765625,4.67078971862793,0.4166502356529236,0.8306085467338562
1667266556627274000,1.63627392578125,4.5822553634643555,0.4381856322288513,0.7947162389755249
1667266556629671700,1.638671630859375,4.479363918304443,0.4334000051021576,0.7612167000770569
1667266556632069400,1.6410693359375,4.412364959716797,0.4286143481731415,0.734895646572113
1667266556634467300,1.64346728515625,4.347758769989014,0.4166502356529236,0.6894320249557495
1667266556636865000,1.645864990234375,4.304687976837158,0.4286143481731415,0.6487540602684021
1667266556639263000,1.648262939453125,4.273581027984619,0.4286143481731415,0.6056832075119019
1667266556641660700,1.65066064453125,4.240081787109375,0.4286143481731415,0.5913262963294983
1667266556644058600,1.65305859375,4.208974838256836,0.4214358925819397,0.5985047817230225
1667266556646456300,1.655456298828125,4.156033992767334,0.40707895159721375,0.610468864440918
1667266556648854000,1.65785400390625,4.148855209350586,0.41186460852622986,0.6176473498344421
1667266556651252000,1.660251953125,4.144069671630859,0.4142574071884155,0.6320042610168457
1667266556653649700,1.662649658203125,4.165605068206787,0.41904306411743164,0.6631109714508057
1667266556656047600,1.665047607421875,4.177569389343262,0.42382872104644775,0.7157530784606934
1667266556658445300,1.6674453125,4.218546390533447,0.4453641176223755,0.7612167000770569
1667266556660843300,1.66984326171875,4.247260093688965,0.47168517112731934,0.8452646136283875
1667266556663241000,1.672240966796875,4.304687976837158,0.5195416212081909,0.9361918568611145
1667266556665638700,1.674638671875,4.359723091125488,0.5602195858955383,1.0295119285583496
1667266556668036600,1.67703662109375,4.4410786628723145,0.6152545213699341,1.1084750890731812
1667266556670434300,1.679434326171875,4.551148891448975,0.6655037999153137,1.1922239065170288
1667266556672832300,1.681832275390625,4.680361270904541,0.7037889361381531,1.2855439186096191
1667266556675230000,1.68422998046875,4.819443702697754,0.734895646572113,1.4003994464874268
1667266556677628000,1.6866279296875,4.927121162414551,0.768395185470581,1.5107684135437012
1667266556680025600,1.689025634765625,5.025226593017578,0.8090731501579285,1.628016710281372
1667266556682423600,1.691423583984375,5.1065826416015625,0.8428717851638794,1.7524434328079224
1667266556684821200,1.6938212890625,5.1783671379089355,0.8739784955978394,1.8505492210388184
1667266556687219200,1.69621923828125,5.228616714477539,0.8835497498512268,1.9199410676956177
1667266556689617000,1.698616943359375,5.269294738769531,0.8955138921737671,2.018345832824707
1667266556692014600,1.7010146484375,5.319543838500977,0.8859425783157349,2.0829520225524902
1667266556694412500,1.70341259765625,5.336592674255371,0.8979067206382751,2.11405873298645
1667266556696810200,1.705810302734375,5.338985443115234,0.9218349456787109,2.1068804264068604
1667266556699208200,1.708208251953125,5.319543838500977,0.9744769930839539,2.0446670055389404
1667266556701606000,1.71060595703125,5.293222904205322,1.0271191596984863,1.9776679277420044
1667266556704003600,1.713003662109375,5.262115955352783,1.067797064781189,1.8792630434036255
1667266556706401500,1.715401611328125,5.250152111053467,1.1491531133651733,1.7380865812301636
1667266556708799200,1.71779931640625,5.2166523933410645,1.2640085220336914,1.5801602602005005
1667266556711197200,1.720197265625,5.164010524749756,1.3549357652664185,1.4365909099578857
1667266556713595000,1.722594970703125,5.12811803817749,1.446162223815918,1.2783654928207397
1667266556715992800,1.724992919921875,5.07308292388916,1.5155540704727173,1.1395817995071411
1667266556718390500,1.727390625,5.018048286437988,1.599302887916565,1.0103694200515747
1667266556720788500,1.72978857421875,4.982155799865723,1.6710875034332275,0.8883354067802429
1667266556723186200,1.732186279296875,4.955834865570068,1.7333009243011475,0.7779664397239685
1667266556725584000,1.734583984375,4.955834865570068,1.7883358001708984,0.6870391964912415
1667266556727981800,1.73698193359375,4.994120121002197,1.8481563329696655,0.5841478109359741
1667266556730379500,1.739379638671875,5.049154758453369,1.9175482988357544,0.5267201066017151
1667266556732777500,1.741777587890625,5.149653434753418,1.9992033243179321,0.490827739238739
1667266556735175200,1.744175048828125,5.276473045349121,2.0685951709747314,0.47647079825401306
1667266556737573000,1.746572998046875,5.4418768882751465,2.1379871368408203,0.4692923426628113
1667266556739970800,1.748970703125,5.6309099197387695,2.2169501781463623,0.490827739238739
1667266556742368800,1.75136865234375,5.824728488922119,2.26959228515625,0.5003990530967712
1667266556744766500,1.753766357421875,5.997310638427734,2.3222343921661377,0.521934449672699
1667266556747164200,1.7561640625,6.174379825592041,2.3509483337402344,0.5506483316421509
1667266556749562000,1.75856201171875,6.334698677062988,2.4083759784698486,0.5745765566825867
1667266556751959800,1.760959716796875,6.473781585693359,2.451446771621704,0.5913262963294983
1667266556754357800,1.763357666015625,6.595815658569336,2.4777679443359375,0.5913262963294983
1667266556756755500,1.76575537109375,6.667600154876709,2.4921247959136963,0.5937191247940063
1667266556759153400,1.7681533203125,6.732206344604492,2.5232315063476562,0.5817549824714661
1667266556761551000,1.770551025390625,6.775277137756348,2.5594229698181152,0.5506483316421509
1667266556763948800,1.77294873046875,6.811169624328613,2.5761725902557373,0.5171487927436829
1667266556766346800,1.7753466796875,6.813562393188477,2.5953152179718018,0.4860421121120453
1667266556768744400,1.777744384765625,6.756134510040283,2.6240291595458984,0.4573282301425934
1667266556771142400,1.780142333984375,6.643671989440918,2.6383860111236572,0.44297128915786743
1667266556773540000,1.7825400390625,6.502495765686035,2.6814568042755127,0.4621138870716095
1667266556775938000,1.78493798828125,6.361020088195801,2.7484560012817383,0.45972105860710144
1667266556778335700,1.787335693359375,6.229414463043213,2.808276414871216,0.40707895159721375
1667266556780733700,1.789733642578125,6.1002020835876465,2.848954439163208,0.34247273206710815
1667266556783131400,1.79213134765625,5.961418628692627,2.8704898357391357,0.2632105052471161
1667266556785529300,1.794529296875,5.829514026641846,2.911167860031128,0.14835500717163086
1667266556787927000,1.796927001953125,5.733801364898682,2.949453115463257,0.01196411345154047
1667266556790324700,1.79932470703125,5.6548380851745605,2.975774049758911,-0.09092725813388824
1667266556792722700,1.80172265625,5.571089267730713,2.997309446334839,-0.2105683982372284
1667266556795120400,1.804120361328125,5.482554912567139,3.0020952224731445,-0.31375887989997864
1667266556797518300,1.806518310546875,5.427519798278809,3.0092735290527344,-0.41904306411743164
1667266556799916000,1.808916015625,5.44426965713501,3.045166015625,-0.521934449672699
1667266556802314000,1.81131396484375,5.487340450286865,3.085843801498413,-0.5889334678649902
1667266556804711700,1.813711669921875,5.56151819229126,3.08345103263855,-0.6559324860572815
1667266556807109400,1.816109375,5.676373481750488,3.0236306190490723,-0.6343970894813538
1667266556809507300,1.81850732421875,5.8343000411987305,2.8944180011749268,-0.5075774788856506
1667266556811905000,1.820905029296875,5.987739562988281,2.863311290740967,-0.4549354016780853
1667266556814303000,1.823302978515625,6.133701801300049,2.8226335048675537,-0.40707895159721375
1667266556816700700,1.82570068359375,6.310770511627197,2.825026273727417,-0.35443684458732605
1667266556819098600,1.8280986328125,6.478567123413086,2.8130621910095215,-0.3329014480113983
1667266556821496300,1.830496337890625,6.660421848297119,2.793919563293457,-0.31854450702667236
1667266556823894000,1.83289404296875,6.8279194831848145,2.808276414871216,-0.32572299242019653
1667266556826292000,1.8352919921875,6.985845565795898,2.825026273727417,-0.3329014480113983
1667266556828689700,1.837689697265625,7.127321243286133,2.8537402153015137,-0.35443684458732605
1667266556831087600,1.840087646484375,7.251748085021973,2.8752756118774414,-0.38793638348579407
1667266556833485300,1.8424853515625,7.385746002197266,2.9255247116088867,-0.4453641176223755
1667266556835883300,1.84488330078125,7.512565612792969,2.973381280899048,-0.5051847100257874
1667266556838281000,1.847281005859375,7.661220073699951,3.045166015625,-0.5554339289665222
1667266556840679000,1.849678955078125,7.821538925170898,3.122035264968872,-0.6056832075119019
1667266556843076600,1.85207666015625,7.981858253479004,3.2129626274108887,-0.6008976101875305
1667266556845474600,1.854474609375,8.11824893951416,3.3230323791503906,-0.5937191247940063
1667266556847872300,1.856872314453125,8.235795974731445,3.4259238243103027,-0.5650052428245544
1667266556850270000,1.85927001953125,8.331509590148926,3.528815269470215,-0.5195416212081909
1667266556852668000,1.86166796875,8.41286563873291,3.6221351623535156,-0.4573282301425934
1667266556855065600,1.864065673828125,8.470293045043945,3.7037904262542725,-0.38315072655677795
1667266556857463600,1.866463623046875,8.577970504760742,3.8377883434295654,-0.3640081584453583
1667266556859861200,1.868861328125,8.623434066772461,3.921537160873413,-0.34725838899612427
1667266556862259200,1.87125927734375,8.66889762878418,4.017250061035156,-0.31854450702667236
1667266556864657000,1.873656982421875,8.69043254852295,4.103391647338867,-0.31854450702667236
1667266556867054600,1.8760546875,8.717052459716797,4.144069671630859,-0.3329014480113983
1667266556869452500,1.87845263671875,8.731410026550293,4.216153621673584,-0.35443684458732605
1667266556871850200,1.880850341796875,8.717052459716797,4.280759811401367,-0.40707895159721375
1667266556874248200,1.883248291015625,8.688039779663086,4.347758769989014,-0.4405784606933594
1667266556876646000,1.88564599609375,8.635397911071777,4.386044025421143,-0.4334000051021576
1667266556879043800,1.8880439453125,8.611469268798828,4.393222332000732,-0.3616153299808502
1667266556881441500,1.890441650390625,8.611469268798828,4.371686935424805,-0.2512463629245758
1667266556883839200,1.892839111328125,8.640183448791504,4.335794448852539,-0.05503492057323456
1667266556886237200,1.8952373046875,8.688039779663086,4.314259052276611,0.17706887423992157
1667266556888635000,1.897634765625,8.800801277160645,4.278367042541504,0.4453641176223755
1667266556891032800,1.90003271484375,8.927620887756348,4.240081787109375,0.7492526173591614
1667266556893430500,1.902430419921875,9.052047729492188,4.208974838256836,1.0462616682052612
1667266556895828500,1.904828369140625,9.221938133239746,4.16799783706665,1.2783654928207397
1667266556898226200,1.90722607421875,9.38016414642334,4.153641223907471,1.4844473600387573
1667266556900624100,1.9096240234375,9.569196701049805,4.146462440490723,1.6375880241394043
1667266556903021800,1.912021728515625,9.763015747070312,4.134498596191406,1.7428722381591797
1667266556905419800,1.914419677734375,9.933204650878906,4.132105827331543,1.80508553981781
1667266556907817500,1.9168173828125,10.129416465759277,4.103391647338867,1.8481563329696655
1667266556910215200,1.919215087890625,10.3016996383667,4.108177185058594,1.83619225025177
1667266556912613000,1.921613037109375,10.469496726989746,4.115355968475342,1.8194425106048584
1667266556915010800,1.9240107421875,10.601101875305176,4.115355968475342,1.812264084815979
1667266556917408800,1.92640869140625,10.70399284362793,4.103391647338867,1.7955143451690674
1667266556919806500,1.928806396484375,10.775777816772461,4.096213340759277,1.800299882888794
1667266556922204200,1.9312041015625,10.830812454223633,4.103391647338867,1.7668004035949707
1667266556924602000,1.93360205078125,10.873883247375488,4.07467794418335,1.7548363208770752
1667266556926999800,1.935999755859375,10.897811889648438,4.055535316467285,1.7380865812301636
1667266556929397800,1.938397705078125,10.902597427368164,4.036392688751221,1.7404793500900269
1667266556931795500,1.94079541015625,10.876276016235352,4.014857292175293,1.7237296104431152
1667266556934193400,1.943193359375,10.840383529663086,4.022035598754883,1.709372639656067
1667266556936591000,1.945591064453125,10.787741661071777,4.024428367614746,1.6974085569381714
1667266556938989000,1.947989013671875,10.71117115020752,4.002892971038818,1.6854444742202759
1667266556941386800,1.95038671875,10.629815101623535,4.000500202178955,1.6304094791412354
1667266556943784400,1.952784423828125,10.536495208740234,4.01246452331543,1.568196177482605
1667266556946182400,1.955182373046875,10.44078254699707,4.010071754455566,1.4413765668869019
1667266556948580000,1.957580078125,10.356734275817871,4.01246452331543,1.323829174041748
1667266556950978000,1.95997802734375,10.261021614074707,4.0196428298950195,1.1778669357299805
1667266556953375700,1.962375732421875,10.18445110321045,4.017250061035156,1.0462616682052612
1667266556955773700,1.964773681640625,10.107880592346191,4.014857292175293,0.8979067206382751
1667266556958171400,1.96717138671875,10.03848934173584,4.010071754455566,0.7444669604301453
1667266556960569300,1.9695693359375,9.983454704284668,3.983750581741333,0.610468864440918
1667266556962967000,1.971967041015625,9.918848037719727,3.9622151851654053,0.4788636267185211
1667266556965364700,1.97436474609375,9.887741088867188,3.9478583335876465,0.3807578980922699
1667266556967762700,1.9767626953125,9.868598937988281,3.904787540435791,0.3041875660419464
1667266556970160400,1.979160400390625,9.837491989135742,3.864109516143799,0.23210379481315613
1667266556972558300,1.981558349609375,9.815657615661621,3.835395574569702,0.17706887423992157
1667266556974956000,1.9839560546875,9.796515464782715,3.82582426071167,0.13639089465141296
1667266556977354000,1.98635400390625,9.808479309082031,3.804288864135742,0.08374879509210587
1667266556979751700,1.988751708984375,9.813264846801758,3.746861219406128,0.014356935396790504
1667266556982149400,1.9911494140625,9.851848602294922,3.691826343536377,-0.08374879509210587
1667266556984547300,1.99354736328125,9.89970588684082,3.6436707973480225,-0.17706887423992157
1667266556986945000,1.995945068359375,9.961918830871582,3.624528169631958,-0.24167509377002716
1667266556989343000,1.998343017578125,10.04566764831543,3.5958142280578613,-0.2922234535217285
1667266556991740700,2.00074072265625,10.134202003479004,3.5742788314819336,-0.33768710494041443
1667266556994138600,2.003138671875,10.186843872070312,3.545564889907837,-0.37836506962776184
1667266556996536300,2.005536376953125,10.232307434082031,3.490530014038086,-0.4334000051021576
1667266556998934300,2.007934326171875,10.239486694335938,3.442673683166504,-0.4740779995918274
1667266557001332000,2.01033203125,10.258628845214844,3.387638568878174,-0.5075774788856506
1667266557003729700,2.012729736328125,10.28016471862793,3.315854072570801,-0.5410770177841187
1667266557006127600,2.015127685546875,10.3016996383667,3.208176851272583,-0.5913262963294983
1667266557008525300,2.017525390625,10.308877944946289,3.1435706615448,-0.5913262963294983
1667266557010923300,2.01992333984375,10.27777099609375,3.13639235496521,-0.5554339289665222
1667266557013321000,2.022321044921875,10.222736358642578,3.160320520401001,-0.5099703073501587
1667266557015719000,2.024718994140625,10.14616584777832,3.1722846031188965,-0.4621138870716095
1667266557018116600,2.02711669921875,10.081560134887695,3.1579277515411377,-0.4405784606933594
1667266557020514600,2.0295146484375,9.971489906311035,3.1435706615448,-0.4262215197086334
1667266557022912300,2.031912353515625,9.873384475708008,3.119642496109009,-0.4214358925819397
1667266557025310000,2.03431005859375,9.767801284790039,3.0957143306732178,-0.4405784606933594
1667266557027708000,2.0367080078125,9.638588905334473,3.1028928756713867,-0.46450668573379517
1667266557030105600,2.039105712890625,9.475876808166504,3.145963668823242,-0.4740779995918274
1667266557032503600,2.041503662109375,9.339486122131348,3.153141975402832,-0.5195416212081909
1667266557034901200,2.0439013671875,9.190832138061523,3.1794631481170654,-0.610468864440918
1667266557037299200,2.04629931640625,9.040083885192871,3.184248685836792,-0.6870391964912415
1667266557039697000,2.04869677734375,8.903693199157715,3.1818559169769287,-0.7540382146835327
1667266557042094600,2.051094482421875,8.781659126281738,3.191427230834961,-0.8548358678817749
1667266557044492500,2.053492431640625,8.673683166503906,3.2105698585510254,-0.9002995491027832
1667266557046890200,2.05589013671875,8.580363273620605,3.2177481651306152,-0.9649057388305664
1667266557049288200,2.0582880859375,8.515756607055664,3.253640651702881,-1.0103694200515747
1667266557051686000,2.060685791015625,8.453543663024902,3.2440693378448486,-1.048654556274414
1667266557054083800,2.063083740234375,8.42722225189209,3.2440693378448486,-1.0558329820632935
1667266557056481500,2.0654814453125,8.42722225189209,3.2416765689849854,-1.0869396924972534
1667266557058879500,2.06787939453125,8.439186096191406,3.2177481651306152,-1.0965110063552856
1667266557061277200,2.070277099609375,8.484649658203125,3.2033913135528564,-1.0845468044281006
1667266557063675000,2.0726748046875,8.55164909362793,3.1627132892608643,-1.048654556274414
1667266557066072800,2.07507275390625,8.606683731079102,3.129213809967041,-1.0223335027694702
1667266557068470500,2.077470458984375,8.71226692199707,3.098107099533081,-0.9768698215484619
1667266557070868500,2.079868408203125,8.824729919433594,3.061915636062622,-0.8859425783157349
1667266557073266200,2.08226611328125,8.94676399230957,3.0499515533447266,-0.8066803216934204
1667266557075664100,2.0846640625,9.09272575378418,2.999702215194702,-0.732502818107605
1667266557078061800,2.087061767578125,9.245866775512695,2.9709885120391846,-0.6726822853088379
1667266557080459800,2.089459716796875,9.416056632995605,2.9470601081848145,-0.6176473498344421
1667266557082857500,2.091857421875,9.573982238769531,2.918346405029297,-0.5434698462486267
1667266557085255200,2.094255126953125,9.724730491638184,2.8776683807373047,-0.48843491077423096
1667266557087653000,2.096653076171875,9.873384475708008,2.8465616703033447,-0.4453641176223755
1667266557090050800,2.09905078125,10.02173900604248,2.832204818725586,-0.39032918214797974
1667266557092448800,2.10144873046875,10.158130645751953,2.8130621910095215,-0.34725838899612427
1667266557094846500,2.103846435546875,10.272985458374023,2.8034908771514893,-0.30658039450645447
1667266557097244200,2.106244140625,10.344770431518555,2.7915267944335938,-0.26560330390930176
1667266557099642000,2.10864208984375,10.412068367004395,2.7795627117156982,-0.18424734473228455
