time,seconds_elapsed,z,y,x
1667824652120679000,0.015678955078125,0.3806072175502777,-0.11843148618936539,0.06227846443653107
1667824652130685700,0.025685791015625,0.4016493260860443,-0.15572060644626617,0.030259104445576668
1667824652140694000,0.035694091796875,0.40261924266815186,-0.1924506574869156,0.006058425176888704
1667824652150701800,0.045701904296875,0.39934682846069336,-0.19751687347888947,0.008573242463171482
1667824652160708900,0.055708984375,0.3813028633594513,-0.18260343372821808,0.011817771010100842
1667824652170716700,0.065716552734375,0.35586631298065186,-0.1370730996131897,0.010256577283143997
1667824652180724700,0.075724853515625,0.32895132899284363,-0.0756257176399231,0.014661712571978569
1667824652190731800,0.085731689453125,0.30100569128990173,-0.020458154380321503,0.01791846938431263
1667824652200739800,0.09573974609375,0.27523931860923767,0.005586761049926281,0.017152810469269753
1667824652210747000,0.105746826171875,0.24554578959941864,0.03538944572210312,0.01664355769753456
1667824652220755000,0.1157548828125,0.20497599244117737,0.07687750458717346,0.01682651787996292
1667824652230761700,0.12576171875,0.1536506563425064,0.13487397134304047,0.01575908437371254
1667824652240769800,0.135769775390625,0.12322137504816055,0.2052389532327652,0.004157024435698986
1667824652250777900,0.14577783203125,0.1263764649629593,0.28538888692855835,-0.011082212440669537
1667824652260785000,0.155784912109375,0.15211406350135803,0.3900873363018036,-0.038964975625276566
1667824652270793000,0.16579296875,0.18826428055763245,0.4974483847618103,-0.07837329804897308
1667824652280799700,0.1757998046875,0.24697765707969666,0.6220675110816956,-0.15364648401737213
1667824652290808000,0.18580810546875,0.3059627413749695,0.7382214665412903,-0.2537369132041931
1667824652300816000,0.19581591796875,0.3527853786945343,0.8253374695777893,-0.37734168767929077
1667824652310823000,0.205822998046875,0.37537682056427,0.884883463382721,-0.49029165506362915
1667824652320830700,0.215830810546875,0.35374101996421814,0.889581024646759,-0.592890739440918
1667824652330839000,0.225839111328125,0.31957483291625977,0.8712400794029236,-0.6755872964859009
1667824652340845800,0.235845703125,0.270463764667511,0.9160535931587219,-0.7016817331314087
1667824652350854000,0.24585400390625,0.22340074181556702,1.0815824270248413,-0.6210592985153198
1667824652360861000,0.25586083984375,0.19510944187641144,1.2260620594024658,-0.4822165071964264
1667824652370869000,0.265868896484375,0.13892348110675812,1.308262586593628,-0.32536062598228455
1667824652380876800,0.275876708984375,0.04209335148334503,1.3489322662353516,-0.1795826256275177
1667824652390883800,0.2858837890625,-0.06744509935379028,1.332512617111206,-0.06727145612239838
1667824652400892000,0.295891845703125,-0.1607300490140915,1.2518092393875122,0.01954280212521553
1667824652410899000,0.30589892578125,-0.25344645977020264,1.0102585554122925,0.07582798600196838
1667824652420906800,0.31590673828125,-0.38049575686454773,0.6158830523490906,0.11864229291677475
1667824652430914800,0.325914794921875,-0.5097652673721313,0.1797861009836197,0.1473076045513153
1667824652440921900,0.335921875,-0.584220826625824,-0.1496429294347763,0.16410282254219055
1667824652450930000,0.345929931640625,-0.5848022103309631,-0.3659014403820038,0.14953020215034485
1667824652460936700,0.355936767578125,-0.5932359099388123,-0.6129325032234192,0.024456443265080452
1667824652470944800,0.36594482421875,-0.5698403716087341,-0.8767756223678589,-0.07152155786752701
1667824652480953000,0.375953125,-0.49792733788490295,-0.6883955597877502,-0.12857526540756226
1667824652490960000,0.3859599609375,-0.32119613885879517,0.09288918226957321,-0.19395318627357483
1667824652500968000,0.395968017578125,-0.12711161375045776,-0.21761569380760193,-0.17262420058250427
1667824652510975000,0.40597509765625,-0.13211886584758759,-0.1304425597190857,-0.056587278842926025
1667824652520983000,0.415983154296875,-0.2801048755645752,-0.2108740210533142,0.10371105372905731
1667824652530990800,0.425990966796875,-0.41684994101524353,-0.4210556149482727,0.25169485807418823
1667824652540998000,0.435997802734375,-0.4307902753353119,-0.497956246137619,0.4080977737903595
1667824652551006000,0.446005859375,-0.3614671230316162,-0.7812135815620422,0.5819782018661499
1667824652561013000,0.456012939453125,-0.4003777503967285,-0.9385342001914978,0.6415702104568481
1667824652571020800,0.466020751953125,-0.4459794759750366,-0.9996777176856995,0.6903412342071533
1667824652581028900,0.47602880859375,-0.36287686228752136,-0.9575376510620117,0.7457576394081116
1667824652591036000,0.486035888671875,-0.16551829874515533,-0.9987099766731262,0.8166980743408203
1667824652601044000,0.4960439453125,0.043141696602106094,-1.1911766529083252,0.8986139893531799
1667824652611051800,0.5060517578125,0.1785157322883606,-1.417778730392456,0.9610229134559631
1667824652621058800,0.516058837890625,0.22613385319709778,-1.5809998512268066,1.0616520643234253
1667824652631067000,0.52606689453125,0.1993386149406433,-1.6394950151443481,1.173475742340088
1667824652641074000,0.536073974609375,0.09587401151657104,-1.442197561264038,1.2258356809616089
1667824652651081700,0.546081787109375,-0.015740059316158295,-1.1151868104934692,1.3304327726364136
1667824652661089800,0.55608984375,-0.04170827567577362,-0.8634888529777527,1.3657804727554321
1667824652671096800,0.566096923828125,0.0077393073588609695,-0.7537752389907837,1.3436102867126465
1667824652681105000,0.57610498046875,0.03486520051956177,-0.6841913461685181,1.3568248748779297
1667824652691111700,0.586111572265625,0.0019460450857877731,-0.6591559648513794,1.4226752519607544
1667824652701120000,0.5961201171875,-0.07208344340324402,-0.726587176322937,1.5202518701553345
1667824652711127800,0.6061279296875,-0.14716380834579468,-0.8606384992599487,1.5976213216781616
1667824652721134800,0.616134765625,-0.2199525237083435,-1.0204249620437622,1.6341215372085571
1667824652731142700,0.626142578125,-0.2992795407772064,-1.153681755065918,1.6534420251846313
1667824652741150000,0.63614990234375,-0.3480082154273987,-1.1885137557983398,1.659613847732544
1667824652751157800,0.64615771484375,-0.3370295763015747,-1.102615475654602,1.6281042098999023
1667824652761165800,0.656165771484375,-0.25405001640319824,-0.8469527959823608,1.5743921995162964
1667824652771172900,0.6661728515625,-0.11457985639572144,-0.46835553646087646,1.5293289422988892
1667824652781181000,0.676180908203125,0.060282763093709946,-0.11743774265050888,1.4562857151031494
1667824652791187700,0.686187744140625,0.2344491183757782,0.11594292521476746,1.3461002111434937
1667824652801195800,0.69619580078125,0.38822031021118164,0.1995781660079956,1.185797095298767
1667824652811203800,0.706203857421875,0.5078350901603699,0.1595505177974701,0.9917393922805786
1667824652821211000,0.7162109375,0.5904918313026428,0.05072921887040138,0.7632609009742737
1667824652831219000,0.726218994140625,0.6447476148605347,-0.06385146826505661,0.5178475379943848
1667824652841226000,0.73622607421875,0.6884500980377197,-0.17371271550655365,0.2645292580127716
1667824652851234000,0.746234130859375,0.7289539575576782,-0.29816555976867676,0.016032252460718155
1667824652861241900,0.756241943359375,0.7489393949508667,-0.43546509742736816,-0.21574506163597107
1667824652871249000,0.766248779296875,0.7349228858947754,-0.5629656910896301,-0.407711923122406
1667824652881256700,0.776256591796875,0.6711097955703735,-0.6433122158050537,-0.5365375876426697
1667824652891264000,0.786263916015625,0.532433807849884,-0.6588054895401001,-0.569080114364624
1667824652901271800,0.796271728515625,0.35264888405799866,-0.6070320010185242,-0.5297691822052002
1667824652911279900,0.80627978515625,0.17053650319576263,-0.5340173840522766,-0.4544294774532318
1667824652921287000,0.816286865234375,0.027516501024365425,-0.4712155759334564,-0.36536699533462524
1667824652931295000,0.826294921875,-0.07281817495822906,-0.4028678238391876,-0.27740198373794556
1667824652941302800,0.836302734375,-0.13118134438991547,-0.3217253088951111,-0.21884813904762268
1667824652951309600,0.8463095703125,-0.15650951862335205,-0.2224387526512146,-0.1863248199224472
1667824652961317600,0.856317626953125,-0.1626981794834137,-0.10375736653804779,-0.17728471755981445
1667824652971324700,0.86632470703125,-0.1612318754196167,0.01705327257514,-0.17488478124141693
1667824652981332500,0.87633251953125,-0.1716507077217102,0.13101206719875336,-0.18321089446544647
1667824652991340500,0.886340576171875,-0.19695119559764862,0.22177402675151825,-0.2012394666671753
1667824653001347600,0.89634765625,-0.22864840924739838,0.27910444140434265,-0.21483302116394043
1667824653011355600,0.906355712890625,-0.2680962085723877,0.2911354899406433,-0.21558137238025665
1667824653021362400,0.916362548828125,-0.322200745344162,0.2939659059047699,-0.17517295479774475
1667824653031370800,0.926370849609375,-0.38612663745880127,0.3255349397659302,-0.10667751729488373
1667824653041378800,0.93637890625,-0.4518031179904938,0.3394169211387634,-0.028731856495141983
1667824653051385600,0.946385498046875,-0.503044605255127,0.31516677141189575,0.03129452466964722
1667824653061393700,0.9563935546875,-0.5375322699546814,0.2521292269229889,0.07521270960569382
1667824653071400700,0.966400634765625,-0.5560596585273743,0.20694500207901,0.13426661491394043
1667824653081408800,0.97640869140625,-0.577516496181488,0.18781977891921997,0.2138325572013855
1667824653091416600,0.98641650390625,-0.6053889989852905,0.1834922581911087,0.26905542612075806
1667824653101423600,0.996423583984375,-0.6321825385093689,0.1476311981678009,0.2821325957775116
1667824653111431700,1.006431640625,-0.6456664800643921,0.05992261320352554,0.25531360507011414
1667824653121438700,1.016438720703125,-0.6340188384056091,-0.04111771658062935,0.19823060929775238
1667824653131446500,1.026446533203125,-0.6290535926818848,-0.09824898838996887,0.12558871507644653
1667824653141454600,1.03645458984375,-0.6386052966117859,-0.12576715648174286,0.05297631025314331
1667824653151461600,1.046461669921875,-0.672417938709259,-0.1143319383263588,-0.006044352427124977
1667824653161469700,1.0564697265625,-0.738532543182373,-0.014204011298716068,-0.02020837366580963
1667824653171477500,1.0664775390625,-0.8202843070030212,0.13966596126556396,-0.009339462965726852
1667824653181484800,1.07648486328125,-0.8888916373252869,0.2659194767475128,0.004992072470486164
1667824653191492600,1.08649267578125,-0.9263131022453308,0.36762094497680664,0.004102163948118687
1667824653201499600,1.096499755859375,-0.9243530035018921,0.4514330327510834,-0.008846125565469265
1667824653211507500,1.106507568359375,-0.8943975567817688,0.5020580291748047,-0.05371151119470596
1667824653221515800,1.116515869140625,-0.8592198491096497,0.5110642910003662,-0.11244912445545197
1667824653231522600,1.1265224609375,-0.8251191973686218,0.4770786762237549,-0.1781928688287735
1667824653241530600,1.136530517578125,-0.783858597278595,0.41240808367729187,-0.2457285076379776
1667824653251537700,1.14653759765625,-0.7427195310592651,0.3124004900455475,-0.3051507771015167
1667824653261545700,1.156545654296875,-0.7057846784591675,0.1826249212026596,-0.3798316717147827
1667824653271553500,1.166553466796875,-0.6696686148643494,0.03410501405596733,-0.46495920419692993
1667824653281560600,1.176560546875,-0.6247274875640869,-0.11994288116693497,-0.5563157200813293
1667824653291568600,1.186568603515625,-0.5626882314682007,-0.2795651853084564,-0.6574646234512329
1667824653301575700,1.19657568359375,-0.48912182450294495,-0.4615024924278259,-0.7726388573646545
1667824653311583500,1.20658349609375,-0.40999478101730347,-0.6807053685188293,-0.892443060874939
1667824653321591600,1.216591552734375,-0.33686918020248413,-0.896967351436615,-1.0008801221847534
1667824653331598600,1.2265986328125,-0.28554704785346985,-0.9723033308982849,-1.0356085300445557
1667824653341606700,1.236606689453125,-0.26293042302131653,-0.8676195740699768,-1.0209978818893433
1667824653351613400,1.246613525390625,-0.26904767751693726,-0.6927487254142761,-0.9960825443267822
1667824653361621500,1.25662158203125,-0.2758781313896179,-0.56275475025177,-0.9731292724609375
1667824653371629800,1.2666298828125,-0.25781679153442383,-0.5150875449180603,-0.9458956718444824
1667824653381636600,1.27663671875,-0.1998560130596161,-0.5298452377319336,-0.9095919728279114
1667824653391644700,1.286644775390625,-0.11184844374656677,-0.5919191837310791,-0.8778841495513916
1667824653401651700,1.296651611328125,-0.02115875482559204,-0.6516749262809753,-0.8397961854934692
1667824653411659800,1.30665966796875,0.04453789070248604,-0.7004758715629578,-0.7766552567481995
1667824653421667600,1.31666748046875,0.08135876059532166,-0.7438598275184631,-0.7133945226669312
1667824653431674600,1.326674560546875,0.11157281696796417,-0.7953506708145142,-0.6270089149475098
1667824653441682700,1.3366826171875,0.13052412867546082,-0.8809307813644409,-0.5295486450195312
1667824653451690800,1.346690673828125,0.1517990529537201,-0.9352875351905823,-0.400584876537323
1667824653461697500,1.356697509765625,0.17043505609035492,-0.9421973824501038,-0.2473742663860321
1667824653471705600,1.36670556640625,0.18564143776893616,-0.9088090658187866,-0.06884044408798218
1667824653481712600,1.376712646484375,0.19648529589176178,-0.8639771342277527,0.10539473593235016
1667824653491720700,1.386720703125,0.19946561753749847,-0.7877919673919678,0.25676974654197693
1667824653501728500,1.396728515625,0.18971498310565948,-0.6753737926483154,0.37525299191474915
1667824653511735600,1.406735595703125,0.1717507392168045,-0.549954354763031,0.4383651912212372
1667824653521743600,1.41674365234375,0.1531544178724289,-0.4039795696735382,0.4278736710548401
1667824653531750700,1.426750732421875,0.14540891349315643,-0.24437834322452545,0.342897891998291
1667824653541758500,1.436758544921875,0.14812400937080383,-0.10362733900547028,0.2072678804397583
1667824653551766500,1.4467666015625,0.15855176746845245,-0.010217003524303436,0.045864537358284
1667824653561773600,1.456773681640625,0.18870887160301208,0.034929435700178146,-0.0942627415060997
1667824653571781600,1.46678173828125,0.23650023341178894,0.06127845123410225,-0.1779143065214157
1667824653581788400,1.476788330078125,0.2755696177482605,0.08081407099962234,-0.18280281126499176
1667824653591796700,1.486796630859375,0.29457658529281616,0.09848882257938385,-0.10846181213855743
1667824653601804800,1.4968046875,0.2923011779785156,0.09806351363658905,0.0016500400379300117
1667824653611811600,1.5068115234375,0.28058597445487976,0.07913413643836975,0.11004279553890228
1667824653621819600,1.516819580078125,0.28661805391311646,-0.012213354930281639,0.158334419131279
1667824653631826700,1.52682666015625,0.3245323896408081,-0.1917339712381363,0.11446648836135864
1667824653641834800,1.536834716796875,0.38062840700149536,-0.4270111918449402,-0.018847625702619553
1667824653651842600,1.546842529296875,0.4318770170211792,-0.6373674273490906,-0.19093964993953705
1667824653661849900,1.556849853515625,0.4761376678943634,-0.757633626461029,-0.3409547209739685
1667824653671857700,1.566857666015625,0.496316134929657,-0.7801088094711304,-0.4363971948623657
1667824653681864700,1.57686474609375,0.49971431493759155,-0.7024837732315063,-0.4447041451931
1667824653691872500,1.58687255859375,0.5068956613540649,-0.5538917779922485,-0.3768996298313141
1667824653701880600,1.596880615234375,0.5391782522201538,-0.344282329082489,-0.2569332718849182
1667824653711887600,1.6068876953125,0.597406268119812,-0.0869089812040329,-0.12037099152803421
1667824653721895700,1.616895751953125,0.6856618523597717,0.21354006230831146,-0.0203623715788126
1667824653731903500,1.626903564453125,0.791415274143219,0.5489550232887268,0.03819684684276581
1667824653741910800,1.636910888671875,0.8930771946907043,0.862220287322998,0.06054369732737541
1667824653751918600,1.646918701171875,0.9656097888946533,1.0953447818756104,0.06181476265192032
1667824653761925600,1.656925537109375,1.0101202726364136,1.2449045181274414,0.06871554255485535
1667824653771933400,1.666933349609375,1.0497277975082397,1.3079209327697754,0.07533644884824753
1667824653781941800,1.676941650390625,1.0904730558395386,1.2666795253753662,0.11260712146759033
1667824653791948500,1.686948486328125,1.1098042726516724,1.1491997241973877,0.17220553755760193
1667824653801956600,1.69695654296875,1.0914721488952637,0.9694559574127197,0.2420826256275177
1667824653811963600,1.706963623046875,1.0384457111358643,0.7299395203590393,0.32702672481536865
1667824653821971700,1.7169716796875,0.9444880485534668,0.4587860703468323,0.4424223005771637
1667824653831979500,1.7269794921875,0.8225099444389343,0.19643078744411469,0.5697258710861206
1667824653841986600,1.736986572265625,0.6809325814247131,-0.033834367990493774,0.6878778338432312
1667824653851994600,1.74699462890625,0.5531090497970581,-0.21494340896606445,0.7719370126724243
1667824653862001700,1.757001708984375,0.45568418502807617,-0.30871519446372986,0.8371658325195312
1667824653872009500,1.767009521484375,0.3982893228530884,-0.32199642062187195,0.8731514811515808
1667824653882017500,1.777017578125,0.37770283222198486,-0.274960458278656,0.8722273707389832
1667824653892024600,1.787024658203125,0.37914028763771057,-0.18149912357330322,0.8479023575782776
1667824653902032600,1.79703271484375,0.38075628876686096,-0.04474606364965439,0.7918654084205627
1667824653912040700,1.807040771484375,0.386301726102829,0.10464870184659958,0.7071106433868408
1667824653922047500,1.817047607421875,0.40331295132637024,0.26210013031959534,0.5957186222076416
1667824653932055800,1.827055908203125,0.4321327805519104,0.43151238560676575,0.47473040223121643
1667824653942062600,1.8370625,0.4557425081729889,0.5878247618675232,0.35153043270111084
1667824653952070700,1.847070556640625,0.476779580116272,0.716867208480835,0.24036812782287598
1667824653962078500,1.857078369140625,0.4899105727672577,0.820864200592041,0.1603795439004898
1667824653972085800,1.867085693359375,0.5191890597343445,0.8920468688011169,0.1127043068408966
1667824653982093600,1.877093505859375,0.5592272877693176,0.9188094735145569,0.10683870315551758
1667824653992100600,1.8871005859375,0.6007121205329895,0.9065148234367371,0.14776012301445007
1667824654002108700,1.897108642578125,0.6405588984489441,0.8812728524208069,0.23804022371768951
1667824654012116700,1.90711669921875,0.6796261668205261,0.8395133018493652,0.3611467778682709
1667824654022123500,1.91712353515625,0.7214000225067139,0.773552656173706,0.5163970589637756
1667824654032131600,1.927131591796875,0.7608271837234497,0.6930220723152161,0.6579365134239197
1667824654042138600,1.937138671875,0.7910513877868652,0.6202903389930725,0.7694600820541382
1667824654052146700,1.947146728515625,0.8112620115280151,0.5546783804893494,0.8431677222251892
1667824654062154800,1.95715478515625,0.8225618004798889,0.47889524698257446,0.881441056728363
1667824654072161800,1.967161865234375,0.8288886547088623,0.3691813051700592,0.8729291558265686
1667824654082169900,1.977169921875,0.8165469765663147,0.2207377851009369,0.8238553404808044
1667824654092176600,1.9871767578125,0.7731034159660339,0.043874070048332214,0.7400913238525391
1667824654102184700,1.997184814453125,0.7042486667633057,-0.13777081668376923,0.6300534605979919
1667824654112192500,2.007192626953125,0.6107770800590515,-0.2794320583343506,0.5096364617347717
1667824654122199800,2.01719970703125,0.499864399433136,-0.35346418619155884,0.39728862047195435
1667824654132207600,2.02720751953125,0.3720781207084656,-0.3475078046321869,0.3100106120109558
1667824654142215700,2.037215576171875,0.2507255971431732,-0.27033019065856934,0.27081555128097534
1667824654152222700,2.04722265625,0.15073582530021667,-0.12981364130973816,0.3120134174823761
1667824654162230800,2.057230712890625,0.0808158665895462,0.0641862004995346,0.43501603603363037
1667824654172237600,2.067237548828125,0.05475759506225586,0.27002784609794617,0.6139358282089233
1667824654182245600,2.07724560546875,0.07013282179832458,0.46780484914779663,0.8009544610977173
1667824654192253700,2.087253662109375,0.13536900281906128,0.60716313123703,0.9558535218238831
1667824654202260700,2.0972607421875,0.22653725743293762,0.6611723303794861,1.0442579984664917
1667824654212268500,2.1072685546875,0.3351728320121765,0.6210594177246094,1.0513890981674194
1667824654222275800,2.11727587890625,0.4348839819431305,0.4829593002796173,0.9884479641914368
1667824654232283600,2.12728369140625,0.4861602485179901,0.2792229950428009,0.8883888125419617
1667824654242291700,2.137291748046875,0.46265092492103577,0.07496494054794312,0.768369197845459
1667824654252298500,2.147298583984375,0.38085120916366577,-0.12185154855251312,0.6352132558822632
1667824654262306800,2.157306884765625,0.2684040367603302,-0.3598676025867462,0.4609037935733795
1667824654272313600,2.167313720703125,0.14356322586536407,-0.6540494561195374,0.2113640159368515
1667824654282321700,2.17732177734375,0.007988883182406425,-0.9422804713249207,-0.08890419453382492
1667824654292329500,2.18732958984375,-0.13494685292243958,-1.1500043869018555,-0.4084344506263733
1667824654302336800,2.197336669921875,-0.2709965705871582,-1.242705225944519,-0.7045547366142273
1667824654312344600,2.207344482421875,-0.3936660885810852,-1.2425899505615234,-0.9436271786689758
1667824654322352600,2.2173525390625,-0.5167065262794495,-1.162215232849121,-1.0916659832000732
1667824654332359700,2.227359619140625,-0.6444078087806702,-0.9929121136665344,-1.119115948677063
1667824654342367700,2.23736767578125,-0.7480165362358093,-0.7157987356185913,-1.0517570972442627
1667824654352374500,2.24737451171875,-0.8042415976524353,-0.38834983110427856,-0.9184414744377136
1667824654362382600,2.257382568359375,-0.8119301199913025,-0.0832194834947586,-0.7644478678703308
1667824654372390700,2.267390625,-0.7762027978897095,0.15882520377635956,-0.6164455413818359
1667824654382397700,2.277397705078125,-0.707429826259613,0.3229512870311737,-0.5114988684654236
1667824654392405800,2.28740576171875,-0.6090642809867859,0.4527173936367035,-0.4654320776462555
1667824654402412500,2.29741259765625,-0.49176111817359924,0.5865814685821533,-0.4616280198097229
1667824654412420900,2.3074208984375,-0.3781041204929352,0.693331778049469,-0.47391068935394287
1667824654422428700,2.3174287109375,-0.29628196358680725,0.7624780535697937,-0.4834248125553131
1667824654432435700,2.327435791015625,-0.26612839102745056,0.7757213711738586,-0.4761647880077362
1667824654442443500,2.337443603515625,-0.27411147952079773,0.7264891266822815,-0.43405646085739136
1667824654452450800,2.347450927734375,-0.2973083257675171,0.6291757225990295,-0.33893370628356934
1667824654462458600,2.357458740234375,-0.316963255405426,0.5159604549407959,-0.2068670243024826
1667824654472466700,2.367466796875,-0.33271095156669617,0.3955976665019989,-0.06162421777844429
1667824654482473700,2.3774736328125,-0.3371131718158722,0.2532290816307068,0.06879344582557678
1667824654492481800,2.387481689453125,-0.3362298607826233,0.06966985762119293,0.18461892008781433
1667824654502488600,2.397488525390625,-0.3368905782699585,-0.14678893983364105,0.26967549324035645
1667824654512496600,2.40749658203125,-0.3423129916191101,-0.35899797081947327,0.3123873174190521
1667824654522504400,2.41750439453125,-0.3438962697982788,-0.5271920561790466,0.33198845386505127
1667824654532511700,2.42751171875,-0.346057265996933,-0.6439360976219177,0.36342430114746094
1667824654542519600,2.43751953125,-0.36615002155303955,-0.7111585736274719,0.4176896810531616
1667824654552527600,2.447527587890625,-0.42359864711761475,-0.7550079226493835,0.48730745911598206
1667824654562534700,2.45753466796875,-0.5195350646972656,-0.7867794036865234,0.5657945275306702
1667824654572542700,2.467542724609375,-0.6420858502388,-0.8006366491317749,0.6165677309036255
1667824654582549500,2.477549560546875,-0.7727115154266357,-0.8104532957077026,0.6079899668693542
1667824654592557600,2.4875576171875,-0.8940486907958984,-0.8066986203193665,0.5183500051498413
1667824654602566000,2.49756591796875,-1.0001720190048218,-0.7918794751167297,0.36799994111061096
1667824654612572700,2.50757275390625,-1.076019525527954,-0.7417333126068115,0.1837308257818222
1667824654622580700,2.517580810546875,-1.1250678300857544,-0.6643053889274597,-0.0007042605429887772
1667824654632587800,2.527587890625,-1.1544424295425415,-0.5936442613601685,-0.1680692881345749
1667824654642595800,2.537595947265625,-1.163950800895691,-0.5398662686347961,-0.31405097246170044
1667824654652603600,2.547603759765625,-1.1467465162277222,-0.4758020341396332,-0.44527944922447205
1667824654662610700,2.557610595703125,-1.1102001667022705,-0.4284760653972626,-0.5701345801353455
1667824654672618800,2.56761865234375,-1.070629596710205,-0.4148643910884857,-0.6851395964622498
1667824654682625800,2.577625732421875,-1.0430669784545898,-0.42897728085517883,-0.794204831123352
1667824654692633600,2.587633544921875,-1.0303980112075806,-0.45097973942756653,-0.8861367702484131
1667824654702641700,2.5976416015625,-1.0318920612335205,-0.47487974166870117,-0.9333345890045166
1667824654712648700,2.607648681640625,-1.039910078048706,-0.49345481395721436,-0.9300671219825745
1667824654722656800,2.61765673828125,-1.0513032674789429,-0.5203340649604797,-0.883843719959259
1667824654732664600,2.62766455078125,-1.0559954643249512,-0.5547201633453369,-0.8130469918251038
1667824654742671600,2.637671630859375,-1.0524345636367798,-0.6030696034431458,-0.7712409496307373
1667824654752679700,2.6476796875,-1.0221893787384033,-0.6455819606781006,-0.7514446377754211
1667824654762686700,2.657686767578125,-0.9659475684165955,-0.6741241216659546,-0.7590194940567017
1667824654772694500,2.667694580078125,-0.881795346736908,-0.6861329674720764,-0.7921050190925598
1667824654782702600,2.67770263671875,-0.7824320197105408,-0.6715649962425232,-0.8249303698539734
1667824654792709600,2.687709716796875,-0.6885104775428772,-0.6195059418678284,-0.853752076625824
1667824654802717700,2.6977177734375,-0.5991952419281006,-0.5195508599281311,-0.8552300930023193
1667824654812724500,2.707724365234375,-0.5226677060127258,-0.3844035565853119,-0.8300997614860535
1667824654822732800,2.71773291015625,-0.44839349389076233,-0.24982284009456635,-0.775127112865448
1667824654832740900,2.727740966796875,-0.3780736029148102,-0.11857682466506958,-0.7118397355079651
1667824654842747600,2.73774755859375,-0.2849298119544983,0.005480675958096981,-0.6727399826049805
1667824654852755700,2.747755615234375,-0.16218847036361694,0.08503483235836029,-0.6694539189338684
1667824654862763500,2.757763427734375,-0.0028845611959695816,0.09535565227270126,-0.7198196053504944
1667824654872770800,2.767770751953125,0.18525154888629913,0.024736721068620682,-0.8274555206298828
1667824654882778600,2.777778564453125,0.3989773988723755,-0.18302127718925476,-1.0012469291687012
1667824654892785700,2.78778564453125,0.6072751879692078,-0.49502331018447876,-1.263231873512268
1667824654902793700,2.797793701171875,0.756695032119751,-0.8047409057617188,-1.5588387250900269
1667824654912801800,2.8078017578125,0.840717077255249,-1.0214604139328003,-1.8070268630981445
1667824654922808600,2.81780859375,0.8502357602119446,-1.1230705976486206,-1.9607312679290771
1667824654932816600,2.827816650390625,0.7869970202445984,-1.0966554880142212,-1.97263503074646
1667824654942823700,2.83782373046875,0.6644108891487122,-0.9509238004684448,-1.8721156120300293
1667824654952831200,2.847831298828125,0.5386154651641846,-0.6889055967330933,-1.6811347007751465
1667824654962839300,2.85783935546875,0.46592259407043457,-0.3926566541194916,-1.4539152383804321
1667824654972846300,2.867846435546875,0.48078054189682007,-0.09912752360105515,-1.251275658607483
1667824654982854400,2.8778544921875,0.5996097326278687,0.1599024385213852,-1.1078031063079834
1667824654992861200,2.887861083984375,0.7981065511703491,0.3597346544265747,-1.031606912612915
1667824655002869200,2.897869140625,1.0192205905914307,0.5023128390312195,-1.0015076398849487
1667824655012877600,2.907877685546875,1.2162501811981201,0.5968625545501709,-0.9709392189979553
1667824655022884400,2.91788427734375,1.349492073059082,0.6534842848777771,-0.9090263247489929
1667824655032892400,2.927892333984375,1.3967689275741577,0.6644270420074463,-0.7995628714561462
1667824655042900200,2.937900146484375,1.359844446182251,0.6799370050430298,-0.6101855039596558
1667824655052907500,2.947907470703125,1.245478868484497,0.672458291053772,-0.36574992537498474
1667824655062915300,2.957915283203125,1.0729871988296509,0.6283166408538818,-0.09590458124876022
1667824655072922400,2.96792236328125,0.883044421672821,0.5562165975570679,0.16709506511688232
1667824655082930400,2.977930419921875,0.7019955515861511,0.4457175135612488,0.3880003094673157
1667824655092938500,2.9879384765625,0.5558589100837708,0.312222421169281,0.5651984214782715
1667824655102945300,2.9979453125,0.44697660207748413,0.1719726324081421,0.7022042274475098
1667824655112953300,3.007953369140625,0.3636729121208191,0.03166520968079567,0.812487781047821
1667824655122960400,3.01796044921875,0.29377344250679016,-0.09914446622133255,0.9027242064476013
1667824655132968400,3.027968505859375,0.2455056756734848,-0.18972574174404144,0.9654525518417358
1667824655142976300,3.037976318359375,0.22345390915870667,-0.2099204957485199,0.9973129630088806
1667824655152983600,3.047983642578125,0.21341058611869812,-0.18866905570030212,0.9919708967208862
1667824655162991400,3.057991455078125,0.2022000104188919,-0.14365842938423157,0.9361108541488647
1667824655172999400,3.06799951171875,0.19478735327720642,-0.04846806451678276,0.8410466313362122
1667824655183006200,3.078006103515625,0.20142288506031036,0.0688210055232048,0.7110257744789124
1667824655193014300,3.08801416015625,0.20832344889640808,0.20412419736385345,0.5658543705940247
1667824655203021300,3.098021240234375,0.2162218540906906,0.3269619643688202,0.42494410276412964
1667824655213029400,3.108029296875,0.22205723822116852,0.41479286551475525,0.3041280210018158
1667824655223037400,3.118037353515625,0.23873235285282135,0.4695589244365692,0.20941218733787537
1667824655233044500,3.12804443359375,0.27660709619522095,0.5019730925559998,0.14124557375907898
1667824655243052500,3.138052490234375,0.3327942192554474,0.5227515697479248,0.09009157866239548
1667824655253059300,3.148059326171875,0.40401938557624817,0.5287736058235168,0.04592203348875046
1667824655263067400,3.1580673828125,0.4874010980129242,0.5137930512428284,0.00048317573964595795
1667824655273075500,3.168075439453125,0.5670838952064514,0.49007266759872437,-0.03724062815308571
1667824655283082500,3.17808251953125,0.6366941332817078,0.46064019203186035,-0.06046498939394951
1667824655293090300,3.18809033203125,0.678563117980957,0.4330950081348419,-0.06052318960428238
1667824655303098400,3.198098388671875,0.6928762197494507,0.41436633467674255,-0.036777377128601074
1667824655313105400,3.20810546875,0.6884026527404785,0.3877892792224884,0.0020866235718131065
1667824655323113500,3.218113525390625,0.6664898991584778,0.35904020071029663,0.05515916272997856
1667824655333120300,3.228120361328125,0.641574501991272,0.33441323041915894,0.10502389818429947
1667824655343128300,3.23812841796875,0.629696786403656,0.31716233491897583,0.16493117809295654
1667824655353136400,3.248136474609375,0.632854163646698,0.28438800573349,0.2205779105424881
1667824655363143400,3.258143310546875,0.6450220942497253,0.2552040219306946,0.27667126059532166
1667824655373151200,3.268151123046875,0.6554351449012756,0.21819068491458893,0.32696691155433655
1667824655383158500,3.278158447265625,0.6529940962791443,0.17742381989955902,0.36314675211906433
1667824655393166300,3.288166259765625,0.6211650371551514,0.1379338949918747,0.3808493912220001
1667824655403174400,3.29817431640625,0.5527811646461487,0.09752415120601654,0.38502761721611023
1667824655413181200,3.30818115234375,0.4482855796813965,0.08426082134246826,0.37464991211891174
1667824655423189500,3.318189453125,0.31360048055648804,0.12181086093187332,0.3613407611846924
1667824655433196300,3.3281962890625,0.1614501178264618,0.1954101175069809,0.35773760080337524
1667824655443204400,3.338204345703125,0.004016018472611904,0.29838845133781433,0.37559834122657776
1667824655453212200,3.348212158203125,-0.12464047968387604,0.4021303355693817,0.412073016166687
1667824655463219500,3.358219482421875,-0.2220085859298706,0.49583712220191956,0.46572452783584595
1667824655473227300,3.368227294921875,-0.28207820653915405,0.5626172423362732,0.5300391316413879
1667824655483235300,3.3782353515625,-0.3206583559513092,0.5617213845252991,0.5765206217765808
1667824655493242400,3.388242431640625,-0.34255051612854004,0.4830068051815033,0.5945894122123718
1667824655503250400,3.39825048828125,-0.3528130054473877,0.33722245693206787,0.5648105144500732
1667824655513257200,3.40825732421875,-0.3602956533432007,0.13499143719673157,0.48810917139053345
1667824655523265300,3.418265380859375,-0.371814101934433,-0.0909290462732315,0.3973321318626404
1667824655533273300,3.4282734375,-0.40412405133247375,-0.3299924433231354,0.3107306659221649
1667824655543280400,3.4382802734375,-0.4805258810520172,-0.5489338636398315,0.22444000840187073
1667824655553288400,3.448288330078125,-0.611239492893219,-0.7322349548339844,0.15362925827503204
1667824655563295500,3.45829541015625,-0.7855100631713867,-0.8781002759933472,0.07522100955247879
1667824655573303600,3.468303466796875,-0.9716539978981018,-0.9990416765213013,-0.03096989169716835
1667824655583311400,3.478311279296875,-1.1368221044540405,-1.1055818796157837,-0.2107207477092743
1667824655593318400,3.488318359375,-1.2628495693206787,-1.1689724922180176,-0.4597181975841522
1667824655603326200,3.498326171875,-1.3312883377075195,-1.1725682020187378,-0.7608122229576111
1667824655613334500,3.50833447265625,-1.34879469871521,-1.0879188776016235,-1.0663180351257324
1667824655623341300,3.51834130859375,-1.3301200866699219,-0.92118239402771,-1.3123940229415894
1667824655633349400,3.528349365234375,-1.2907795906066895,-0.6935797929763794,-1.4502732753753662
1667824655643356400,3.5383564453125,-1.2385507822036743,-0.4466400146484375,-1.467321753501892
1667824655653364500,3.548364501953125,-1.1710515022277832,-0.20893172919750214,-1.3675425052642822
1667824655663372300,3.558372314453125,-1.0777136087417603,-0.004571668803691864,-1.1941297054290771
1667824655673379300,3.56837939453125,-0.957436740398407,0.1341693103313446,-0.9924479722976685
1667824655683387400,3.578387451171875,-0.8282710313796997,0.20384106040000916,-0.7922267317771912
1667824655693394400,3.58839453125,-0.6990827918052673,0.20695872604846954,-0.6200562119483948
1667824655703402200,3.59840234375,-0.5676275491714478,0.17647698521614075,-0.49431508779525757
1667824655713410300,3.608410400390625,-0.44924604892730713,0.1185544952750206,-0.38303840160369873
1667824655723417300,3.618417236328125,-0.3569113314151764,0.03197566419839859,-0.26427924633026123
1667824655733425400,3.62842529296875,-0.28935426473617554,-0.04235108941793442,-0.13038942217826843
1667824655743433500,3.63843359375,-0.23789158463478088,-0.11325109750032425,0.0203460231423378
1667824655753440300,3.648440185546875,-0.19989722967147827,-0.19174563884735107,0.17367461323738098
1667824655763448600,3.658448486328125,-0.17261020839214325,-0.2766141891479492,0.3111397922039032
1667824655773455400,3.668455322265625,-0.15970665216445923,-0.3595670759677887,0.428483247756958
1667824655783463400,3.67846337890625,-0.15693749487400055,-0.4352290630340576,0.5239219069480896
1667824655793471200,3.68847119140625,-0.15665078163146973,-0.5058896541595459,0.5784969329833984
1667824655803478500,3.698478515625,-0.1683977097272873,-0.5719254016876221,0.5977478623390198
1667824655813486300,3.708486328125,-0.1959005743265152,-0.6177111268043518,0.5724394917488098
1667824655823493400,3.718493408203125,-0.2536030113697052,-0.6322197318077087,0.5168377161026001
1667824655833501400,3.72850146484375,-0.34139248728752136,-0.6137321591377258,0.4377470016479492
1667824655843509500,3.738509521484375,-0.45656752586364746,-0.5710099935531616,0.3705027401447296
1667824655853516300,3.748516357421875,-0.5843755006790161,-0.5113655924797058,0.31907349824905396
1667824655863524400,3.7585244140625,-0.7074828147888184,-0.4709177315235138,0.2944355309009552
1667824655873532400,3.768532470703125,-0.8084387183189392,-0.47145068645477295,0.2800168991088867
1667824655883539500,3.77853955078125,-0.8956354260444641,-0.5072371959686279,0.2618655860424042
1667824655893547300,3.78854736328125,-0.9656702280044556,-0.5573520064353943,0.2248312383890152
1667824655903554600,3.798554443359375,-1.0273535251617432,-0.6158385276794434,0.13900315761566162
1667824655913562400,3.808562255859375,-1.08497154712677,-0.6603836417198181,0.005014569498598576
1667824655923570400,3.8185703125,-1.1396254301071167,-0.6462233662605286,-0.16260504722595215
1667824655933577200,3.8285771484375,-1.1940674781799316,-0.5638664960861206,-0.32620298862457275
1667824655943585300,3.838585205078125,-1.2392131090164185,-0.43227940797805786,-0.4671664834022522
1667824655953592300,3.84859228515625,-1.2899399995803833,-0.28659892082214355,-0.5656272768974304
1667824655963600400,3.858600341796875,-1.3434128761291504,-0.14563727378845215,-0.6239054799079895
1667824655973608400,3.8686083984375,-1.3745815753936768,-0.026812123134732246,-0.6464484930038452
1667824655983615500,3.878615478515625,-1.3710403442382812,0.06565043330192566,-0.6399082541465759
1667824655993623600,3.88862353515625,-1.3314529657363892,0.12873949110507965,-0.6274324059486389
1667824656003631400,3.89863134765625,-1.2471572160720825,0.16719579696655273,-0.6181774139404297
1667824656013638100,3.90863818359375,-1.1227790117263794,0.18793156743049622,-0.6230461597442627
1667824656023646500,3.918646484375,-0.983974814414978,0.20448605716228485,-0.6433786153793335
1667824656033653200,3.9286533203125,-0.8355317711830139,0.22653022408485413,-0.6773260831832886
1667824656043661300,3.938661376953125,-0.6959741115570068,0.25193464756011963,-0.7166577577590942
1667824656053669400,3.94866943359375,-0.565795361995697,0.29050177335739136,-0.7388685941696167
1667824656063676400,3.958676513671875,-0.45452290773391724,0.33002975583076477,-0.740347683429718
1667824656073684500,3.9686845703125,-0.35140031576156616,0.3621269166469574,-0.7037602663040161
1667824656083691300,3.978691162109375,-0.2450522929430008,0.38486284017562866,-0.6354352831840515
1667824656093699300,3.98869921875,-0.12327061593532562,0.3923218250274658,-0.5389618873596191
1667824656103707400,3.998707275390625,0.020763257518410683,0.38817450404167175,-0.43073827028274536
1667824656113714400,4.00871435546875,0.18827831745147705,0.3775830864906311,-0.30824533104896545
1667824656123722200,4.01872216796875,0.3704449534416199,0.3718884289264679,-0.1743554323911667
1667824656133730300,4.028730224609375,0.5634258389472961,0.34453102946281433,-0.043493110686540604
1667824656143737300,4.0387373046875,0.7660260796546936,0.23394005000591278,0.05639566853642464
1667824656153745400,4.048745361328125,0.9829780459403992,0.031525637954473495,0.10066481679677963
1667824656163752200,4.058752197265625,1.1928123235702515,-0.27422788739204407,0.05482089892029762
1667824656173760500,4.068760498046875,1.3732033967971802,-0.6666436195373535,-0.12473767250776291
1667824656183768300,4.078768310546875,1.4995418787002563,-1.0650482177734375,-0.42990052700042725
1667824656193775400,4.088775390625,1.563686490058899,-1.3679312467575073,-0.8104575872421265
1667824656203783200,4.098783203125,1.55807626247406,-1.5313560962677002,-1.1784780025482178
1667824656213791500,4.10879150390625,1.4796180725097656,-1.5246343612670898,-1.4513068199157715
1667824656223798300,4.11879833984375,1.3333288431167603,-1.2990940809249878,-1.5569552183151245
1667824656233806300,4.128806396484375,1.1568183898925781,-0.8643783926963806,-1.4748822450637817
1667824656243813400,4.1388134765625,1.0079323053359985,-0.3523542582988739,-1.2531548738479614
1667824656253821400,4.148821533203125,0.94357830286026,0.0865291878581047,-0.9328884482383728
1667824656263829500,4.15882958984375,0.978108286857605,0.40562593936920166,-0.5795221328735352
1667824656273836300,4.168836181640625,1.0765604972839355,0.5848828554153442,-0.23985478281974792
1667824656283844400,4.17884423828125,1.2050068378448486,0.6504584550857544,0.07337609678506851
1667824656293851400,4.188851318359375,1.3313943147659302,0.6086521744728088,0.3435300290584564
1667824656303859500,4.198859375,1.43002188205719,0.47972455620765686,0.5904446840286255
1667824656313867300,4.2088671875,1.465400218963623,0.3181760907173157,0.8075706362724304
1667824656323874600,4.21887451171875,1.4410433769226074,0.1361229121685028,0.9798292517662048
1667824656333882400,4.22888232421875,1.3622190952301025,-0.03943616896867752,1.0943379402160645
1667824656343890400,4.238890380859375,1.24459969997406,-0.1756020039319992,1.1674944162368774
1667824656353897200,4.248897216796875,1.1008127927780151,-0.26939576864242554,1.2053453922271729
1667824656363905500,4.258905517578125,0.9421054720878601,-0.33161866664886475,1.202415943145752
1667824656373912300,4.268912353515625,0.7873831987380981,-0.36175379157066345,1.1497974395751953
1667824656383920400,4.27892041015625,0.6458590626716614,-0.3312262296676636,1.0497698783874512
1667824656393928200,4.28892822265625,0.5232093930244446,-0.27539777755737305,0.9210905432701111
1667824656403935500,4.298935546875,0.4184185564517975,-0.21501460671424866,0.7814213037490845
1667824656413943300,4.308943359375,0.31441935896873474,-0.1304042488336563,0.6477543115615845
1667824656423950300,4.318950439453125,0.2145838439464569,-0.0274906475096941,0.5321680903434753
1667824656433958400,4.32895849609375,0.12767384946346283,0.07411117106676102,0.4343265891075134
1667824656443966500,4.338966552734375,0.05466221645474434,0.1962520033121109,0.3641200661659241
1667824656453973200,4.34897314453125,0.0034578582271933556,0.30581507086753845,0.30431151390075684
1667824656463981300,4.358981201171875,-0.025325587019324303,0.41521960496902466,0.2618498206138611
1667824656473988400,4.36898828125,-0.035249605774879456,0.5379153490066528,0.2483784258365631
1667824656483996400,4.378996337890625,-0.02708328701555729,0.6303584575653076,0.26080819964408875
1667824656494004500,4.38900439453125,-0.010046498849987984,0.689998984336853,0.2879575788974762
1667824656504011500,4.399011474609375,0.025226537138223648,0.7218397259712219,0.3352627754211426
1667824656514019600,4.40901953125,0.07765424996614456,0.737549901008606,0.39053162932395935
1667824656524027400,4.41902734375,0.1561775505542755,0.7108384370803833,0.44314876198768616
1667824656534034400,4.429034423828125,0.2405727207660675,0.6527652740478516,0.4885459542274475
1667824656544042200,4.439042236328125,0.3361937701702118,0.564705491065979,0.5145102143287659
1667824656554049500,4.449049560546875,0.4288083612918854,0.46050161123275757,0.5100308060646057
1667824656564057300,4.459057373046875,0.508816659450531,0.35547399520874023,0.48257631063461304
1667824656574065400,4.4690654296875,0.5750301480293274,0.25651779770851135,0.4299657642841339
1667824656584072400,4.479072509765625,0.6231755614280701,0.16055481135845184,0.3654341697692871
1667824656594080500,4.48908056640625,0.6493815183639526,0.0706997886300087,0.2859194576740265
1667824656604088300,4.49908837890625,0.6489628553390503,-0.007279967423528433,0.19058892130851746
1667824656614095400,4.509095458984375,0.6322262287139893,-0.05415741354227066,0.09205137193202972
1667824656624103400,4.519103515625,0.617214560508728,-0.04543742537498474,0.006858179345726967
1667824656634110500,4.5291103515625,0.605335533618927,0.020936058834195137,-0.04386887326836586
1667824656644118300,4.5391181640625,0.591209888458252,0.11758004873991013,-0.052333731204271317
1667824656654126300,4.549126220703125,0.5820106267929077,0.2195533961057663,-0.03367285802960396
1667824656664133400,4.55913330078125,0.5846700668334961,0.3008511960506439,0.012386247515678406
1667824656674141400,4.569141357421875,0.5886670351028442,0.3579499125480652,0.0816602036356926
1667824656684148200,4.579148193359375,0.5788615345954895,0.39486318826675415,0.1516566127538681
1667824656694156300,4.58915625,0.5475296378135681,0.4132566750049591,0.22573547065258026
1667824656704164400,4.599164306640625,0.4942503869533539,0.4185073673725128,0.30911770462989807
1667824656714171400,4.60917138671875,0.4238279461860657,0.4141790270805359,0.39561575651168823
1667824656724179200,4.61917919921875,0.34706926345825195,0.40433651208877563,0.47632524371147156
1667824656734186500,4.6291865234375,0.2637178897857666,0.38924640417099,0.5474558472633362
1667824656744194300,4.6391943359375,0.18768945336341858,0.36208322644233704,0.6066912412643433
1667824656754202400,4.649202392578125,0.1263127326965332,0.3093406558036804,0.6388505697250366
1667824656764209200,4.659209228515625,0.07723600417375565,0.21877294778823853,0.6337947845458984
1667824656774217500,4.669217529296875,0.035381440073251724,0.11086688935756683,0.5959795713424683
1667824656784225500,4.6792255859375,-0.011185528710484505,-0.012617502361536026,0.5232678651809692
1667824656794232300,4.689232421875,-0.07470668107271194,-0.1293894350528717,0.424791157245636
1667824656804240400,4.699240478515625,-0.16044288873672485,-0.2303892821073532,0.3070693016052246
1667824656814247400,4.709247314453125,-0.26700642704963684,-0.3199751377105713,0.18092717230319977
1667824656824255500,4.71925537109375,-0.39412015676498413,-0.41780075430870056,0.019135072827339172
1667824656834263300,4.72926318359375,-0.5354349613189697,-0.5272358059883118,-0.18866385519504547
1667824656844270600,4.7392705078125,-0.6856867671012878,-0.6324437260627747,-0.45486173033714294
1667824656854278400,4.7492783203125,-0.8373507857322693,-0.7078500986099243,-0.7684668898582458
1667824656864285400,4.759285400390625,-0.9798426628112793,-0.7328801155090332,-1.097865104675293
1667824656874293200,4.769293212890625,-1.1060781478881836,-0.7022421956062317,-1.4030088186264038
1667824656884301300,4.77930126953125,-1.1938536167144775,-0.6234073042869568,-1.642909049987793
1667824656894308400,4.789308349609375,-1.2552810907363892,-0.4915001690387726,-1.7760850191116333
1667824656904316400,4.79931640625,-1.28360116481781,-0.3049454689025879,-1.7790967226028442
1667824656914324200,4.80932421875,-1.2756847143173218,-0.09764955937862396,-1.6619480848312378
1667824656924331500,4.81933154296875,-1.2259490489959717,0.08841778337955475,-1.4621002674102783
1667824656934339300,4.82933935546875,-1.1342724561691284,0.2354927808046341,-1.2162081003189087
1667824656944346400,4.839346435546875,-1.0027469396591187,0.3169974982738495,-0.9476618766784668
1667824656954354200,4.849354248046875,-0.8437885642051697,0.3331659138202667,-0.6803102493286133
1667824656964363000,4.859363037109375,-0.68050616979599,0.26952970027923584,-0.4309297204017639
1667824656974370300,4.869370361328125,-0.5412395596504211,0.13746197521686554,-0.21684439480304718
1667824656984378000,4.879378173828125,-0.4378500282764435,-0.04035648703575134,-0.04008772596716881
1667824656994385200,4.88938525390625,-0.36350885033607483,-0.2230566143989563,0.09964954853057861
1667824657004393200,4.899393310546875,-0.31601482629776,-0.39352765679359436,0.20699037611484528
1667824657014401300,4.9094013671875,-0.30172204971313477,-0.5486724972724915,0.2688351571559906
1667824657024408000,4.919407958984375,-0.30588963627815247,-0.683641791343689,0.2996138632297516
1667824657034416000,4.929416015625,-0.33008986711502075,-0.7897364497184753,0.2815573215484619
1667824657044423200,4.939423095703125,-0.3561036288738251,-0.8503279089927673,0.23115035891532898
1667824657054431200,4.94943115234375,-0.3844091296195984,-0.8786096572875977,0.16184423863887787
1667824657064439000,4.95943896484375,-0.4128663241863251,-0.8739041090011597,0.0827222466468811
1667824657074446000,4.969446044921875,-0.443043053150177,-0.8274269104003906,-0.0023944713175296783
1667824657084454100,4.9794541015625,-0.4825342893600464,-0.7649952173233032,-0.0934644564986229
1667824657094462200,4.989462158203125,-0.5273804664611816,-0.6949231624603271,-0.17185215651988983
1667824657104469000,4.999468994140625,-0.5791560411453247,-0.6180377006530762,-0.2417425513267517
1667824657114477000,5.00947705078125,-0.6396821141242981,-0.5407251715660095,-0.3038524389266968
1667824657124484000,5.019484130859375,-0.6985499262809753,-0.4627715051174164,-0.3639559745788574
1667824657134492200,5.0294921875,-0.7415366172790527,-0.3727836310863495,-0.40351009368896484
1667824657144500000,5.0395,-0.7650160789489746,-0.2794499397277832,-0.41647863388061523
1667824657154507300,5.04950732421875,-0.7926345467567444,-0.1948341280221939,-0.4015858471393585
1667824657164515000,5.05951513671875,-0.8238526582717896,-0.1348608136177063,-0.3634674847126007
1667824657174522000,5.069522216796875,-0.8437078595161438,-0.07572551816701889,-0.3022436797618866
1667824657184530000,5.079530029296875,-0.8625012636184692,-0.0033314849715679884,-0.21988700330257416
1667824657194538200,5.089538330078125,-0.8701835870742798,0.08382298797369003,-0.1362568736076355
1667824657204545000,5.099544921875,-0.8827697038650513,0.17622269690036774,-0.07018358260393143
1667824657214553000,5.109552978515625,-0.8846226930618286,0.2685404121875763,-0.03868500143289566
1667824657224561200,5.11956103515625,-0.888778567314148,0.36580970883369446,-0.051586948335170746
1667824657234568200,5.129568115234375,-0.890896737575531,0.44233420491218567,-0.10432009398937225
1667824657244576300,5.139576171875,-0.8950906991958618,0.4958679974079132,-0.18099677562713623
1667824657254583000,5.1495830078125,-0.8951181173324585,0.5303887128829956,-0.27770742774009705
1667824657264591000,5.159591064453125,-0.8917776942253113,0.5628497004508972,-0.37070581316947937
1667824657274599200,5.16959912109375,-0.877108633518219,0.5854828953742981,-0.44418859481811523
1667824657284606200,5.179606201171875,-0.8509936928749084,0.5947677493095398,-0.47787758708000183
1667824657294614000,5.189614013671875,-0.8213557600975037,0.6025177836418152,-0.468645304441452
1667824657304621300,5.199621337890625,-0.7803667783737183,0.6074534058570862,-0.41615837812423706
1667824657314629000,5.209629150390625,-0.7137930393218994,0.6010233163833618,-0.33526721596717834
1667824657324637200,5.21963720703125,-0.6243787407875061,0.5730798244476318,-0.24927403032779694
1667824657334644000,5.22964404296875,-0.5056992769241333,0.5298959612846375,-0.17822253704071045
1667824657344652300,5.23965234375,-0.35217973589897156,0.4769454002380371,-0.11014148592948914
1667824657354660000,5.24966015625,-0.17434737086296082,0.41094034910202026,-0.03962559625506401
1667824657364667100,5.259667236328125,0.017446035519242287,0.32771122455596924,0.016466433182358742
1667824657374675000,5.269675048828125,0.23250333964824677,0.23565217852592468,0.0634518638253212
1667824657384682200,5.27968212890625,0.46693313121795654,0.13568830490112305,0.09387395530939102
1667824657394690000,5.28968994140625,0.7073734998703003,0.03574228286743164,0.10630358755588531
1667824657404698000,5.299697998046875,0.9357203841209412,-0.0834466964006424,0.08555702865123749
1667824657414705200,5.309705078125,1.1236459016799927,-0.24606622755527496,0.040890324860811234
1667824657424713200,5.319713134765625,1.260772943496704,-0.4284256398677826,-0.04302561283111572
1667824657434720000,5.329719970703125,1.3433455228805542,-0.5900044441223145,-0.1570231318473816
1667824657444728000,5.33972802734375,1.3939837217330933,-0.6761965751647949,-0.28971752524375916
1667824657454736100,5.349736083984375,1.429533839225769,-0.685127317905426,-0.40368056297302246
1667824657464743200,5.3597431640625,1.445804238319397,-0.6154888272285461,-0.44905176758766174
1667824657474751200,5.369751220703125,1.4357061386108398,-0.4606378972530365,-0.40104806423187256
1667824657484758000,5.379758056640625,1.4220552444458008,-0.2365955114364624,-0.2540567219257355
1667824657494766300,5.389766357421875,1.4111210107803345,-0.0037712478078901768,-0.03508864715695381
1667824657504774100,5.399774169921875,1.4164379835128784,0.1783868372440338,0.22574268281459808
1667824657514781200,5.40978125,1.4268642663955688,0.279337614774704,0.4808388650417328
1667824657524789000,5.4197890625,1.4214239120483398,0.29741060733795166,0.701124370098114
1667824657534797300,5.42979736328125,1.3993780612945557,0.25941237807273865,0.8728446960449219
1667824657544804000,5.43980419921875,1.3451992273330688,0.20459865033626556,1.004244327545166
1667824657554812200,5.449812255859375,1.2607755661010742,0.10352911055088043,1.1020572185516357
1667824657564819200,5.459819091796875,1.143554925918579,-0.009368140250444412,1.180346965789795
1667824657574827300,5.4698271484375,1.00364351272583,-0.10527736693620682,1.2269845008850098
1667824657584835000,5.4798349609375,0.8650842905044556,-0.17968395352363586,1.225272297859192
1667824657594842000,5.489842041015625,0.7503909468650818,-0.2506002187728882,1.1751537322998047
1667824657604850200,5.49985009765625,0.6604391932487488,-0.3064158260822296,1.0819077491760254
1667824657614857200,5.509857177734375,0.5929161310195923,-0.34670066833496094,0.9583921432495117
1667824657624865000,5.519864990234375,0.5289430022239685,-0.3800128102302551,0.8208060264587402
1667824657634873000,5.529873046875,0.4764412045478821,-0.3731090724468231,0.6775000095367432
1667824657644880100,5.539880126953125,0.4462204575538635,-0.306916207075119,0.5397599935531616
1667824657654888200,5.54988818359375,0.44345706701278687,-0.20877553522586823,0.4333701729774475
1667824657664895000,5.55989501953125,0.4550471603870392,-0.08402560651302338,0.35632625222206116
1667824657674903000,5.569903076171875,0.45590952038764954,0.061888113617897034,0.3152420222759247
1667824657684911000,5.5799111328125,0.4292510151863098,0.2097151279449463,0.2979205548763275
1667824657694918100,5.589918212890625,0.389741986989975,0.33805418014526367,0.2935158312320709
1667824657704926000,5.599926025390625,0.3577529191970825,0.440721720457077,0.2846240699291229
1667824657714934000,5.60993408203125,0.34771737456321716,0.48023927211761475,0.26094260811805725
1667824657724941000,5.619941162109375,0.3525288999080658,0.4401557445526123,0.2198316603899002
1667824657734949000,5.62994921875,0.3748030662536621,0.3592064678668976,0.17398779094219208
1667824657744956000,5.639955810546875,0.40372607111930847,0.26879027485847473,0.1220412477850914
1667824657754964200,5.649964111328125,0.4382001459598541,0.19769155979156494,0.08686057478189468
1667824657764972300,5.65997216796875,0.4632548987865448,0.15320850908756256,0.061358414590358734
1667824657774979000,5.66997900390625,0.48306095600128174,0.15113739669322968,0.05879812687635422
1667824657784987100,5.679987060546875,0.49881938099861145,0.1772899031639099,0.08136975020170212
1667824657794994200,5.689994140625,0.5106911659240723,0.22328901290893555,0.12261448800563812
1667824657805002200,5.700002197265625,0.5199277997016907,0.27301502227783203,0.1704760193824768
1667824657815010000,5.710010009765625,0.542057454586029,0.3018818199634552,0.21283483505249023
1667824657825017000,5.72001708984375,0.5806770324707031,0.28500697016716003,0.23320215940475464
1667824657835025200,5.730025146484375,0.622727632522583,0.23656056821346283,0.22656439244747162
1667824657845032200,5.7400322265625,0.6318947672843933,0.2019365429878235,0.21050579845905304
1667824657855040000,5.7500400390625,0.6025734543800354,0.19921183586120605,0.19555911421775818
1667824657865048000,5.760048095703125,0.5348418354988098,0.21774211525917053,0.1997613161802292
1667824657875055000,5.77005517578125,0.4214426279067993,0.26797962188720703,0.24174073338508606
1667824657885063200,5.780063232421875,0.2773248851299286,0.34498438239097595,0.31691935658454895
1667824657895071000,5.790071044921875,0.12088838964700699,0.4419313073158264,0.4284668564796448
1667824657905078300,5.800078369140625,-0.021319620311260223,0.5242408514022827,0.5499567985534668
1667824657915086000,5.810086181640625,-0.12777748703956604,0.5904980897903442,0.6647807359695435
1667824657925093000,5.820093017578125,-0.17915651202201843,0.6262965798377991,0.7525795698165894
1667824657935101000,5.830100830078125,-0.17518079280853271,0.6345688104629517,0.807022750377655
1667824657945109200,5.840109130859375,-0.133838951587677,0.599136471748352,0.8320572376251221
1667824657955116000,5.850115966796875,-0.07585351169109344,0.5045956373214722,0.8112955093383789
1667824657965123300,5.860123291015625,-0.018568651750683784,0.34656020998954773,0.731939435005188
1667824657975130400,5.87013037109375,0.018282178789377213,0.15987277030944824,0.5945726633071899
1667824657985138400,5.880138427734375,0.01898765005171299,-0.05831361189484596,0.3976031541824341
1667824657995146500,5.890146484375,-0.03812384977936745,-0.2948819696903229,0.13314665853977203
1667824658005153500,5.900153564453125,-0.16141541302204132,-0.5375223159790039,-0.17892815172672272
1667824658015161600,5.91016162109375,-0.3319154381752014,-0.7385239601135254,-0.506686806678772
1667824658025169400,5.92016943359375,-0.5330200791358948,-0.8556095361709595,-0.8255348801612854
1667824658035176400,5.930176513671875,-0.7396458387374878,-0.8955826759338379,-1.1292181015014648
1667824658045184300,5.940184326171875,-0.9122863411903381,-0.8682743310928345,-1.398486614227295
1667824658055191600,5.950191650390625,-1.0347317457199097,-0.8113545775413513,-1.6274231672286987
1667824658065199400,5.960199462890625,-1.1108533143997192,-0.7165838479995728,-1.7955315113067627
1667824658075207400,5.97020751953125,-1.150117039680481,-0.5690978169441223,-1.881084680557251
1667824658085214500,5.98021435546875,-1.14501953125,-0.37663015723228455,-1.8637243509292603
1667824658095222500,5.990222412109375,-1.0783263444900513,-0.18931478261947632,-1.7531929016113281
1667824658105229300,6.000229248046875,-0.9580084681510925,-0.03634945675730705,-1.5599443912506104
1667824658115237400,6.0102373046875,-0.8128771781921387,0.06020868197083473,-1.313908338546753
1667824658125245400,6.020245361328125,-0.6503074765205383,0.07772962003946304,-1.0653361082077026
1667824658135252500,6.03025244140625,-0.478900283575058,0.006663012318313122,-0.851492702960968
1667824658145260300,6.04026025390625,-0.3227274417877197,-0.13322430849075317,-0.6767454147338867
1667824658155267600,6.050267578125,-0.20600776374340057,-0.3132718801498413,-0.5390810370445251
1667824658165275400,6.060275390625,-0.1275920569896698,-0.49317508935928345,-0.4355866014957428
1667824658175283500,6.070283447265625,-0.0928543359041214,-0.6247606873512268,-0.34587809443473816
1667824658185290200,6.080290283203125,-0.08065705746412277,-0.7158333659172058,-0.2638857364654541
1667824658195298600,6.090298583984375,-0.08493563532829285,-0.7591887712478638,-0.18830296397209167
1667824658205306600,6.100306640625,-0.10744467377662659,-0.7615723013877869,-0.12038276344537735
1667824658215313400,6.1103134765625,-0.1545044481754303,-0.7372866868972778,-0.08440007269382477
1667824658225321500,6.120321533203125,-0.19829107820987701,-0.6815065145492554,-0.07566597312688828
1667824658235328500,6.13032861328125,-0.22644250094890594,-0.5914959907531738,-0.08099240809679031
1667824658245336600,6.140336669921875,-0.24456052482128143,-0.4864603579044342,-0.09941083192825317
1667824658255344400,6.150344482421875,-0.2665438950061798,-0.3761786222457886,-0.11612550169229507
1667824658265351400,6.160351318359375,-0.3017391562461853,-0.283907026052475,-0.13048791885375977
1667824658275359500,6.170359375,-0.3592495918273926,-0.2306928038597107,-0.15213623642921448
1667824658285366500,6.180366455078125,-0.4275144040584564,-0.20481060445308685,-0.1606823205947876
1667824658295374300,6.190374267578125,-0.5039036273956299,-0.2178252786397934,-0.16118966042995453
1667824658305382400,6.20038232421875,-0.5892427563667297,-0.250754177570343,-0.15613363683223724
1667824658315389400,6.210389404296875,-0.68599534034729,-0.2802901566028595,-0.14794418215751648
1667824658325397500,6.2203974609375,-0.8013861179351807,-0.2908077836036682,-0.13351544737815857
1667824658335404300,6.230404296875,-0.9365209937095642,-0.2690959572792053,-0.11240195482969284
1667824658345412600,6.24041259765625,-1.0683423280715942,-0.193097323179245,-0.07858007401227951
1667824658355420400,6.25042041015625,-1.1768800020217896,-0.09102208912372589,-0.050852566957473755
1667824658365427500,6.260427490234375,-1.2379273176193237,0.009535407647490501,-0.042199160903692245
1667824658375435300,6.270435302734375,-1.26907217502594,0.08421509712934494,-0.059892453253269196
1667824658385443300,6.280443359375,-1.2708064317703247,0.12388288229703903,-0.0951995775103569
1667824658395450400,6.290450439453125,-1.2550257444381714,0.12004974484443665,-0.13571205735206604
1667824658405458400,6.30045849609375,-1.2249879837036133,0.11859112977981567,-0.17055818438529968
1667824658415465500,6.310465576171875,-1.1876226663589478,0.12290263921022415,-0.17898592352867126
1667824658425473500,6.3204736328125,-1.1337347030639648,0.11621144413948059,-0.16872955858707428
1667824658435481300,6.3304814453125,-1.0660032033920288,0.09664072841405869,-0.15874890983104706
1667824658445488400,6.34048828125,-0.9792091846466064,0.06474591046571732,-0.1622685343027115
1667824658455496200,6.35049609375,-0.8717790842056274,0.04023560881614685,-0.175091952085495
1667824658465503500,6.36050341796875,-0.7583502531051636,0.040757857263088226,-0.18459464609622955
1667824658475511300,6.37051123046875,-0.6523103713989258,0.06115829572081566,-0.1742292195558548
1667824658485519400,6.380519287109375,-0.5465746521949768,0.07468315958976746,-0.12913045287132263
1667824658495526400,6.3905263671875,-0.42805954813957214,0.07799322158098221,-0.06688761711120605
1667824658505534500,6.400534423828125,-0.28949660062789917,0.06789664924144745,0.010353904217481613
1667824658515541200,6.410541259765625,-0.13123130798339844,0.026614122092723846,0.09093967080116272
1667824658525549300,6.42054931640625,0.05652928352355957,-0.045174047350883484,0.1456471085548401
1667824658535557600,6.4305576171875,0.2711802124977112,-0.13884451985359192,0.1644022911787033
1667824658545564400,6.440564453125,0.5097600221633911,-0.2518506944179535,0.12490947544574738
1667824658555572500,6.450572509765625,0.7409024834632874,-0.38121795654296875,0.02088245190680027
1667824658565580300,6.460580322265625,0.9506442546844482,-0.5211731791496277,-0.11882351338863373
1667824658575587600,6.470587646484375,1.1238113641738892,-0.6136564612388611,-0.26652535796165466
1667824658585595400,6.480595458984375,1.2545208930969238,-0.6509827971458435,-0.3862919509410858
1667824658595602400,6.4906025390625,1.3250812292099,-0.5972504615783691,-0.442190021276474
1667824658605610500,6.500610595703125,1.3552929162979126,-0.44954565167427063,-0.43231502175331116
1667824658615618600,6.51061865234375,1.373052716255188,-0.20030222833156586,-0.35307878255844116
1667824658625625300,6.520625244140625,1.4105113744735718,0.08704593777656555,-0.21671774983406067
1667824658635633400,6.53063330078125,1.479889154434204,0.31321126222610474,-0.043414562940597534
1667824658645640400,6.540640380859375,1.5719062089920044,0.44763538241386414,0.13990892469882965
1667824658655648500,6.5506484375,1.6654284000396729,0.473604291677475,0.309722363948822
1667824658665656300,6.56065625,1.7460113763809204,0.4175333082675934,0.4903225004673004
1667824658675663400,6.570663330078125,1.7903472185134888,0.3148815333843231,0.6855224370956421
1667824658685671400,6.58067138671875,1.7646887302398682,0.16361874341964722,0.8728023171424866
1667824658695679500,6.590679443359375,1.6578587293624878,-0.054217636585235596,1.0381437540054321
1667824658705686300,6.600686279296875,1.4709900617599487,-0.3139195144176483,1.1932984590530396
1667824658715694300,6.6106943359375,1.2087037563323975,-0.5708891749382019,1.3199065923690796
1667824658725701400,6.620701416015625,0.8975680470466614,-0.7858741879463196,1.4103995561599731
1667824658735709400,6.63070947265625,0.5689157843589783,-0.9246785640716553,1.4533131122589111
1667824658745717500,6.640717529296875,0.27644479274749756,-0.9653314352035522,1.4401317834854126
1667824658755724500,6.650724609375,0.04479754716157913,-0.9487165808677673,1.3766998052597046
1667824658765732600,6.660732666015625,-0.1436123102903366,-0.9167850017547607,1.2790038585662842
1667824658775739400,6.670739501953125,-0.31154289841651917,-0.8753405213356018,1.1395351886749268
1667824658785747500,6.68074755859375,-0.439802348613739,-0.804938793182373,0.9803657531738281
1667824658795755300,6.69075537109375,-0.5261480808258057,-0.71495121717453,0.8181308507919312
1667824658805762600,6.700762451171875,-0.5721200704574585,-0.6028385758399963,0.671622633934021
1667824658815770400,6.710770263671875,-0.6031858921051025,-0.4773865044116974,0.53397536277771
1667824658825777400,6.72077734375,-0.6140228509902954,-0.3347523808479309,0.40772661566734314
1667824658835785500,6.730785400390625,-0.606514573097229,-0.16662810742855072,0.29861772060394287
1667824658845793500,6.74079345703125,-0.5782118439674377,0.03152439743280411,0.1945917010307312
1667824658855800300,6.75080029296875,-0.5217345356941223,0.23585394024848938,0.10161514580249786
1667824658865808400,6.760808349609375,-0.44423550367355347,0.43007346987724304,0.030748693272471428
1667824658875816400,6.77081640625,-0.356094092130661,0.5866096019744873,-0.011299210600554943
1667824658885823500,6.780823486328125,-0.25755953788757324,0.6820639371871948,-0.01455945335328579
1667824658895831300,6.790831298828125,-0.15181902050971985,0.7209576964378357,0.013431884348392487
1667824658905838600,6.800838623046875,-0.040752165019512177,0.6933678984642029,0.07963699847459793
1667824658915846400,6.810846435546875,0.0689481794834137,0.6020265221595764,0.16567985713481903
1667824658925854500,6.8208544921875,0.15634727478027344,0.47107434272766113,0.26709598302841187
1667824658935861200,6.830861328125,0.22748693823814392,0.3518938720226288,0.3711242973804474
1667824658945869600,6.84086962890625,0.2784942090511322,0.24304832518100739,0.4695739150047302
1667824658955876400,6.85087646484375,0.3260722756385803,0.15191692113876343,0.5510826706886292
1667824658965885200,6.86088525390625,0.3718445599079132,0.07592602074146271,0.6258253455162048
1667824658975893000,6.87089306640625,0.42440152168273926,-0.02039986476302147,0.6815054416656494
1667824658985900300,6.880900390625,0.4738987684249878,-0.13380739092826843,0.7061998248100281
1667824658995908000,6.890908203125,0.521069347858429,-0.2496069371700287,0.6946882009506226
1667824659005915100,6.9009150390625,0.5660282969474792,-0.3546835482120514,0.6636303663253784
1667824659015923000,6.9109228515625,0.5946353673934937,-0.44475242495536804,0.620102047920227
1667824659025931000,6.920930908203125,0.5973808169364929,-0.5069644451141357,0.5766504406929016
1667824659035938000,6.93093798828125,0.5672659873962402,-0.5456504225730896,0.5497193932533264
1667824659045946000,6.940946044921875,0.5075275897979736,-0.5568063855171204,0.5538235902786255
1667824659055954200,6.9509541015625,0.434316486120224,-0.5086648464202881,0.5723562836647034
1667824659065961200,6.960961181640625,0.3700384497642517,-0.3991468846797943,0.614223062992096
1667824659075969300,6.97096923828125,0.31874626874923706,-0.2660243511199951,0.6684584021568298
1667824659085976000,6.98097607421875,0.28448525071144104,-0.09816476702690125,0.7333250045776367
1667824659095984000,6.990984130859375,0.24757550656795502,0.08463934808969498,0.7824228405952454
1667824659105992200,7.0009921875,0.21333631873130798,0.2559088468551636,0.810978889465332
1667824659115999200,7.010999267578125,0.18143543601036072,0.3980441689491272,0.8130192756652832
1667824659126007000,7.021007080078125,0.15470102429389954,0.5024640560150146,0.7972919940948486
1667824659136014300,7.031014404296875,0.1379980593919754,0.5817317366600037,0.7661991715431213
1667824659146022100,7.041022216796875,0.12877580523490906,0.6426742076873779,0.7272421717643738
1667824659156030200,7.0510302734375,0.12384773790836334,0.650871753692627,0.681249737739563
1667824659166037000,7.061037109375,0.1251545548439026,0.5855436325073242,0.6047730445861816
1667824659176045000,7.071045166015625,0.13636887073516846,0.46167102456092834,0.4892251789569855
1667824659186053000,7.08105322265625,0.141500785946846,0.2751149833202362,0.32469800114631653
1667824659196060200,7.09106005859375,0.1245504841208458,0.04674239456653595,0.1258864402770996
1667824659206068000,7.10106787109375,0.06554042547941208,-0.1832391321659088,-0.11667241156101227
1667824659216075300,7.1110751953125,-0.0329158753156662,-0.4034270942211151,-0.375541627407074
1667824659226083000,7.1210830078125,-0.15966077148914337,-0.5881016254425049,-0.6475846171379089
1667824659236091100,7.131091064453125,-0.28215092420578003,-0.7150000333786011,-0.9212363958358765
1667824659246098000,7.141097900390625,-0.3734065294265747,-0.7504573464393616,-1.1681705713272095
1667824659256106200,7.151106201171875,-0.4110412299633026,-0.7137372493743896,-1.364058494567871
1667824659266113000,7.161113037109375,-0.4086934030056,-0.6169547438621521,-1.482505440711975
1667824659276121000,7.17112109375,-0.40011170506477356,-0.45702502131462097,-1.499468445777893
1667824659286129200,7.181129150390625,-0.38723745942115784,-0.2239382416009903,-1.4094901084899902
1667824659296136200,7.19113623046875,-0.3561828136444092,0.027505964040756226,-1.2319303750991821
1667824659306144300,7.201144287109375,-0.29063868522644043,0.2274765968322754,-1.0285849571228027
1667824659316151000,7.211151123046875,-0.20419442653656006,0.3387758731842041,-0.8327920436859131
1667824659326159400,7.221159423828125,-0.11249540001153946,0.3269892632961273,-0.6745100021362305
1667824659336167200,7.231167236328125,-0.0370975062251091,0.23163220286369324,-0.549017608165741
1667824659346174200,7.24117431640625,0.011536341160535812,0.12078317999839783,-0.4552839398384094
1667824659356182000,7.25118212890625,0.03262883052229881,0.033252209424972534,-0.3901955187320709
1667824659366189300,7.261189208984375,0.027161095291376114,-0.02909904718399048,-0.3479902744293213
1667824659376197000,7.271197021484375,-0.008571917191147804,-0.06730178743600845,-0.31882643699645996
1667824659386205200,7.281205078125,-0.07525108009576797,-0.06521813571453094,-0.27738896012306213
1667824659396212200,7.291212158203125,-0.15148799121379852,-0.07292894273996353,-0.22663980722427368
1667824659406220300,7.30122021484375,-0.2328731268644333,-0.08969461172819138,-0.17212943732738495
1667824659416228000,7.31122802734375,-0.29854127764701843,-0.10979130864143372,-0.11971449851989746
1667824659426235100,7.321235107421875,-0.3505834639072418,-0.12518757581710815,-0.07978545874357224
1667824659436243000,7.331242919921875,-0.4003092646598816,-0.10855463892221451,-0.051257651299238205
1667824659446250200,7.341250244140625,-0.46424269676208496,-0.09047950059175491,-0.022610025480389595
1667824659456258000,7.351258056640625,-0.5378815531730652,-0.06840910017490387,-0.0054641952738165855
1667824659466266000,7.36126611328125,-0.6164906024932861,-0.054130297154188156,0.016277052462100983
1667824659476273200,7.371273193359375,-0.6870050430297852,-0.04858555644750595,0.020630352199077606
1667824659486281200,7.38128125,-0.7582608461380005,-0.051566433161497116,0.010981719940900803
1667824659496288000,7.3912880859375,-0.8219034671783447,-0.06135902926325798,-0.012280907481908798
1667824659506296000,7.401296142578125,-0.8898582458496094,-0.09134488552808762,-0.03481391444802284
1667824659516304100,7.41130419921875,-0.961901068687439,-0.12092281132936478,-0.045702021569013596
1667824659526311200,7.421311279296875,-1.0459282398223877,-0.17435036599636078,-0.029071912169456482
1667824659536319000,7.431319091796875,-1.145797848701477,-0.22836315631866455,0.014988726004958153
1667824659546326300,7.441326171875,-1.2531250715255737,-0.26145079731941223,0.07148715853691101
1667824659556334000,7.451333984375,-1.3611419200897217,-0.29016563296318054,0.12128244340419769
1667824659566342100,7.461342041015625,-1.445318579673767,-0.2997143864631653,0.14695025980472565
1667824659576349000,7.471348876953125,-1.4961730241775513,-0.31428390741348267,0.13987138867378235
1667824659586357000,7.48135693359375,-1.5237956047058105,-0.32028746604919434,0.09227776527404785
1667824659596365300,7.491365234375,-1.5250186920166016,-0.3027963638305664,0.014649057760834694
1667824659606372000,7.5013720703125,-1.5048534870147705,-0.256350576877594,-0.09830944985151291
1667824659616380200,7.511380126953125,-1.4599462747573853,-0.20086905360221863,-0.231293186545372
1667824659626387200,7.52138720703125,-1.3941075801849365,-0.14302226901054382,-0.3699253797531128
1667824659636395300,7.531395263671875,-1.3048900365829468,-0.11984077095985413,-0.5095267295837402
1667824659646403000,7.541403076171875,-1.1991820335388184,-0.11018893867731094,-0.6228508353233337
1667824659656410000,7.55141015625,-1.0791703462600708,-0.12411276251077652,-0.7107951641082764
1667824659666418200,7.561418212890625,-0.9697474837303162,-0.16786928474903107,-0.7808493971824646
1667824659676425200,7.57142529296875,-0.8748664259910583,-0.2074679732322693,-0.8379856944084167
1667824659686433000,7.58143310546875,-0.7896583676338196,-0.22751811146736145,-0.887198269367218
1667824659696441000,7.591441162109375,-0.6988258361816406,-0.23943112790584564,-0.9421535730361938
1667824659706448100,7.6014482421875,-0.6087771654129028,-0.23960235714912415,-0.98018479347229
1667824659716456200,7.611456298828125,-0.5203273892402649,-0.22465059161186218,-1.0020655393600464
1667824659726463000,7.621462890625,-0.4311807453632355,-0.2089160978794098,-0.9859886169433594
1667824659736471300,7.63147119140625,-0.32596299052238464,-0.2053828239440918,-0.9398563504219055
1667824659746479000,7.64147900390625,-0.19086749851703644,-0.1993531584739685,-0.866510808467865
1667824659756486100,7.651486083984375,-0.013809026218950748,-0.22931654751300812,-0.7911348342895508
1667824659766494000,7.661493896484375,0.21113300323486328,-0.2843502163887024,-0.716330885887146
1667824659776501200,7.671501220703125,0.47594866156578064,-0.33877837657928467,-0.6454812288284302
1667824659786509000,7.681509033203125,0.7770432829856873,-0.3735225200653076,-0.5757405161857605
1667824659796517000,7.69151708984375,1.0665805339813232,-0.39154452085494995,-0.4896053373813629
1667824659806524200,7.701524169921875,1.3336740732192993,-0.39724424481391907,-0.3835686445236206
1667824659816532200,7.7115322265625,1.556726336479187,-0.38102075457572937,-0.26655295491218567
1667824659826540300,7.721540283203125,1.73451566696167,-0.3127301037311554,-0.13185319304466248
1667824659836547000,7.731547119140625,1.8792519569396973,-0.18102146685123444,0.005896426271647215
1667824659846555100,7.74155517578125,1.9910213947296143,-0.03710797429084778,0.12723350524902344
1667824659856562200,7.751562255859375,2.0651793479919434,0.0901050791144371,0.23298943042755127
1667824659866570200,7.7615703125,2.1146693229675293,0.1917715221643448,0.3125508427619934
1667824659876578000,7.771578125,2.136636734008789,0.2644648849964142,0.3699266016483307
1667824659886585300,7.78158544921875,2.136357307434082,0.3229404389858246,0.4183657765388489
1667824659896593200,7.79159326171875,2.078939199447632,0.37382426857948303,0.4630049765110016
1667824659906600200,7.80160009765625,1.9324277639389038,0.4095127582550049,0.5040760040283203
1667824659916608000,7.81160791015625,1.7041908502578735,0.4086933135986328,0.5220396518707275
1667824659926616000,7.821615966796875,1.4203181266784668,0.3844819962978363,0.5264394879341125
1667824659936623000,7.831623046875,1.1210856437683105,0.36240115761756897,0.5143274664878845
1667824659946631200,7.841631103515625,0.8339145183563232,0.32508522272109985,0.5123180747032166
1667824659956638200,7.85163818359375,0.5834742188453674,0.25864526629447937,0.5163636207580566
1667824659966646300,7.861646240234375,0.3735729157924652,0.18040236830711365,0.5392641425132751
1667824659976654300,7.871654296875,0.2209896296262741,0.12338557839393616,0.581145167350769
1667824659986661000,7.8816611328125,0.12583009898662567,0.09047503024339676,0.6288189888000488
1667824659996669200,7.891669189453125,0.0709708034992218,0.08418740332126617,0.6675092577934265
1667824660006677500,7.901677490234375,0.043379127979278564,0.09577241539955139,0.6827792525291443
1667824660016684300,7.911684326171875,0.027944888919591904,0.13419358432292938,0.6694622039794922
1667824660026692400,7.9216923828125,0.012083633802831173,0.1993779093027115,0.6254433989524841
1667824660036699400,7.931699462890625,-0.006707782857120037,0.28482550382614136,0.5534608960151672
1667824660046707500,7.94170751953125,-0.031017383560538292,0.3700735569000244,0.4512577950954437
1667824660056715300,7.95171533203125,-0.050328243523836136,0.45287275314331055,0.3397789001464844
1667824660066722300,7.961722412109375,-0.06685955077409744,0.5352283716201782,0.2400733381509781
1667824660076730400,7.97173046875,-0.06640429049730301,0.6046969890594482,0.1692110002040863
1667824660086737400,7.9817373046875,-0.07343903183937073,0.6659457087516785,0.13208600878715515
1667824660096745200,7.9917451171875,-0.0824299305677414,0.7111455798149109,0.1415005922317505
1667824660106753300,8.001753173828124,-0.09088680148124695,0.720486581325531,0.1781107783317566
1667824660116760300,8.01176025390625,-0.09559999406337738,0.7256782650947571,0.22727404534816742
1667824660126768400,8.021768310546875,-0.08048522472381592,0.7189695239067078,0.2805772125720978
1667824660136775200,8.031775146484375,-0.04802846163511276,0.681581974029541,0.3119301199913025
1667824660146783200,8.041783203125,0.008692871779203415,0.6147435903549194,0.32288476824760437
1667824660156791300,8.051791259765626,0.07183349877595901,0.5041484236717224,0.3186759054660797
1667824660166798300,8.06179833984375,0.12348684668540955,0.3616437613964081,0.2676614820957184
1667824660176806100,8.07180615234375,0.14983034133911133,0.22245678305625916,0.188068225979805
1667824660186814200,8.081814208984374,0.14627155661582947,0.10913234204053879,0.09063008427619934
1667824660196821200,8.0918212890625,0.11983112245798111,0.04095249995589256,-0.01570369116961956
1667824660206829300,8.101829345703125,0.06182054057717323,0.018333211541175842,-0.10398242622613907
1667824660216836000,8.111836181640625,-0.03332239389419556,0.07372421771287918,-0.1467197686433792
1667824660226844400,8.121844482421874,-0.14398153126239777,0.1924857497215271,-0.12720705568790436
1667824660236852500,8.1318525390625,-0.2417706996202469,0.34945419430732727,-0.050568271428346634
1667824660246859300,8.141859375,-0.2936307191848755,0.4857257604598999,0.07051554322242737
1667824660256867300,8.151867431640625,-0.2971727252006531,0.6046065092086792,0.22986948490142822
1667824660266874400,8.161874267578124,-0.2570633888244629,0.6704062819480896,0.4064554274082184
1667824660276882400,8.17188232421875,-0.17729543149471283,0.6954525113105774,0.5932721495628357
1667824660286890200,8.18189013671875,-0.09201169013977051,0.6846747398376465,0.7819115519523621
1667824660296897500,8.1918974609375,0.0017788740806281567,0.6398563981056213,0.9532681107521057
1667824660306905300,8.2019052734375,0.08368652313947678,0.566439151763916,1.0768758058547974
1667824660316912400,8.211912353515626,0.15390901267528534,0.434912770986557,1.1368149518966675
1667824660326920200,8.221920166015625,0.21694497764110565,0.21437424421310425,1.1058846712112427
1667824660336928300,8.23192822265625,0.24945083260536194,-0.0775352194905281,0.9872258901596069
1667824660346935300,8.241935302734374,0.22602196037769318,-0.3900047242641449,0.7800945043563843
1667824660356943400,8.251943359375,0.14307275414466858,-0.7010736465454102,0.510814368724823
1667824660366950400,8.261950439453125,0.004487970378249884,-0.996296226978302,0.19489018619060516
1667824660376958500,8.27195849609375,-0.17398907244205475,-1.2499303817749023,-0.16670601069927216
1667824660386966300,8.28196630859375,-0.37967193126678467,-1.4023871421813965,-0.5479066371917725
1667824660396973300,8.291973388671876,-0.5802699327468872,-1.3983948230743408,-0.9140461087226868
1667824660406981000,8.301981201171875,-0.7268535494804382,-1.2486625909805298,-1.2174243927001953
1667824660416989400,8.311989501953125,-0.8262931704521179,-1.0100685358047485,-1.4252644777297974
1667824660426996200,8.321996337890624,-0.8964405655860901,-0.746767520904541,-1.5140316486358643
1667824660437004300,8.33200439453125,-0.9344518184661865,-0.44172993302345276,-1.4715900421142578
1667824660447011300,8.34201123046875,-0.9102692604064941,-0.1333491951227188,-1.3217934370040894
1667824660457019400,8.352019287109375,-0.80342698097229,0.09563931822776794,-1.1140791177749634
1667824660467027200,8.362027099609374,-0.6358526349067688,0.220450758934021,-0.8834182620048523
1667824660477034200,8.3720341796875,-0.43363168835639954,0.22984592616558075,-0.6693952679634094
1667824660487042300,8.382042236328125,-0.22659538686275482,0.12496425211429596,-0.48786598443984985
1667824660497049300,8.39204931640625,-0.03302975371479988,-0.08268609642982483,-0.35535937547683716
1667824660507057200,8.40205712890625,0.11567263305187225,-0.33402538299560547,-0.2685203552246094
1667824660517065200,8.412065185546876,0.20353129506111145,-0.5599809885025024,-0.22960995137691498
1667824660527072300,8.422072265625,0.25834447145462036,-0.7268059253692627,-0.2308368682861328
1667824660537080300,8.432080322265625,0.2729906141757965,-0.841603696346283,-0.25485676527023315
1667824660547087000,8.442087158203124,0.260252982378006,-0.8967596292495728,-0.28221461176872253
1667824660557095200,8.45209521484375,0.2042689323425293,-0.8859736919403076,-0.31696179509162903
1667824660567103500,8.462103515625,0.11521416902542114,-0.8277263641357422,-0.3218423128128052
1667824660577110300,8.4721103515625,-0.0019695372320711613,-0.7437610626220703,-0.3153521716594696
1667824660587118300,8.482118408203124,-0.12626059353351593,-0.6341490745544434,-0.2921951711177826
1667824660597125400,8.49212548828125,-0.23584553599357605,-0.5043240785598755,-0.26628729701042175
1667824660607133400,8.502133544921875,-0.3164421021938324,-0.38469356298446655,-0.2279188483953476
1667824660617141200,8.512141357421875,-0.3682484030723572,-0.2879336178302765,-0.18594317138195038
1667824660627148300,8.522148193359374,-0.4124036133289337,-0.19566228985786438,-0.12682552635669708
1667824660637156400,8.53215625,-0.44863244891166687,-0.12060695141553879,-0.060349028557538986
1667824660647164400,8.542164306640625,-0.49545004963874817,-0.07036695629358292,0.0023186146281659603
1667824660657171200,8.552171142578125,-0.5571668148040771,-0.013091642409563065,0.07184477150440216
1667824660667179300,8.56217919921875,-0.6391623616218567,0.03472781181335449,0.1492263823747635
1667824660677186300,8.572186279296876,-0.7383372187614441,0.08842334896326065,0.22958514094352722
1667824660687194400,8.5821943359375,-0.8518038392066956,0.1441153734922409,0.31082940101623535
1667824660697202200,8.5922021484375,-0.9674341678619385,0.18214349448680878,0.3646853566169739
1667824660707209500,8.60220947265625,-1.0611846446990967,0.21188168227672577,0.3792746961116791
1667824660717217300,8.61221728515625,-1.1254953145980835,0.24264968931674957,0.34945186972618103
1667824660727224300,8.622224365234375,-1.1688777208328247,0.26455819606781006,0.290613055229187
1667824660737232100,8.632232177734375,-1.1922075748443604,0.2681172788143158,0.20051759481430054
1667824660747240200,8.642240234375,-1.1977711915969849,0.24676191806793213,0.08872368931770325
1667824660757247200,8.652247314453126,-1.1906116008758545,0.2209635227918625,-0.02678733319044113
1667824660767255300,8.66225537109375,-1.1759474277496338,0.19434095919132233,-0.13014301657676697
1667824660777262300,8.672262451171875,-1.161994218826294,0.16360454261302948,-0.22474639117717743
1667824660787270400,8.6822705078125,-1.1479288339614868,0.143485426902771,-0.2974698543548584
1667824660797278500,8.692278564453124,-1.1364880800247192,0.12569694221019745,-0.36092913150787354
1667824660807285200,8.70228515625,-1.1229935884475708,0.09194562584161758,-0.4238239526748657
1667824660817293300,8.712293212890625,-1.089105248451233,0.06665846705436707,-0.49070513248443604
1667824660827301400,8.72230126953125,-1.0343540906906128,0.060658905655145645,-0.5719272494316101
1667824660837308400,8.732308349609376,-0.9571883678436279,0.06621412187814713,-0.6610044836997986
1667824660847316200,8.742316162109375,-0.8616575598716736,0.08783099800348282,-0.7458346486091614
1667824660857323500,8.752323486328125,-0.7398791313171387,0.12510357797145844,-0.8091516494750977
1667824660867331300,8.762331298828125,-0.5911562442779541,0.16809019446372986,-0.8237851858139038
1667824660877338400,8.77233837890625,-0.4258590340614319,0.22011595964431763,-0.7963327169418335
1667824660887346200,8.78234619140625,-0.2464115172624588,0.2618980407714844,-0.7508406043052673
1667824660897354200,8.792354248046875,-0.04182743281126022,0.25972670316696167,-0.710416853427887
1667824660907361300,8.802361328125,0.1982000768184662,0.20068709552288055,-0.6951315999031067
1667824660917369300,8.812369384765624,0.4629441201686859,0.0784917101264,-0.6954032182693481
1667824660927377200,8.822377197265626,0.7311476469039917,-0.08073868602514267,-0.6974083185195923
1667824660937384400,8.832384521484375,0.9786915183067322,-0.2445410043001175,-0.6889307498931885
1667824660947392300,8.842392333984375,1.1783881187438965,-0.39510494470596313,-0.6471601724624634
1667824660957399300,8.8523994140625,1.3426417112350464,-0.5137078762054443,-0.5632559061050415
1667824660967411000,8.862410888671874,1.4856330156326294,-0.5578569173812866,-0.4378646910190582
1667824660977419000,8.8724189453125,1.631791353225708,-0.5268213748931885,-0.28226444125175476
1667824660987426000,8.882426025390625,1.772914171218872,-0.4263690710067749,-0.10593787580728531
1667824660997433900,8.892433837890625,1.9020729064941406,-0.32499122619628906,0.05979720503091812
1667824661007441200,8.902441162109374,2.009502649307251,-0.2401471883058548,0.1909530907869339
1667824661017449000,8.912448974609376,2.1057281494140625,-0.18634144961833954,0.2784874439239502
1667824661027457000,8.92245703125,2.1869096755981445,-0.16900746524333954,0.3304385244846344
1667824661037463800,8.9324638671875,2.2227110862731934,-0.16288726031780243,0.3507228493690491
1667824661047472000,8.94247216796875,2.1888058185577393,-0.15819023549556732,0.35886332392692566
1667824661057479000,8.95247900390625,2.069481611251831,-0.16163617372512817,0.34964996576309204
1667824661067487000,8.962487060546875,1.8712064027786255,-0.1535513550043106,0.3292109966278076
1667824661077495000,8.9724951171875,1.6227072477340698,-0.14535102248191833,0.295000284910202
1667824661087502000,8.982502197265624,1.3537639379501343,-0.11655931174755096,0.2670368552207947
1667824661097510100,8.99251025390625,1.086435317993164,-0.07531873881816864,0.24993038177490234
1667824661107518000,9.00251806640625,0.8445347547531128,-0.05457910895347595,0.2693597376346588
1667824661117525000,9.01252490234375,0.6493328213691711,-0.04207491874694824,0.33258381485939026
1667824661127533000,9.022532958984375,0.5005710124969482,-0.04798474162817001,0.427609384059906
1667824661137540000,9.0325400390625,0.39559945464134216,-0.042909491807222366,0.5457936525344849
1667824661147548000,9.0425478515625,0.34296074509620667,-0.03096042200922966,0.6664556264877319
1667824661157556000,9.052555908203125,0.3318580985069275,-0.014025544747710228,0.7751226425170898
1667824661167563000,9.06256298828125,0.33372950553894043,0.023733019828796387,0.8439315557479858
1667824661177571000,9.072571044921874,0.32103049755096436,0.0606970377266407,0.8704860210418701
1667824661187577900,9.082577880859375,0.2892131805419922,0.12829099595546722,0.8552446961402893
1667824661197586200,9.092586181640625,0.229055255651474,0.22450938820838928,0.8101332783699036
1667824661207594000,9.102593994140625,0.15063129365444183,0.32504957914352417,0.7564783096313477
1667824661217601000,9.11260107421875,0.07580625265836716,0.42292100191116333,0.6961231827735901
1667824661227608800,9.12260888671875,0.017742687836289406,0.5071679949760437,0.6550055742263794
1667824661237617000,9.132616943359375,-0.011455311439931393,0.5865181088447571,0.6377666592597961
1667824661247624000,9.1426240234375,-0.020348405465483665,0.6634696125984192,0.635458767414093
1667824661257632000,9.152632080078124,-0.023261014372110367,0.6963230967521667,0.6384684443473816
1667824661267639000,9.16263916015625,-0.03683222085237503,0.6927406191825867,0.6223413944244385
1667824661277647000,9.172647216796875,-0.05467149242758751,0.6606629490852356,0.583820641040802
1667824661287655200,9.1826552734375,-0.07836617529392242,0.6318808197975159,0.5269845128059387
1667824661297662000,9.192661865234374,-0.1092529296875,0.6413752436637878,0.45125555992126465
1667824661307670000,9.202669921875,-0.1517026424407959,0.6750431656837463,0.3761914372444153
1667824661317677000,9.212677001953125,-0.19092898070812225,0.744246780872345,0.31081268191337585
1667824661327685000,9.22268505859375,-0.22630614042282104,0.8273667097091675,0.26503852009773254
1667824661337693000,9.23269287109375,-0.2548331916332245,0.9188394546508789,0.22866542637348175
1667824661347700200,9.2427001953125,-0.2627212107181549,0.9855028986930847,0.20639340579509735
1667824661357708000,9.2527080078125,-0.25389033555984497,1.0065840482711792,0.1970696598291397
1667824661367715000,9.262715087890625,-0.2318447083234787,0.9865040183067322,0.19128793478012085
1667824661377723000,9.272722900390624,-0.1940566450357437,0.9224823713302612,0.17939481139183044
1667824661387731200,9.282731201171876,-0.15781475603580475,0.8247206807136536,0.1805892437696457
1667824661397738000,9.292738037109375,-0.11682155728340149,0.7210433483123779,0.18910165131092072
1667824661407746000,9.30274609375,-0.08438451588153839,0.6032405495643616,0.19569271802902222
1667824661417753900,9.31275390625,-0.07771915942430496,0.48303207755088806,0.1925744116306305
1667824661427761200,9.32276123046875,-0.09804866462945938,0.37309759855270386,0.16999506950378418
1667824661437769000,9.33276904296875,-0.15051403641700745,0.2807983458042145,0.13479197025299072
1667824661447776000,9.34277587890625,-0.22053280472755432,0.23939445614814758,0.101015105843544
1667824661457784000,9.3527841796875,-0.28860509395599365,0.2502962350845337,0.07759810984134674
1667824661467792100,9.362792236328126,-0.342342346906662,0.29576361179351807,0.07022009044885635
1667824661477799000,9.372798828125,-0.3597438931465149,0.36323413252830505,0.0928279459476471
1667824661487807000,9.382806884765625,-0.3385355472564697,0.4358289837837219,0.14448581635951996
1667824661497814000,9.39281396484375,-0.2895866632461548,0.49325278401374817,0.22936657071113586
1667824661507822000,9.402822021484376,-0.22808974981307983,0.49404376745224,0.32327601313591003
1667824661517830000,9.412829833984375,-0.1709785759449005,0.4372827708721161,0.4045422077178955
1667824661527837000,9.4228369140625,-0.11701946705579758,0.3482530415058136,0.4719303250312805
1667824661537845000,9.432844970703124,-0.06254619359970093,0.19440016150474548,0.5205609798431396
1667824661547852000,9.44285205078125,-0.012168772518634796,-0.026682959869503975,0.5373814702033997
1667824661557859800,9.45285986328125,0.022434985265135765,-0.28616735339164734,0.5216171145439148
1667824661567868000,9.462867919921875,0.03925817459821701,-0.5515724420547485,0.4728389084339142
1667824661577875000,9.472875,0.029725249856710434,-0.8030796647071838,0.369067907333374
1667824661587883000,9.482883056640626,-0.018002858385443687,-1.098336935043335,0.16999155282974243
1667824661597891000,9.49289111328125,-0.09658627212047577,-1.4240893125534058,-0.14501065015792847
1667824661607898000,9.502898193359375,-0.18785519897937775,-1.7521252632141113,-0.5782281160354614
1667824661617906200,9.51290625,-0.2661694586277008,-1.970065951347351,-1.0661817789077759
1667824661627913000,9.522912841796876,-0.33685746788978577,-2.033914089202881,-1.5504176616668701
1667824661637921000,9.532921142578125,-0.39600634574890137,-1.907818078994751,-1.9543651342391968
1667824661647928800,9.5429287109375,-0.46685415506362915,-1.593337059020996,-2.2047741413116455
1667824661657936100,9.55293603515625,-0.5693867802619934,-1.131221890449524,-2.2448267936706543
1667824661667944000,9.56294384765625,-0.677602231502533,-0.651146411895752,-2.0873005390167236
1667824661677951000,9.572950927734375,-0.7272964119911194,-0.23452110588550568,-1.7754508256912231
1667824661687959000,9.582958984375,-0.6679683923721313,0.049631260335445404,-1.3978371620178223
1667824661697967000,9.592967041015624,-0.5032410025596619,0.18570251762866974,-1.0329184532165527
1667824661707974000,9.602973876953126,-0.2667301595211029,0.19154682755470276,-0.7028124928474426
1667824661717982000,9.61298193359375,-0.015632010996341705,0.09064974635839462,-0.41035088896751404
1667824661727990000,9.622989990234375,0.22024284303188324,-0.0837116688489914,-0.15433908998966217
1667824661737997000,9.6329970703125,0.3978988230228424,-0.26498207449913025,0.09480831027030945
1667824661748004900,9.6430048828125,0.5088083148002625,-0.412569135427475,0.31291401386260986
1667824661758012200,9.65301220703125,0.5694833397865295,-0.5233892798423767,0.49638891220092773
1667824661768020000,9.66302001953125,0.5995360016822815,-0.6023541688919067,0.6403746008872986
1667824661778028000,9.673028076171875,0.6029012799263,-0.6972612738609314,0.7089056968688965
1667824661788034800,9.683034912109376,0.5817842483520508,-0.7764436602592468,0.7164360880851746
1667824661798043100,9.693043212890625,0.5400016903877258,-0.8311223387718201,0.6606173515319824
1667824661808050000,9.7030498046875,0.46347469091415405,-0.8502326011657715,0.5705149173736572
1667824661818058000,9.71305810546875,0.34889182448387146,-0.8659017086029053,0.45017674565315247
1667824661828066000,9.723066162109374,0.20206084847450256,-0.8651747107505798,0.3087975084781647
1667824661838073000,9.733072998046875,0.030095592141151428,-0.8546022176742554,0.16359220445156097
1667824661848081200,9.7430810546875,-0.14887894690036774,-0.8187001347541809,0.03224882483482361
1667824661858089000,9.7530888671875,-0.30157768726348877,-0.7673887610435486,-0.07392873615026474
1667824661868096000,9.763095947265626,-0.4155985414981842,-0.6729522943496704,-0.1347031444311142
1667824661878104000,9.77310400390625,-0.5083701014518738,-0.5429053902626038,-0.15000790357589722
1667824661888111000,9.783111083984375,-0.5916114449501038,-0.3897435963153839,-0.12580536305904388
1667824661898119000,9.793118896484375,-0.6729394197463989,-0.23233436048030853,-0.07779290527105331
1667824661908127000,9.803126953125,-0.7492874264717102,-0.09977604448795319,-0.0210966058075428
1667824661918134000,9.813134033203125,-0.8167446255683899,-0.0036257868632674217,0.038004495203495026
1667824661928142000,9.82314208984375,-0.8780311346054077,0.04935434088110924,0.08016632497310638
1667824661938148900,9.83314892578125,-0.9431683421134949,0.10017559677362442,0.10123530775308609
1667824661948157200,9.8431572265625,-1.0167051553726196,0.15864582359790802,0.10053915530443192
1667824661958165000,9.8531650390625,-1.0856029987335205,0.23887266218662262,0.07392365485429764
1667824661968168200,9.863168212890624,-1.1506950855255127,0.3487030267715454,0.034601546823978424
1667824661978176300,9.87317626953125,-1.214932918548584,0.4644714593887329,-0.03980517387390137
1667824661988184300,9.883184326171875,-1.2719091176986694,0.5793898105621338,-0.1398036777973175
1667824661998191400,9.89319140625,-1.312747836112976,0.6935043334960938,-0.2551560401916504
1667824662008199200,9.90319921875,-1.343375563621521,0.7990131974220276,-0.3807901442050934
1667824662018206500,9.91320654296875,-1.3693666458129883,0.8638278245925903,-0.5170875787734985
1667824662028214300,9.92321435546875,-1.3762253522872925,0.8934571146965027,-0.6462138891220093
1667824662038222300,9.933222412109375,-1.3608598709106445,0.8847470283508301,-0.76880943775177
1667824662048229000,9.94322900390625,-1.3291122913360596,0.8292656540870667,-0.8751566410064697
1667824662058237400,9.953237548828126,-1.280885934829712,0.7248652577400208,-0.9705293774604797
1667824662068244200,9.963244140625,-1.2180407047271729,0.5942681431770325,-1.0622068643569946
1667824662078252300,9.973252197265625,-1.1553599834442139,0.5070436596870422,-1.1497066020965576
1667824662088260400,9.98326025390625,-1.0906610488891602,0.47524502873420715,-1.2200244665145874
1667824662098267400,9.993267333984376,-1.0132063627243042,0.4903331398963928,-1.2620398998260498
1667824662108275200,10.003275146484375,-0.9135879278182983,0.5137849450111389,-1.265766978263855
1667824662118283300,10.013283203125,-0.7848196029663086,0.5106803774833679,-1.242235779762268
1667824662128290300,10.023290283203124,-0.6195813417434692,0.5056023001670837,-1.1909971237182617
1667824662138298400,10.03329833984375,-0.40766870975494385,0.46857893466949463,-1.1154173612594604
1667824662148305200,10.04330517578125,-0.15644501149654388,0.3924700617790222,-1.0021990537643433
1667824662158313200,10.053313232421875,0.13599947094917297,0.2933892607688904,-0.8561923503875732
1667824662168321300,10.0633212890625,0.4518871307373047,0.19133079051971436,-0.6635896563529968
1667824662178328300,10.073328369140626,0.8009805083274841,0.10298977047204971,-0.44483324885368347
1667824662188336400,10.08333642578125,1.165442943572998,0.053953252732753754,-0.1959051787853241
1667824662198343200,10.09334326171875,1.5139124393463135,0.037750404328107834,0.07639970630407333
1667824662208351500,10.1033515625,1.8056992292404175,0.013341201469302177,0.36915087699890137
1667824662218359300,10.113359375,2.0298361778259277,-0.010014557279646397,0.6678310632705688
1667824662228366300,10.123366455078125,2.204909324645996,-0.06303650140762329,0.9054670929908752
1667824662238374100,10.1333740234375,2.339425563812256,-0.15132588148117065,1.0644242763519287
1667824662248382200,10.14338232421875,2.4203970432281494,-0.27443209290504456,1.1203007698059082
1667824662258389200,10.15338916015625,2.3976659774780273,-0.42697298526763916,1.0803143978118896
1667824662268397300,10.163397216796875,2.256021738052368,-0.5860425233840942,0.9430555701255798
1667824662278404400,10.173404296875,1.9845128059387207,-0.7414339780807495,0.747504711151123
1667824662288412400,10.183412353515624,1.584279179573059,-0.8757206797599792,0.5249504446983337
1667824662298420200,10.193420166015626,1.1160916090011597,-0.9701986312866211,0.3109331429004669
1667824662308427300,10.20342724609375,0.6641684174537659,-0.9689549803733826,0.1332041621208191
1667824662318435000,10.21343505859375,0.3275023102760315,-0.8728389739990234,0.03130945935845375
1667824662328442400,10.2234423828125,0.1312989741563797,-0.7775630354881287,-0.002837324980646372
1667824662338450200,10.2334501953125,0.019209036603569984,-0.7137853503227234,0.025586405768990517
1667824662348458200,10.243458251953125,-0.037893932312726974,-0.6757950782775879,0.09183893352746964
1667824662358465300,10.25346533203125,-0.04750440642237663,-0.648909866809845,0.17235103249549866
1667824662368473300,10.263473388671875,-0.025127461180090904,-0.640773355960846,0.25606298446655273
1667824662378481400,10.2734814453125,0.030021214857697487,-0.6549384593963623,0.3226929306983948
1667824662388488200,10.28348828125,0.07844414561986923,-0.6553365588188171,0.3718271851539612
1667824662398496500,10.29349658203125,0.10087236762046814,-0.6227856278419495,0.39471620321273804
1667824662408503300,10.30350341796875,0.09850721806287766,-0.5260300636291504,0.40862536430358887
1667824662418511400,10.313511474609374,0.07738259434700012,-0.37050119042396545,0.434657484292984
1667824662428519200,10.323519287109375,0.053164344280958176,-0.1925216019153595,0.4650510847568512
1667824662438526500,10.3335263671875,0.03409065306186676,-0.03764853626489639,0.509061872959137
1667824662448534300,10.3435341796875,0.03348265588283539,0.08116652816534042,0.5527254939079285
1667824662458542300,10.353542236328124,0.06513521075248718,0.1758439540863037,0.5934537053108215
1667824662468549400,10.36354931640625,0.12276894599199295,0.22371934354305267,0.6297648549079895
1667824662478557400,10.373557373046875,0.1978413462638855,0.23466983437538147,0.6632241010665894
1667824662488564200,10.383564208984374,0.25871962308883667,0.23073607683181763,0.6841115355491638
1667824662498572300,10.393572265625,0.29776203632354736,0.2348339855670929,0.6984003186225891
1667824662508580000,10.403580078125,0.3026915490627289,0.2677152454853058,0.6769173741340637
1667824662518587400,10.41358740234375,0.29168879985809326,0.29431793093681335,0.6325568556785583
1667824662528595200,10.42359521484375,0.2556072175502777,0.3001182973384857,0.560028612613678
1667824662538602200,10.433602294921876,0.1942233294248581,0.2894102931022644,0.4614375829696655
1667824662548610300,10.4436103515625,0.11152072995901108,0.2476159930229187,0.3428310453891754
1667824662558618400,10.453618408203125,0.01625669375061989,0.16328565776348114,0.19880223274230957
1667824662568625200,10.463625244140625,-0.08348747342824936,0.05743938684463501,0.029334913939237595
1667824662578633200,10.47363330078125,-0.18508881330490112,-0.04717434197664261,-0.15484923124313354
1667824662588641300,10.483641357421876,-0.2777758836746216,-0.12704706192016602,-0.32154181599617004
1667824662598648300,10.4936484375,-0.3767998516559601,-0.15101227164268494,-0.4391596019268036
1667824662608656400,10.503656494140625,-0.4862389862537384,-0.0875917598605156,-0.47171565890312195
1667824662618663400,10.513663330078124,-0.5863246917724609,0.051221299916505814,-0.4205150902271271
1667824662628671500,10.52367138671875,-0.6533181071281433,0.20075035095214844,-0.3085390329360962
1667824662638679300,10.53367919921875,-0.6839069128036499,0.34488925337791443,-0.14668923616409302
1667824662648686300,10.543686279296875,-0.65333491563797,0.4802952706813812,0.037285931408405304
1667824662658694100,10.553694091796874,-0.5730853080749512,0.5750015377998352,0.2324298471212387
1667824662668701400,10.563701416015626,-0.44160643219947815,0.6208704710006714,0.4405268728733063
1667824662678709200,10.573709228515625,-0.2887417674064636,0.6102724671363831,0.6441609263420105
1667824662688717300,10.58371728515625,-0.14422321319580078,0.5433211326599121,0.818656325340271
1667824662698724400,10.593724365234374,-0.02354835905134678,0.42010730504989624,0.9426733255386353
1667824662708732400,10.603732421875,0.07680301368236542,0.26530948281288147,1.0020498037338257
1667824662718740200,10.613740234375,0.14768996834754944,0.11191324889659882,0.9929466247558594
1667824662728747300,10.623747314453125,0.1870885044336319,-0.022759081795811653,0.9167448282241821
1667824662738755300,10.63375537109375,0.1978788673877716,-0.13124488294124603,0.786173403263092
1667824662748762400,10.643762451171876,0.17612217366695404,-0.2422688603401184,0.5969358086585999
1667824662758770200,10.653770263671875,0.14679332077503204,-0.34851333498954773,0.3375968635082245
1667824662768778200,10.6637783203125,0.12194495648145676,-0.44499990344047546,0.0314025804400444
1667824662778785300,10.673785400390624,0.11505016684532166,-0.5396280288696289,-0.30544212460517883
1667824662788793300,10.68379345703125,0.11016859114170074,-0.6239647269248962,-0.6563037633895874
1667824662798800100,10.693800048828125,0.10833662748336792,-0.6658515930175781,-0.9800732135772705
1667824662808808400,10.703808349609375,0.07860003411769867,-0.660401463508606,-1.2469453811645508
1667824662818816300,10.713816162109374,0.026662752032279968,-0.5491420030593872,-1.4302771091461182
1667824662828823300,10.7238232421875,-0.05607500299811363,-0.31431376934051514,-1.497406244277954
1667824662838831000,10.7338310546875,-0.1470668762922287,-0.012951713055372238,-1.4418468475341797
1667824662848839200,10.743839111328125,-0.22345273196697235,0.27705907821655273,-1.274161458015442
1667824662858846200,10.75384619140625,-0.2451467514038086,0.5079865455627441,-1.0407549142837524
1667824662868854300,10.763854248046876,-0.20806489884853363,0.6271291971206665,-0.7741955518722534
1667824662878861300,10.773861328125,-0.10856272280216217,0.6498450040817261,-0.5079317092895508
1667824662888869400,10.783869384765625,0.0365007221698761,0.5651814937591553,-0.2481115758419037
1667824662898877400,10.79387744140625,0.20219090580940247,0.3907403349876404,-0.014758403412997723
1667824662908884200,10.80388427734375,0.35969772934913635,0.15838722884655,0.1819530576467514
1667824662918892300,10.813892333984375,0.4874185621738434,-0.0857405960559845,0.3362370729446411
1667824662928899300,10.8238994140625,0.5758945941925049,-0.2829311490058899,0.4469481408596039
1667824662938907400,10.833907470703124,0.6091481447219849,-0.43203499913215637,0.49813345074653625
1667824662948915200,10.843915283203126,0.5990259647369385,-0.5034812092781067,0.5143510103225708
1667824662958922500,10.853922607421875,0.5437422394752502,-0.5196278691291809,0.4858717620372772
1667824662968929800,10.8639296875,0.46141383051872253,-0.4811880886554718,0.41475391387939453
1667824662978937900,10.873937744140624,0.3607374131679535,-0.35258185863494873,0.3125128448009491
1667824662988945000,10.88394482421875,0.2459050863981247,-0.1713138222694397,0.22426314651966095
1667824662998953000,10.893952880859375,0.11824502050876617,0.009529225528240204,0.15237373113632202
1667824663008959700,10.903959716796875,-0.025702830404043198,0.1714254468679428,0.11767062544822693
1667824663018967800,10.9139677734375,-0.1852242797613144,0.3005191385746002,0.1314142495393753
1667824663028975600,10.9239755859375,-0.3336440920829773,0.35568439960479736,0.17849202454090118
1667824663038983000,10.93398291015625,-0.46782204508781433,0.33548107743263245,0.23844748735427856
1667824663048990700,10.94399072265625,-0.5923764705657959,0.2786444127559662,0.2853367030620575
1667824663058997800,10.953997802734374,-0.718495786190033,0.1899608075618744,0.31981492042541504
1667824663069005800,10.964005859375,-0.8496711254119873,0.09223664551973343,0.3576541543006897
1667824663079014000,10.974013916015625,-0.9850507378578186,0.020795920863747597,0.4056819975376129
1667824663089020700,10.984020751953125,-1.113621473312378,0.011451422236859798,0.4486669898033142
1667824663099028700,10.99402880859375,-1.2039488554000854,0.030134232714772224,0.4613805413246155
1667824663109036800,11.004036865234376,-1.2588046789169312,0.05096494406461716,0.4301435351371765
1667824663119043800,11.0140439453125,-1.2952460050582886,0.06598011404275894,0.35589566826820374
1667824663129051600,11.0240517578125,-1.3198890686035156,0.0848826989531517,0.2617822289466858
1667824663139059000,11.034058837890624,-1.3283076286315918,0.10771238058805466,0.1521417200565338
1667824663149066800,11.044066650390626,-1.3195232152938843,0.09575797617435455,0.020059311762452126
1667824663159074800,11.05407470703125,-1.3006218671798706,0.06541021913290024,-0.1333015263080597
1667824663169081600,11.06408154296875,-1.280405044555664,0.0254641305655241,-0.306369423866272
1667824663179089700,11.074089599609374,-1.2596639394760132,-0.014946828596293926,-0.48347407579421997
1667824663189096700,11.0840966796875,-1.2351293563842773,-0.04200427979230881,-0.6564490795135498
1667824663199104800,11.094104736328125,-1.2003837823867798,-0.03455926850438118,-0.8086673021316528
1667824663209112600,11.104112548828125,-1.1523044109344482,-0.016535529866814613,-0.9332981705665588
1667824663219119900,11.114119873046874,-1.0898070335388184,0.016349347308278084,-1.0249860286712646
1667824663229127700,11.124127685546876,-1.016601800918579,0.04702256992459297,-1.0967891216278076
1667824663239134700,11.134134765625,-0.9232339859008789,0.06740369647741318,-1.1331515312194824
1667824663249142500,11.144142578125,-0.8135964274406433,0.06290055811405182,-1.1495846509933472
1667824663259150800,11.15415087890625,-0.6758705377578735,0.029151950031518936,-1.1404942274093628
1667824663269157600,11.16415771484375,-0.5008122324943542,-0.02828391082584858,-1.124694585800171
1667824663279165700,11.174165771484375,-0.27137744426727295,-0.12346655130386353,-1.1067641973495483
1667824663289173800,11.184173828125,0.013561611995100975,-0.2393590658903122,-1.0969290733337402
1667824663299180800,11.194180908203125,0.34050431847572327,-0.37187448143959045,-1.0992487668991089
1667824663309188900,11.20418896484375,0.6938858032226562,-0.5044565200805664,-1.0992449522018433
1667824663319195600,11.214195556640625,1.0483810901641846,-0.584636926651001,-1.0906795263290405
1667824663329204000,11.224203857421875,1.3812514543533325,-0.5995346307754517,-1.0715916156768799
1667824663339211800,11.234211669921875,1.698011040687561,-0.5815712213516235,-1.069663643836975
1667824663349218800,11.24421875,2.0045251846313477,-0.49090468883514404,-1.0704764127731323
1667824663359226600,11.2542265625,2.2683303356170654,-0.3536229431629181,-1.0855804681777954
1667824663369234000,11.26423388671875,2.478938579559326,-0.17340098321437836,-1.117512822151184
1667824663379241700,11.27424169921875,2.604790449142456,0.02698136866092682,-1.1618536710739136
1667824663389249800,11.284249755859374,2.6454050540924072,0.24074238538742065,-1.2119524478912354
1667824663399256800,11.2942568359375,2.586103677749634,0.44697636365890503,-1.2890574932098389
1667824663409265000,11.304264892578125,2.441178798675537,0.637336254119873,-1.367787480354309
1667824663419272700,11.314272705078125,2.218764066696167,0.8154448866844177,-1.4347665309906006
1667824663429279700,11.32427978515625,1.937447190284729,0.9410616159439087,-1.480905294418335
1667824663439287600,11.33428759765625,1.6323256492614746,0.989657461643219,-1.4730939865112305
1667824663449294800,11.344294921875,1.3643852472305298,0.9730249643325806,-1.3961701393127441
1667824663459302700,11.354302734375,1.1519103050231934,0.8782105445861816,-1.2369134426116943
1667824663469310700,11.364310791015624,0.9728920459747314,0.7186017632484436,-1.0075299739837646
1667824663479317800,11.37431787109375,0.7905034422874451,0.5113145112991333,-0.7004948258399963
1667824663489325800,11.384325927734375,0.603710949420929,0.23805607855319977,-0.33980274200439453
1667824663499332600,11.39433251953125,0.42359834909439087,-0.07159588485956192,0.032306160777807236
1667824663509340700,11.404340576171874,0.2746267020702362,-0.3774615228176117,0.3893612325191498
1667824663519348700,11.4143486328125,0.16343814134597778,-0.6633106470108032,0.7173026204109192
1667824663529355800,11.424355712890625,0.0855334922671318,-0.8675748109817505,0.9767781496047974
1667824663539363800,11.43436376953125,0.046325430274009705,-0.9807074069976807,1.1614902019500732
1667824663549371000,11.444370849609374,-0.0013499469496309757,-1.0266802310943604,1.266284704208374
1667824663559379000,11.45437890625,-0.06521976739168167,-0.9513110518455505,1.3111956119537354
1667824663569386800,11.46438671875,-0.12739339470863342,-0.7748100161552429,1.308909296989441
1667824663579393800,11.474393798828125,-0.18252630531787872,-0.5491430163383484,1.2691713571548462
1667824663589401600,11.484401611328124,-0.2232886552810669,-0.2888461947441101,1.2020708322525024
1667824663599410000,11.494409912109376,-0.25460508465766907,-0.018242672085762024,1.1261513233184814
1667824663609416700,11.504416748046875,-0.27212363481521606,0.18354690074920654,1.0464531183242798
1667824663619424800,11.5144248046875,-0.2776758074760437,0.31978973746299744,0.9826273918151855
1667824663629431800,11.524431884765624,-0.27281954884529114,0.4095318615436554,0.935452938079834
1667824663639440000,11.53443994140625,-0.25145423412323,0.45402926206588745,0.9101073741912842
1667824663649447700,11.54444775390625,-0.20656132698059082,0.466841459274292,0.9082234501838684
1667824663659454700,11.554454833984375,-0.15662451088428497,0.4549664556980133,0.9314563274383545
1667824663669462800,11.564462890625,-0.10317832231521606,0.42577847838401794,0.9765649437904358
1667824663679469800,11.5744697265625,-0.04667723551392555,0.3733285367488861,1.0180188417434692
1667824663689477600,11.5844775390625,0.0010420829057693481,0.27932536602020264,1.0207563638687134
1667824663699485700,11.594485595703125,0.034016210585832596,0.15447652339935303,0.9345483183860779
1667824663709492700,11.60449267578125,0.0425708182156086,0.03750276193022728,0.775239884853363
1667824663719500800,11.614500732421876,0.034171588718891144,-0.015021635219454765,0.587993860244751
1667824663729507600,11.624507568359375,-0.004466352518647909,0.021669000387191772,0.4213673770427704
1667824663739516000,11.634515869140625,-0.0803758054971695,0.15779174864292145,0.2931317687034607
1667824663749523700,11.644523681640624,-0.17957402765750885,0.3941726088523865,0.24142463505268097
1667824663759530800,11.65453076171875,-0.3102342486381531,0.7029871344566345,0.27903154492378235
1667824663769538600,11.66453857421875,-0.44997456669807434,0.9953159689903259,0.3828418254852295
1667824663779545900,11.6745458984375,-0.5742629766464233,1.1807550191879272,0.5215063095092773
1667824663789553700,11.6845537109375,-0.6581600308418274,1.2620882987976074,0.6444213390350342
1667824663799561700,11.694561767578126,-0.6901776790618896,1.221606969833374,0.7190493941307068
1667824663809568800,11.70456884765625,-0.6923609375953674,1.1217811107635498,0.7629258036613464
1667824663819576800,11.714576904296875,-0.6642019748687744,0.9774171113967896,0.7715423107147217
1667824663829585000,11.7245849609375,-0.6242542862892151,0.8155477643013,0.7590182423591614
1667824663839591700,11.734591796875,-0.586655855178833,0.6450645327568054,0.7394338846206665
1667824663849599700,11.744599853515625,-0.5684401392936707,0.48867326974868774,0.7201264500617981
1667824663859606800,11.754606689453125,-0.5690180063247681,0.34580135345458984,0.6911481022834778
1667824663869614800,11.76461474609375,-0.5866068601608276,0.21042649447917938,0.6310781240463257
1667824663879622700,11.77462255859375,-0.6115913391113281,0.09887049347162247,0.5439992547035217
1667824663889630000,11.7846298828125,-0.6342964172363281,-0.01771124079823494,0.42243367433547974
1667824663899637800,11.7946376953125,-0.6558866500854492,-0.15054914355278015,0.24796432256698608
1667824663909644800,11.804644775390624,-0.6724086403846741,-0.30955928564071655,0.03905317559838295
1667824663919652600,11.814652587890626,-0.6742148995399475,-0.48431164026260376,-0.2004871517419815
1667824663929660700,11.82466064453125,-0.6633672714233398,-0.6556013822555542,-0.4455355107784271
1667824663939667700,11.834667724609375,-0.6482744216918945,-0.7793326377868652,-0.6847530007362366
1667824663949675800,11.84467578125,-0.6491162180900574,-0.8355144262313843,-0.9090012907981873
1667824663959683600,11.85468359375,-0.6869432926177979,-0.7697389125823975,-1.0674322843551636
1667824663969691000,11.86469091796875,-0.7597799301147461,-0.5647258162498474,-1.154689908027649
1667824663979699000,11.874698974609375,-0.8634850382804871,-0.2512032389640808,-1.1407606601715088
1667824663989705700,11.884705810546874,-0.9941279888153076,0.09349501132965088,-1.043676495552063
1667824663999713800,11.8947138671875,-1.109967589378357,0.33978140354156494,-0.8755378723144531
1667824664009722000,11.90472216796875,-1.1780494451522827,0.46409642696380615,-0.6800602674484253
1667824664019729000,11.91472900390625,-1.2032532691955566,0.44947272539138794,-0.48589468002319336
1667824664029737000,11.924737060546875,-1.1946356296539307,0.3315490186214447,-0.30821841955184937
1667824664039744000,11.934743896484376,-1.1721400022506714,0.1471126824617386,-0.1481948047876358
1667824664049751800,11.944751708984375,-1.1401644945144653,-0.08463052660226822,0.0004348880611360073
1667824664059759900,11.954759765625,-1.1061289310455322,-0.31995347142219543,0.1283092051744461
1667824664069766700,11.9647666015625,-1.0892846584320068,-0.53102707862854,0.23616483807563782
1667824664079775000,11.97477490234375,-1.0982404947280884,-0.6976128220558167,0.30494844913482666
1667824664089783000,11.984782958984376,-1.1432114839553833,-0.8201038837432861,0.32824498414993286
1667824664099789800,11.994789794921875,-1.2147655487060547,-0.8979400396347046,0.3140689432621002
1667824664109798000,12.0047978515625,-1.2936469316482544,-0.9211116433143616,0.2702905535697937
1667824664119805000,12.014804931640626,-1.3687227964401245,-0.9142857789993286,0.2036966234445572
1667824664129813000,12.02481298828125,-1.4474165439605713,-0.8970974683761597,0.11925283819437027
1667824664139820800,12.03482080078125,-1.5211306810379028,-0.8593190908432007,0.044735126197338104
1667824664149827800,12.044827880859375,-1.5849549770355225,-0.8115699291229248,0.007330496329814196
1667824664159836000,12.0548359375,-1.6449545621871948,-0.7798173427581787,0.0015167365781962872
1667824664169843000,12.064843017578125,-1.7088671922683716,-0.7486282587051392,0.02001398801803589
1667824664179850800,12.074850830078125,-1.7681108713150024,-0.7289228439331055,0.06834346801042557
1667824664189858800,12.08485888671875,-1.8099802732467651,-0.7156882286071777,0.11207789927721024
1667824664199865900,12.094865966796876,-1.8500529527664185,-0.7217029333114624,0.13641227781772614
1667824664209874000,12.1048740234375,-1.8952699899673462,-0.7537420988082886,0.1302446573972702
1667824664219880700,12.114880615234375,-1.931941032409668,-0.746248722076416,0.10731906443834305
1667824664229889000,12.124888916015625,-1.9564783573150635,-0.6966960430145264,0.08597995340824127
1667824664239896800,12.134896728515624,-1.983475923538208,-0.6311301589012146,0.0582691915333271
1667824664249903900,12.14490380859375,-2.023101806640625,-0.5540295243263245,0.008013475686311722
1667824664259911700,12.15491162109375,-2.073316812515259,-0.4725611209869385,-0.09669314324855804
1667824664269920000,12.164919921875,-2.118851661682129,-0.3793443441390991,-0.26027461886405945
1667824664279926800,12.1749267578125,-2.1479830741882324,-0.26667681336402893,-0.4813210368156433
1667824664289934800,12.184934814453126,-2.165550947189331,-0.1345006674528122,-0.7380590438842773
1667824664299942000,12.19494189453125,-2.187659502029419,0.014717686921358109,-0.9961135387420654
1667824664309950000,12.204949951171875,-2.2105205059051514,0.20657473802566528,-1.2241597175598145
1667824664319958000,12.2149580078125,-2.2359681129455566,0.3720506429672241,-1.3595961332321167
1667824664329964800,12.22496484375,-2.271475315093994,0.5204126834869385,-1.37296462059021
1667824664339972900,12.234972900390625,-2.290914297103882,0.6575760245323181,-1.2587031126022339
1667824664349980000,12.24497998046875,-2.295078992843628,0.7640670537948608,-1.0405648946762085
1667824664359988000,12.254988037109374,-2.2807209491729736,0.8069943189620972,-0.7820414304733276
1667824664369995800,12.264995849609376,-2.259291887283325,0.8312093615531921,-0.5425079464912415
1667824664380003000,12.275003173828125,-2.2297513484954834,0.8673226833343506,-0.3614409267902374
1667824664390011000,12.285010986328125,-2.180753707885742,0.9283453226089478,-0.30845412611961365
1667824664400018000,12.295017822265624,-2.086700439453125,0.9922792315483093,-0.3621269762516022
1667824664410025700,12.305025634765625,-1.9587393999099731,1.0269372463226318,-0.48909398913383484
1667824664420034000,12.315033935546875,-1.8165150880813599,1.008281946182251,-0.6849479079246521
1667824664430040800,12.325040771484375,-1.6622283458709717,0.9642348885536194,-0.8866056799888611
1667824664440049000,12.335048828125,-1.5093730688095093,0.9096372127532959,-1.063506841659546
1667824664450056000,12.345055908203125,-1.3613264560699463,0.8238453269004822,-1.1834230422973633
1667824664460064000,12.35506396484375,-1.2485144138336182,0.7399794459342957,-1.2306057214736938
1667824664470071800,12.36507177734375,-1.165987253189087,0.6401543021202087,-1.1954421997070312
1667824664480078800,12.375078857421874,-1.080510139465332,0.5353602766990662,-1.0904626846313477
1667824664490087000,12.3850869140625,-0.9580031037330627,0.6513020396232605,-0.8608829975128174
1667824664500094000,12.395093994140625,-0.8999394774436951,0.6112818717956543,-0.5778278708457947
1667824664510101800,12.405101806640625,-0.8413512706756592,0.4981768727302551,-0.20453421771526337
1667824664520109800,12.41510986328125,-0.7158132791519165,0.3624240458011627,0.1933232545852661
1667824664530116900,12.425116943359376,-0.5215386152267456,0.23679712414741516,0.5375671982765198
