time,seconds_elapsed,z,y,x
1667266105696958500,0.09295849609375,-0.14225105941295624,0.6936933994293213,0.468290776014328
1667266105699356400,0.0953564453125,-0.11476293206214905,0.6881957650184631,0.47806432843208313
1667266105701754000,0.097754150390625,-0.08910734206438065,0.6686486601829529,0.4798968732357025
1667266105704152000,0.100152099609375,-0.0689493864774704,0.6387171745300293,0.4774535000324249
1667266105706549800,0.1025498046875,-0.04879142343997955,0.6020663380622864,0.4664582312107086
1667266105708947500,0.104947509765625,-0.03596363216638565,0.5562527775764465,0.45118704438209534
1667266105711345400,0.107345458984375,-0.0231358390301466,0.5061632990837097,0.4298073947429657
1667266105713743000,0.1097431640625,-0.012751436792314053,0.4548521339893341,0.4029301106929779
1667266105716141000,0.11214111328125,-0.009697199799120426,0.4017084240913391,0.3748311400413513
1667266105718538800,0.114538818359375,-0.00786465872079134,0.3510081171989441,0.34306707978248596
1667266105720936700,0.116936767578125,-0.006032116711139679,0.30458372831344604,0.3100813329219818
1667266105723334400,0.11933447265625,-0.00908635277301073,0.26426780223846436,0.2752630412578583
1667266105725732000,0.121732177734375,-0.013362283818423748,0.22822780907154083,0.23800136148929596
1667266105728130000,0.124130126953125,-0.019470756873488426,0.19890713691711426,0.20073968172073364
1667266105730527700,0.12652783203125,-0.02680092304944992,0.17325155436992645,0.16286714375019073
1667266105732925700,0.12892578125,-0.03474193811416626,0.15920206904411316,0.12316207587718964
1667266105735323400,0.131323486328125,-0.044515494257211685,0.14515258371829987,0.08590039610862732
1667266105737721000,0.13372119140625,-0.05306735634803772,0.13171394169330597,0.04680617153644562
1667266105740119000,0.136119140625,-0.06223006546497345,0.11827529966831207,0.007711946498602629
1667266105742516700,0.138516845703125,-0.0695602297782898,0.10422581434249878,-0.03199312463402748
1667266105744914700,0.140914794921875,-0.07627955079078674,0.08528954535722733,-0.0686439573764801
1667266105747312400,0.1433125,-0.08299887180328369,0.06329904496669769,-0.1083490327000618
1667266105749710300,0.14571044921875,-0.08727480471134186,0.04130854457616806,-0.1480541080236435
1667266105752108000,0.14810791015625,-0.09093988686800003,0.01748550310730934,-0.18348324298858643
1667266105754505700,0.150505615234375,-0.09155073016881943,-0.007559234742075205,-0.21769069135189056
1667266105756903700,0.152903564453125,-0.09338327497243881,-0.03199312463402748,-0.2537306845188141
1667266105759301400,0.15530126953125,-0.09338327497243881,-0.056427016854286194,-0.28732728958129883
1667266105761699300,0.15769921875,-0.08910734206438065,-0.08086090534925461,-0.3184804916381836
1667266105764097000,0.160096923828125,-0.08544225990772247,-0.10346225649118423,-0.3465794622898102
1667266105766495000,0.162494873046875,-0.08055548369884491,-0.12423106282949448,-0.3697916567325592
1667266105768892700,0.164892578125,-0.07872293889522552,-0.14133478701114655,-0.38933876156806946
1667266105771290400,0.167290283203125,-0.07322531193494797,-0.15355172753334045,-0.4070533514022827
1667266105773688300,0.169688232421875,-0.06650599837303162,-0.16271443665027618,-0.419881135225296
1667266105776086000,0.1720859375,-0.06223006546497345,-0.17004460096359253,-0.42843300104141235
1667266105778484000,0.17448388671875,-0.05428905040025711,-0.17737478017807007,-0.4363740086555481
1667266105780881700,0.176881591796875,-0.04818057641386986,-0.18348324298858643,-0.4394282400608063
1667266105783279600,0.179279541015625,-0.0426829531788826,-0.1871483325958252,-0.4369848668575287
1667266105785677300,0.18167724609375,-0.03474193811416626,-0.19264595210552216,-0.4339306354522705
1667266105788075000,0.184074951171875,-0.02802261710166931,-0.1981435865163803,-0.42904382944107056
1667266105790473000,0.186472900390625,-0.020692450925707817,-0.20486289262771606,-0.41743773221969604
1667266105792870700,0.18887060546875,-0.014583977870643139,-0.20852798223495483,-0.40583163499832153
1667266105795268600,0.1912685546875,-0.00786465872079134,-0.211582213640213,-0.3954472541809082
1667266105797666300,0.193666259765625,-0.0005344913806766272,-0.2121930718421936,-0.3826194405555725
1667266105800064300,0.196064208984375,0.004352286923676729,-0.21463645994663239,-0.3679591119289398
1667266105802462000,0.1984619140625,0.01046075951308012,-0.211582213640213,-0.35268792510032654
1667266105804859600,0.200859619140625,0.015958385542035103,-0.20608459413051605,-0.33741676807403564
1667266105807257600,0.203257568359375,0.02023431472480297,-0.19570018351078033,-0.32214558124542236
1667266105809655300,0.2056552734375,0.025731941685080528,-0.18042901158332825,-0.3068743944168091
1667266105812053200,0.20805322265625,0.03184041380882263,-0.16576866805553436,-0.2922140657901764
1667266105814451000,0.210450927734375,0.03733803704380989,-0.1462215632200241,-0.2775537371635437
1667266105816848600,0.2128486328125,0.04222481697797775,-0.12239851802587509,-0.2635042369365692
1667266105819246600,0.21524658203125,0.05016583204269409,-0.09735377877950668,-0.2512872815132141
1667266105821644300,0.217644287109375,0.057496000081300735,-0.07169819623231888,-0.2402920424938202
1667266105824042200,0.220042236328125,0.06726955622434616,-0.047264307737350464,-0.22868594527244568
1667266105826440000,0.22243994140625,0.07826480269432068,-0.02283041551709175,-0.21891239285469055
1667266105828838000,0.224837890625,0.08681666851043701,-0.00022906772210262716,-0.211582213640213
1667266105831235600,0.227235595703125,0.09842276573181152,0.02420482225716114,-0.20486289262771606
1667266105833633300,0.22963330078125,0.11063970625400543,0.04497363045811653,-0.1993652731180191
1667266105836031200,0.23203125,0.12041326612234116,0.06574243307113647,-0.19631104171276093
1667266105838429000,0.234428955078125,0.1295759677886963,0.08956547826528549,-0.19081340730190277
1667266105840827000,0.236826904296875,0.141182079911232,0.11033428460359573,-0.19020256400108337
1667266105843224600,0.239224609375,0.15034478902816772,0.13598987460136414,-0.1877591758966446
1667266105845622500,0.24162255859375,0.15767495334148407,0.16225630044937134,-0.1865374743938446
1667266105848020200,0.244020263671875,0.16378341615200043,0.18241426348686218,-0.1877591758966446
1667266105850418000,0.24641796875,0.168670192360878,0.2062373012304306,-0.18898087739944458
1667266105852816000,0.24881591796875,0.17416782677173615,0.22395187616348267,-0.19142426550388336
1667266105855213600,0.251213623046875,0.17783290147781372,0.23739051818847656,-0.19264595210552216
1667266105857611500,0.253611572265625,0.1808871477842331,0.25143998861312866,-0.19692188501358032
1667266105860009200,0.25600927734375,0.18638476729393005,0.2612135708332062,-0.20303036272525787
1667266105862407000,0.258406982421875,0.19004985690116882,0.2709871232509613,-0.20486289262771606
1667266105864804900,0.260804931640625,0.1949366331100464,0.2728196680545807,-0.20852798223495483
1667266105867202600,0.26320263671875,0.19921256601810455,0.27770644426345825,-0.2134147584438324
1667266105869600500,0.2656005859375,0.2077644169330597,0.2825932204723358,-0.21707984805107117
1667266105871998200,0.267998291015625,0.2181488275527954,0.28992336988449097,-0.22013407945632935
1667266105874396200,0.270396240234375,0.22853323817253113,0.30580541491508484,-0.22257746756076813
1667266105876793900,0.2727939453125,0.24319356679916382,0.3247416615486145,-0.2262425571680069
1667266105879191600,0.275191650390625,0.2602972984313965,0.34673216938972473,-0.22990763187408447
1667266105881589500,0.277589599609375,0.27740100026130676,0.36811181902885437,-0.23235101997852325
1667266105883987200,0.2799873046875,0.299391508102417,0.3882697820663452,-0.2390703409910202
1667266105886385200,0.28238525390625,0.325047105550766,0.4035409688949585,-0.24578966200351715
1667266105888782800,0.284782958984375,0.3500918447971344,0.4157579243183136,-0.25556322932243347
1667266105891180500,0.2871806640625,0.38002336025238037,0.42430979013442993,-0.2665584683418274
1667266105893578500,0.28957861328125,0.4062897861003876,0.4304182529449463,-0.2769428789615631
1667266105895976200,0.29197607421875,0.43316707015037537,0.4316399395465851,-0.29526829719543457
1667266105898374100,0.2943740234375,0.46065518260002136,0.4279748499393463,-0.31298285722732544
1667266105900771800,0.296771728515625,0.48753246665000916,0.4188121557235718,-0.3313082754611969
1667266105903169800,0.299169677734375,0.5137988924980164,0.4017084240913391,-0.35085538029670715
1667266105905567500,0.3015673828125,0.5388436317443848,0.38216131925582886,-0.371013343334198
1667266105907965200,0.303965087890625,0.5644991993904114,0.36017081141471863,-0.3930038511753082
1667266105910363100,0.306363037109375,0.5919873714447021,0.33146098256111145,-0.41438350081443787
1667266105912760800,0.3087607421875,0.6170321106910706,0.30397287011146545,-0.4327089190483093
1667266105915158800,0.31115869140625,0.645741879940033,0.2697654068470001,-0.44431501626968384
1667266105917556500,0.313556396484375,0.6744517087936401,0.23433628678321838,-0.4492017924785614
1667266105919954200,0.3159541015625,0.7043832540512085,0.19829629361629486,-0.44248247146606445
1667266105922352000,0.31835205078125,0.7355364561080933,0.16347800195217133,-0.42904382944107056
1667266105924749800,0.320749755859375,0.762413740158081,0.1280488520860672,-0.40155571699142456
1667266105927147800,0.323147705078125,0.7868476510047913,0.08956547826528549,-0.36429402232170105
1667266105929545500,0.32554541015625,0.8118923902511597,0.05047125369310379,-0.3154262602329254
1667266105931943400,0.327943359375,0.8320503234863281,0.007711946498602629,-0.25739577412605286
1667266105934341000,0.330341064453125,0.8460997939109802,-0.03749075159430504,-0.1859266310930252
1667266105936738800,0.33273876953125,0.854651689529419,-0.08574768155813217,-0.1083490327000618
1667266105939136800,0.33513671875,0.854651689529419,-0.13950224220752716,-0.022219568490982056
1667266105941534500,0.337534423828125,0.8436564207077026,-0.19386765360832214,0.06757497787475586
1667266105943932400,0.339932373046875,0.82655268907547,-0.24884390830993652,0.15981291234493256
1667266105946330000,0.342330078125,0.799064576625824,-0.3062635362148285,0.25388339161872864
1667266105948728000,0.34472802734375,0.7618029117584229,-0.36185064911842346,0.34489962458610535
1667266105951125800,0.347125732421875,0.7172110676765442,-0.41438350081443787,0.4395809471607208
1667266105953523500,0.3495234375,0.6671215891838074,-0.46210595965385437,0.52571040391922
1667266105955921400,0.35192138671875,0.6133670210838318,-0.504865288734436,0.6051205396652222
1667266105958319000,0.354319091796875,0.554114818572998,-0.5384618639945984,0.679033100605011
1667266105960717000,0.356717041015625,0.5009710788726807,-0.564117431640625,0.7456917762756348
1667266105963114800,0.35911474609375,0.45027077198028564,-0.5824428796768188,0.7970029711723328
1667266105965512400,0.361512451171875,0.4050680994987488,-0.592216432094574,0.8360971808433533
1667266105967910400,0.363910400390625,0.37086063623428345,-0.591605544090271,0.8611419200897217
1667266105970308000,0.36630810546875,0.34337252378463745,-0.5861079692840576,0.871526300907135
1667266105972706000,0.3687060546875,0.3268796503543854,-0.5738909840583801,0.867861270904541
1667266105975103700,0.371103759765625,0.31771692633628845,-0.5519005060195923,0.848314106464386
1667266105977501700,0.373501708984375,0.3116084635257721,-0.5244123935699463,0.8104416131973267
1667266105979899400,0.3758994140625,0.3122192919254303,-0.48898324370384216,0.7603521347045898
1667266105982297000,0.378297119140625,0.31588438153266907,-0.4468347728252411,0.6924717426300049
1667266105984695000,0.380695068359375,0.322603702545166,-0.394225537776947,0.6173375248908997
1667266105987092700,0.3830927734375,0.32932302355766296,-0.33924928307533264,0.5312080383300781
1667266105989490700,0.38549072265625,0.3403182923793793,-0.2781645655632019,0.43652671575546265
1667266105991888400,0.387888427734375,0.352535218000412,-0.211582213640213,0.3400128483772278
1667266105994286300,0.390286376953125,0.3635304868221283,-0.13889139890670776,0.2434989959001541
1667266105996684000,0.39268408203125,0.3745257258415222,-0.06314633786678314,0.15003935992717743
1667266105999081700,0.395081787109375,0.38307759165763855,0.01626380905508995,0.0626882016658783
1667266106001479700,0.397479736328125,0.3922402858734131,0.10178242623806,-0.018554486334323883
1667266106003877400,0.39987744140625,0.39468368887901306,0.18974442780017853,-0.08758022636175156
1667266106006275300,0.402275390625,0.39529454708099365,0.28076067566871643,-0.14133478701114655
1667266106008673000,0.404673095703125,0.3891860544681549,0.37116608023643494,-0.18287239968776703
1667266106011071000,0.407071044921875,0.3769691288471222,0.4652365446090698,-0.2140256017446518
1667266106013468700,0.40946875,0.3616979420185089,0.5531985759735107,-0.22990763187408447
1667266106015866400,0.411866455078125,0.3384857475757599,0.6362738013267517,-0.23540526628494263
1667266106018264300,0.414264404296875,0.3091650605201721,0.7089645862579346,-0.23174017667770386
1667266106020662000,0.416662109375,0.27617931365966797,0.7773795127868652,-0.2134147584438324
1667266106023060000,0.41906005859375,0.23891763389110565,0.8384642004966736,-0.1847049444913864
1667266106025457700,0.421457763671875,0.19738002121448517,0.8891645669937134,-0.14988665282726288
1667266106027855400,0.42385546875,0.15217731893062592,0.9325346946716309,-0.10651648789644241
1667266106030253300,0.42625341796875,0.11063970625400543,0.969796359539032,-0.056427016854286194
1667266106032651000,0.428651123046875,0.06849125027656555,1.0009496212005615,-0.002061609411612153
1667266106035049000,0.431049072265625,0.025731941685080528,1.029659390449524,0.05841226875782013
1667266106037446700,0.43344677734375,-0.015805672854185104,1.0565366744995117,0.12132953852415085
1667266106039844600,0.4358447265625,-0.05306735634803772,1.0834139585494995,0.18180342018604279
1667266106042242300,0.4382421875,-0.09032903611660004,1.109069585800171,0.2434989959001541
1667266106044640000,0.440639892578125,-0.12453648447990417,1.1347250938415527,0.30458372831344604
1667266106047038000,0.443037841796875,-0.15630054473876953,1.1622133255004883,0.3650575876235962
1667266106049435600,0.445435546875,-0.18073442578315735,1.1860363483428955,0.42125552892684937
1667266106051833600,0.44783349609375,-0.20700086653232574,1.2098593711853027,0.47378841042518616
1667266106054231300,0.450231201171875,-0.22960221767425537,1.2269630432128906,0.5250995755195618
1667266106056629200,0.452629150390625,-0.2528144121170044,1.2416234016418457,0.5715239644050598
1667266106059027000,0.45502685546875,-0.2754157483577728,1.252618670463562,0.6161158084869385
1667266106061424600,0.457424560546875,-0.29679539799690247,1.256894588470459,0.655210018157959
1667266106063822600,0.459822509765625,-0.3176405727863312,1.2550621032714844,0.6912500262260437
1667266106066220300,0.46222021484375,-0.3408527672290802,1.2477319240570068,0.7230141162872314
1667266106068618200,0.4646181640625,-0.36039987206459045,1.2349040508270264,0.7481352090835571
1667266106071016000,0.467015869140625,-0.3805578351020813,1.2178003787994385,0.770125687122345
1667266106073414000,0.469413818359375,-0.39766156673431396,1.2031400203704834,0.788451075553894
1667266106075811600,0.4718115234375,-0.41415444016456604,1.182982087135315,0.8006680607795715
1667266106078209300,0.474209228515625,-0.4282039403915405,1.1634349822998047,0.8092198967933655
1667266106080607200,0.476607177734375,-0.43981003761291504,1.1420552730560303,0.8147175312042236
1667266106083005000,0.4790048828125,-0.44958359003067017,1.1163997650146484,0.8177717924118042
1667266106085403000,0.48140283203125,-0.4563029110431671,1.0901333093643188,0.8141067028045654
1667266106087800600,0.483800537109375,-0.46363306045532227,1.058980107307434,0.8128849864006042
1667266106090198500,0.486198486328125,-0.4691306948661804,1.0229400396347046,0.8079982399940491
1667266106092596200,0.48859619140625,-0.4715740978717804,0.9844567179679871,0.8037222623825073
1667266106094994000,0.490993896484375,-0.4715740978717804,0.9398648738861084,0.797613799571991
1667266106097391900,0.493391845703125,-0.47768256068229675,0.8922187685966492,0.789061963558197
1667266106099789600,0.49578955078125,-0.4825693368911743,0.8415184617042542,0.7835643291473389
1667266106102187500,0.4981875,-0.49173203110694885,0.7889856100082397,0.7762341499328613
1667266106104585200,0.500585205078125,-0.5033381581306458,0.7370635867118835,0.7713474035263062
1667266106106983000,0.50298291015625,-0.5192201733589172,0.6857523918151855,0.7634063363075256
1667266106109380900,0.505380859375,-0.546097457408905,0.6344412565231323,0.7572978734970093
1667266106111778600,0.507778564453125,-0.5772506594657898,0.5843517780303955,0.7463026642799377
1667266106114176500,0.510176513671875,-0.6157340407371521,0.5373165011405945,0.7365291118621826
1667266106116574200,0.51257421875,-0.6652126908302307,0.48722705245018005,0.725457489490509
1667266106118972200,0.51497216796875,-0.7189671993255615,0.4444677233695984,0.710797131061554
1667266106121369900,0.517369873046875,-0.7800519466400146,0.4023192822933197,0.6973584890365601
1667266106123767600,0.519767578125,-0.8496885299682617,0.36811181902885437,0.6808656454086304
1667266106126165500,0.52216552734375,-0.92054682970047,0.34306707978248596,0.6625401973724365
1667266106128563200,0.524563232421875,-0.9962918758392334,0.33085015416145325,0.6460473537445068
1667266106130961200,0.526961181640625,-1.073258638381958,0.33023929595947266,0.6289436221122742
1667266106133358800,0.52935888671875,-1.1490037441253662,0.34184539318084717,0.6106181740760803
1667266106135756500,0.531756591796875,-1.2241379022598267,0.35772743821144104,0.5965687036514282
1667266106138154500,0.534154541015625,-1.300493836402893,0.3803287744522095,0.5825192332267761
1667266106140552200,0.53655224609375,-1.374406337738037,0.40842774510383606,0.572745680809021
1667266106142950100,0.5389501953125,-1.4470971822738647,0.4310291111469269,0.5660263299942017
1667266106145347800,0.541347900390625,-1.5185662508010864,0.4542413055896759,0.5574744939804077
1667266106147745500,0.54374560546875,-1.586981177330017,0.47562095522880554,0.5568636059761047
1667266106150143500,0.5461435546875,-1.6547852754592896,0.48783788084983826,0.5519768595695496
1667266106152541200,0.548541259765625,-1.7183133363723755,0.4970006048679352,0.5525876879692078
1667266106154939100,0.550939208984375,-1.7787872552871704,0.502498209476471,0.5507551431655884
1667266106157336800,0.5533369140625,-1.832541823387146,0.49944397807121277,0.5464792251586914
1667266106159734800,0.55573486328125,-1.8801878690719604,0.48967042565345764,0.5440358519554138
1667266106162132500,0.558132568359375,-1.9205037355422974,0.47806432843208313,0.5391490459442139
1667266106164530200,0.5605302734375,-1.9516569375991821,0.45973891019821167,0.5318188667297363
1667266106166928100,0.56292822265625,-1.9736474752426147,0.43530502915382385,0.5196019411087036
1667266106169325800,0.565325927734375,-1.9828102588653564,0.4041518270969391,0.5061632990837097
1667266106171723800,0.567723876953125,-1.9821993112564087,0.36872267723083496,0.491502970457077
1667266106174121500,0.57012158203125,-1.9675390720367432,0.3235199749469757,0.4774535000324249
1667266106176519400,0.57251953125,-1.9394400119781494,0.2746522128582001,0.46157145500183105
1667266106178917000,0.574917236328125,-1.9040108919143677,0.2208976447582245,0.445078581571579
1667266106181314800,0.577314697265625,-1.8569756746292114,0.15981291234493256,0.4298073947429657
1667266106183712800,0.579712646484375,-1.8007776737213135,0.09750649333000183,0.41148197650909424
1667266106186110500,0.5821103515625,-1.7366387844085693,0.03214583545923233,0.39682164788246155
1667266106188508400,0.58450830078125,-1.6645587682724,-0.03626905754208565,0.38155046105384827
1667266106190906000,0.586906005859375,-1.5882028341293335,-0.11140327155590057,0.37116608023643494
1667266106193303800,0.5893037109375,-1.5039058923721313,-0.188370019197464,0.35589489340782166
1667266106195701800,0.59170166015625,-1.4196090698242188,-0.27388864755630493,0.34612134099006653
1667266106198099500,0.594099365234375,-1.3310362100601196,-0.3575747013092041,0.336347758769989
1667266106200497400,0.596497314453125,-1.2406307458877563,-0.4450022280216217,0.32901760935783386
1667266106202895000,0.59889501953125,-1.1496145725250244,-0.540905237197876,0.3253525197505951
1667266106205293000,0.60129296875,-1.0610417127609253,-0.6349757313728333,0.3235199749469757
1667266106207690800,0.603690673828125,-0.9700254201889038,-0.7302678823471069,0.3247416615486145
1667266106210088400,0.60608837890625,-0.8790091872215271,-0.8316685557365417,0.3235199749469757
1667266106212486400,0.608486328125,-0.7898254990577698,-0.9367342591285706,0.3259633779525757
1667266106214884000,0.610884033203125,-0.6981984376907349,-1.03996741771698,0.33268269896507263
1667266106217282000,0.613281982421875,-0.6139014959335327,-1.1456440687179565,0.336347758769989
1667266106219679700,0.6156796875,-0.5283828973770142,-1.249488115310669,0.34184539318084717
1667266106222077700,0.61807763671875,-0.4422534108161926,-1.3496670722961426,0.34489962458610535
1667266106224475400,0.620475341796875,-0.35917818546295166,-1.4412940740585327,0.3491755723953247
1667266106226873000,0.622873046875,-0.280913382768631,-1.5255910158157349,0.3516189455986023
1667266106229271000,0.62527099609375,-0.20272493362426758,-1.5958384275436401,0.35711658000946045
1667266106231668700,0.627668701171875,-0.12697987258434296,-1.654479742050171,0.3650575876235962
1667266106234066700,0.630066650390625,-0.052456509321928024,-1.702736735343933,0.3748311400413513
1667266106236464400,0.63246435546875,0.01779092662036419,-1.7351115942001343,0.389491468667984
1667266106238862000,0.634862060546875,0.08559497445821762,-1.7613780498504639,0.4047626554965973
1667266106241260000,0.637260009765625,0.15095563232898712,-1.7790926694869995,0.42308807373046875
1667266106243657700,0.63965771484375,0.21204034984111786,-1.789476990699768,0.4444677233695984
1667266106246055700,0.6420556640625,0.2731250822544098,-1.7937530279159546,0.4689016342163086
1667266106248453400,0.644453369140625,0.32932302355766296,-1.794974684715271,0.493946373462677
1667266106250851300,0.646851318359375,0.38124504685401917,-1.7876445055007935,0.5196019411087036
1667266106253249000,0.6492490234375,0.428891122341156,-1.7729841470718384,0.544646680355072
1667266106255646700,0.651646728515625,0.4685961902141571,-1.7558804750442505,0.5660263299942017
1667266106258044700,0.654044677734375,0.5040253400802612,-1.735722541809082,0.5874059796333313
1667266106260442400,0.6564423828125,0.5376219153404236,-1.7173970937728882,0.6026771664619446
1667266106262840300,0.65884033203125,0.563277542591095,-1.6984608173370361,0.6142832636833191
1667266106265238000,0.661238037109375,0.5883222818374634,-1.679524540901184,0.6252785325050354
1667266106267636000,0.663635986328125,0.6084802150726318,-1.6593666076660156,0.6301652789115906
1667266106270033700,0.66603369140625,0.6268056631088257,-1.6404303312301636,0.6356629133224487
1667266106272431400,0.668431396484375,0.6487961411476135,-1.618439793586731,0.6356629133224487
1667266106274829300,0.670829345703125,0.6713975071907043,-1.595227599143982,0.6356629133224487
1667266106277227000,0.67322705078125,0.697053074836731,-1.5671286582946777,0.6332195401191711
1667266106279625000,0.675625,0.7263737320899963,-1.534753680229187,0.63199782371521
1667266106282022700,0.678022705078125,0.7593594789505005,-1.5017679929733276,0.6246677041053772
1667266106284420600,0.680420654296875,0.7935669422149658,-1.4626737833023071,0.6203917264938354
1667266106286818300,0.682818359375,0.8320503234863281,-1.4156385660171509,0.6130616068840027
1667266106289216000,0.685216064453125,0.8711445331573486,-1.3649382591247559,0.604509711265564
1667266106291614000,0.687614013671875,0.9096279144287109,-1.3117945194244385,0.5935144424438477
1667266106294011600,0.69001171875,0.9505546689033508,-1.258039951324463,0.5843517780303955
1667266106296409600,0.69240966796875,0.9908705949783325,-1.207950472831726,0.5757998824119568
1667266106298807300,0.694807373046875,1.0275214910507202,-1.1609152555465698,0.5684697031974792
1667266106301205200,0.697205322265625,1.0666157007217407,-1.1224318742752075,0.5672480463981628
1667266106303603000,0.69960302734375,1.1002122163772583,-1.090667724609375,0.5654155015945435
1667266106306000600,0.702000732421875,1.1356414556503296,-1.0625687837600708,0.567858874797821
1667266106308398600,0.704398681640625,1.1698487997055054,-1.036913275718689,0.5703022480010986
1667266106310796300,0.70679638671875,1.2077213525772095,-1.0149227380752563,0.5751890540122986
1667266106313194200,0.7091943359375,1.2443722486495972,-0.9996515512466431,0.5880168676376343
1667266106315592000,0.711592041015625,1.2828556299209595,-0.989267110824585,0.6051205396652222
1667266106317989600,0.71398974609375,1.3207281827926636,-0.980715274810791,0.6265002489089966
1667266106320387600,0.7163876953125,1.3647091388702393,-0.9715525507926941,0.6484907269477844
1667266106322785300,0.718785400390625,1.4050250053405762,-0.9623898267745972,0.6765896677970886
1667266106325183200,0.721183349609375,1.4483952522277832,-0.9501729011535645,0.7052994966506958
1667266106327581000,0.723580810546875,1.4911545515060425,-0.9349017143249512,0.7340856790542603
1667266106329979000,0.725978759765625,1.5351355075836182,-0.9092461466789246,0.760962963104248
1667266106332376600,0.72837646484375,1.580949068069458,-0.8719844818115234,0.7853968739509583
1667266106334774300,0.730774169921875,1.6279842853546143,-0.8182299137115479,0.8037222623825073
1667266106337172200,0.733172119140625,1.6811280250549316,-0.7522584199905396,0.8183826208114624
1667266106339570000,0.73556982421875,1.7348825931549072,-0.6777350306510925,0.8312104344367981
1667266106341968000,0.7379677734375,1.7910804748535156,-0.5971031785011292,0.8458707332611084
1667266106344365600,0.740365478515625,1.8509435653686523,-0.5121954083442688,0.8611419200897217
1667266106346763500,0.742763427734375,1.9126391410827637,-0.4253787696361542,0.8733588457107544
1667266106349161200,0.7451611328125,1.974334716796875,-0.3429143726825714,0.8855758309364319
1667266106351559000,0.747558837890625,2.0372519493103027,-0.2622825503349304,0.8977927565574646
1667266106353956900,0.749956787109375,2.093449831008911,-0.18409408628940582,0.9075663089752197
1667266106356354600,0.7523544921875,2.1514804363250732,-0.11323580890893936,0.9167290329933167
1667266106358752500,0.75475244140625,2.2040133476257324,-0.04543176665902138,0.9240592122077942
1667266106361150200,0.757150146484375,2.2486050128936768,0.008933641016483307,0.9332218766212463
1667266106363548000,0.7595478515625,2.2889211177825928,0.05169294774532318,0.9429954290390015
1667266106365945900,0.76194580078125,2.3255717754364014,0.07979192584753036,0.9594883322715759
1667266106368343600,0.764343505859375,2.353670835494995,0.09261971712112427,0.977813720703125
1667266106370741500,0.766741455078125,2.3757376670837402,0.09689565002918243,1.0004150867462158
1667266106373139200,0.76913916015625,2.3903980255126953,0.0889546349644661,1.0236272811889648
1667266106375537200,0.771537109375,2.400782346725464,0.07429429888725281,1.0505045652389526
1667266106377934800,0.773934814453125,2.4056692123413086,0.048638712614774704,1.080436110496521
1667266106380332800,0.776332763671875,2.403836727142334,0.012598725035786629,1.112200140953064
1667266106382730500,0.77873046875,2.394674062728882,-0.03504735976457596,1.1464076042175293
1667266106385128200,0.781128173828125,2.3800137042999268,-0.09307785332202911,1.1781716346740723
1667266106387526100,0.783526123046875,2.359168529510498,-0.1590493619441986,1.210546612739563
1667266106389923800,0.785923828125,2.3341238498687744,-0.23479440808296204,1.2404780387878418
1667266106392321800,0.78832177734375,2.3048031330108643,-0.3142045736312866,1.2728530168533325
1667266106394719500,0.790719482421875,2.2705955505371094,-0.3972797989845276,1.2978976964950562
1667266106397117200,0.7931171875,2.232112169265747,-0.483485609292984,1.3235533237457275
1667266106399515100,0.79551513671875,2.1936287879943848,-0.5720584392547607,1.3461546897888184
1667266106401912800,0.797912841796875,2.1545345783233643,-0.6612421870231628,1.3614258766174316
1667266106404310800,0.800310791015625,2.1178839206695557,-0.7467607855796814,1.3742536306381226
1667266106406708500,0.80270849609375,2.0806221961975098,-0.8298360109329224,1.3791403770446777
1667266106409106400,0.8051064453125,2.0476362705230713,-0.9049702286720276,1.3785295486450195
1667266106411504000,0.807504150390625,2.0183157920837402,-0.9739959836006165,1.3699777126312256
1667266106413901800,0.80990185546875,1.993270993232727,-1.035691499710083,1.3577607870101929
1667266106416299800,0.8122998046875,1.9737238883972168,-1.0857809782028198,1.3382136821746826
1667266106418697500,0.814697509765625,1.9566200971603394,-1.128540277481079,1.310725450515747
1667266106421095400,0.817095458984375,1.9462357759475708,-1.1609152555465698,1.2820156812667847
1667266106423493000,0.8194931640625,1.936462163925171,-1.189014196395874,1.2502516508102417
1667266106425890800,0.821890869140625,1.9285211563110352,-1.2103937864303589,1.2142115831375122
1667266106428288800,0.824288818359375,1.9230235815048218,-1.2189457416534424,1.1738957166671753
1667266106430686500,0.8266865234375,1.9156934022903442,-1.21650230884552,1.1280821561813354
1667266106433084400,0.82908447265625,1.903476357460022,-1.203063726425171,1.080436110496521
1667266106435482000,0.831482177734375,1.8882052898406982,-1.1835166215896606,1.0334008932113647
1667266106437880000,0.833880126953125,1.8711014986038208,-1.161526083946228,0.9875873327255249
1667266106440277800,0.83627783203125,1.84850013256073,-1.137092113494873,0.9466605186462402
1667266106442675500,0.838675537109375,1.8191795349121094,-1.110825777053833,0.9118422269821167
1667266106445073400,0.841073486328125,1.7868045568466187,-1.0900568962097168,0.8812998533248901
1667266106447471000,0.84347119140625,1.7464886903762817,-1.0747857093811035,0.8519791960716248
1667266106449869000,0.845869140625,1.7012859582901,-1.064401388168335,0.8275453448295593
1667266106452266800,0.848266845703125,1.6554723978042603,-1.0625687837600708,0.8061656951904297
1667266106454664700,0.850664794921875,1.6029396057128906,-1.0668447017669678,0.7829535007476807
1667266106457062400,0.8530625,1.540633201599121,-1.077839970588684,0.7603521347045898
1667266106459460000,0.855460205078125,1.4746615886688232,-1.0931111574172974,0.7432484030723572
1667266106461858000,0.857858154296875,1.4031925201416016,-1.1114366054534912,0.7242357730865479
1667266106464255700,0.860255859375,1.3231714963912964,-1.1248751878738403,0.7071320414543152
1667266106466653700,0.86265380859375,1.2400963306427002,-1.132816195487976,0.6943042874336243
1667266106469051400,0.865051513671875,1.147247552871704,-1.1309837102890015,0.6851415634155273
1667266106471449300,0.867449462890625,1.0495119094848633,-1.1218210458755493,0.6778113842010498
1667266106473847000,0.869846923828125,0.9450570940971375,-1.1028847694396973,0.6735354661941528
1667266106476244700,0.87224462890625,0.8326611518859863,-1.0741748809814453,0.6710920929908752
1667266106478642700,0.874642578125,0.7172110676765442,-1.0332481861114502,0.6674270033836365
1667266106481040400,0.877040283203125,0.5980958342552185,-0.9788827300071716,0.6649835705757141
1667266106483438300,0.879438232421875,0.47470468282699585,-0.9165763258934021,0.6594859957695007
1667266106485836000,0.8818359375,0.3488701283931732,-0.846328854560852,0.6503232717514038
1667266106488234000,0.88423388671875,0.2199813723564148,-0.7687512636184692,0.6356629133224487
1667266106490631700,0.886631591796875,0.09109259396791458,-0.6911736726760864,0.6142832636833191
1667266106493029400,0.889029296875,-0.04085041210055351,-0.6123743653297424,0.5861843228340149
1667266106495427300,0.89142724609375,-0.17035003006458282,-0.5347967743873596,0.5513660311698914
1667266106497825000,0.893824951171875,-0.29496288299560547,-0.46332764625549316,0.5067741274833679
1667266106500223000,0.896222900390625,-0.4172086715698242,-0.3930038511753082,0.4542413055896759
1667266106502620700,0.89862060546875,-0.5351021885871887,-0.32458895444869995,0.3925457298755646
1667266106505018400,0.901018310546875,-0.648108959197998,-0.2622825503349304,0.3235199749469757
1667266106507416300,0.903416259765625,-0.7550072073936462,-0.20364120602607727,0.25266170501708984
1667266106509814000,0.90581396484375,-0.8545753359794617,-0.15721681714057922,0.17386239767074585
1667266106512212000,0.9082119140625,-0.9486457705497742,-0.11323580890893936,0.09261971712112427
1667266106514609700,0.910609619140625,-1.041494607925415,-0.07169819623231888,0.0064902519807219505
1667266106517007600,0.913007568359375,-1.12823486328125,-0.024662958458065987,-0.07902836054563522
1667266106519405300,0.9154052734375,-1.2155860662460327,0.03092414326965809,-0.16637952625751495
1667266106521803000,0.917802978515625,-1.296217918395996,0.09506310522556305,-0.25739577412605286
1667266106524201000,0.920200927734375,-1.3762388229370117,0.1665322333574295,-0.34963369369506836
1667266106526598700,0.9225986328125,-1.45198392868042,0.2471640706062317,-0.44248247146606445
1667266106528996600,0.92499658203125,-1.5210096836090088,0.334515243768692,-0.5371637940406799
1667266106531394300,0.927394287109375,-1.5839269161224365,0.4285857081413269,-0.6330668330192566
1667266106533792300,0.929792236328125,-1.6389031410217285,0.526321291923523,-0.7308024168014526
1667266106536190000,0.93218994140625,-1.6798299551010132,0.6265002489089966,-0.8273162841796875
1667266106538587600,0.934587646484375,-1.7140374183654785,0.7291225790977478,-0.9281060695648193
1667266106540985600,0.936985595703125,-1.7348061800003052,0.8323557376861572,-1.0301175117492676
1667266106543383300,0.93938330078125,-1.7433581352233887,0.9355889558792114,-1.1266313791275024
1667266106545781200,0.94178125,-1.744579792022705,1.044319748878479,-1.222534418106079
1667266106548179000,0.944178955078125,-1.7317520380020142,1.1481637954711914,-1.3129398822784424
1667266106550577000,0.946576904296875,-1.7115939855575562,1.2452884912490845,-1.3960150480270386
1667266106552974600,0.948974609375,-1.6841058731079102,1.3381372690200806,-1.4644299745559692
1667266106555372300,0.951372314453125,-1.6523418426513672,1.4224342107772827,-1.5212386846542358
1667266106557770200,0.953770263671875,-1.6169127225875854,1.4994009733200073,-1.5646089315414429
1667266106560168000,0.95616796875,-1.5784293413162231,1.5690375566482544,-1.58843195438385
1667266106562566000,0.95856591796875,-1.5411676168441772,1.6319547891616821,-1.601259708404541
1667266106564963600,0.960963623046875,-1.506960153579712,1.6857093572616577,-1.6018705368041992
1667266106567361500,0.963361572265625,-1.4684767723083496,1.728468656539917,-1.5914862155914307
1667266106569759200,0.96575927734375,-1.434880256652832,1.757178544998169,-1.5701065063476562
1667266106572157000,0.968156982421875,-1.401894450187683,1.7700062990188599,-1.5413967370986938
1667266106574555000,0.970554931640625,-1.368297815322876,1.7638977766036987,-1.5078001022338867
1667266106576952600,0.97295263671875,-1.3328686952590942,1.743129014968872,-1.4632081985473633
1667266106579350500,0.9753505859375,-1.2931636571884155,1.7040348052978516,-1.41189706325531
1667266106581748200,0.977748291015625,-1.2510151863098145,1.6551669836044312,-1.352034091949463
1667266106584146200,0.980146240234375,-1.2058124542236328,1.6008015871047974,-1.2848408222198486
1667266106586543900,0.9825439453125,-1.1545013189315796,1.5397168397903442,-1.2127609252929688
1667266106588941600,0.984941650390625,-1.0989142656326294,1.4743561744689941,-1.1321290731430054
1667266106591339500,0.987339599609375,-1.037218689918518,1.4028871059417725,-1.045999526977539
1667266106593737200,0.9897373046875,-0.971247136592865,1.3289746046066284,-0.9586484432220459
1667266106596135200,0.99213525390625,-0.9046648144721985,1.2562837600708008,-0.8651887774467468
1667266106598532900,0.994532958984375,-0.8344173431396484,1.1848145723342896,-0.7717291712760925
1667266106600930800,0.996930908203125,-0.758672297000885,1.1249516010284424,-0.6739935874938965
1667266106603328500,0.99932861328125,-0.6792621612548828,1.0766946077346802,-0.5713712573051453
1667266106605726200,1.001726318359375,-0.5980194807052612,1.044319748878479,-0.46752721071243286
1667266106608124200,1.004124267578125,-0.517998456954956,1.0266051292419434,-0.3581855595111847
1667266106610521900,1.00652197265625,-0.43797749280929565,1.0223292112350464,-0.24395711719989777
1667266106612919800,1.008919921875,-0.3542914092540741,1.0272160768508911,-0.12545275688171387
1667266106615317500,1.0113173828125,-0.2754157483577728,1.0327136516571045,-0.010613471269607544
1667266106617715500,1.013715576171875,-0.20394663512706757,1.0235509872436523,0.09811734408140182
1667266106620113200,1.016113037109375,-0.1355317384004593,1.0033929347991943,0.19951798021793365
1667266106622510800,1.0185107421875,-0.07933378964662552,0.9673529863357544,0.28931254148483276
1667266106624908800,1.02090869140625,-0.02435753494501114,0.919096052646637,0.3656684458255768
1667266106627306500,1.023306396484375,0.02023431472480297,0.8580113053321838,0.4310291111469269
1667266106629704400,1.025704345703125,0.06055023521184921,0.7914289832115173,0.4823402762413025
1667266106632102100,1.02810205078125,0.10025530308485031,0.7230141162872314,0.5208236575126648
1667266106634499800,1.030499755859375,0.141182079911232,0.6570425629615784,0.548922598361969
1667266106636897800,1.032897705078125,0.18760646879673004,0.600233793258667,0.5733565092086792
1667266106639295500,1.03529541015625,0.23586340248584747,0.5513660311698914,0.5867951512336731
1667266106641693400,1.037693359375,0.29145050048828125,0.5220453143119812,0.5941253304481506
1667266106644091100,1.040091064453125,0.35436776280403137,0.5104392170906067,0.5971795320510864
1667266106646489000,1.042489013671875,0.42339351773262024,0.5189911127090454,0.5996229648590088
1667266106648886800,1.04488671875,0.4942517876625061,0.5409815907478333,0.6008446216583252
1667266106651284500,1.047284423828125,0.5687751770019531,0.5739673376083374,0.6014555096626282
1667266106653682400,1.049682373046875,0.6451310515403748,0.6100073456764221,0.6038988828659058
1667266106656080100,1.052080078125,0.7275954484939575,0.6442148089408875,0.6069530844688416
1667266106658478000,1.05447802734375,0.8161683082580566,0.6759788393974304,0.6112290620803833
1667266106660875800,1.056875732421875,0.9108496308326721,0.6924717426300049,0.6210026144981384
1667266106663273700,1.059273681640625,1.0189695358276367,0.6863632798194885,0.6368846297264099
1667266106665671400,1.06167138671875,1.1435824632644653,0.6484907269477844,0.6545991897583008
1667266106668069000,1.064069091796875,1.2865207195281982,0.5733565092086792,0.6723137497901917
1667266106670467000,1.066467041015625,1.4514493942260742,0.46096062660217285,0.6936933994293213
1667266106672864800,1.06886474609375,1.637147068977356,0.31741151213645935,0.7144622206687927
1667266106675262700,1.0712626953125,1.8448350429534912,0.15003935992717743,0.7389724850654602
1667266106677660400,1.073660400390625,2.066572666168213,-0.03199312463402748,0.7719582319259644
1667266106680058400,1.076058349609375,2.2974729537963867,-0.22196662425994873,0.8086090683937073
1667266106682456000,1.0784560546875,2.5272278785705566,-0.4217136800289154,0.8495358228683472
1667266106684853800,1.080853759765625,2.754462957382202,-0.6276455521583557,0.8935168385505676
1667266106687251700,1.083251708984375,2.974368095397949,-0.8206732869148254,0.9448279738426208
1667266106689649400,1.0856494140625,3.1838886737823486,-1.0063709020614624,0.9991934299468994
1667266106692047400,1.08804736328125,3.3860790729522705,-1.1712995767593384,1.0553913116455078
1667266106694445000,1.090445068359375,3.5736091136932373,-1.3069076538085938,1.1115893125534058
1667266106696843000,1.092843017578125,3.749533176422119,-1.401589035987854,1.1800042390823364
1667266106699240700,1.09524072265625,3.911407709121704,-1.4602303504943848,1.2484190464019775
1667266106701638400,1.097638427734375,4.056178569793701,-1.4926053285598755,1.3223315477371216
1667266106704036400,1.100036376953125,4.188732147216797,-1.5023788213729858,1.3980766534805298
1667266106706434000,1.10243408203125,4.293797969818115,-1.4791666269302368,1.4744325876235962
1667266106708832000,1.10483203125,4.370153903961182,-1.4174710512161255,1.5538426637649536
1667266106711229700,1.107229736328125,4.431849479675293,-1.3398934602737427,1.625922679901123
1667266106713627400,1.10962744140625,4.474608898162842,-1.2592616081237793,1.6833423376083374
1667266106716025300,1.112025390625,4.494766712188721,-1.1706887483596802,1.728545069694519
1667266106718423000,1.114423095703125,4.49171257019043,-1.0790616273880005,1.7590874433517456
1667266106720821000,1.116821044921875,4.463613510131836,-0.980715274810791,1.773136854171753
1667266106723218700,1.11921875,4.414134979248047,-0.8793146014213562,1.7700825929641724
1667266106725616600,1.12161669921875,4.346941947937012,-0.7779139876365662,1.750535488128662
1667266106728014300,1.124014404296875,4.26630973815918,-0.670404851436615,1.713884711265564
1667266106730412000,1.126412109375,4.172239303588867,-0.559841513633728,1.6644060611724854
1667266106732810000,1.12881005859375,4.06961727142334,-0.4419479966163635,1.6020996570587158
1667266106735207700,1.131207763671875,3.957221269607544,-0.32397812604904175,1.5257437229156494
1667266106737605600,1.133605712890625,3.8344409465789795,-0.20547375082969666,1.4420576095581055
1667266106740003300,1.13600341796875,3.7049412727355957,-0.08941277116537094,1.3461546897888184
1667266106742401300,1.1384013671875,3.5717766284942627,0.02664821222424507,1.2435322999954224
1667266106744799000,1.140799072265625,3.431281805038452,0.14576342701911926,1.1341906785964966
1667266106747196700,1.14319677734375,3.2877326011657715,0.2593810260295868,1.019962191581726
1667266106749594600,1.1455947265625,3.141740083694458,0.37177690863609314,0.9020686745643616
1667266106751992300,1.147992431640625,2.9981911182403564,0.4805077314376831,0.7835643291473389
1667266106754390300,1.150390380859375,2.8515877723693848,0.5849626064300537,0.6643727421760559
1667266106756788000,1.1527880859375,2.7086493968963623,0.6851415634155273,0.548922598361969
1667266106759186000,1.15518603515625,2.5767064094543457,0.7798228859901428,0.43591588735580444
1667266106761583600,1.15758349609375,2.449650287628174,0.8604547381401062,0.3259633779525757
1667266106763981300,1.159981201171875,2.3310694694519043,0.9368106126785278,0.22578442096710205
1667266106766379300,1.162379150390625,2.219895362854004,0.993008553981781,0.13415732979774475
1667266106768777000,1.16477685546875,2.1209380626678467,1.031491994857788,0.05047125369310379
1667266106771175000,1.1671748046875,2.0311434268951416,1.0461522340774536,-0.026495499536395073
1667266106773572600,1.169572509765625,1.9505116939544678,1.0406546592712402,-0.08819106966257095
1667266106775970600,1.171970458984375,1.8784316778182983,1.0095014572143555,-0.14133478701114655
1667266106778368300,1.1743681640625,1.8179577589035034,0.9526926279067993,-0.18226155638694763
1667266106780766000,1.176765869140625,1.7611490488052368,0.8763367533683777,-0.21097137033939362
1667266106783164000,1.179163818359375,1.7110595703125,0.784709632396698,-0.2274642437696457
1667266106785561600,1.1815615234375,1.6664676666259766,0.6772005558013916,-0.23112933337688446
1667266106787959600,1.18395947265625,1.6267626285552979,0.5648046731948853,-0.2274642437696457
1667266106790357200,1.186357177734375,1.5919443368911743,0.4395809471607208,-0.21097137033939362
1667266106792755200,1.188755126953125,1.5638453960418701,0.3137464225292206,-0.18348324298858643
1667266106795153000,1.19115283203125,1.5363571643829346,0.1787491738796234,-0.14316733181476593
1667266106797550600,1.193550537109375,1.5161992311477661,0.04802786558866501,-0.09368869662284851
1667266106799948500,1.195948486328125,1.49848473072052,-0.07536327838897705,-0.0295497365295887
1667266106802346200,1.19834619140625,1.483824372291565,-0.19386765360832214,0.04008685052394867
1667266106804744200,1.200744140625,1.4703856706619263,-0.29832252860069275,0.12438376992940903
1667266106807142000,1.203141845703125,1.4600013494491577,-0.38994961977005005,0.21051323413848877
1667266106809539800,1.205539794921875,1.452060341835022,-0.4712686538696289,0.30397287011146545
1667266106811937500,1.2079375,1.4459518194198608,-0.536629319190979,0.4017084240913391
1667266106814335500,1.21033544921875,1.438010811805725,-0.5897729992866516,0.5006656646728516
1667266106816733200,1.212733154296875,1.427626371383667,-0.6306998133659363,0.5984012484550476
1667266106819131000,1.215130859375,1.4166311025619507,-0.6587987542152405,0.6930825710296631
1667266106821528800,1.21752880859375,1.4031925201416016,-0.6771242022514343,0.7847860455513
1667266106823926500,1.219926513671875,1.3879213333129883,-0.6850652098655701,0.8696937561035156
1667266106826324500,1.222324462890625,1.3695958852767944,-0.6832326650619507,0.9497147798538208
1667266106828722200,1.22472216796875,1.3476054668426514,-0.6740699410438538,1.0187405347824097
1667266106831120100,1.2271201171875,1.3256149291992188,-0.6533011198043823,1.0798252820968628
1667266106833517800,1.229517822265625,1.3054569959640503,-0.6184828281402588,1.1317472457885742
1667266106835915500,1.23191552734375,1.2834664583206177,-0.5738909840583801,1.1745065450668335
1667266106838313500,1.2343134765625,1.2663626670837402,-0.5225798487663269,1.2068815231323242
1667266106840711200,1.236711181640625,1.252313256263733,-0.4614951014518738,1.2288719415664673
1667266106843109000,1.239109130859375,1.2419288158416748,-0.3948363959789276,1.2410888671875
1667266106845506800,1.2415068359375,1.2352094650268555,-0.3209238648414612,1.2435322999954224
1667266106847904800,1.24390478515625,1.2321553230285645,-0.24640052020549774,1.236812949180603
1667266106850302500,1.246302490234375,1.2370420694351196,-0.16699036955833435,1.2209309339523315
1667266106852700200,1.2487001953125,1.243761420249939,-0.08269345015287399,1.2019946575164795
1667266106855098000,1.25109814453125,1.2547565698623657,0.0028251686599105597,1.1751173734664917
1667266106857495800,1.253495849609375,1.2718603610992432,0.08712209016084671,1.145185947418213
1667266106859893800,1.255893798828125,1.2895748615264893,0.16469968855381012,1.1152544021606445
1667266106862291500,1.25829150390625,1.3109545707702637,0.23983390629291534,1.090820550918579
1667266106864689400,1.260689453125,1.3286691904067993,0.3106921911239624,1.0639432668685913
1667266106867087000,1.263087158203125,1.3469945192337036,0.38216131925582886,1.0395092964172363
1667266106869484800,1.26548486328125,1.362876534461975,0.44752198457717896,1.0132428407669067
1667266106871882800,1.2678828125,1.3750935792922974,0.5086066722869873,0.982700526714325
1667266106874280400,1.270280517578125,1.381201982498169,0.5617504119873047,0.9527690410614014
1667266106876678400,1.272678466796875,1.3836454153060913,0.600233793258667,0.9210049510002136
1667266106879076000,1.275076171875,1.376926064491272,0.6265002489089966,0.8922951221466064
1667266106881474000,1.27747412109375,1.3586006164550781,0.6417713761329651,0.8660287261009216
1667266106883871700,1.279871826171875,1.3341667652130127,0.6515449285507202,0.8422056436538696
1667266106886269400,1.28226953125,1.2975159883499146,0.6576534509658813,0.8189934492111206
1667266106888667400,1.28466748046875,1.2541457414627075,0.6576534509658813,0.7982246279716492
1667266106891065000,1.287065185546875,1.1985586881637573,0.6588751077651978,0.7817317843437195
1667266106893463000,1.289463134765625,1.1344196796417236,0.6545991897583008,0.765849769115448
1667266106895860700,1.29186083984375,1.0690590143203735,0.6484907269477844,0.7518002390861511
1667266106898258400,1.294258544921875,0.9994224905967712,0.6423822641372681,0.7408050298690796
1667266106900656400,1.296656494140625,0.9255099296569824,0.6374954581260681,0.7236249446868896
1667266106903054000,1.29905419921875,0.854651689529419,0.623445987701416,0.706521213054657
1667266106905452000,1.3014521484375,0.7844042181968689,0.6057314276695251,0.6839198470115662
1667266106907849700,1.303849609375,0.7172110676765442,0.5825192332267761,0.655210018157959
1667266106910247700,1.30624755859375,0.6591805219650269,0.5556419491767883,0.6216134428977966
1667266106912645400,1.308645263671875,0.6084802150726318,0.5232670307159424,0.5806866884231567
1667266106915043000,1.31104296875,0.5675534605979919,0.48783788084983826,0.5360948443412781
1667266106917441000,1.31344091796875,0.5376219153404236,0.44691112637519836,0.48539450764656067
1667266106919838700,1.315838623046875,0.516242265701294,0.4035409688949585,0.43347248435020447
1667266106922236700,1.318236572265625,0.5028036236763,0.362003356218338,0.38093963265419006
1667266106924634400,1.32063427734375,0.49913856387138367,0.3222982883453369,0.32779592275619507
1667266106927032300,1.3230322265625,0.5021927952766418,0.2825932204723358,0.27831727266311646
1667266106929430000,1.325429931640625,0.5113555192947388,0.2471640706062317,0.2337254285812378
1667266106931827700,1.32782763671875,0.5229616165161133,0.21173493564128876,0.19707459211349487
1667266106934225700,1.3302255859375,0.5425087213516235,0.17447324097156525,0.16469968855381012
1667266106936623400,1.332623291015625,0.563277542591095,0.13843326270580292,0.1408766508102417
1667266106939021300,1.335021240234375,0.581602931022644,0.10605835169553757,0.12499462068080902
1667266106941419000,1.3374189453125,0.6017609238624573,0.0755159929394722,0.11644276231527328
1667266106943817000,1.33981689453125,0.6219188570976257,0.053525492548942566,0.11583191156387329
1667266106946214700,1.342214599609375,0.6402443051338196,0.04558447748422623,0.12132953852415085
1667266106948612400,1.3446123046875,0.6585696935653687,0.04497363045811653,0.13660071790218353
1667266106951010300,1.34701025390625,0.6762842535972595,0.06146650388836861,0.1543152928352356
1667266106953408000,1.349407958984375,0.6915554404258728,0.09323056042194366,0.17569494247436523
1667266106955806000,1.351805908203125,0.7074374556541443,0.13476817309856415,0.20318306982517242
1667266106958203600,1.35420361328125,0.7233195304870605,0.18302510678768158,0.23555797338485718
1667266106960601600,1.3566015625,0.7404232621192932,0.23861220479011536,0.26671117544174194
1667266106962999300,1.358999267578125,0.7563052773475647,0.2996969223022461,0.30336201190948486
1667266106965397000,1.36139697265625,0.7721872925758362,0.366279274225235,0.3406237065792084
1667266106967795000,1.363794921875,0.789901852607727,0.43408334255218506,0.3766636848449707
1667266106970192600,1.366192626953125,0.8082273006439209,0.5049416422843933,0.415147066116333
1667266106972590600,1.368590576171875,0.8283852338790894,0.5733565092086792,0.44691112637519836
1667266106974988300,1.37098828125,0.8528191447257996,0.6393280029296875,0.4786751866340637
1667266106977386200,1.37338623046875,0.8796964287757874,0.6985802054405212,0.5086066722869873
1667266106979784000,1.375783935546875,0.9084062576293945,0.7547781467437744,0.5348731279373169
1667266106982181600,1.378181640625,0.9365051984786987,0.8048676252365112,0.5562527775764465
1667266106984579600,1.38057958984375,0.9633824825286865,0.8482377529144287,0.5776324272155762
1667266106986977300,1.382977294921875,0.9884272217750549,0.887332022190094,0.5965687036514282
1667266106989375200,1.385375244140625,1.0030875205993652,0.9270370602607727,0.6148941516876221
1667266106991773000,1.38777294921875,1.0177478790283203,0.9649096131324768,0.6307761669158936
1667266106994171000,1.3901708984375,1.021412968635559,1.0027821063995361,0.6442148089408875
1667266106996568600,1.392568603515625,1.0134719610214233,1.0394330024719238,0.6576534509658813
1667266106998966500,1.394966552734375,0.9933140277862549,1.076083779335022,0.6662052869796753
1667266107001364200,1.3973642578125,0.9609391093254089,1.109680414199829,0.6717029213905334
1667266107003762000,1.399761962890625,0.9151255488395691,1.141444444656372,0.6710920929908752
1667266107006160000,1.402159912109375,0.8589276075363159,1.1652674674987793,0.6619293689727783
1667266107008557600,1.4045576171875,0.7844042181968689,1.1860363483428955,0.6503232717514038
1667266107010955500,1.40695556640625,0.7019398808479309,1.2025291919708252,0.6283327341079712
1667266107013353200,1.409353271484375,0.6078693866729736,1.2116918563842773,0.6014555096626282
1667266107015751200,1.411751220703125,0.5064687132835388,1.2129136323928833,0.5684697031974792
1667266107018148900,1.41414892578125,0.39895960688591003,1.2080267667770386,0.5244887471199036
1667266107020546600,1.416546630859375,0.2835094928741455,1.1903122663497925,0.47562095522880554
1667266107022944500,1.418944580078125,0.1662268042564392,1.1634349822998047,0.417590469121933
1667266107025342200,1.42134228515625,0.049554985016584396,1.1249516010284424,0.3510081171989441
1667266107027740200,1.423740234375,-0.06467345356941223,1.0730295181274414,0.27648472785949707
1667266107030137900,1.426137939453125,-0.1721825748682022,1.0046147108078003,0.19707459211349487
1667266107032535800,1.428535888671875,-0.276637464761734,0.919096052646637,0.10972344130277634
1667266107034933500,1.43093359375,-0.37078428268432617,0.8183062672615051,0.01626380905508995
1667266107037331200,1.433331298828125,-0.45508119463920593,0.7040778398513794,-0.07841751724481583
1667266107039729200,1.435729248046875,-0.5320479869842529,0.5709131360054016,-0.18348324298858643
1667266107042126800,1.438126953125,-0.5955760478973389,0.4291965663433075,-0.28671643137931824
1667266107044524800,1.44052490234375,-0.6499415040016174,0.2825932204723358,-0.394225537776947
1667266107046922500,1.442922607421875,-0.6969767212867737,0.13232478499412537,-0.50112384557724
1667266107049320400,1.445320556640625,-0.7409577369689941,-0.013667707331478596,-0.6049678325653076
1667266107051718100,1.44771826171875,-0.7812736630439758,-0.15599511563777924,-0.7106444239616394
1667266107054115800,1.45011572265625,-0.818535327911377,-0.28671643137931824,-0.8059365749359131
1667266107056513800,1.452513671875,-0.8576295375823975,-0.40522080659866333,-0.9006179571151733
1667266107058911500,1.454911376953125,-0.9034430980682373,-0.5030327439308167,-0.9867473840713501
1667266107061309400,1.457309326171875,-0.9571976661682129,-0.5793886184692383,-1.070433497428894
1667266107063707100,1.45970703125,-1.022558331489563,-0.6313106417655945,-1.1504544019699097
1667266107066105000,1.46210498046875,-1.1025793552398682,-0.6569662094116211,-1.2213127613067627
1667266107068502800,1.464502685546875,-1.1972606182098389,-0.6606312990188599,-1.2891167402267456
1667266107070900500,1.466900390625,-1.3023263216018677,-0.6447492837905884,-1.3495906591415405
1667266107073298400,1.46929833984375,-1.4220523834228516,-0.6080984473228455,-1.4082319736480713
1667266107075696000,1.471696044921875,-1.55338454246521,-0.5561764240264893,-1.4613757133483887
1667266107078094000,1.474093994140625,-1.692657709121704,-0.4828747510910034,-1.5151302814483643
1667266107080491800,1.47649169921875,-1.8429261445999146,-0.3954472541809082,-1.5688848495483398
1667266107082889700,1.4788896484375,-1.9999139308929443,-0.2885489761829376,-1.6238610744476318
1667266107085287400,1.481287353515625,-2.1599559783935547,-0.1614927500486374,-1.6831132173538208
1667266107087685000,1.48368505859375,-2.3212196826934814,-0.01794363744556904,-1.7448087930679321
1667266107090083000,1.4860830078125,-2.4775965213775635,0.14942851662635803,-1.8120020627975464
1667266107092480800,1.488480712890625,-2.629697561264038,0.33329352736473083,-1.8828603029251099
1667266107094878700,1.490878662109375,-2.774468183517456,0.5385382175445557,-1.9586817026138306
1667266107097276400,1.4932763671875,-2.9088547229766846,0.7645516991615295,-2.0429787635803223
1667266107099674000,1.495674072265625,-3.027435302734375,1.0095014572143555,-2.1278865337371826
1667266107102072000,1.498072021484375,-3.1294467449188232,1.2678898572921753,-2.2207353115081787
1667266107104469800,1.5004697265625,-3.214965581893921,1.534830093383789,-2.3129732608795166
1667266107106867700,1.50286767578125,-3.2833802700042725,1.8029919862747192,-2.4082653522491455
1667266107109265400,1.505265380859375,-3.333469867706299,2.0680997371673584,-2.499892473220825
1667266107111663400,1.507663330078125,-3.3609578609466553,2.3271753787994385,-2.5878543853759766
1667266107114061000,1.51006103515625,-3.371342420578003,2.5794553756713867,-2.6715404987335205
1667266107116458800,1.512458740234375,-3.3585145473480225,2.817685604095459,-2.7491180896759033
1667266107118856700,1.514856689453125,-3.331637382507324,3.037590742111206,-2.819976329803467
1667266107121254400,1.51725439453125,-3.2839913368225098,3.2324509620666504,-2.8828935623168945
1667266107123652400,1.51965234375,-3.2204630374908447,3.39921236038208,-2.9354264736175537
1667266107126050000,1.522050048828125,-3.1386096477508545,3.5299336910247803,-2.9757423400878906
1667266107128448000,1.524447998046875,-3.0451500415802,3.621560573577881,-3.003230571746826
1667266107130845700,1.526845703125,-2.936953544616699,3.6716501712799072,-3.016669273376465
1667266107133243400,1.529243408203125,-2.8215034008026123,3.683256149291992,-3.0160584449768066
1667266107135641300,1.531641357421875,-2.6968905925750732,3.6643199920654297,-2.9977328777313232
1667266107138039000,1.5340390625,-2.5643367767333984,3.610565423965454,-2.9629147052764893
1667266107140437000,1.53643701171875,-2.4256744384765625,3.518327474594116,-2.918322801589966
1667266107142834700,1.538834716796875,-2.279071092605591,3.3888278007507324,-2.8572380542755127
1667266107145232600,1.541232666015625,-2.1330785751342773,3.2147364616394043,-2.788823127746582
1667266107147630300,1.54363037109375,-1.9828102588653564,3.0046050548553467,-2.7173540592193604
1667266107150028300,1.5460283203125,-1.8374285697937012,2.7675962448120117,-2.6403872966766357
1667266107152426000,1.548426025390625,-1.69387948513031,2.5159270763397217,-2.5554795265197754
1667266107154823700,1.55082373046875,-1.5527737140655518,2.2544844150543213,-2.4632415771484375
1667266107157221600,1.5532216796875,-1.4165548086166382,1.9923546314239502,-2.3642842769622803
1667266107159619300,1.555619384765625,-1.2827792167663574,1.728468656539917,-2.2610511779785156
1667266107162017300,1.558017333984375,-1.1587772369384766,1.4731345176696777,-2.1510987281799316
1667266107164415000,1.5604150390625,-1.0427162647247314,1.2281848192214966,-2.030150890350342
1667266107166813000,1.56281298828125,-0.9309312105178833,0.9917868971824646,-1.9030182361602783
1667266107169210600,1.565210693359375,-0.8319739699363708,0.7584432363510132,-1.773518681526184
1667266107171608300,1.5676083984375,-0.7385143637657166,0.5360948443412781,-1.6366888284683228
1667266107174006300,1.57000634765625,-0.656660795211792,0.31924405694007874,-1.4980264902114868
1667266107176404000,1.572404052734375,-0.5845808386802673,0.11155597865581512,-1.3581424951553345
1667266107178802000,1.574802001953125,-0.5204418897628784,-0.09185615926980972,-1.2207019329071045
1667266107181199600,1.57719970703125,-0.4679090082645416,-0.2806079685688019,-1.087537169456482
1667266107183597600,1.57959765625,-0.4282039403915405,-0.4572191834449768,-0.9598701000213623
1667266107185995300,1.581995361328125,-0.40071579813957214,-0.615428626537323,-0.8322030305862427
1667266107188393200,1.584393310546875,-0.38605546951293945,-0.7589777112007141,-0.713087797164917
1667266107190791000,1.586791015625,-0.3787252902984619,-0.8951966762542725,-0.6037461757659912
1667266107193188600,1.589188720703125,-0.38544461131095886,-1.0173660516738892,-0.504788875579834
1667266107195586600,1.591586669921875,-0.39888325333595276,-1.1267077922821045,-0.41560521721839905
1667266107197984300,1.593984375,-0.4227063059806824,-1.220778226852417,-0.33680590987205505
1667266107200382200,1.59638232421875,-0.45080527663230896,-1.304464340209961,-0.264725923538208
1667266107202780000,1.59877978515625,-0.4862344264984131,-1.3692141771316528,-0.20303036272525787
1667266107205177600,1.601177490234375,-0.5247178077697754,-1.4168602228164673,-0.1492757946252823
1667266107207575600,1.603575439453125,-0.5632011890411377,-1.4504568576812744,-0.10285140573978424
1667266107209973200,1.60597314453125,-0.6035171151161194,-1.4657280445098877,-0.06314633786678314
1667266107212371200,1.60837109375,-0.6438329815864563,-1.4700039625167847,-0.032603971660137177
1667266107214769000,1.610768798828125,-0.6817055344581604,-1.456565260887146,-0.011835165321826935
1667266107217166800,1.613166748046875,-0.7146912813186646,-1.4217469692230225,0.00038177953683771193
1667266107219564500,1.615564453125,-0.739736020565033,-1.3710466623306274,0.012598725035786629
1667266107221962200,1.617962158203125,-0.7592831254005432,-1.3007992506027222,0.02053973823785782
1667266107224360200,1.620360107421875,-0.7739434838294983,-1.2073396444320679,0.02420482225716114
1667266107226758000,1.6227578125,-0.7886037826538086,-1.1022738218307495,0.024815669283270836
1667266107229155800,1.62515576171875,-0.7977665066719055,-0.9825478196144104,0.019318044185638428
1667266107231553500,1.627553466796875,-0.8002098798751831,-0.859767496585846,0.011377030052244663
1667266107233951500,1.629951416015625,-0.7959339618682861,-0.7327113151550293,0.0016034740256145597
1667266107236349200,1.63234912109375,-0.7831062078475952,-0.6074876189231873,-0.010002624243497849
1667266107238747000,1.634746826171875,-0.7641699314117432,-0.4871506989002228,-0.02405211143195629
1667266107241144800,1.637144775390625,-0.7360709309577942,-0.3679591119289398,-0.04115583375096321
1667266107243542500,1.63954248046875,-0.7018635272979736,-0.2635042369365692,-0.05948125198483467
1667266107245940500,1.6419404296875,-0.6597150564193726,-0.16515782475471497,-0.0814717561006546
1667266107248338200,1.644338134765625,-0.6126797795295715,-0.07963921129703522,-0.10285140573978424
1667266107250736000,1.646736083984375,-0.5583143830299377,-0.0038941511884331703,-0.12667444348335266
1667266107253133800,1.6491337890625,-0.499673068523407,0.05657972767949104,-0.1486649513244629
1667266107255531500,1.651531494140625,-0.43981003761291504,0.10361496359109879,-0.17554223537445068
1667266107257929500,1.653929443359375,-0.3781144618988037,0.14332003891468048,-0.20241950452327728
1667266107260327200,1.6563271484375,-0.3139754831790924,0.1683647781610489,-0.23112933337688446
1667266107262725000,1.65872509765625,-0.2522035539150238,0.19096612930297852,-0.25861746072769165
1667266107265122800,1.661122802734375,-0.19356222450733185,0.21723255515098572,-0.2806079685688019
1667266107267520800,1.663520751953125,-0.13797512650489807,0.2465532273054123,-0.3013767600059509
1667266107269918500,1.66591845703125,-0.09032903611660004,0.27770644426345825,-0.31176117062568665
1667266107272316200,1.668316162109375,-0.04634803533554077,0.3125247359275818,-0.3166479468345642
1667266107274714000,1.670714111328125,-0.013362283818423748,0.34428879618644714,-0.3148154020309448
1667266107277111800,1.67311181640625,0.012293301522731781,0.3748311400413513,-0.3068743944168091
1667266107279509800,1.675509765625,0.031229566782712936,0.4004867374897003,-0.2940466105937958
1667266107281907500,1.677907470703125,0.03306210786104202,0.4157579243183136,-0.2763320207595825
1667266107284305400,1.680305419921875,0.026342788711190224,0.42247724533081055,-0.25556322932243347
1667266107286703000,1.682703125,0.009239064529538155,0.417590469121933,-0.22929678857326508
1667266107289100800,1.685100830078125,-0.02008160389959812,0.39865419268608093,-0.20180866122245789
1667266107291498800,1.687498779296875,-0.054899897426366806,0.36750099062919617,-0.1730988472700119
1667266107293896400,1.689896484375,-0.10010259598493576,0.3222982883453369,-0.14377817511558533
1667266107296294400,1.69229443359375,-0.15141376852989197,0.26548948884010315,-0.11201411485671997
1667266107298692000,1.694692138671875,-0.20883341133594513,0.19829629361629486,-0.082082599401474
1667266107301089800,1.69708984375,-0.26930728554725647,0.11949699372053146,-0.05459447205066681
1667266107303487700,1.69948779296875,-0.3310792148113251,0.03092414326965809,-0.031382277607917786
1667266107305885400,1.701885498046875,-0.3903313875198364,-0.0680331140756607,-0.008780929259955883
1667266107308283400,1.704283447265625,-0.4459185004234314,-0.17187714576721191,0.009544488042593002
1667266107310681000,1.70668115234375,-0.4978405237197876,-0.28610557317733765,0.024815669283270836
1667266107313079000,1.7090791015625,-0.546097457408905,-0.3978906273841858,0.0358109213411808
1667266107315476700,1.711476806640625,-0.5906893014907837,-0.51341712474823,0.043141089379787445
1667266107317874700,1.713874755859375,-0.6273401379585266,-0.6282563805580139,0.041919391602277756
1667266107320272400,1.7162724609375,-0.6578825116157532,-0.7412631511688232,0.03825430944561958
1667266107322670000,1.718670166015625,-0.6829272508621216,-0.8518264889717102,0.02664821222424507
1667266107325068000,1.721068115234375,-0.707361102104187,-0.9611681699752808,0.009544488042593002
1667266107327465700,1.7234658203125,-0.730573296546936,-1.0650122165679932,-0.0130568603053689
1667266107329863700,1.72586376953125,-0.7482879161834717,-1.1645803451538086,-0.04115583375096321
1667266107332261400,1.728261474609375,-0.7647807598114014,-1.2592616081237793,-0.07414158433675766
1667266107334659300,1.730659423828125,-0.7849387526512146,-1.3429477214813232,-0.11201411485671997
1667266107337057000,1.73305712890625,-0.8044858574867249,-1.4168602228164673,-0.15049749612808228
1667266107339454700,1.735454833984375,-0.8258655071258545,-1.4816100597381592,-0.19386765360832214
1667266107341852700,1.737852783203125,-0.8490777015686035,-1.5200934410095215,-0.22868594527244568
1667266107344250400,1.74025048828125,-0.8729007244110107,-1.535975456237793,-0.25861746072769165
1667266107346648300,1.7426484375,-0.9028322696685791,-1.5414730310440063,-0.28732728958129883
1667266107349046000,1.7450458984375,-0.938872218132019,-1.5365862846374512,-0.3172588050365448
1667266107351444000,1.74744384765625,-0.9779664874076843,-1.5200934410095215,-0.3441360890865326
1667266107353841700,1.749841552734375,-1.0250016450881958,-1.498713731765747,-0.373456746339798
1667266107356239600,1.752239501953125,-1.0726478099822998,-1.4718364477157593,-0.3997231721878052
1667266107358637300,1.75463720703125,-1.1257915496826172,-1.4412940740585327,-0.4253787696361542
1667266107361035000,1.757034912109375,-1.180156946182251,-1.4083083868026733,-0.45225605368614197
1667266107363433000,1.759432861328125,-1.2387982606887817,-1.369825005531311,-0.48096585273742676
1667266107365830700,1.76183056640625,-1.299272060394287,-1.3270657062530518,-0.505399763584137
1667266107368228600,1.764228515625,-1.3566917181015015,-1.2830846309661865,-0.5316661596298218
1667266107370626300,1.766626220703125,-1.4171656370162964,-1.2348277568817139,-0.5573217868804932
1667266107373024300,1.769024169921875,-1.4764177799224854,-1.1822948455810547,-0.5829773545265198
1667266107375422000,1.771421875,-1.5332266092300415,-1.127929449081421,-0.6086329221725464
1667266107377819600,1.773819580078125,-1.5918679237365723,-1.0711206197738647,-0.6342885494232178
1667266107380217600,1.776217529296875,-1.643179178237915,-1.01370108127594,-0.6587224006652832
1667266107382615300,1.778615234375,-1.692046880722046,-0.9538379907608032,-0.6825454831123352
1667266107385013200,1.78101318359375,-1.7348061800003052,-0.9000834226608276,-0.7063685059547424
1667266107387411000,1.783410888671875,-1.7732895612716675,-0.8475505709648132,-0.7326349020004272
1667266107389808600,1.78580859375,-1.8074970245361328,-0.7986828088760376,-0.7534037232398987
1667266107392206600,1.78820654296875,-1.8343743085861206,-0.7577560544013977,-0.7753942608833313
1667266107394604300,1.790604248046875,-1.855754017829895,-0.721716046333313,-0.7967739105224609
1667266107397002200,1.793002197265625,-1.872857689857483,-0.6923953890800476,-0.8187643885612488
1667266107399400000,1.79539990234375,-1.8814095258712769,-0.671015739440918,-0.843198299407959
1667266107401798000,1.7977978515625,-1.8826313018798828,-0.6533011198043823,-0.865799605846405
1667266107404195600,1.800195556640625,-1.883242130279541,-0.6374191045761108,-0.8871793150901794
1667266107406593300,1.80259326171875,-1.8740793466567993,-0.6252021789550781,-0.9116131663322449
1667266107408991200,1.8049912109375,-1.8630841970443726,-0.61481773853302,-0.9342145323753357
1667266107411389000,1.807388916015625,-1.8459804058074951,-0.6068767309188843,-0.9562050104141235
1667266107413787000,1.809786865234375,-1.822157382965088,-0.6007682681083679,-0.976973831653595
1667266107416184600,1.8121845703125,-1.7952800989151,-0.591605544090271,-0.9971317648887634
1667266107418582500,1.81458251953125,-1.7647377252578735,-0.5799994468688965,-1.0148463249206543
1667266107420980200,1.816980224609375,-1.7305302619934082,-0.5708367824554443,-1.0301175117492676
1667266107423378000,1.8193779296875,-1.69387948513031,-0.5592306852340698,-1.0466104745864868
1667266107425775900,1.82177587890625,-1.6553961038589478,-0.5427377820014954,-1.0624924898147583
1667266107428173600,1.824173583984375,-1.6181343793869019,-0.5207473039627075,-1.074709415435791
1667266107430571500,1.826571533203125,-1.582094430923462,-0.4987567961215973,-1.0863155126571655
1667266107432969200,1.82896923828125,-1.5436110496520996,-0.4694361090660095,-1.09792160987854
1667266107435367200,1.8313671875,-1.5075709819793701,-0.4327089190483093,-1.1089168787002563
1667266107437764900,1.833764892578125,-1.4721418619155884,-0.394225537776947,-1.1205229759216309
1667266107440162600,1.83616259765625,-1.4367127418518066,-0.3429143726825714,-1.129685640335083
1667266107442560500,1.838560546875,-1.4037270545959473,-0.28610557317733765,-1.138237476348877
1667266107444958200,1.840958251953125,-1.3707412481307983,-0.22929678857326508,-1.1449568271636963
1667266107447356200,1.843356201171875,-1.3383663892745972,-0.16515782475471497,-1.1516761779785156
1667266107449753900,1.84575390625,-1.3102673292160034,-0.0942995473742485,-1.157173752784729
1667266107452151800,1.84815185546875,-1.2827792167663574,-0.01916533336043358,-1.1620604991912842
1667266107454549500,1.850549560546875,-1.258345365524292,0.06329904496669769,-1.1681690216064453
1667266107456947200,1.852947265625,-1.2345223426818848,0.15003935992717743,-1.1730557680130005
1667266107459345200,1.85534521484375,-1.2125318050384521,0.24227729439735413,-1.1767208576202393
1667266107461742800,1.857742919921875,-1.1935955286026,0.3394020199775696,-1.181607723236084
1667266107464140800,1.860140869140625,-1.174659252166748,0.43713757395744324,-1.185883641242981
1667266107466538500,1.86253857421875,-1.156944751739502,0.5342622995376587,-1.188937783241272
1667266107468936200,1.864936279296875,-1.1422843933105469,0.6289436221122742,-1.1926028728485107
1667266107471334100,1.867334228515625,-1.1270132064819336,0.724846601486206,-1.1962679624557495
1667266107473731800,1.86973193359375,-1.111131191253662,0.8201388120651245,-1.2005438804626465
1667266107476129800,1.8721298828125,-1.0995250940322876,0.9111550450325012,-1.2029873132705688
1667266107478527500,1.874527587890625,-1.0848647356033325,1.0101122856140137,-1.207874059677124
1667266107480925400,1.876925537109375,-1.073258638381958,1.1163997650146484,-1.213371753692627
1667266107483323100,1.8793232421875,-1.063485026359558,1.2116918563842773,-1.2188693284988403
1667266107485720800,1.881720947265625,-1.054322361946106,1.2984322309494019,-1.221923589706421
1667266107488118800,1.884118896484375,-1.045770525932312,1.3741772174835205,-1.2237560749053955
1667266107490516500,1.8865166015625,-1.0408837795257568,1.4395378828048706,-1.2261995077133179
1667266107492914400,1.88891455078125,-1.0384403467178345,1.496957540512085,-1.228032112121582
1667266107495312100,1.89131201171875,-1.0378295183181763,1.5513229370117188,-1.231086254119873
1667266107497710000,1.8937099609375,-1.035996913909912,1.5989691019058228,-1.2341405153274536
1667266107500107800,1.896107666015625,-1.0347752571105957,1.6392849683761597,-1.2384164333343506
1667266107502505500,1.89850537109375,-1.0366077423095703,1.6753249168395996,-1.2384164333343506
1667266107504903400,1.9009033203125,-1.0366077423095703,1.7089215517044067,-1.2384164333343506
1667266107507301000,1.903301025390625,-1.0347752571105957,1.737020492553711,-1.236583948135376
1667266107509699000,1.905698974609375,-1.0317209959030151,1.7620652914047241,-1.2341405153274536
1667266107512096800,1.9080966796875,-1.0231691598892212,1.7919968366622925,-1.232308030128479
1667266107514494700,1.91049462890625,-1.0133955478668213,1.821317434310913,-1.228032112121582
1667266107516892400,1.912892333984375,-0.9999569654464722,1.853081464767456,-1.221923589706421
1667266107519290400,1.915290283203125,-0.9822424054145813,1.8836238384246826,-1.2109283208847046
1667266107521688000,1.91768798828125,-0.9602518677711487,1.9105011224746704,-1.19932222366333
1667266107524085800,1.920085693359375,-0.9339854717254639,1.9276049137115479,-1.1864944696426392
1667266107526483700,1.922483642578125,-0.9058864712715149,1.9465411901474,-1.1693906784057617
1667266107528881400,1.92488134765625,-0.8747332692146301,1.9569255113601685,-1.1516761779785156
1667266107531279400,1.927279296875,-0.8435800671577454,1.9636448621749878,-1.1333507299423218
1667266107533677000,1.929677001953125,-0.8112051486968994,1.9630340337753296,-1.1125819683074951
1667266107536075000,1.932074951171875,-0.7745543122291565,1.955703854560852,-1.089369773864746
1667266107538472700,1.93447265625,-0.7366818189620972,1.9416543245315552,-1.0686008930206299
1667266107540870400,1.936870361328125,-0.6963658928871155,1.9202747344970703,-1.0453886985778809
1667266107543268400,1.939268310546875,-0.6560499668121338,1.8915648460388184,-1.0203440189361572
1667266107545666000,1.941666015625,-0.6126797795295715,1.8598008155822754,-0.9940775632858276
1667266107548064000,1.94406396484375,-0.5656445622444153,1.8194849491119385,-0.9641460180282593
1667266107550461700,1.946461669921875,-0.5161659121513367,1.7700062990188599,-0.9323819875717163
1667266107552859600,1.948859619140625,-0.46668729186058044,1.7193059921264648,-0.9000070691108704
1667266107555257300,1.95125732421875,-0.4178195297718048,1.6655514240264893,-0.8651887774467468
1667266107557655000,1.953655029296875,-0.37200596928596497,1.608131766319275,-0.8291487693786621
1667266107560053000,1.956052978515625,-0.3268032968044281,1.551933765411377,-0.7955521941184998
1667266107562450700,1.95845068359375,-0.28518930077552795,1.4908491373062134,-0.760123074054718
1667266107564848600,1.9608486328125,-0.24548424780368805,1.4309860467910767,-0.7228613495826721
1667266107567246300,1.963246337890625,-0.20761170983314514,1.3662362098693848,-0.6825454831123352
1667266107569644300,1.965644287109375,-0.174625962972641,1.3082057237625122,-0.6416186690330505
1667266107572042000,1.9680419921875,-0.1465269923210144,1.2623921632766724,-0.6055787205696106
1667266107574439700,1.970439697265625,-0.12514732778072357,1.2214654684066772,-0.5689278841018677
1667266107576837600,1.972837646484375,-0.10560022294521332,1.1897014379501343,-0.5310553312301636
1667266107579235300,1.9752353515625,-0.08727480471134186,1.1609915494918823,-0.49562618136405945
1667266107581633300,1.97763330078125,-0.07627955079078674,1.1402227878570557,-0.4601970613002777
1667266107584031000,1.980031005859375,-0.06406260281801224,1.1255624294281006,-0.4204919934272766
1667266107586429000,1.982428955078125,-0.054899897426366806,1.1176214218139648,-0.3801760673522949
1667266107588826600,1.98482666015625,-0.043293800204992294,1.113956332206726,-0.3416926860809326
1667266107591224300,1.987224365234375,-0.03168770298361778,1.1151779890060425,-0.3013767600059509
1667266107593622300,1.989622314453125,-0.020692450925707817,1.1157888174057007,-0.26045000553131104
1667266107596020000,1.99202001953125,-0.007253811229020357,1.1188430786132812,-0.21952323615550995
1667266107598418000,1.99441796875,0.008017370477318764,1.12250816822052,-0.1730988472700119
1667266107600815600,1.996815673828125,0.023899398744106293,1.1249516010284424,-0.12972868978977203
1667266107603213600,1.999213623046875,0.04405735805630684,1.128005862236023,-0.08391514420509338
1667266107605611300,2.001611328125,0.06543701142072678,1.1273949146270752,-0.03626905754208565
1667266107608009000,2.004009033203125,0.0886492058634758,1.1212865114212036,0.012598725035786629
1667266107610407000,2.006406982421875,0.11247225105762482,1.107847809791565,0.0620773509144783
1667266107612804600,2.0088046875,0.13751699030399323,1.0895224809646606,0.11094513535499573
1667266107615202600,2.01120263671875,0.16072918474674225,1.0620343685150146,0.15920206904411316
1667266107617600300,2.013600341796875,0.18699561059474945,1.0235509872436523,0.2062373012304306
1667266107619998200,2.015998291015625,0.21020781993865967,0.9771265387535095,0.2569376230239868
1667266107622396000,2.01839599609375,0.23586340248584747,0.9252045154571533,0.30458372831344604
1667266107624793600,2.020793701171875,0.2609081268310547,0.8628981113433838,0.3497864007949829
1667266107627191600,2.023191650390625,0.2859528660774231,0.7957049012184143,0.39559996128082275
1667266107629589200,2.02558935546875,0.3116084635257721,0.7230141162872314,0.4395809471607208
1667266107631987200,2.0279873046875,0.3384857475757599,0.6448256373405457,0.4829511046409607
1667266107634385000,2.030385009765625,0.3671955466270447,0.5586961507797241,0.52571040391922
1667266107636782800,2.032782958984375,0.3928511440753937,0.47439923882484436,0.5654155015945435
1667266107639180500,2.0351806640625,0.42278265953063965,0.38399386405944824,0.604509711265564
1667266107641578200,2.037578125,0.4539358615875244,0.29358845949172974,0.6429930925369263
1667266107643976200,2.03997607421875,0.484478235244751,0.20318306982517242,0.6814764738082886
1667266107646374000,2.042373779296875,0.5180748105049133,0.11216682940721512,0.7169055938720703
1667266107648771800,2.044771728515625,0.5522822737693787,0.022372281178832054,0.7518002390861511
1667266107651169500,2.04716943359375,0.5901548266410828,-0.06558972597122192,0.7860077023506165
1667266107653567500,2.0495673828125,0.6213080286979675,-0.15233004093170166,0.8171609044075012
1667266107655965200,2.051965087890625,0.6585696935653687,-0.23479440808296204,0.8507575392723083
1667266107658363000,2.05436279296875,0.6952205300331116,-0.3166479468345642,0.8812998533248901
1667266107660760800,2.0567607421875,0.7312605381011963,-0.3960580825805664,0.9093988537788391
1667266107663158500,2.059158447265625,0.7654679417610168,-0.47554460167884827,0.9393303990364075
1667266107665556500,2.061556396484375,0.8008971214294434,-0.5494571328163147,0.9704836010932922
1667266107667954200,2.0639541015625,0.8351045846939087,-0.6221479177474976,0.9979717135429382
1667266107670352000,2.066351806640625,0.8680903315544128,-0.689341127872467,1.024238109588623
1667266107672749800,2.068749755859375,0.8998543620109558,-0.7498149871826172,1.0535588264465332
1667266107675147500,2.0711474609375,0.9297859072685242,-0.8084563612937927,1.0828794240951538
1667266107677545500,2.07354541015625,0.9591065645217896,-0.8628217577934265,1.1134217977523804
1667266107679943200,2.075943115234375,0.9872055053710938,-0.9080244302749634,1.1445749998092651
1667266107682341000,2.078341064453125,1.0140827894210815,-0.948951244354248,1.1763391494750977
1667266107684738800,2.08073876953125,1.0379058122634888,-0.9843803644180298,1.2129899263381958
1667266107687136500,2.083136474609375,1.0605071783065796,-1.0094250440597534,1.2447539567947388
1667266107689534500,2.085534423828125,1.0824977159500122,-1.0204203128814697,1.2746855020523071
1667266107691932200,2.08793212890625,1.0959362983703613,-1.0161443948745728,1.2966760396957397
1667266107694330000,2.090330078125,1.1063207387924194,-0.9947647452354431,1.3125580549240112
1667266107696727800,2.092727783203125,1.1105966567993164,-0.9630007147789001,1.326607584953308
1667266107699125800,2.095125732421875,1.1130400896072388,-0.9263498783111572,1.339435338973999
1667266107701523500,2.0975234375,1.1167051792144775,-0.8872556686401367,1.356539011001587
