time,seconds_elapsed,z,y,x
1667266047300796400,0.10779638671875,0,0,0
1667266047305592000,0.112592041015625,0.18644142150878906,0.002264261245727539,0.08907489478588104
1667266047310387700,0.1173876953125,0.3806781768798828,0.00000667572021484375,0.14933541417121887
1667266047315183400,0.122183349609375,0.5530948638916016,0.008141756057739258,0.21252071857452393
1667266047319979300,0.126979248046875,0.662592887878418,0.017592549324035645,0.26014095544815063
1667266047324775000,0.13177490234375,0.7114372253417969,0.0014587640762329102,0.2707362174987793
1667266047329570600,0.136570556640625,0.6996259689331055,-0.00840914249420166,0.2386372983455658
1667266047334366200,0.1413662109375,0.6933269500732422,0.013695597648620605,0.13328686356544495
1667266047339161900,0.146161865234375,0.6902542114257812,0.02938663959503174,-0.008640646934509277
1667266047343957500,0.15095751953125,0.7027072906494141,0.04136180877685547,-0.1678284853696823
1667266047348753200,0.155753173828125,0.7028436660766602,0.05396127700805664,-0.3303470015525818
1667266047353548800,0.160548828125,0.7277545928955078,0.04817938804626465,-0.4517662227153778
1667266047358344400,0.165344482421875,0.7417964935302734,0.033559322357177734,-0.5357019901275635
1667266047363140400,0.170140380859375,0.7573719024658203,0.016724705696105957,-0.5745013952255249
1667266047367936000,0.17493603515625,0.7817296981811523,0.01065826416015625,-0.5978953838348389
1667266047372731600,0.179731689453125,0.798274040222168,0.0011076927185058594,-0.5626367926597595
1667266047377527300,0.18452734375,0.8094043731689453,-0.008631706237792969,-0.5199267268180847
1667266047382323000,0.189322998046875,0.7789030075073242,-0.003630340099334717,-0.4523032307624817
1667266047387118600,0.19411865234375,0.7651281356811523,0.04738330841064453,-0.42008349299430847
1667266047391914200,0.198914306640625,0.6849937438964844,0.09506845474243164,-0.3613929748535156
1667266047396710100,0.203710205078125,0.5683622360229492,0.16427278518676758,-0.2697063088417053
1667266047401505800,0.208505859375,0.4229888916015625,0.20019280910491943,-0.1585100293159485
1667266047406301400,0.213301513671875,0.23560333251953125,0.2073218822479248,-0.05217355489730835
1667266047411097000,0.21809716796875,0.05301189422607422,0.1998692750930786,-0.019151195883750916
1667266047415892700,0.222892822265625,-0.12799453735351562,0.24429595470428467,-0.047371700406074524
1667266047420688400,0.2276884765625,-0.28276634216308594,0.3262205123901367,-0.14175845682621002
1667266047425484000,0.232484130859375,-0.3965883255004883,0.4099245071411133,-0.2679732143878937
1667266047430279700,0.23727978515625,-0.4723482131958008,0.4168713092803955,-0.3781401813030243
1667266047435075600,0.24207568359375,-0.5461950302124023,0.4225383996963501,-0.4661937355995178
1667266047439871200,0.246871337890625,-0.5893945693969727,0.3955557346343994,-0.5008043050765991
1667266047444667000,0.2516669921875,-0.5647659301757812,0.3693573474884033,-0.5104661583900452
1667266047449462500,0.256462646484375,-0.5056514739990234,0.3415006399154663,-0.49263980984687805
1667266047454258200,0.261258056640625,-0.3804483413696289,0.3410613536834717,-0.4385196566581726
1667266047459053800,0.2660537109375,-0.19545269012451172,0.31708014011383057,-0.3867912292480469
1667266047463849500,0.270849365234375,0.029390335083007812,0.30610477924346924,-0.29475560784339905
1667266047468645400,0.275645263671875,0.2584714889526367,0.3029296398162842,-0.2070237547159195
1667266047473441000,0.28044091796875,0.4594440460205078,0.29087889194488525,-0.09738413989543915
1667266047478236700,0.285236572265625,0.6403913497924805,0.27090561389923096,0.06029340624809265
1667266047483032300,0.2900322265625,0.8953924179077148,0.27683091163635254,0.2440430372953415
1667266047487828000,0.294827880859375,0.9637851715087891,0.3068612813949585,0.27767008543014526
1667266047492623600,0.29962353515625,0.9669790267944336,0.34628570079803467,0.25244659185409546
1667266047497419300,0.304419189453125,0.9719638824462891,0.39816808700561523,0.18822890520095825
1667266047502215000,0.30921484375,0.928400993347168,0.4142810106277466,0.13234753906726837
1667266047507010600,0.314010498046875,0.8197822570800781,0.3777763843536377,0.12631967663764954
1667266047511806500,0.318806396484375,0.7141380310058594,0.3517669439315796,0.1618042290210724
1667266047516602000,0.32360205078125,0.6569452285766602,0.3957415819168091,0.1850913166999817
1667266047521397800,0.328397705078125,0.6213178634643555,0.47442007064819336,0.20256179571151733
1667266047526193400,0.333193359375,0.6055707931518555,0.5462709665298462,0.3021109700202942
1667266047530989000,0.337989013671875,0.5658607482910156,0.5577540397644043,0.3918602168560028
1667266047535784700,0.34278466796875,0.5154933929443359,0.5749232769012451,0.4830888509750366
1667266047540580400,0.347580322265625,0.42641353607177734,0.5722360610961914,0.5313115119934082
1667266047545376300,0.352376220703125,0.34154319763183594,0.5736303329467773,0.4975966811180115
1667266047550172000,0.357171875,0.2630910873413086,0.5591150522232056,0.44539839029312134
1667266047554967600,0.361967529296875,0.3248462677001953,0.5745651721954346,0.4714440107345581
1667266047559763200,0.36676318359375,0.18341827392578125,0.5526924133300781,0.38314592838287354
1667266047564558800,0.371558837890625,0.004572868347167969,0.5342611074447632,0.30746400356292725
1667266047569354500,0.3763544921875,-0.1558856964111328,0.518101692199707,0.2581188678741455
1667266047574150100,0.381150146484375,-0.35015296936035156,0.45958733558654785,0.16274388134479523
1667266047578945800,0.38594580078125,-0.5236358642578125,0.441680908203125,0.13901475071907043
1667266047583741400,0.390741455078125,-0.6096668243408203,0.45999574661254883,0.1676362007856369
1667266047588537300,0.395537353515625,-0.5731849670410156,0.5148025751113892,0.13918958604335785
1667266047593333000,0.4003330078125,-0.502044677734375,0.5649498701095581,0.07778237760066986
1667266047598128600,0.405128662109375,-0.4438333511352539,0.6185027360916138,0.015803605318069458
1667266047602924300,0.40992431640625,-0.3865070343017578,0.6481958627700806,-0.07731896638870239
1667266047607720000,0.414719970703125,-0.3830432891845703,0.6342730522155762,-0.17301258444786072
1667266047612515600,0.419515625,-0.4149303436279297,0.6268656253814697,-0.27468472719192505
1667266047617311200,0.424311279296875,-0.4899129867553711,0.591765284538269,-0.4140463173389435
1667266047622107100,0.429107177734375,-0.6121559143066406,0.5331734418869019,-0.5532275438308716
1667266047626902800,0.43390283203125,-0.7704696655273438,0.49653756618499756,-0.600633978843689
1667266047631698400,0.438698486328125,-0.9148759841918945,0.47103941440582275,-0.6380513310432434
1667266047636494000,0.443494140625,-1.032670021057129,0.4648522138595581,-0.645748496055603
1667266047641289700,0.448289794921875,-1.1089115142822266,0.4883352518081665,-0.5954887866973877
1667266047646085400,0.45308544921875,-1.1653976440429688,0.48290348052978516,-0.5329803228378296
1667266047650881000,0.457881103515625,-1.1917667388916016,0.5383747816085815,-0.402284175157547
1667266047655676700,0.4626767578125,-1.097433090209961,0.5849394798278809,-0.30180805921554565
1667266047660472300,0.467472412109375,-0.9795370101928711,0.6527830362319946,-0.19251108169555664
1667266047665268200,0.472268310546875,-0.8807811737060547,0.7458330392837524,-0.04861319065093994
1667266047670063900,0.47706396484375,-0.7558698654174805,0.7664781808853149,0.03177762031555176
1667266047674859500,0.481859619140625,-0.6948623657226562,0.742750883102417,0.1443786323070526
1667266047679655200,0.4866552734375,-0.7477188110351562,0.714169979095459,0.2536141872406006
1667266047684450800,0.491450927734375,-0.830286979675293,0.6680282354354858,0.29842349886894226
1667266047689246500,0.49624658203125,-0.9541015625,0.6322170495986938,0.3236522078514099
1667266047694042000,0.5010419921875,-1.0537090301513672,0.5716092586517334,0.3616889417171478
1667266047698838000,0.505838134765625,-1.1708459854125977,0.4490373134613037,0.3469346761703491
1667266047703633700,0.510633544921875,-1.2899675369262695,0.30099308490753174,0.3673820495605469
1667266047708429300,0.51542919921875,-1.4407081604003906,0.17200922966003418,0.3882768452167511
1667266047713225000,0.520224853515625,-1.6453161239624023,-0.015688419342041016,0.37741610407829285
1667266047718020600,0.5250205078125,-1.929370403289795,-0.15333056449890137,0.3731774091720581
1667266047722816300,0.529816162109375,-2.215277671813965,-0.2561565637588501,0.4076663851737976
1667266047727612000,0.53461181640625,-2.5185866355895996,-0.3253936767578125,0.37465324997901917
1667266047732407600,0.539407470703125,-2.789590835571289,-0.37759947776794434,0.3425770699977875
1667266047737203200,0.544203125,-3.086824417114258,-0.4352140426635742,0.35675010085105896
1667266047741999000,0.5489990234375,-3.331968307495117,-0.4637632369995117,0.3806111216545105
1667266047746794800,0.553794677734375,-3.4865798950195312,-0.5108704566955566,0.3842948079109192
1667266047751590400,0.55859033203125,-3.6499977111816406,-0.5573568344116211,0.4384646713733673
1667266047756386000,0.563385986328125,-3.8091883659362793,-0.6149992942810059,0.5098883509635925
1667266047761181700,0.568181640625,-3.9583683013916016,-0.6906852722167969,0.5620265007019043
1667266047765977300,0.572977294921875,-4.076444625854492,-0.795840859413147,0.539494514465332
1667266047770773000,0.57777294921875,-4.17562198638916,-0.8674647808074951,0.5520977973937988
1667266047775569000,0.58256884765625,-4.197986602783203,-0.9287152290344238,0.8462374210357666
1667266047780364500,0.587364501953125,-4.031594276428223,-0.9562747478485107,0.7535473108291626
1667266047785160200,0.59216015625,-3.7682595252990723,-0.8841787576675415,0.38903483748435974
1667266047789955800,0.596955810546875,-3.572392463684082,-0.7799407243728638,0.3217894434928894
1667266047794751500,0.60175146484375,-3.348430633544922,-0.7126076221466064,0.3908374607563019
1667266047799547100,0.606547119140625,-2.9589171409606934,-0.6845381259918213,0.4697490930557251
1667266047804342800,0.6113427734375,-2.4526209831237793,-0.6885666847229004,0.6157194375991821
1667266047809138400,0.616138427734375,-1.9075026512145996,-0.7614192962646484,0.8001423478126526
1667266047813934300,0.620934326171875,-1.4803180694580078,-0.8065054416656494,0.9494124054908752
1667266047818730000,0.62572998046875,-1.1093864440917969,-0.9155603647232056,1.0373731851577759
1667266047823525600,0.630525634765625,-0.877202033996582,-0.9953515529632568,0.9097246527671814
1667266047828321300,0.6353212890625,-0.6780824661254883,-0.9630863666534424,0.5702611207962036
1667266047833117000,0.640116943359375,-0.5116138458251953,-0.9113773107528687,0.19717450439929962
1667266047837912600,0.64491259765625,-0.265899658203125,-0.9947412610054016,-0.015097439289093018
1667266047842708200,0.649708251953125,-0.07085037231445312,-1.15415620803833,-0.15511789917945862
1667266047847504000,0.65450390625,0.16183853149414062,-1.3191027641296387,-0.2911747097969055
1667266047852299800,0.6592998046875,0.3476076126098633,-1.5050108432769775,-0.27994948625564575
1667266047857095400,0.664095458984375,0.4821033477783203,-1.65595281124115,-0.15597674250602722
1667266047861891000,0.66889111328125,0.7355432510375977,-1.7146250009536743,0.2950771152973175
1667266047866686700,0.673686767578125,1.0392274856567383,-1.6592199802398682,0.6561974883079529
1667266047871482400,0.678482421875,1.2704334259033203,-1.5192451477050781,0.6160774230957031
1667266047876278000,0.683278076171875,1.503218650817871,-1.302126407623291,0.5541045665740967
1667266047881073700,0.68807373046875,1.6757326126098633,-1.0663642883300781,0.3689408004283905
1667266047885869600,0.69286962890625,1.7575464248657227,-0.7857415676116943,0.15406742691993713
1667266047890665200,0.697665283203125,1.7719297409057617,-0.5981078147888184,-0.059885621070861816
1667266047895460900,0.7024609375,1.7158441543579102,-0.5333297252655029,-0.2710413932800293
1667266047900256500,0.707256591796875,1.567230224609375,-0.5686619281768799,-0.4093515872955322
1667266047905052200,0.71205224609375,1.3826112747192383,-0.5676453113555908,-0.4743063747882843
1667266047909847800,0.716847900390625,1.240631103515625,-0.5195739269256592,-0.5340062975883484
1667266047914643500,0.7216435546875,1.0708045959472656,-0.415790319442749,-0.4991108179092407
1667266047919439000,0.726439208984375,0.8697633743286133,-0.30383265018463135,-0.45630770921707153
1667266047924235000,0.731235107421875,0.7886180877685547,-0.1512354612350464,-0.36574792861938477
1667266047929030700,0.73603076171875,0.7837762832641602,0.06809890270233154,-0.23542943596839905
1667266047933826300,0.740826416015625,0.9368400573730469,0.2988715171813965,-0.1863286942243576
1667266047938622000,0.7456220703125,1.0234966278076172,0.5600471496582031,-0.2725951075553894
1667266047943417600,0.75041748046875,1.0967903137207031,0.7586134672164917,-0.4370630085468292
1667266047948213200,0.755213134765625,1.1190643310546875,0.8865854740142822,-0.6370726823806763
1667266047953009000,0.7600087890625,1.037409782409668,0.9266492128372192,-0.7650877237319946
1667266047957804800,0.7648046875,0.8752717971801758,0.9019018411636353,-0.8856698274612427
1667266047962600400,0.769600341796875,0.6926364898681641,0.8521308898925781,-1.0384299755096436
1667266047967396000,0.77439599609375,0.5169000625610352,0.7761576175689697,-1.1318371295928955
1667266047972191700,0.779191650390625,0.4691629409790039,0.7982749342918396,-1.3332103490829468
1667266047976987400,0.7839873046875,0.6114177703857422,0.9002959728240967,-1.5564353466033936
1667266047981783000,0.788782958984375,0.8602323532104492,1.01777982711792,-1.6747722625732422
1667266047986578700,0.79357861328125,1.1672611236572266,1.1303637027740479,-1.698634147644043
1667266047991374300,0.798374267578125,1.5403270721435547,1.2061738967895508,-1.6266138553619385
1667266047996170200,0.803170166015625,1.9657468795776367,1.320124864578247,-1.4639043807983398
1667266048000966000,0.8079658203125,2.5214014053344727,1.3906970024108887,-1.287618637084961
1667266048005761500,0.812761474609375,3.1516036987304688,1.4250919818878174,-1.1527867317199707
1667266048010557200,0.81755712890625,3.7203025817871094,1.368815302848816,-1.064418911933899
1667266048015352800,0.822352783203125,4.157809257507324,1.093297004699707,-1.0781224966049194
1667266048020148500,0.8271484375,4.292666435241699,0.5832370519638062,-1.0003291368484497
1667266048024944000,0.831944091796875,4.230413436889648,-0.01842290163040161,-0.842188835144043
1667266048029739800,0.83673974609375,3.967622756958008,-0.6131744384765625,-0.6936005353927612
1667266048034535700,0.84153564453125,3.6245737075805664,-1.107832908630371,-0.5962619185447693
1667266048039331300,0.846331298828125,3.3505773544311523,-1.459632158279419,-0.5681563019752502
1667266048044127000,0.851126953125,3.0561532974243164,-1.656497836112976,-0.5303364396095276
1667266048048922600,0.855922607421875,2.747539520263672,-1.85065495967865,-0.42809969186782837
1667266048053718300,0.86071826171875,2.34639835357666,-2.014495611190796,-0.2624627351760864
1667266048058514000,0.865513916015625,1.8223590850830078,-2.178663730621338,-0.09357136487960815
1667266048063309600,0.8703095703125,1.32135009765625,-2.281688690185547,0.04288458824157715
1667266048068105500,0.87510546875,1.215505599975586,-2.314866065979004,0.09472507238388062
1667266048072901000,0.879901123046875,0.779994010925293,-2.3357226848602295,0.1469411849975586
1667266048077696800,0.88469677734375,0.28064918518066406,-2.3372271060943604,0.15781068801879883
1667266048082492400,0.889492431640625,-0.16225147247314453,-2.290083169937134,0.07894599437713623
1667266048087288000,0.8942880859375,-0.5338239669799805,-2.253324508666992,-0.032685697078704834
1667266048092083700,0.899083740234375,-0.7738876342773438,-2.2019565105438232,-0.1500563621520996
1667266048096879400,0.90387939453125,-0.7558813095092773,-2.136845827102661,-0.2205723524093628
1667266048101675300,0.90867529296875,-0.5563116073608398,-2.0696375370025635,-0.22233611345291138
1667266048106471000,0.913470947265625,-0.30127525329589844,-2.0039029121398926,-0.16536223888397217
1667266048111266600,0.9182666015625,-0.07810401916503906,-1.942004919052124,-0.037596166133880615
1667266048116062200,0.923062255859375,0.18823528289794922,-1.8657784461975098,0.14570587873458862
1667266048120857900,0.92785791015625,0.533177375793457,-1.8345052003860474,0.34519606828689575
1667266048125653500,0.932653564453125,0.9789819717407227,-1.7298307418823242,0.5797678232192993
1667266048130449200,0.93744921875,1.5014514923095703,-1.6104422807693481,0.791409969329834
1667266048135244800,0.942244873046875,2.067035675048828,-1.5022637844085693,1.05112624168396
1667266048140040400,0.94704052734375,2.672184944152832,-1.4012348651885986,1.4228038787841797
1667266048144836400,0.95183642578125,3.251575469970703,-1.2712323665618896,1.8476754426956177
1667266048149632000,0.956632080078125,3.7818870544433594,-1.1459662914276123,2.149914503097534
1667266048154427600,0.961427734375,4.164813995361328,-1.041060209274292,2.35984206199646
1667266048159223300,0.966223388671875,4.388175964355469,-0.9573478698730469,2.520765542984009
1667266048164019000,0.97101904296875,4.358828544616699,-0.9664872884750366,2.5879595279693604
1667266048168814600,0.975814697265625,4.122175216674805,-0.9610143899917603,2.596242904663086
1667266048173610200,0.9806103515625,3.84719181060791,-1.020795464515686,2.5147950649261475
1667266048178406100,0.98540625,3.5459299087524414,-1.1214033365249634,2.372053623199463
1667266048183201800,0.990201904296875,3.195805549621582,-1.226954460144043,2.2480831146240234
1667266048187997400,0.99499755859375,3.110062599182129,-1.267451524734497,2.148392677307129
1667266048192793000,0.99979296875,2.6500892639160156,-1.3928558826446533,2.07804799079895
1667266048197588700,1.004588623046875,2.0379295349121094,-1.5104429721832275,1.9583301544189453
1667266048202384400,1.00938427734375,1.3587322235107422,-1.5844058990478516,1.7980883121490479
1667266048207180000,1.014179931640625,0.6900835037231445,-1.6830816268920898,1.5631479024887085
1667266048211976000,1.018975830078125,0.05800914764404297,-1.8404057025909424,1.2888020277023315
1667266048216771600,1.023771484375,-0.45679759979248047,-2.077192783355713,0.9589264988899231
1667266048221567200,1.028567138671875,-0.8859691619873047,-2.2321391105651855,0.7129454016685486
1667266048226363000,1.03336279296875,-1.2323637008666992,-2.3925344944000244,0.6163411140441895
1667266048231158500,1.038158447265625,-1.5440521240234375,-2.536736488342285,0.7529551386833191
1667266048235954200,1.0429541015625,-1.6949682235717773,-2.5859763622283936,1.09604811668396
1667266048240749800,1.047749755859375,-1.609710693359375,-2.5138978958129883,0.9587833881378174
1667266048245545700,1.052545654296875,-1.4943122863769531,-2.233168840408325,1.133852243423462
1667266048250341400,1.05734130859375,-1.3429203033447266,-1.9186458587646484,1.4240237474441528
1667266048255137000,1.062136962890625,-1.1949281692504883,-1.6108430624008179,1.7298930883407593
1667266048259932700,1.0669326171875,-0.9500951766967773,-1.255482792854309,2.0180652141571045
1667266048264728300,1.071728271484375,-0.5645866394042969,-0.891796886920929,2.1659088134765625
1667266048269524000,1.07652392578125,-0.020914077758789062,-0.507372260093689,2.1463370323181152
1667266048274319600,1.081319580078125,0.7376794815063477,-0.2299991399049759,2.0653927326202393
1667266048279115300,1.086115234375,1.636622428894043,-0.04838951677083969,1.8717966079711914
1667266048283911200,1.0909111328125,2.812497138977051,0.06748154014348984,1.6107313632965088
1667266048288706800,1.095706787109375,3.862696647644043,0.09514720737934113,1.2762565612792969
1667266048293502500,1.10050244140625,4.874873161315918,0.04095637798309326,0.9909851551055908
1667266048298298000,1.105298095703125,5.71579647064209,-0.1324700117111206,0.6921879053115845
1667266048303093800,1.11009375,6.375510215759277,-0.39403605461120605,0.4807624816894531
1667266048307889400,1.114889404296875,6.875009536743164,-0.6887906193733215,0.3528275489807129
1667266048312685000,1.11968505859375,7.29581356048584,-1.0263917446136475,0.2019861936569214
1667266048317480700,1.124480712890625,7.63913631439209,-1.3136531114578247,0.02581125497817993
1667266048322276600,1.129276611328125,7.844148635864258,-1.5470621585845947,-0.19119226932525635
1667266048327072300,1.134072265625,7.825282096862793,-1.7024911642074585,-0.35973864793777466
1667266048331868000,1.138867919921875,7.692644119262695,-1.7297651767730713,-0.5367730259895325
1667266048336663600,1.14366357421875,7.487990379333496,-1.6619837284088135,-0.8379582762718201
1667266048341459200,1.148459228515625,7.056561470031738,-1.7686301469802856,-0.990242600440979
1667266048346254800,1.1532548828125,6.442173004150391,-1.8899543285369873,-0.9777891635894775
1667266048351050500,1.158050537109375,5.846950531005859,-1.979143500328064,-0.9064544439315796
1667266048355846400,1.162846435546875,5.308894157409668,-1.9085769653320312,-0.8280642628669739
1667266048360642000,1.16764208984375,4.980257987976074,-1.631369709968567,-0.8504971861839294
1667266048365437700,1.172437744140625,4.743446350097656,-1.1730231046676636,-0.9363580942153931
1667266048370233300,1.1772333984375,4.462404251098633,-0.7127629518508911,-0.9836810827255249
1667266048375029000,1.182029052734375,4.070905685424805,-0.4272501468658447,-0.9247115254402161
1667266048379824600,1.18682470703125,3.5745277404785156,-0.3112039566040039,-0.7874770760536194
1667266048384620300,1.191620361328125,2.996633529663086,-0.25901150703430176,-0.6488901376724243
1667266048389416200,1.196416259765625,2.3842411041259766,-0.2060333490371704,-0.5487575531005859
1667266048394211800,1.2012119140625,1.7793846130371094,-0.22129011154174805,-0.47647467255592346
1667266048399007500,1.206007568359375,1.1678485870361328,-0.22104918956756592,-0.36869320273399353
1667266048403803100,1.21080322265625,0.5568466186523438,-0.291446328163147,-0.28071892261505127
1667266048408598800,1.215598876953125,-0.0000019073486328125,-0.3991652727127075,-0.2124011218547821
1667266048413394400,1.22039453125,-0.510127067565918,-0.5172996520996094,-0.17325949668884277
1667266048418190000,1.225190185546875,-0.9642038345336914,-0.6428248882293701,-0.17202907800674438
1667266048422986000,1.229986083984375,-1.3958415985107422,-0.7702920436859131,-0.15324825048446655
1667266048427781600,1.23478173828125,-1.8229761123657227,-0.857505202293396,-0.19604706764221191
1667266048432577300,1.239577392578125,-2.1943159103393555,-0.894666314125061,-0.24610388278961182
1667266048437373000,1.244373046875,-2.5219249725341797,-0.8924434185028076,-0.3323354125022888
1667266048442168600,1.24916845703125,-2.7987661361694336,-0.8163555860519409,-0.472639799118042
1667266048446964200,1.253964111328125,-2.922525405883789,-0.6670899391174316,-0.6499471068382263
1667266048451759900,1.258759765625,-2.8747873306274414,-0.49069851636886597,-0.7679073810577393
1667266048456555800,1.2635556640625,-2.8136415481567383,-0.2829316258430481,-0.8769147396087646
1667266048461351400,1.268351318359375,-2.648587226867676,-0.07888752222061157,-0.919427216053009
1667266048466147000,1.27314697265625,-2.4146862030029297,0.10797911882400513,-0.8269245028495789
1667266048470942700,1.277942626953125,-2.1790332794189453,0.20715880393981934,-0.6361096501350403
1667266048475738400,1.28273828125,-1.9607744216918945,0.26402533054351807,-0.3619990944862366
1667266048480534000,1.287533935546875,-1.7205820083618164,0.2593824863433838,-0.05987781286239624
1667266048485329700,1.29232958984375,-1.5135078430175781,0.22903907299041748,0.1666661500930786
1667266048490125600,1.29712548828125,-1.3681612014770508,0.16922426223754883,0.2965881824493408
1667266048494921200,1.301921142578125,-1.283186912536621,0.1406954526901245,0.3297465443611145
1667266048499716900,1.306716796875,-1.1808738708496094,0.114529550075531,0.33203428983688354
1667266048504512500,1.311512451171875,-1.1053752899169922,0.11906367540359497,0.30638229846954346
1667266048509308200,1.31630810546875,-1.0494041442871094,0.12534373998641968,0.28807294368743896
1667266048514103800,1.321103759765625,-0.9532756805419922,0.15546441078186035,0.23005598783493042
1667266048518899500,1.3258994140625,-0.8327064514160156,0.1911199688911438,0.13043105602264404
1667266048523695000,1.330695068359375,-0.7367820739746094,0.20194149017333984,-0.01605832576751709
1667266048528490800,1.33549072265625,-0.6464118957519531,0.1853756308555603,-0.0906292200088501
1667266048533286700,1.34028662109375,-0.5926332473754883,0.16624289751052856,-0.13855862617492676
1667266048538082300,1.345082275390625,-0.5621738433837891,0.16112428903579712,-0.13992375135421753
1667266048542878000,1.3498779296875,-0.5704288482666016,0.16014724969863892,-0.1202625036239624
1667266048547673600,1.354673583984375,-0.5718793869018555,0.15746396780014038,-0.10740351676940918
1667266048552469200,1.35946923828125,-0.6059026718139648,0.17924261093139648,-0.10007017850875854
1667266048557265000,1.364264892578125,-0.6545124053955078,0.1932908296585083,-0.06434750556945801
1667266048562060500,1.369060546875,-0.7558269500732422,0.2212950587272644,-0.036818623542785645
1667266048566856400,1.3738564453125,-0.9322681427001953,0.19569480419158936,-0.03873586654663086
1667266048571652000,1.378652099609375,-1.1524829864501953,0.1636815071105957,-0.06058919429779053
1667266048576447700,1.38344775390625,-1.424515724182129,0.10903406143188477,-0.12588870525360107
1667266048581243400,1.388243408203125,-1.731368064880371,0.046522676944732666,-0.22213661670684814
1667266048586039000,1.3930390625,-2.0024499893188477,-0.011385679244995117,-0.3653796911239624
1667266048590834700,1.397834716796875,-2.2378368377685547,-0.07166242599487305,-0.5392553210258484
1667266048595630300,1.40263037109375,-2.4531373977661133,-0.15788507461547852,-0.677061140537262
1667266048600426200,1.40742626953125,-2.6460390090942383,-0.2088921070098877,-0.8182479739189148
1667266048605222000,1.412221923828125,-2.7808499336242676,-0.2796175479888916,-0.9377821087837219
1667266048610017500,1.417017578125,-2.887575626373291,-0.28994476795196533,-1.003830909729004
1667266048614813200,1.421813232421875,-2.957977771759033,-0.32502618432044983,-1.0775256156921387
1667266048619608800,1.42660888671875,-2.9516448974609375,-0.3372539281845093,-1.1278775930404663
1667266048624404500,1.431404541015625,-2.9272985458374023,-0.34953176975250244,-1.1323933601379395
1667266048629200100,1.4362001953125,-2.94820499420166,-0.32976871728897095,-1.149901270866394
1667266048633996000,1.44099609375,-2.9748268127441406,-0.336386501789093,-1.1124818325042725
1667266048638791700,1.445791748046875,-3.001192092895508,-0.34557288885116577,-1.0584162473678589
1667266048643587300,1.45058740234375,-3.0129833221435547,-0.3656396269798279,-0.9818348288536072
1667266048648383000,1.455383056640625,-3.048431396484375,-0.37139880657196045,-0.8743621110916138
1667266048653178600,1.4601787109375,-3.0835928916931152,-0.37603169679641724,-0.7766963839530945
1667266048657974300,1.464974365234375,-3.0862598419189453,-0.3651711642742157,-0.7234224081039429
1667266048662770000,1.46977001953125,-3.0804343223571777,-0.34834063053131104,-0.6949046850204468
1667266048667565800,1.47456591796875,-3.0924148559570312,-0.33022019267082214,-0.6787960529327393
1667266048672361500,1.479361572265625,-3.1031017303466797,-0.346492737531662,-0.6494758725166321
1667266048677157000,1.4841572265625,-3.1089463233947754,-0.32900673151016235,-0.6508116722106934
1667266048681952800,1.488952880859375,-3.1028265953063965,-0.33742275834083557,-0.6479396820068359
1667266048686748400,1.49374853515625,-3.1158065795898438,-0.3167749345302582,-0.6348662376403809
1667266048691544000,1.4985439453125,-3.1013402938842773,-0.31484872102737427,-0.645743727684021
1667266048696339700,1.503339599609375,-3.040494918823242,-0.3170129060745239,-0.647610068321228
1667266048701135600,1.508135498046875,-3.0074620246887207,-0.30650925636291504,-0.6420936584472656
1667266048705931300,1.51293115234375,-3.017725944519043,-0.290409654378891,-0.5484546422958374
1667266048710727000,1.517726806640625,-3.0234780311584473,-0.2719728946685791,-0.44507500529289246
1667266048715522600,1.5225224609375,-3.0808138847351074,-0.26758691668510437,-0.3569231927394867
1667266048720318200,1.527318115234375,-3.1919169425964355,-0.30448049306869507,-0.34275707602500916
1667266048725113900,1.53211376953125,-3.252796173095703,-0.3479991853237152,-0.3522656559944153
1667266048729909500,1.536909423828125,-3.3077239990234375,-0.38865718245506287,-0.38086846470832825
1667266048734705200,1.541705078125,-3.3340296745300293,-0.3766399025917053,-0.4439091980457306
1667266048739500800,1.546500732421875,-3.3341317176818848,-0.39466917514801025,-0.5321548581123352
1667266048744296700,1.551296630859375,-3.371288299560547,-0.3903723955154419,-0.5993766188621521
1667266048749092400,1.55609228515625,-3.3844804763793945,-0.43681222200393677,-0.6530174016952515
1667266048753888000,1.560887939453125,-3.519256591796875,-0.4834796190261841,-0.7052067518234253
1667266048758683600,1.56568359375,-3.771601676940918,-0.5374311804771423,-0.7959455251693726
1667266048763479300,1.570479248046875,-3.8643016815185547,-0.610708475112915,-0.9255205392837524
1667266048768275000,1.57527490234375,-4.010218620300293,-0.662898600101471,-1.0098384618759155
1667266048773070600,1.580070556640625,-4.12207555770874,-0.6762881278991699,-1.0719915628433228
1667266048777866500,1.584866455078125,-4.136743545532227,-0.6656709909439087,-1.109539270401001
1667266048782662100,1.589662109375,-4.146413803100586,-0.6754308342933655,-1.079491376876831
1667266048787457800,1.594457763671875,-4.145123481750488,-0.7081905007362366,-0.9834671020507812
1667266048792253400,1.59925341796875,-4.1591572761535645,-0.7532011866569519,-0.9008155465126038
1667266048797049000,1.604049072265625,-4.198001861572266,-0.7211107611656189,-0.8706761598587036
1667266048801844700,1.6088447265625,-4.244875907897949,-0.6362338066101074,-0.8592957258224487
1667266048806640400,1.613640380859375,-4.284239768981934,-0.5755650997161865,-0.8913493156433105
1667266048811436300,1.618436279296875,-4.292269229888916,-0.5571175813674927,-0.9062585830688477
1667266048816232000,1.62323193359375,-4.298907279968262,-0.5714557766914368,-0.8757926225662231
1667266048821027600,1.628027587890625,-4.337584495544434,-0.5779693126678467,-0.7857717871665955
1667266048825823200,1.6328232421875,-4.355714797973633,-0.6040857434272766,-0.7106541991233826
1667266048830619000,1.637618896484375,-4.3653106689453125,-0.6496402621269226,-0.621178925037384
1667266048835414500,1.64241455078125,-4.342522621154785,-0.6753303408622742,-0.5084341168403625
1667266048840210200,1.647210205078125,-4.205092430114746,-0.6716898679733276,-0.40892764925956726
1667266048845006000,1.652006103515625,-4.0356645584106445,-0.648590624332428,-0.30000758171081543
1667266048849801700,1.6568017578125,-3.7961082458496094,-0.6204336881637573,-0.1818702071905136
1667266048854597400,1.661597412109375,-3.705012798309326,-0.6370193958282471,-0.0636151060461998
1667266048859393000,1.66639306640625,-3.7177934646606445,-0.6986819505691528,0.07273083180189133
1667266048864188700,1.671188720703125,-3.8079280853271484,-0.7733490467071533,0.21741953492164612
1667266048868984300,1.675984375,-3.92154598236084,-0.803946852684021,0.3547245264053345
1667266048873780000,1.680780029296875,-3.976278305053711,-0.7958484292030334,0.45470964908599854
1667266048878575600,1.68557568359375,-3.9628310203552246,-0.768640398979187,0.5585026741027832
1667266048883371500,1.69037158203125,-3.9005556106567383,-0.7123945355415344,0.6728693842887878
1667266048888167200,1.695167236328125,-3.7801342010498047,-0.6134563684463501,0.7891107797622681
1667266048892962800,1.699962890625,-3.651930809020996,-0.5109306573867798,0.8659666776657104
1667266048897758500,1.704758544921875,-3.498114585876465,-0.3950425386428833,0.9264323711395264
1667266048902554000,1.70955419921875,-3.357013702392578,-0.2844051718711853,0.9667825102806091
1667266048907349800,1.714349853515625,-3.164165496826172,-0.18118500709533691,1.0204042196273804
1667266048912145400,1.7191455078125,-2.8934545516967773,-0.1067965030670166,1.0809993743896484
1667266048916941300,1.72394140625,-2.523609161376953,-0.023154377937316895,1.1453101634979248
1667266048921737000,1.728737060546875,-2.050114631652832,0.053717970848083496,1.2332332134246826
1667266048926532600,1.73353271484375,-1.4744806289672852,0.1449068784713745,1.3482894897460938
1667266048931328300,1.738328369140625,-0.8602638244628906,0.18881440162658691,1.4952596426010132
1667266048936124000,1.7431240234375,-0.2994976043701172,0.20771539211273193,1.6105527877807617
1667266048940919600,1.74791943359375,0.15304851531982422,0.17866170406341553,1.6458770036697388
1667266048945715200,1.752715087890625,0.5549964904785156,0.11684203147888184,1.6564545631408691
1667266048950511000,1.757510986328125,0.9017305374145508,0.01962733268737793,1.6018376350402832
1667266048955306800,1.762306640625,1.1934289932250977,-0.07139462232589722,1.5179072618484497
1667266048960102400,1.767102294921875,1.4469966888427734,-0.15295785665512085,1.393720269203186
1667266048964898000,1.77189794921875,1.673344612121582,-0.18721771240234375,1.255218505859375
1667266048969693700,1.776693603515625,1.9143638610839844,-0.21994304656982422,1.0771695375442505
1667266048974489300,1.7814892578125,2.1246795654296875,-0.23339617252349854,0.8905032873153687
1667266048979285000,1.786284912109375,2.2769899368286133,-0.28663933277130127,0.7177008390426636
1667266048984080600,1.79108056640625,2.401322364807129,-0.4108595550060272,0.5145077705383301
1667266048988876300,1.795876220703125,2.461912155151367,-0.5556402206420898,0.3528708219528198
1667266048993672200,1.800672119140625,2.4732666015625,-0.6850643754005432,0.15974169969558716
1667266048998467800,1.8054677734375,2.436703681945801,-0.7716180682182312,-0.00028896331787109375
1667266049003263500,1.810263427734375,2.3571557998657227,-0.8354314565658569,-0.1385597586631775
1667266049008059100,1.81505908203125,2.2753114700317383,-0.8643792867660522,-0.24197602272033691
1667266049012854800,1.819854736328125,2.217421531677246,-0.8488718271255493,-0.3462789058685303
1667266049017650400,1.824650390625,2.179825782775879,-0.8451933860778809,-0.396289587020874
1667266049022446000,1.829446044921875,2.1541051864624023,-0.8187488317489624,-0.4347952604293823
1667266049027242000,1.834241943359375,2.0889320373535156,-0.848609983921051,-0.42249923944473267
1667266049032037600,1.83903759765625,1.9856510162353516,-0.8546696305274963,-0.41711685061454773
1667266049036833300,1.843833251953125,1.8504371643066406,-0.8910614848136902,-0.45408546924591064
1667266049041629000,1.84862890625,1.716914176940918,-0.8790525794029236,-0.4903630018234253
1667266049046424600,1.853424560546875,1.632925033569336,-0.8872582316398621,-0.5627843141555786
1667266049051220200,1.85822021484375,1.606729507446289,-0.8493742346763611,-0.6226085424423218
1667266049056016000,1.863015869140625,1.619089126586914,-0.8447965383529663,-0.6973788142204285
1667266049060811500,1.8678115234375,1.6340885162353516,-0.8286343812942505,-0.7511261701583862
1667266049065607400,1.872607421875,1.6457500457763672,-0.837120771408081,-0.7789931297302246
1667266049070403000,1.877403076171875,1.551401138305664,-0.8225803971290588,-0.7857621908187866
1667266049075198700,1.88219873046875,1.4122066497802734,-0.8279953002929688,-0.7835521697998047
1667266049079994400,1.886994384765625,1.199620246887207,-0.8303677439689636,-0.8119261860847473
1667266049084790000,1.8917900390625,0.9162178039550781,-0.8115083575248718,-0.8221561908721924
1667266049089585700,1.896585693359375,0.5705232620239258,-0.7852662205696106,-0.8444665670394897
1667266049094381300,1.90138134765625,0.21282196044921875,-0.7427432537078857,-0.8266082406044006
1667266049099177000,1.906177001953125,-0.08642101287841797,-0.6514272093772888,-0.7931676506996155
1667266049103972900,1.910972900390625,-0.3154411315917969,-0.5409079790115356,-0.763533353805542
1667266049108768500,1.9157685546875,-0.47922515869140625,-0.4109531044960022,-0.704321026802063
1667266049113564200,1.920564208984375,-0.576786994934082,-0.32360902428627014,-0.6234737634658813
1667266049118359800,1.92535986328125,-0.6417722702026367,-0.22365707159042358,-0.5083696842193604
1667266049123155500,1.930155517578125,-0.7029590606689453,-0.12522369623184204,-0.33347639441490173
1667266049127951000,1.934951171875,-0.7580022811889648,-0.03269314765930176,-0.15608720481395721
1667266049132746800,1.939746826171875,-0.8188848495483398,0.05054384469985962,-0.007990002632141113
1667266049137542700,1.944542724609375,-0.8545970916748047,0.12018585205078125,0.0886583924293518
1667266049142338300,1.94933837890625,-0.8855447769165039,0.2159385085105896,0.17401796579360962
1667266049147134000,1.954134033203125,-0.8962564468383789,0.29134225845336914,0.21782690286636353
1667266049151929600,1.9589296875,-0.9262142181396484,0.3358057737350464,0.2362757921218872
1667266049156725200,1.963725341796875,-0.9789667129516602,0.3699359893798828,0.2511405348777771
1667266049161521000,1.96852099609375,-1.029374122619629,0.39852970838546753,0.23730319738388062
1667266049166316500,1.973316650390625,-1.092942237854004,0.37144458293914795,0.1848088800907135
1667266049171112200,1.9781123046875,-1.1469192504882812,0.3675491213798523,0.15649378299713135
1667266049175907800,1.982907958984375,-1.1722078323364258,0.32707834243774414,0.057527095079422
1667266049180703700,1.987703857421875,-1.1783952713012695,0.28683239221572876,-0.027554407715797424
1667266049185499400,1.99249951171875,-1.1499872207641602,0.2585986256599426,-0.08717416226863861
1667266049190295000,1.997294921875,-1.0870370864868164,0.24793708324432373,-0.14432962238788605
1667266049195090700,2.002090576171875,-0.9752836227416992,0.22356516122817993,-0.22445173561573029
1667266049199886300,2.00688623046875,-0.8709373474121094,0.1922406554222107,-0.34434041380882263
1667266049204682000,2.011681884765625,-0.7751579284667969,0.17041224241256714,-0.4265091121196747
1667266049209477600,2.0164775390625,-0.7046127319335938,0.13616180419921875,-0.485587477684021
1667266049214273500,2.0212734375,-0.6317777633666992,0.11573141813278198,-0.5182594060897827
1667266049219069200,2.026069091796875,-0.6008443832397461,0.09957271814346313,-0.5199397206306458
1667266049223864800,2.03086474609375,-0.6188774108886719,0.10195749998092651,-0.5266230702400208
1667266049228660500,2.035660400390625,-0.6415910720825195,0.13392549753189087,-0.5232787728309631
1667266049233456000,2.0404560546875,-0.6785373687744141,0.15842854976654053,-0.5198557376861572
1667266049238251800,2.045251708984375,-0.7165565490722656,0.16004681587219238,-0.5154337882995605
1667266049243047400,2.05004736328125,-0.7293834686279297,0.1902819275856018,-0.5126015543937683
1667266049247843000,2.054843017578125,-0.6788854598999023,0.19195985794067383,-0.45957279205322266
1667266049252638700,2.059638671875,-0.5914945602416992,0.19385290145874023,-0.41114306449890137
1667266049257434600,2.0644345703125,-0.4386425018310547,0.20433330535888672,-0.35381579399108887
1667266049262230300,2.069230224609375,-0.25153446197509766,0.23527806997299194,-0.28599122166633606
1667266049267026000,2.07402587890625,0.018718719482421875,0.2780913710594177,-0.19171036779880524
1667266049271821600,2.078821533203125,0.28116607666015625,0.2931380867958069,-0.07010360062122345
1667266049276617200,2.0836171875,0.5346355438232422,0.30061429738998413,0.008132204413414001
1667266049281412900,2.088412841796875,0.73138427734375,0.28484290838241577,0.04263567924499512
1667266049286208500,2.09320849609375,0.8285694122314453,0.24336308240890503,0.0370345264673233
1667266049291004200,2.098004150390625,0.8598546981811523,0.16685301065444946,0.01056322455406189
1667266049295800000,2.102800048828125,0.7991304397583008,0.08654826879501343,-0.015756450593471527
1667266049300595700,2.107595703125,0.7015409469604492,-0.000981748104095459,-0.10556994378566742
1667266049305391400,2.112391357421875,0.6101694107055664,-0.0945684015750885,-0.18370382487773895
