time,seconds_elapsed,z,y,x
1667266047295334700,0.102334716796875,8.199904441833496,1.2329018115997314,-0.12921242415905
1667266047297732600,0.104732666015625,8.372187614440918,1.2233306169509888,-0.04785645380616188
1667266047300130600,0.107130615234375,8.56600570678711,1.2281162738800049,0.05742774158716202
1667266047302528300,0.1095283203125,8.755337715148926,1.2137593030929565,0.1339980661869049
1667266047304926200,0.11192626953125,8.949156761169434,1.2089736461639404,0.19621145725250244
1667266047307324000,0.114323974609375,9.145368576049805,1.1994023323059082,0.27038896083831787
1667266047309721900,0.116721923828125,9.332307815551758,1.2089736461639404,0.3281157910823822
1667266047312119600,0.11911962890625,9.48066234588623,1.1874382495880127,0.4046861231327057
1667266047314517500,0.121517578125,9.626625061035156,1.197009563446045,0.4549354016780853
1667266047316915500,0.12391552734375,9.741479873657227,1.189831018447876,0.49322056770324707
1667266047319313200,0.126313232421875,9.839884757995605,1.1730812788009644,0.5195416212081909
1667266047321711000,0.128711181640625,9.916455268859863,1.1419745683670044,0.5410770177841187
1667266047324108800,0.13110888671875,9.966704368591309,1.1395817995071411,0.5434698462486267
1667266047326506800,0.1335068359375,10.004989624023438,1.1108678579330444,0.5099703073501587
1667266047328904400,0.135904541015625,10.057631492614746,1.1228320598602295,0.4549354016780853
1667266047331302400,0.138302490234375,10.105487823486328,1.1324033737182617,0.39990049600601196
1667266047333700000,0.1407001953125,10.14616584777832,1.1324033737182617,0.31854450702667236
1667266047336098000,0.14309814453125,10.189236640930176,1.1180464029312134,0.2225325107574463
1667266047338496000,0.14549609375,10.239486694335938,1.1228320598602295,0.1339980661869049
1667266047340893700,0.147893798828125,10.282557487487793,1.1180464029312134,0.02392822690308094
1667266047343291600,0.150291748046875,10.308877944946289,1.1228320598602295,-0.08135596662759781
1667266047345689300,0.152689453125,10.359127044677734,1.1132607460021973,-0.17706887423992157
1667266047348087300,0.15508740234375,10.407282829284668,1.103689432144165,-0.26560330390930176
1667266047350485000,0.157485107421875,10.44796085357666,1.0917253494262695,-0.3400799036026001
1667266047352883000,0.159883056640625,10.488638877868652,1.0821540355682373,-0.4142574071884155
1667266047355281000,0.162281005859375,10.522138595581055,1.0558329820632935,-0.4668995141983032
1667266047357678600,0.1646787109375,10.562816619873047,1.043868899345398,-0.5123631358146667
1667266047360076500,0.16707666015625,10.598709106445312,1.0342975854873657,-0.5482555031776428
1667266047362474200,0.16947412109375,10.632207870483398,1.0319048166275024,-0.579362154006958
1667266047364872200,0.1718720703125,10.692028999328613,1.012762188911438,-0.6224330067634583
1667266047367270000,0.174269775390625,10.720743179321289,1.0103694200515747,-0.6056832075119019
1667266047369667800,0.176667724609375,10.744670867919922,0.9984052777290344,-0.6056832075119019
1667266047372065800,0.179065673828125,10.787741661071777,0.9936196208000183,-0.6056832075119019
1667266047374463500,0.18146337890625,10.802098274230957,0.9840483069419861,-0.5865406394004822
1667266047376861400,0.183861328125,10.802098274230957,0.97926265001297,-0.5626124143600464
1667266047379259100,0.186259033203125,10.818848609924316,1.0031908750534058,-0.5458626747131348
1667266047381657000,0.188656982421875,10.847562789916992,1.0247262716293335,-0.5554339289665222
1667266047384054800,0.1910546875,10.830812454223633,1.0654042959213257,-0.5315057039260864
1667266047386452700,0.19345263671875,10.811670303344727,1.0773683786392212,-0.5123631358146667
1667266047388850700,0.1958505859375,10.778170585632324,1.1228320598602295,-0.490827739238739
1667266047391248400,0.198248291015625,10.732707023620605,1.170688509941101,-0.4453641176223755
1667266047393646300,0.200646240234375,10.680065155029297,1.1922239065170288,-0.3975076675415039
1667266047396044000,0.2030439453125,10.632207870483398,1.2233306169509888,-0.34725838899612427
1667266047398442000,0.20544189453125,10.529316902160645,1.2400803565979004,-0.28504499793052673
1667266047400839700,0.207839599609375,10.445568084716797,1.252044439315796,-0.22492532432079315
1667266047403237600,0.210237548828125,10.361519813537598,1.2544373273849487,-0.19621145725250244
1667266047405635300,0.21263525390625,10.275378227233887,1.2448660135269165,-0.1866401731967926
1667266047408033300,0.215033203125,10.17009449005127,1.2735798358917236,-0.16749759018421173
1667266047410431000,0.217430908203125,10.083952903747559,1.2975081205368042,-0.18903298676013947
1667266047412829000,0.219828857421875,9.988240242004395,1.3381860256195068,-0.2225325107574463
1667266047415227000,0.222226806640625,9.909276962280273,1.3908281326293945,-0.26081767678260803
1667266047417624600,0.22462451171875,9.830313682556152,1.4413765668869019,-0.34725838899612427
1667266047420022500,0.2270224609375,9.767801284790039,1.5035899877548218,-0.40229329466819763
1667266047422420200,0.229420166015625,9.712766647338867,1.532303810119629,-0.4740779995918274
1667266047424818200,0.231818115234375,9.664909362792969,1.529910922050476,-0.5338985323905945
1667266047427216000,0.2342158203125,9.62901782989502,1.5538392066955566,-0.5841478109359741
1667266047429613800,0.23661376953125,9.566803932189941,1.5634105205535889,-0.6415755748748779
1667266047432011800,0.23901171875,9.540482521057129,1.5634105205535889,-0.6774678826332092
1667266047434409500,0.241409423828125,9.497411727905273,1.5514464378356934,-0.6894320249557495
1667266047436807400,0.243807373046875,9.483055114746094,1.5490535497665405,-0.7229315638542175
1667266047439205000,0.246205078125,9.48784065246582,1.5514464378356934,-0.7301099896430969
1667266047441603000,0.24860302734375,9.50459098815918,1.5203397274017334,-0.7229315638542175
1667266047444000800,0.251000732421875,9.51894760131836,1.5203397274017334,-0.7181459069252014
1667266047446398700,0.253398681640625,9.559625625610352,1.5155540704727173,-0.7157530784606934
1667266047448796700,0.255796630859375,9.621838569641113,1.532303810119629,-0.6822535395622253
1667266047451194400,0.2581943359375,9.684052467346191,1.5203397274017334,-0.6535396575927734
1667266047453592300,0.26059228515625,9.779765129089355,1.5131611824035645,-0.6415755748748779
1667266047455990000,0.262989990234375,9.885348320007324,1.505982756614685,-0.5961119532585144
1667266047458388000,0.265387939453125,10.004989624023438,1.5107684135437012,-0.5386841893196106
1667266047460785700,0.26778564453125,10.112667083740234,1.4988043308258057,-0.5147559642791748
1667266047463183600,0.27018359375,10.2418794631958,1.505982756614685,-0.4549354016780853
1667266047465581600,0.27258154296875,10.349555969238281,1.5083755254745483,-0.41904306411743164
1667266047467979300,0.274979248046875,10.45513916015625,1.5083755254745483,-0.3568296730518341
1667266047470377200,0.277377197265625,10.56520938873291,1.4916257858276367,-0.28983065485954285
1667266047472775000,0.27977490234375,10.648958206176758,1.4892330169677734,-0.2105683982372284
1667266047475172900,0.2821728515625,10.768599510192871,1.4796617031097412,-0.10767702013254166
1667266047477570600,0.284570556640625,10.945966720581055,1.4916257858276367,0.004785645287483931
1667266047479968500,0.286968505859375,11.029715538024902,1.4988043308258057,0.062213387340307236
1667266047482366200,0.2893662109375,11.0775728225708,1.5179468393325806,0.07417750358581543
1667266047484764200,0.29176416015625,11.08475112915039,1.5442678928375244,0.07657032459974289
1667266047487162000,0.294162109375,11.103893280029297,1.5705889463424683,0.06939185410737991
1667266047489559800,0.296559814453125,11.11346435546875,1.5849459171295166,0.04307080805301666
1667266047491957800,0.298957763671875,11.132607460021973,1.6256239414215088,0.016749758273363113
1667266047494355500,0.30135546875,11.142178535461426,1.651944875717163,-0.02632104977965355
1667266047496753400,0.30375341796875,11.127821922302246,1.6639090776443481,-0.05503492057323456
1667266047499151000,0.306151123046875,11.103893280029297,1.6663018465042114,-0.064606212079525
1667266047501549000,0.308549072265625,11.046465873718262,1.651944875717163,-0.064606212079525
1667266047503946800,0.31094677734375,11.00578784942627,1.6256239414215088,-0.06699903309345245
1667266047506344700,0.3133447265625,10.950753211975098,1.623231053352356,-0.04546362906694412
1667266047508742700,0.31574267578125,10.92173957824707,1.623231053352356,-0.014356935396790504
1667266047511140400,0.318140380859375,10.904990196228027,1.6567305326461792,-0.007178467698395252
1667266047513538300,0.320538330078125,10.881061553955078,1.7021942138671875,-0.004785645287483931
1667266047515936000,0.32293603515625,10.871490478515625,1.7548363208770752,-0.0023928226437419653
1667266047518334000,0.325333984375,10.869097709655762,1.7907286882400513,0.02632104977965355
1667266047520731600,0.327731689453125,10.866704940795898,1.8337994813919067,0.09092725813388824
1667266047523129600,0.330129638671875,10.866704940795898,1.8888343572616577,0.13639089465141296
1667266047525527600,0.332527587890625,10.849955558776855,1.8840487003326416,0.1818545162677765
1667266047527925200,0.33492529296875,10.826026916503906,1.896012783050537,0.23210379481315613
1667266047530323200,0.3373232421875,10.809277534484863,1.9199410676956177,0.27756741642951965
1667266047532721000,0.339720947265625,10.785348892211914,1.92951238155365,0.3281157910823822
1667266047535118800,0.342118896484375,10.737492561340332,1.934298038482666,0.3568296730518341
1667266047537516500,0.3445166015625,10.694421768188477,1.9438693523406982,0.35443684458732605
1667266047539914500,0.34691455078125,10.648958206176758,1.9486548900604248,0.3400799036026001
1667266047542312400,0.3493125,10.625029563903809,1.9657038450241089,0.3089732229709625
1667266047544710100,0.351710205078125,10.581958770751953,1.9606190919876099,0.27756741642951965
1667266047547108000,0.354108154296875,10.543673515319824,1.9558334350585938,0.26560330390930176
1667266047549505800,0.356505859375,10.634601593017578,1.9896320104599,0.3113660514354706
1667266047551903700,0.35890380859375,10.625029563903809,1.9896320104599,0.2799602448940277
1667266047554301400,0.361301513671875,10.541280746459961,1.9896320104599,0.22013968229293823
1667266047556699400,0.363699462890625,10.44078254699707,1.9752750396728516,0.18424734473228455
1667266047559097000,0.36609716796875,10.354341506958008,1.970489501953125,0.12681959569454193
1667266047561495000,0.3684951171875,10.268199920654297,1.9848463535308838,0.11006984114646912
1667266047563892700,0.370892822265625,10.194023132324219,1.9824535846710205,0.07896314561367035
1667266047566290700,0.373290771484375,10.100702285766602,1.9657038450241089,0.038285162299871445
1667266047568688600,0.375688720703125,9.985847473144531,1.9390836954116821,-0.02392822690308094
1667266047571086300,0.37808642578125,9.90688419342041,1.9127626419067383,-0.07657032459974289
1667266047573484300,0.380484375,9.806086540222168,1.9151554107666016,-0.08853443711996078
1667266047575882000,0.382882080078125,9.719944953918457,1.9199410676956177,-0.08853443711996078
1667266047578280000,0.385280029296875,9.662516593933105,1.934298038482666,-0.07417750358581543
1667266047580677600,0.387677734375,9.669695854187012,1.9558334350585938,-0.07417750358581543
1667266047583075600,0.39007568359375,9.681659698486328,1.9968105554580688,-0.10049854964017868
1667266047585473500,0.3924736328125,9.703194618225098,2.0231316089630127,-0.1339980661869049
1667266047587871200,0.394871337890625,9.731908798217773,2.0518453121185303,-0.17228323221206665
1667266047590269200,0.397269287109375,9.777372360229492,2.090130567550659,-0.2153540402650833
1667266047592667000,0.3996669921875,9.789336204528809,2.128415822982788,-0.2584248483181
1667266047595064800,0.40206494140625,9.8207426071167,2.14516544342041,-0.28504499793052673
1667266047597462500,0.404462646484375,9.847063064575195,2.17627215385437,-0.3448655605316162
1667266047599860500,0.406860595703125,9.863813400268555,2.183450698852539,-0.41904306411743164
1667266047602258400,0.409258544921875,9.863813400268555,2.17627215385437,-0.4740779995918274
1667266047604656000,0.41165625,9.839884757995605,2.183450698852539,-0.5171487927436829
1667266047607054000,0.41405419921875,9.823135375976562,2.190629243850708,-0.579362154006958
1667266047609451800,0.41645166015625,9.801301002502441,2.183450698852539,-0.6535396575927734
1667266047611849700,0.418849609375,9.75344467163086,2.1786649227142334,-0.7396813035011292
1667266047614247400,0.421247314453125,9.703194618225098,2.1547367572784424,-0.8138588070869446
1667266047616645400,0.423645263671875,9.638588905334473,2.1475582122802734,-0.9050851464271545
1667266047619043300,0.426043212890625,9.552447319030762,2.097309112548828,-0.9720842242240906
1667266047621441000,0.42844091796875,9.461520195007324,2.090130567550659,-0.9960124492645264
1667266047623839000,0.4308388671875,9.38734245300293,2.1092731952667236,-1.0199406147003174
1667266047626236700,0.433236572265625,9.301200866699219,2.0925233364105225,-1.0534402132034302
1667266047628634600,0.435634521484375,9.229117393493652,2.0829520225524902,-1.079761266708374
1667266047631032300,0.4380322265625,9.154939651489258,2.090130567550659,-1.0893324613571167
1667266047633430300,0.44043017578125,9.107083320617676,2.0997018814086914,-1.098903775215149
1667266047635828000,0.442827880859375,9.052047729492188,2.1332013607025146,-1.0558329820632935
1667266047638226000,0.445225830078125,9.023334503173828,2.1308085918426514,-1.067797064781189
1667266047640623900,0.447623779296875,8.992227554321289,2.1308085918426514,-1.0414760112762451
1667266047643021600,0.450021484375,8.934800148010254,2.149951219558716,-0.9888339638710022
1667266047645419500,0.45241943359375,8.903693199157715,2.1858434677124023,-0.9266205430030823
1667266047647817200,0.454817138671875,8.934800148010254,2.2360928058624268,-0.8668000102043152
1667266047650215200,0.457215087890625,8.970691680908203,2.255235433578491,-0.8306085467338562
1667266047652612900,0.45961279296875,9.023334503173828,2.293520450592041,-0.7779664397239685
1667266047655010800,0.4620107421875,9.078369140625,2.338984251022339,-0.7301099896430969
1667266047657408500,0.464408447265625,9.121439933776855,2.3844478130340576,-0.6678966283798218
1667266047659806500,0.466806396484375,9.157332420349121,2.4538395404815674,-0.5817549824714661
1667266047662204400,0.469204345703125,9.212367057800293,2.5016961097717285,-0.5267201066017151
1667266047664602000,0.47160205078125,9.274879455566406,2.5160529613494873,-0.5027918815612793
1667266047667000000,0.474,9.320343017578125,2.533101797103882,-0.43579283356666565
1667266047669397800,0.476397705078125,9.351449966430664,2.535494804382324,-0.3735794425010681
1667266047671795700,0.478795654296875,9.341878890991211,2.5232315063476562,-0.3233301639556885
1667266047674193400,0.481193359375,9.298808097839355,2.5378875732421875,-0.24885354936122894
1667266047676591400,0.48359130859375,9.26291561126709,2.525923490524292,-0.20578274130821228
1667266047678989300,0.4859892578125,9.214759826660156,2.5160529613494873,-0.1818545162677765
1667266047681387000,0.488386962890625,9.152546882629395,2.520838737487793,-0.15553347766399384
1667266047683785000,0.490784912109375,9.066405296325684,2.525923490524292,-0.13878370821475983
1667266047686182700,0.4931826171875,9.020941734313965,2.5088746547698975,-0.11724831163883209
1667266047688580600,0.49558056640625,8.965906143188477,2.4993033409118652,-0.09092725813388824
1667266047690978300,0.497978271484375,8.886942863464355,2.4849462509155273,-0.05503492057323456
1667266047693376300,0.500376220703125,8.819944381713867,2.4394826889038086,-0.07657032459974289
1667266047695774200,0.502774169921875,8.760123252868652,2.3700907230377197,-0.064606212079525
1667266047698172000,0.505171875,8.688039779663086,2.3150558471679688,-0.04546362906694412
1667266047700569900,0.50756982421875,8.611469268798828,2.2671995162963867,-0.02153540402650833
1667266047702967600,0.509967529296875,8.52772045135498,2.231307029724121,-0.004785645287483931
1667266047705365500,0.512365478515625,8.424829483032227,2.159522533416748,0.009571290574967861
1667266047707763200,0.51476318359375,8.321938514709473,2.073380708694458,0.0023928226437419653
1667266047710161200,0.5171611328125,8.17119026184082,2.0039889812469482,0.004785645287483931
1667266047712559000,0.51955908203125,8.0081787109375,1.9558334350585938,0.009571290574967861
1667266047714956800,0.521956787109375,7.859824180603027,1.903191328048706,0.007178467698395252
1667266047717354800,0.524354736328125,7.701898097991943,1.8625133037567139,0.04307080805301666
1667266047719752400,0.52675244140625,7.531708240509033,1.843370795249939,0.05503492057323456
1667266047722150400,0.529150390625,7.357032299041748,1.8146568536758423,0.031106693670153618
1667266047724548000,0.531548095703125,7.201498985290527,1.800299882888794,0.007178467698395252
1667266047726946000,0.533946044921875,7.05553674697876,1.7907286882400513,-0.01196411345154047
1667266047729343700,0.53634375,6.887740135192871,1.7620147466659546,-0.01196411345154047
1667266047731741700,0.53874169921875,6.708278179168701,1.7404793500900269,-0.0023928226437419653
1667266047734139400,0.541139404296875,6.562315940856934,1.7333009243011475,0.007178467698395252
1667266047736537300,0.543537353515625,6.408876419067383,1.7404793500900269,0.031106693670153618
1667266047738935300,0.545935302734375,6.2892351150512695,1.7069798707962036,0.02153540402650833
1667266047741333000,0.5483330078125,6.198307991027832,1.6974085569381714,0.019142581149935722
1667266047743731000,0.55073095703125,6.1073808670043945,1.6806588172912598,0.040677983313798904
1667266047746128600,0.553128662109375,5.997310638427734,1.6615161895751953,0.06699903309345245
1667266047748526600,0.555526611328125,5.896812438964844,1.6423736810684204,0.10289137065410614
1667266047750924300,0.55792431640625,5.793622016906738,1.6208382844924927,0.14356936514377594
1667266047753322200,0.560322265625,5.695516109466553,1.5801602602005005,0.1746760457754135
1667266047755720200,0.56272021484375,5.5998029708862305,1.5418751239776611,0.21296121180057526
1667266047758118000,0.565117919921875,5.504090309143066,1.5131611824035645,0.22013968229293823
1667266047760515800,0.567515869140625,5.425127029418945,1.4437693357467651,0.20578274130821228
1667266047762913500,0.56991357421875,5.3557353019714355,1.3980066776275635,0.1986042857170105
1667266047765311500,0.5723115234375,5.2716875076293945,1.3764712810516357,0.20817556977272034
1667266047767709200,0.574709228515625,5.223830699920654,1.311864972114563,0.24646073579788208
1667266047770107100,0.577107177734375,5.19033145904541,1.287936806678772,0.4286143481731415
1667266047772505000,0.579505126953125,5.175974369049072,1.2616157531738281,0.6559324860572815
1667266047774902800,0.58190283203125,5.254937648773193,1.2329018115997314,0.579362154006958
1667266047777300700,0.58430078125,5.365306377410889,1.2400803565979004,0.368793785572052
1667266047779698400,0.586698486328125,5.4897332191467285,1.2783654928207397,0.18903298676013947
1667266047782096400,0.589096435546875,5.585446357727051,1.3142578601837158,0.07896314561367035
1667266047784494000,0.591494140625,5.66201639175415,1.3716856241226196,0.062213387340307236
1667266047786892000,0.59389208984375,5.738586902618408,1.40279221534729,0.12681959569454193
1667266047789290000,0.5962900390625,5.829514026641846,1.434198021888733,0.1746760457754135
1667266047791687700,0.598687744140625,5.959025859832764,1.446162223815918,0.21774685382843018
1667266047794085600,0.601085693359375,6.155237197875977,1.4533406496047974,0.2826521694660187
1667266047796483300,0.6034833984375,6.361020088195801,1.450947880744934,0.34247273206710815
1667266047798881300,0.60588134765625,6.595815658569336,1.4485549926757812,0.44775694608688354
1667266047801279000,0.608279052734375,6.892525672912598,1.4126626253128052,0.5506483316421509
1667266047803677000,0.610677001953125,7.1488566398620605,1.3621143102645874,0.6678966283798218
1667266047806074600,0.61307470703125,7.4001030921936035,1.3142578601837158,0.7851449251174927
1667266047808472600,0.61547265625,7.584649562835693,1.292722463607788,0.8739784955978394
1667266047810870500,0.61787060546875,7.797610759735107,1.252044439315796,0.9649057388305664
1667266047813268200,0.620268310546875,7.99382209777832,1.1802598237991333,1.0319048166275024
1667266047815666200,0.622666259765625,8.115856170654297,1.1012966632843018,1.067797064781189
1667266047818064000,0.62506396484375,8.216653823852539,1.048654556274414,1.0247262716293335
1667266047820461800,0.6274619140625,8.348258972167969,1.0247262716293335,0.9002995491027832
1667266047822859500,0.629859619140625,8.436793327331543,1.017547845840454,0.7468597888946533
1667266047825257500,0.632257568359375,8.52054214477539,1.0701899528503418,0.5745765566825867
1667266047827655400,0.634655517578125,8.575576782226562,1.0893324613571167,0.39990049600601196
1667266047830053000,0.63705322265625,8.71226692199707,1.0510473251342773,0.24885354936122894
1667266047832451000,0.639451171875,8.846264839172363,0.9984052777290344,0.17946170270442963
1667266047834848800,0.641848876953125,8.934800148010254,0.9218349456787109,0.11964113265275955
1667266047837246700,0.644246826171875,9.025727272033691,0.8282157182693481,0.07417750358581543
1667266047839644400,0.64664453125,9.150154113769531,0.7157530784606934,0.02153540402650833
1667266047842042400,0.64904248046875,9.260522842407227,0.6296114325523376,-0.04307080805301666
1667266047844440300,0.6514404296875,9.389735221862793,0.524327278137207,-0.05742774158716202
1667266047846838000,0.653838134765625,9.48066234588623,0.4094717800617218,-0.035892341285943985
1667266047849236000,0.656236083984375,9.552447319030762,0.3089732229709625,0.03349951654672623
1667266047851633700,0.658633544921875,9.617053031921387,0.2153540402650833,0.11246266216039658
1667266047854031600,0.661031494140625,9.698409080505371,0.1339980661869049,0.20817556977272034
1667266047856429300,0.66342919921875,9.825528144836426,0.0933200865983963,0.44775694608688354
1667266047858827300,0.6658271484375,10.01456069946289,0.07178468257188797,0.8524430394172668
1667266047861225200,0.66822509765625,10.17009449005127,0.08614161610603333,1.036690354347229
1667266047863623000,0.670622802734375,10.299306869506836,0.12442677468061447,1.0606186389923096
1667266047866020900,0.673020751953125,10.419246673583984,0.16749759018421173,1.0462616682052612
1667266047868418600,0.67541845703125,10.538887977600098,0.26081767678260803,1.0342975854873657
1667266047870816500,0.67781640625,10.670493125915527,0.35443684458732605,1.0247262716293335
1667266047873214200,0.680214111328125,10.78295612335205,0.4501497745513916,0.981655478477478
1667266047875612200,0.682612060546875,10.881061553955078,0.5506483316421509,0.8955138921737671
1667266047878010000,0.685010009765625,10.950753211975098,0.6702894568443298,0.7731808423995972
1667266047880407800,0.68740771484375,10.99143123626709,0.8090731501579285,0.675075113773346
1667266047882805500,0.689805419921875,11.039287567138672,0.9218349456787109,0.579362154006958
1667266047885203500,0.692203369140625,11.044073104858398,0.9984052777290344,0.4740779995918274
1667266047887601400,0.694601318359375,11.051251411437988,1.0582258701324463,0.3520440459251404
1667266047889999000,0.6969990234375,11.02014446258545,1.0773683786392212,0.2392822653055191
1667266047892397000,0.69939697265625,10.99860954284668,1.0582258701324463,0.14835500717163086
1667266047894794800,0.701794677734375,10.919346809387207,1.0247262716293335,0.06699903309345245
1667266047897192700,0.704192626953125,10.83559799194336,0.9864411354064941,0.014356935396790504
1667266047899590400,0.70659033203125,10.744670867919922,0.97926265001297,-0.02392822690308094
1667266047901988400,0.70898828125,10.67288589477539,0.9768698215484619,-0.06699903309345245
1667266047904386300,0.71138623046875,10.610672950744629,0.9840483069419861,-0.12442677468061447
1667266047906784000,0.713783935546875,10.553245544433594,1.0079765319824219,-0.14117653667926788
1667266047909182000,0.716181884765625,10.488638877868652,1.0510473251342773,-0.13160525262355804
1667266047911579600,0.71857958984375,10.363913536071777,1.0845468044281006,-0.13160525262355804
1667266047913977600,0.7209775390625,10.27059268951416,1.1228320598602295,-0.12442677468061447
1667266047916375300,0.723375244140625,10.205986976623535,1.1682956218719482,-0.1339980661869049
1667266047918773200,0.725773193359375,10.182058334350586,1.2233306169509888,-0.1052841991186142
1667266047921171200,0.728171142578125,10.158130645751953,1.2999008893966675,-0.06699903309345245
1667266047923569000,0.73056884765625,10.150951385498047,1.4003994464874268,-0.019142581149935722
1667266047925966800,0.732966796875,10.205986976623535,1.4844473600387573,-0.0023928226437419653
1667266047928364500,0.735364501953125,10.308877944946289,1.5825530290603638,-0.0023928226437419653
1667266047930762500,0.737762451171875,10.383355140686035,1.683051586151123,-0.04785645380616188
1667266047933160200,0.74016015625,10.428818702697754,1.7979071140289307,-0.13639089465141296
1667266047935558100,0.74255810546875,10.467103958129883,1.9055840969085693,-0.23210379481315613
1667266047937956000,0.7449560546875,10.514960289001465,1.9824535846710205,-0.35443684458732605
1667266047940353800,0.747353759765625,10.55803108215332,2.0303099155426025,-0.5075774788856506
1667266047942751700,0.749751708984375,10.5723876953125,2.080559253692627,-0.6631109714508057
1667266047945149400,0.7521494140625,10.574780464172363,2.094916343688965,-0.7779664397239685
1667266047947547400,0.75454736328125,10.538887977600098,2.090130567550659,-0.8859425783157349
1667266047949945000,0.756945068359375,10.47188949584961,2.066202402114868,-1.0007981061935425
1667266047952343000,0.759343017578125,10.400104522705078,2.018345832824707,-1.1012966632843018
1667266047954741000,0.761740966796875,10.308877944946289,1.9824535846710205,-1.220937728881836
1667266047957138700,0.764138671875,10.225129127502441,1.9199410676956177,-1.3525429964065552
1667266047959536600,0.76653662109375,10.136594772338867,1.86729896068573,-1.470090389251709
1667266047961934300,0.768934326171875,10.05284595489502,1.7859430313110352,-1.5538392066955566
1667266047964332300,0.771332275390625,9.971489906311035,1.7285152673721313,-1.6447664499282837
1667266047966730000,0.77372998046875,9.959526062011719,1.709372639656067,-1.8146568536758423
1667266047969128000,0.7761279296875,9.981060981750488,1.7237296104431152,-1.9680966138839722
1667266047971526000,0.77852587890625,10.062417030334473,1.7380865812301636,-2.135594129562378
1667266047973923600,0.780923583984375,10.174880027770996,1.7715860605239868,-2.2648067474365234
1667266047976321500,0.783321533203125,10.3016996383667,1.7883358001708984,-2.3676979541778564
1667266047978719200,0.78571923828125,10.44796085357666,1.8290138244628906,-2.427518606185913
1667266047981117200,0.7881171875,10.598709106445312,1.8505492210388184,-2.475374937057495
1667266047983515000,0.790514892578125,10.78295612335205,1.86729896068573,-2.5112674236297607
1667266047985912800,0.792912841796875,10.977073669433594,1.8649061918258667,-2.5088746547698975
1667266047988310500,0.795310546875,11.173285484313965,1.8840487003326416,-2.4610180854797363
1667266047990708500,0.79770849609375,11.376675605773926,1.9103697538375854,-2.410768747329712
1667266047993106200,0.800106201171875,11.652149200439453,1.953440546989441,-2.341377019882202
1667266047995504000,0.802504150390625,11.934501647949219,1.9486548900604248,-2.26959228515625
1667266047997902000,0.804902099609375,12.241082191467285,1.953440546989441,-2.214557409286499
1667266048000299800,0.8072998046875,12.583255767822266,1.9486548900604248,-2.169093608856201
1667266048002697700,0.80969775390625,12.897014617919922,1.9319051504135132,-2.1068804264068604
1667266048005095400,0.812095458984375,13.194024085998535,1.8912272453308105,-2.066202402114868
1667266048007493400,0.814493408203125,13.476377487182617,1.800299882888794,-2.073380708694458
1667266048009891000,0.81689111328125,13.72762393951416,1.6615161895751953,-2.094916343688965
1667266048012289000,0.8192890625,13.876277923583984,1.415055513381958,-2.094916343688965
1667266048014687000,0.82168701171875,13.9480619430542,1.1539387702941895,-2.0518453121185303
1667266048017084700,0.824084716796875,13.986347198486328,0.8476574420928955,-1.9896320104599
1667266048019482600,0.826482666015625,13.962419509887695,0.5338985323905945,-1.903191328048706
1667266048021880300,0.82888037109375,13.907383918762207,0.21774685382843018,-1.8146568536758423
1667266048024278300,0.8312783203125,13.78774356842041,-0.08853443711996078,-1.7333009243011475
1667266048026676000,0.833676025390625,13.612768173217773,-0.38793638348579407,-1.6686947345733643
1667266048029074000,0.836073974609375,13.440485000610352,-0.6487540602684021,-1.6136597394943237
1667266048031471900,0.838471923828125,13.325629234313965,-0.8476574420928955,-1.5658032894134521
1667266048033869600,0.84086962890625,13.198809623718262,-1.0510473251342773,-1.5490535497665405
1667266048036267500,0.843267578125,13.06690502166748,-1.170688509941101,-1.5418751239776611
1667266048038665200,0.845665283203125,12.932907104492188,-1.2592228651046753,-1.5155540704727173
1667266048041063200,0.848063232421875,12.786945343017578,-1.3692927360534668,-1.4676976203918457
1667266048043460900,0.8504609375,12.650554656982422,-1.4629119634628296,-1.4054841995239258
1667266048045858800,0.85285888671875,12.489935874938965,-1.561017632484436,-1.3453645706176758
1667266048048256800,0.8552568359375,12.303296089172363,-1.6304094791412354,-1.2472587823867798
1667266048050654500,0.857654541015625,12.06640625,-1.7237296104431152,-1.1515458822250366
1667266048053052400,0.860052490234375,11.807682037353516,-1.8146568536758423,-1.0654042959213257
1667266048055450000,0.8624501953125,11.537293434143066,-1.8696918487548828,-0.9840483069419861
1667266048057848000,0.86484814453125,11.283354759216309,-1.92951238155365,-0.9194421172142029
1667266048060245800,0.867245849609375,11.075180053710938,-1.9630118608474731,-0.857228696346283
1667266048062643700,0.869643798828125,11.154142379760742,-1.9752750396728516,-0.857228696346283
1667266048065041700,0.872041748046875,11.00578784942627,-1.9872392416000366,-0.8282157182693481
1667266048067439400,0.874439453125,10.778170585632324,-1.9920248985290527,-0.8066803216934204
1667266048069837300,0.87683740234375,10.517353057861328,-2.018345832824707,-0.7947162389755249
1667266048072235000,0.879235107421875,10.272985458374023,-2.032702922821045,-0.7947162389755249
1667266048074633000,0.881633056640625,10.02413272857666,-1.9920248985290527,-0.8090731501579285
1667266048077030700,0.88403076171875,9.803693771362305,-1.9848463535308838,-0.857228696346283
1667266048079428600,0.8864287109375,9.602696418762207,-1.9630118608474731,-0.9290133714675903
1667266048081826600,0.88882666015625,9.430413246154785,-1.9438693523406982,-0.9936196208000183
1667266048084224300,0.891224365234375,9.22433090209961,-1.9558334350585938,-1.036690354347229
1667266048086622200,0.893622314453125,9.104690551757812,-1.9247267246246338,-1.1084750890731812
1667266048089020000,0.89602001953125,9.059226989746094,-1.9055840969085693,-1.1730812788009644
1667266048091417900,0.89841796875,9.06401252746582,-1.8840487003326416,-1.2137593030929565
1667266048093815600,0.900815673828125,9.126225471496582,-1.8553348779678345,-1.220937728881836
1667266048096213500,0.903213623046875,9.22433090209961,-1.83619225025177,-1.2329018115997314
1667266048098611500,0.905611572265625,9.358628273010254,-1.812264084815979,-1.2113664150238037
1667266048101009200,0.908009033203125,9.478269577026367,-1.7883358001708984,-1.1778669357299805
1667266048103407000,0.910406982421875,9.61226749420166,-1.77397882938385,-1.1491531133651733
1667266048105804800,0.9128046875,9.71515941619873,-1.7644076347351074,-1.0701899528503418
1667266048108202800,0.91520263671875,9.823135375976562,-1.7189439535140991,-0.9840483069419861
1667266048110600400,0.917600341796875,9.966704368591309,-1.695015788078308,-0.8835497498512268
1667266048112998400,0.919998291015625,10.110274314880371,-1.678265929222107,-0.768395185470581
1667266048115396000,0.92239599609375,10.29452133178711,-1.683051586151123,-0.6607181429862976
1667266048117794000,0.9247939453125,10.483853340148926,-1.6663018465042114,-0.5362913608551025
1667266048120191700,0.927191650390625,10.723135948181152,-1.6040884256362915,-0.39032918214797974
1667266048122589700,0.929589599609375,10.965109825134277,-1.568196177482605,-0.26081767678260803
1667266048124987600,0.931987548828125,11.233105659484863,-1.505982756614685,-0.14356936514377594
1667266048127385300,0.93438525390625,11.52532958984375,-1.450947880744934,0.01196411345154047
1667266048129783300,0.936783203125,11.817254066467285,-1.4054841995239258,0.16271193325519562
1667266048132181000,0.939180908203125,12.104691505432129,-1.347757339477539,0.3400799036026001
1667266048134579000,0.941578857421875,12.430115699768066,-1.2999008893966675,0.5650052428245544
1667266048136976600,0.9439765625,12.74148178100586,-1.252044439315796,0.8138588070869446
1667266048139374600,0.94637451171875,13.050155639648438,-1.1850453615188599,1.0773683786392212
1667266048141772500,0.9487724609375,13.325629234313965,-1.0941181182861328,1.2975081205368042
1667266048144170200,0.951170166015625,13.615160942077637,-1.0271191596984863,1.4916257858276367
1667266048146568200,0.953568115234375,13.871492385864258,-0.9744769930839539,1.6399807929992676
1667266048148966000,0.9559658203125,14.060524940490723,-0.9050851464271545,1.7907286882400513
1667266048151363800,0.95836376953125,14.244771957397461,-0.8452646136283875,1.9127626419067383
1667266048153761500,0.960761474609375,14.376676559448242,-0.7827520966529846,2.035095691680908
1667266048156159500,0.963159423828125,14.42931842803955,-0.7444669604301453,2.1403799057006836
1667266048158557400,0.965557373046875,14.426925659179688,-0.734895646572113,2.1954147815704346
1667266048160955100,0.967955078125,14.371891021728516,-0.7444669604301453,2.2600209712982178
1667266048163353000,0.97035302734375,14.259129524230957,-0.7061817646026611,2.3054845333099365
1667266048165750800,0.972750732421875,14.113166809082031,-0.6870391964912415,2.307877540588379
1667266048168148700,0.975148681640625,14.000704765319824,-0.701396107673645,2.307877540588379
1667266048170546400,0.97754638671875,13.864313125610352,-0.7301099896430969,2.276770830154419
1667266048172944400,0.9799443359375,13.72523021697998,-0.7540382146835327,2.2360928058624268
1667266048175342300,0.98234228515625,13.574482917785645,-0.7947162389755249,2.1858434677124023
1667266048177740000,0.984739990234375,13.39262866973877,-0.8186444640159607,2.1475582122802734
1667266048180138000,0.987137939453125,13.239487648010254,-0.857228696346283,2.1332013607025146
1667266048182535700,0.98953564453125,13.306487083435059,-0.8306085467338562,2.097309112548828
1667266048184933600,0.99193359375,13.18415355682373,-0.8428717851638794,2.0709879398345947
1667266048187331300,0.994331298828125,12.937692642211914,-0.8955138921737671,2.056631088256836
1667266048189729300,0.996729248046875,12.657732963562012,-0.9505487680435181,2.0398812294006348
1667266048192127200,0.999127197265625,12.346366882324219,-0.9960124492645264,1.9896320104599
1667266048194525000,1.00152490234375,12.042179107666016,-1.0151549577713013,1.9199410676956177
1667266048196923000,1.0039228515625,11.700005531311035,-1.0414760112762451,1.8529419898986816
1667266048199320600,1.006320556640625,11.34078311920166,-1.0582258701324463,1.776371717453003
1667266048201718500,1.008718505859375,11.017751693725586,-1.0869396924972534,1.6615161895751953
1667266048204116200,1.0111162109375,10.68963623046875,-1.1635099649429321,1.529910922050476
1667266048206514200,1.01351416015625,10.36630630493164,-1.220937728881836,1.4054841995239258
1667266048208912100,1.015912109375,10.074381828308105,-1.311864972114563,1.2640085220336914
1667266048211309800,1.018309814453125,9.825528144836426,-1.4533406496047974,1.0917253494262695
1667266048213707800,1.020707763671875,9.578767776489258,-1.537089467048645,0.9409775137901306
1667266048216105500,1.02310546875,9.375378608703613,-1.6016956567764282,0.8210372924804688
1667266048218503400,1.02550341796875,9.159725189208984,-1.6974085569381714,0.7396813035011292
1667266048220901000,1.027901123046875,9.001798629760742,-1.7787644863128662,0.6918248534202576
1667266048223299000,1.030299072265625,8.827122688293457,-1.8553348779678345,0.6966105103492737
1667266048225697000,1.032697021484375,8.664112091064453,-1.9606190919876099,0.732502818107605
1667266048228094700,1.0350947265625,8.525327682495117,-1.9920248985290527,0.9553344249725342
1667266048230492700,1.03749267578125,8.429615020751953,-2.025524377822876,1.2352946996688843
1667266048232890400,1.039890380859375,8.44157886505127,-2.0709879398345947,1.1730812788009644
1667266048235288300,1.042288330078125,8.489435195922852,-2.0518453121185303,1.0869396924972534
1667266048237686000,1.04468603515625,8.53729248046875,-1.9606190919876099,1.0821540355682373
1667266048240084000,1.047083984375,8.587541580200195,-1.83619225025177,1.2041879892349243
1667266048242482000,1.04948193359375,8.656932830810547,-1.690230131149292,1.3525429964065552
1667266048244879600,1.051879638671875,8.73619556427002,-1.568196177482605,1.5035899877548218
1667266048247277600,1.054277587890625,8.800801277160645,-1.4222339391708374,1.6758731603622437
1667266048249675300,1.05667529296875,8.865407943725586,-1.3046865463256836,1.8385851383209229
1667266048252073200,1.0590732421875,8.958727836608887,-1.1826525926589966,1.9992033243179321
1667266048254471000,1.061470947265625,9.083154678344727,-1.0295119285583496,2.169093608856201
1667266048256868900,1.063868896484375,9.22433090209961,-0.8811569213867188,2.2959132194519043
1667266048259266600,1.0662666015625,9.423234939575195,-0.7444669604301453,2.386840581893921
1667266048261664500,1.06866455078125,9.652945518493652,-0.5937191247940063,2.427518606185913
1667266048264062500,1.0710625,9.9140625,-0.43579283356666565,2.417947292327881
1667266048266460200,1.073460205078125,10.251450538635254,-0.3089732229709625,2.4131617546081543
1667266048268858000,1.075858154296875,10.629815101623535,-0.22013968229293823,2.386840581893921
1667266048271255800,1.078255859375,11.060822486877441,-0.16271193325519562,2.341377019882202
1667266048273653800,1.08065380859375,11.469995498657227,-0.12203395366668701,2.2432711124420166
1667266048276051500,1.083051513671875,12.032608032226562,-0.1052841991186142,2.159522533416748
1667266048278449400,1.085449462890625,12.655340194702148,-0.10289137065410614,2.0303099155426025
1667266048280847000,1.08784716796875,13.222738265991211,-0.11006984114646912,1.9151554107666016
1667266048283245000,1.0902451171875,13.739587783813477,-0.15074782073497772,1.750050663948059
1667266048285643000,1.09264306640625,14.26870059967041,-0.22971096634864807,1.5945172309875488
1667266048288040700,1.095040771484375,14.79542064666748,-0.3089732229709625,1.4796617031097412
1667266048290438700,1.097438720703125,15.274284362792969,-0.4046861231327057,1.3668999671936035
1667266048292836400,1.09983642578125,15.705291748046875,-0.5506483316421509,1.220937728881836
1667266048295234300,1.102234375,16.088441848754883,-0.732502818107605,1.1060823202133179
1667266048297632000,1.104632080078125,16.42822265625,-0.9218349456787109,1.0247262716293335
1667266048300030000,1.107030029296875,16.730018615722656,-1.103689432144165,0.9649057388305664
1667266048302428000,1.109427978515625,16.983657836914062,-1.2999008893966675,0.9337990283966064
1667266048304825600,1.11182568359375,17.22084617614746,-1.5275181531906128,0.893121063709259
1667266048307223600,1.1142236328125,17.44098472595215,-1.7596219778060913,0.8353942036628723
1667266048309621200,1.116621337890625,17.653945922851562,-1.9462621212005615,0.7875377535820007
1667266048312019200,1.119019287109375,17.83609962463379,-2.1547367572784424,0.732502818107605
1667266048314417000,1.1214169921875,17.99641990661621,-2.317448616027832,0.6367899179458618
1667266048316814800,1.12381494140625,18.106489181518555,-2.475374937057495,0.5554339289665222
1667266048319212800,1.126212890625,18.18784523010254,-2.6407787799835205,0.4740779995918274
1667266048321610500,1.128610595703125,18.178274154663086,-2.753241539001465,0.41904306411743164
1667266048324008400,1.131008544921875,18.130416870117188,-2.834597587585449,0.35922250151634216
1667266048326406100,1.13340625,18.092132568359375,-2.9015965461730957,0.275174617767334
1667266048328804000,1.13580419921875,18.003597259521484,-2.8824539184570312,0.22013968229293823
1667266048331201800,1.138201904296875,17.9102783203125,-2.8896324634552,0.07178468257188797
1667266048333599700,1.140599853515625,17.828922271728516,-2.880061149597168,-0.12681959569454193
1667266048335997700,1.142997802734375,17.608482360839844,-2.98295259475708,-0.16510476171970367
1667266048338395400,1.1453955078125,17.318950653076172,-3.1028928756713867,-0.16031911969184875
1667266048340793300,1.14779345703125,17.019548416137695,-3.169891834259033,-0.14835500717163086
1667266048343191000,1.15019091796875,16.727624893188477,-3.2440693378448486,-0.1339980661869049
1667266048345589000,1.152589111328125,16.440187454223633,-3.3134610652923584,-0.09571290761232376
1667266048347986700,1.154986572265625,16.162620544433594,-3.3469607830047607,-0.040677983313798904
1667266048350384600,1.157384521484375,15.88714599609375,-3.3278181552886963,0
1667266048352782600,1.159782470703125,15.683755874633789,-3.2416765689849854,0.009571290574967861
1667266048355180300,1.16218017578125,15.533008575439453,-3.1172497272491455,-0.016749758273363113
1667266048357578200,1.164578125,15.425031661987305,-2.927917718887329,-0.04307080805301666
1667266048359976000,1.166975830078125,15.307784080505371,-2.691028118133545,-0.10767702013254166
1667266048362374000,1.169373779296875,15.22164249420166,-2.4466612339019775,-0.16031911969184875
1667266048364771600,1.171771484375,15.08764362335205,-2.2025933265686035,-0.2105683982372284
1667266048367169500,1.17416943359375,14.924932479858398,-2.0039889812469482,-0.19621145725250244
1667266048369567500,1.1765673828125,14.733206748962402,-1.8529419898986816,-0.18424734473228455
1667266048371965200,1.178965087890625,14.539388656616211,-1.7548363208770752,-0.15074782073497772
1667266048374363100,1.181363037109375,14.292628288269043,-1.6854444742202759,-0.08853443711996078
1667266048376760800,1.1837607421875,14.02702522277832,-1.6495521068572998,-0.014356935396790504
1667266048379158800,1.18615869140625,13.751851081848145,-1.6064813137054443,0.04307080805301666
1667266048381556500,1.188556396484375,13.447663307189941,-1.572981834411621,0.09571290761232376
1667266048383954400,1.190954345703125,13.148261070251465,-1.5203397274017334,0.13878370821475983
1667266048386352400,1.193352294921875,12.85633659362793,-1.4940186738967896,0.17228323221206665
1667266048388750000,1.19575,12.566506385803223,-1.4916257858276367,0.20099709928035736
1667266048391148000,1.19814794921875,12.253046989440918,-1.4892330169677734,0.23449662327766418
1667266048393545700,1.200545654296875,11.951251983642578,-1.4533406496047974,0.30179476737976074
1667266048395943700,1.202943603515625,11.66411304473877,-1.4605190753936768,0.33768710494041443
1667266048398341400,1.20534130859375,11.34796142578125,-1.4820544719696045,0.38315072655677795
1667266048400739300,1.2077392578125,11.058429718017578,-1.505982756614685,0.4262215197086334
1667266048403137300,1.21013720703125,10.785348892211914,-1.5442678928375244,0.4621138870716095
1667266048405535000,1.212534912109375,10.514960289001465,-1.5945172309875488,0.4812564551830292
1667266048407933000,1.214932861328125,10.261021614074707,-1.6351951360702515,0.5075774788856506
1667266048410330600,1.21733056640625,10.02173900604248,-1.678265929222107,0.5123631358146667
1667266048412728600,1.219728515625,9.796515464782715,-1.7285152673721313,0.5075774788856506
1667266048415126300,1.222126220703125,9.576375007629395,-1.7787644863128662,0.5123631358146667
1667266048417524200,1.224524169921875,9.353842735290527,-1.83619225025177,0.5291129350662231
1667266048419922200,1.226922119140625,9.150154113769531,-1.8744773864746094,0.524327278137207
1667266048422319900,1.22931982421875,8.922835350036621,-1.9103697538375854,0.48843491077423096
1667266048424717800,1.2317177734375,8.717052459716797,-1.92951238155365,0.4740779995918274
1667266048427115500,1.234115478515625,8.525327682495117,-1.934298038482666,0.44775694608688354
1667266048429513500,1.236513427734375,8.357830047607422,-1.9414764642715454,0.4094717800617218
1667266048431911200,1.2389111328125,8.183154106140137,-1.9319051504135132,0.36640095710754395
1667266048434309000,1.24130908203125,8.027321815490723,-1.9079769849777222,0.3161516785621643
1667266048436707000,1.24370703125,7.874181270599365,-1.8625133037567139,0.24885354936122894
1667266048439104800,1.246104736328125,7.761718273162842,-1.800299882888794,0.15553347766399384
1667266048441502700,1.248502685546875,7.701898097991943,-1.7117655277252197,0.06939185410737991
1667266048443900400,1.250900390625,7.6636128425598145,-1.6328023672103882,-0.009571290574967861
1667266048446298400,1.25329833984375,7.692326545715332,-1.5442678928375244,-0.05024927482008934
1667266048448696000,1.255696044921875,7.744968891143799,-1.4318052530288696,-0.10767702013254166
1667266048451094000,1.258093994140625,7.744968891143799,-1.3262219429016113,-0.1579262912273407
1667266048453492000,1.260491943359375,7.790432453155518,-1.220937728881836,-0.19142581522464752
1667266048455889700,1.2628896484375,7.871788501739502,-1.1228320598602295,-0.21296121180057526
1667266048458287600,1.26528759765625,7.969893932342529,-1.0055837631225586,-0.1866401731967926
1667266048460685300,1.267685302734375,8.079963684082031,-0.9074779748916626,-0.12921242415905
1667266048463083300,1.270083251953125,8.207082748413086,-0.8377870321273804,-0.04307080805301666
1667266048465481000,1.27248095703125,8.312366485595703,-0.7923234105110168,0.05503492057323456
1667266048467879000,1.27487890625,8.424829483032227,-0.7468597888946533,0.20338992774486542
1667266048470276900,1.27727685546875,8.525327682495117,-0.7229315638542175,0.3520440459251404
1667266048472674600,1.279674560546875,8.628219604492188,-0.6966105103492737,0.5099703073501587
1667266048475072500,1.282072509765625,8.752944946289062,-0.7037889361381531,0.6870391964912415
1667266048477470200,1.28447021484375,8.863015174865723,-0.7205387353897095,0.8377870321273804
1667266048479868200,1.2868681640625,8.958727836608887,-0.732502818107605,0.9625129103660583
1667266048482265900,1.289265869140625,9.05444049835205,-0.7492526173591614,1.074975609779358
1667266048484663800,1.291663818359375,9.123832702636719,-0.7923234105110168,1.1491531133651733
1667266048487061500,1.2940615234375,9.164510726928711,-0.8066803216934204,1.2041879892349243
1667266048489459500,1.29645947265625,9.20279598236084,-0.8186444640159607,1.225723385810852
1667266048491857400,1.298857421875,9.241081237792969,-0.8353942036628723,1.2448660135269165
1667266048494255000,1.301255126953125,9.289237022399902,-0.857228696346283,1.2640085220336914
1667266048496653000,1.303653076171875,9.346664428710938,-0.8476574420928955,1.256830096244812
1667266048499050800,1.30605078125,9.377771377563477,-0.8500502705574036,1.2544373273849487
1667266048501448700,1.30844873046875,9.396913528442383,-0.8428717851638794,1.256830096244812
1667266048503846400,1.310846435546875,9.420842170715332,-0.8452646136283875,1.2592228651046753
1667266048506244400,1.313244384765625,9.454340934753418,-0.8306085467338562,1.2544373273849487
1667266048508642000,1.31564208984375,9.502198219299316,-0.8162516355514526,1.2329018115997314
1667266048511040000,1.3180400390625,9.554840087890625,-0.7923234105110168,1.201795220375061
1667266048513438000,1.32043798828125,9.621838569641113,-0.7803592681884766,1.165902853012085
1667266048515835600,1.322835693359375,9.667302131652832,-0.7468597888946533,1.103689432144165
1667266048518233600,1.325233642578125,9.710372924804688,-0.7444669604301453,1.0319048166275024
1667266048520631300,1.32763134765625,9.763015747070312,-0.7468597888946533,0.9744769930839539
1667266048523029200,1.330029296875,9.806086540222168,-0.7468597888946533,0.9553344249725342
1667266048525427000,1.332427001953125,9.842277526855469,-0.7588238716125488,0.9266205430030823
1667266048527825000,1.334824951171875,9.866206169128418,-0.7516453862190247,0.9026923179626465
1667266048530222800,1.337222900390625,9.885348320007324,-0.768395185470581,0.9026923179626465
1667266048532620500,1.33962060546875,9.902098655700684,-0.7636095285415649,0.9002995491027832
1667266048535018500,1.3420185546875,9.90688419342041,-0.7372884750366211,0.9170492887496948
1667266048537416200,1.344416259765625,9.892526626586914,-0.7396813035011292,0.9314061999320984
1667266048539814100,1.346814208984375,9.897313117980957,-0.7277171611785889,0.9361918568611145
1667266048542211800,1.3492119140625,9.894919395446777,-0.7253243923187256,0.9505487680435181
1667266048544609800,1.35160986328125,9.89013385772705,-0.7061817646026611,0.9505487680435181
1667266048547007700,1.3540078125,9.868598937988281,-0.6846463680267334,0.9481559991836548
1667266048549405400,1.356405517578125,9.847063064575195,-0.6559324860572815,0.9720842242240906
1667266048551803400,1.358803466796875,9.825528144836426,-0.643968403339386,0.9912267923355103
1667266048554201000,1.361201171875,9.791728973388672,-0.6152545213699341,1.0007981061935425
1667266048556599000,1.36359912109375,9.734301567077637,-0.5841478109359741,1.0103694200515747
1667266048558996700,1.365996826171875,9.679266929626465,-0.5602195858955383,1.0319048166275024
1667266048561394700,1.368394775390625,9.581160545349121,-0.5626124143600464,1.0271191596984863
1667266048563792600,1.370792724609375,9.478269577026367,-0.5697908997535706,1.0007981061935425
1667266048566190300,1.3731904296875,9.37059211730957,-0.5626124143600464,0.9960124492645264
1667266048568588300,1.37558837890625,9.245866775512695,-0.5673980712890625,0.9720842242240906
1667266048570986000,1.377986083984375,9.09272575378418,-0.579362154006958,0.9314061999320984
1667266048573384000,1.380384033203125,8.975478172302246,-0.5913262963294983,0.8859425783157349
1667266048575781600,1.38278173828125,8.805587768554688,-0.6032904386520386,0.8306085467338562
1667266048578179600,1.3851796875,8.642576217651367,-0.6224330067634583,0.7707880139350891
1667266048580577500,1.38757763671875,8.508578300476074,-0.6224330067634583,0.6942176818847656
1667266048582975200,1.389975341796875,8.388936996459961,-0.6487540602684021,0.5961119532585144
1667266048585373200,1.392373291015625,8.274081230163574,-0.6559324860572815,0.490827739238739
1667266048587771000,1.39477099609375,8.142476081848145,-0.6655037999153137,0.4262215197086334
1667266048590168800,1.3971689453125,8.036892890930176,-0.7037889361381531,0.3496512174606323
1667266048592566500,1.39956640625,7.936394691467285,-0.7205387353897095,0.26560330390930176
1667266048594964500,1.401964599609375,7.826324462890625,-0.7229315638542175,0.18424734473228455
1667266048597362400,1.404362548828125,7.747361660003662,-0.734895646572113,0.12203395366668701
1667266048599760100,1.406760009765625,7.670791149139404,-0.766002357006073,0.0526420995593071
1667266048602158000,1.409157958984375,7.618149280548096,-0.766002357006073,-0.01196411345154047
1667266048604555800,1.4115556640625,7.558029651641846,-0.7444669604301453,-0.035892341285943985
1667266048606953700,1.41395361328125,7.500601768493652,-0.7420741319656372,-0.08135596662759781
1667266048609351400,1.416351318359375,7.45992374420166,-0.7444669604301453,-0.1339980661869049
1667266048611749400,1.418749267578125,7.440781116485596,-0.7468597888946533,-0.15553347766399384
1667266048614147300,1.421147216796875,7.438388347625732,-0.7181459069252014,-0.20099709928035736
1667266048616545000,1.423544921875,7.457530975341797,-0.732502818107605,-0.21296121180057526
1667266048618943000,1.42594287109375,7.474280834197998,-0.7205387353897095,-0.2105683982372284
1667266048621340700,1.428340576171875,7.45274543762207,-0.6894320249557495,-0.23449662327766418
1667266048623738600,1.430738525390625,7.433602809906006,-0.6607181429862976,-0.2512463629245758
1667266048626136300,1.43313623046875,7.433602809906006,-0.643968403339386,-0.24885354936122894
1667266048628534300,1.4355341796875,7.409674644470215,-0.6320042610168457,-0.23210379481315613
1667266048630932200,1.43793212890625,7.385746002197266,-0.6200401782989502,-0.2105683982372284
1667266048633330000,1.440329833984375,7.366603374481201,-0.6080760359764099,-0.18424734473228455
1667266048635728000,1.442727783203125,7.357032299041748,-0.5961119532585144,-0.16510476171970367
1667266048638125600,1.44512548828125,7.3522467613220215,-0.5817549824714661,-0.12921242415905
1667266048640523500,1.4475234375,7.3283185958862305,-0.5961119532585144,-0.07896314561367035
1667266048642921200,1.449921142578125,7.3043904304504395,-0.5673980712890625,-0.03349951654672623
1667266048645319200,1.452319091796875,7.285247802734375,-0.5554339289665222,0.031106693670153618
1667266048647717000,1.454717041015625,7.254140853881836,-0.5434698462486267,0.07178468257188797
1667266048650114800,1.45711474609375,7.244569778442383,-0.521934449672699,0.11485548317432404
1667266048652512800,1.4595126953125,7.237390995025635,-0.5051847100257874,0.14117653667926788
1667266048654910500,1.461910400390625,7.2349982261657715,-0.47168517112731934,0.14835500717163086
1667266048657308400,1.464308349609375,7.237390995025635,-0.4501497745513916,0.1698904037475586
1667266048659706000,1.4667060546875,7.225427150726318,-0.4262215197086334,0.1746760457754135
1667266048662104000,1.46910400390625,7.220641613006592,-0.3975076675415039,0.1818545162677765
1667266048664502000,1.471501953125,7.196712970733643,-0.37597227096557617,0.19381862878799438
1667266048666899700,1.473899658203125,7.191927433013916,-0.37118661403656006,0.2105683982372284
1667266048669297700,1.476297607421875,7.182356357574463,-0.368793785572052,0.2225325107574463
1667266048671695400,1.4786953125,7.175177574157715,-0.3329014480113983,0.22013968229293823
1667266048674093300,1.48109326171875,7.165606498718262,-0.30658039450645447,0.20817556977272034
1667266048676491000,1.483490966796875,7.165606498718262,-0.30658039450645447,0.2105683982372284
1667266048678889000,1.485888916015625,7.165606498718262,-0.28504499793052673,0.22013968229293823
1667266048681286700,1.48828662109375,7.144071102142334,-0.25363919138908386,0.23449662327766418
1667266048683684600,1.4906845703125,7.139285564422607,-0.23210379481315613,0.21774685382843018
1667266048686082600,1.49308251953125,7.141678333282471,-0.22013968229293823,0.20817556977272034
1667266048688480300,1.495480224609375,7.1488566398620605,-0.1986042857170105,0.2153540402650833
1667266048690878200,1.497878173828125,7.175177574157715,-0.17706887423992157,0.2105683982372284
1667266048693276000,1.50027587890625,7.215855598449707,-0.18424734473228455,0.1986042857170105
1667266048695673900,1.502673828125,7.223034381866455,-0.14835500717163086,0.19621145725250244
1667266048698071800,1.50507177734375,7.213462829589844,-0.13160525262355804,0.20817556977272034
1667266048700469500,1.507469482421875,7.199106216430664,-0.11485548317432404,0.2512463629245758
1667266048702867500,1.509867431640625,7.196712970733643,-0.07417750358581543,0.31854450702667236
1667266048705265200,1.51226513671875,7.196712970733643,-0.05503492057323456,0.36640095710754395
1667266048707663000,1.5146630859375,7.167999267578125,-0.040677983313798904,0.3807578980922699
1667266048710060800,1.517060791015625,7.146463871002197,-0.009571290574967861,0.43100717663764954
1667266048712458800,1.519458740234375,7.084250450134277,-0.02392822690308094,0.4549354016780853
1667266048714856400,1.5218564453125,7.026822566986084,-0.02153540402650833,0.4453641176223755
1667266048717254400,1.52425439453125,6.961917400360107,-0.035892341285943985,0.42382872104644775
1667266048719652400,1.52665234375,6.937989234924316,-0.04546362906694412,0.41186460852622986
1667266048722050000,1.529050048828125,6.909275531768799,-0.0526420995593071,0.385543555021286
1667266048724448000,1.531447998046875,6.8757758140563965,-0.06699903309345245,0.35443684458732605
1667266048726845700,1.533845703125,6.842276573181152,-0.06939185410737991,0.32572299242019653
1667266048729243600,1.53624365234375,6.823133945465088,-0.04546362906694412,0.2727817893028259
1667266048731641300,1.538641357421875,6.823133945465088,-0.02632104977965355,0.21296121180057526
1667266048734039300,1.541039306640625,6.825526714324951,-0.038285162299871445,0.15074782073497772
1667266048736437200,1.543437255859375,6.80159854888916,-0.031106693670153618,0.08374879509210587
1667266048738835000,1.5458349609375,6.784848690032959,-0.02153540402650833,0.03349951654672623
1667266048741233000,1.54823291015625,6.748956203460693,-0.0023928226437419653,-0.014356935396790504
1667266048743630600,1.550630615234375,6.736992359161377,-0.02632104977965355,-0.0526420995593071
1667266048746028500,1.553028564453125,6.751348972320557,-0.05503492057323456,-0.12203395366668701
1667266048748426200,1.55542626953125,6.696314334869385,-0.064606212079525,-0.15553347766399384
1667266048750824200,1.55782421875,6.502495765686035,-0.07657032459974289,-0.21296121180057526
1667266048753222100,1.56022216796875,6.353841304779053,-0.09810572862625122,-0.28983065485954285
1667266048755619800,1.562619873046875,6.317949295043945,-0.11964113265275955,-0.3520440459251404
1667266048758017800,1.565017822265625,6.2653069496154785,-0.14356936514377594,-0.4453641176223755
1667266048760415500,1.56741552734375,6.198307991027832,-0.19142581522464752,-0.5482555031776428
1667266048762813400,1.5698134765625,6.1241302490234375,-0.19621145725250244,-0.5961119532585144
1667266048765211100,1.572211181640625,6.023632049560547,-0.2153540402650833,-0.6583253145217896
1667266048767609000,1.574609130859375,5.97098970413208,-0.20817556977272034,-0.7085745930671692
1667266048770007000,1.577007080078125,5.927918910980225,-0.20338992774486542,-0.7612167000770569
1667266048772404700,1.57940478515625,5.925526142120361,-0.18903298676013947,-0.7923234105110168
1667266048774802700,1.581802734375,5.9183478355407715,-0.1746760457754135,-0.8428717851638794
1667266048777200400,1.584200439453125,5.903990745544434,-0.17946170270442963,-0.8330013751983643
1667266048779598300,1.586598388671875,5.8944196701049805,-0.17706887423992157,-0.8306085467338562
1667266048781996000,1.58899609375,5.889334678649902,-0.1866401731967926,-0.7995018362998962
1667266048784394000,1.59139404296875,5.884549140930176,-0.20817556977272034,-0.7588238716125488
1667266048786792000,1.5937919921875,5.877370834350586,-0.2225325107574463,-0.734895646572113
1667266048789189600,1.596189697265625,5.84147834777832,-0.23449662327766418,-0.7420741319656372
1667266048791587600,1.598587646484375,5.819942951202393,-0.20817556977272034,-0.7396813035011292
1667266048793985300,1.6009853515625,5.793622016906738,-0.15553347766399384,-0.7564310431480408
1667266048796383200,1.60338330078125,5.762515068054199,-0.1052841991186142,-0.766002357006073
1667266048798781000,1.605781005859375,5.729015827178955,-0.05742774158716202,-0.7803592681884766
1667266048801179000,1.608178955078125,5.695516109466553,-0.014356935396790504,-0.8258228898048401
1667266048803576800,1.610576904296875,5.688337802886963,0.007178467698395252,-0.8500502705574036
1667266048805974500,1.612974609375,5.681159019470215,0.031106693670153618,-0.8739784955978394
1667266048808372500,1.61537255859375,5.657230854034424,0.035892341285943985,-0.8883354067802429
1667266048810770200,1.617770263671875,5.642873764038086,0.038285162299871445,-0.8787640929222107
1667266048813168000,1.620168212890625,5.652445316314697,0.040677983313798904,-0.8691928386688232
1667266048815565800,1.62256591796875,5.611767292022705,0.05503492057323456,-0.8282157182693481
1667266048817963800,1.6249638671875,5.5758748054504395,0.05503492057323456,-0.7755736112594604
1667266048820361700,1.62736181640625,5.573482036590576,0.064606212079525,-0.7492526173591614
1667266048822759400,1.629759521484375,5.547161102294922,0.040677983313798904,-0.7301099896430969
1667266048825157400,1.632157470703125,5.532804012298584,0.03349951654672623,-0.6870391964912415
1667266048827555000,1.63455517578125,5.537590026855469,0.031106693670153618,-0.6272186636924744
1667266048829953000,1.636953125,5.528018474578857,0.035892341285943985,-0.5721837282180786
1667266048832350700,1.639350830078125,5.556732177734375,0.031106693670153618,-0.5171487927436829
1667266048834748700,1.641748779296875,5.628517150878906,0.05503492057323456,-0.4668995141983032
1667266048837146400,1.644146484375,5.700301647186279,0.07657032459974289,-0.41186460852622986
1667266048839544300,1.64654443359375,5.743372440338135,0.1052841991186142,-0.35922250151634216
1667266048841942300,1.6489423828125,5.8944196701049805,0.1339980661869049,-0.2799602448940277
1667266048844340000,1.651340087890625,6.006882190704346,0.17706887423992157,-0.22013968229293823
1667266048846738000,1.653738037109375,6.081059455871582,0.18424734473228455,-0.15314064919948578
1667266048849135600,1.656135498046875,6.109773635864258,0.20578274130821228,-0.08614161610603333
1667266048851533600,1.658533447265625,6.1313090324401855,0.19142581522464752,-0.014356935396790504
1667266048853931300,1.66093115234375,6.104988098144531,0.1818545162677765,0.064606212079525
1667266048856329200,1.6633291015625,6.081059455871582,0.16271193325519562,0.15074782073497772
1667266048858727000,1.665726806640625,6.021239280700684,0.13878370821475983,0.23688943684101105
1667266048861124900,1.668124755859375,5.954239845275879,0.12681959569454193,0.31854450702667236
1667266048863522800,1.670522705078125,5.884549140930176,0.12921242415905,0.4046861231327057
1667266048865920500,1.67292041015625,5.831906795501709,0.14356936514377594,0.48364928364753723
1667266048868318500,1.675318359375,5.7888360023498535,0.16031911969184875,0.5482555031776428
1667266048870716200,1.677716064453125,5.78644323348999,0.19381862878799438,0.6056832075119019
1667266048873114000,1.680114013671875,5.7792649269104,0.21774685382843018,0.6894320249557495
1667266048875511800,1.68251171875,5.791228771209717,0.2512463629245758,0.7444669604301453
1667266048877909800,1.68490966796875,5.805585861206055,0.28983065485954285,0.8306085467338562
1667266048880307700,1.6873076171875,5.8582282066345215,0.34725838899612427,0.9098708033561707
1667266048882705400,1.689705322265625,5.90877628326416,0.4046861231327057,0.9888339638710022
1667266048885103400,1.692103271484375,5.9662041664123535,0.4788636267185211,1.0654042959213257
1667266048887501000,1.6945009765625,6.011667728424072,0.521934449672699,1.1180464029312134
1667266048889899000,1.69689892578125,6.090631008148193,0.6080760359764099,1.1730812788009644
1667266048892296700,1.699296630859375,6.155237197875977,0.6678966283798218,1.2161520719528198
1667266048894694700,1.701694580078125,6.22702169418335,0.7277171611785889,1.280758261680603
1667266048897092600,1.704092529296875,6.28205680847168,0.7827520966529846,1.3142578601837158
1667266048899490300,1.706490234375,6.356234073638916,0.859621524810791,1.350150227546692
1667266048901888300,1.70888818359375,6.451947212219238,0.9122636318206787,1.3980066776275635
1667266048904286000,1.711285888671875,6.547959327697754,0.9529415965080261,1.4629119634628296
1667266048906684000,1.713683837890625,6.686742782592773,0.981655478477478,1.5035899877548218
1667266048909081600,1.71608154296875,6.832705020904541,1.0390832424163818,1.5705889463424683
1667266048911479600,1.7184794921875,7.022037029266357,1.072582721710205,1.6136597394943237
1667266048913877500,1.72087744140625,7.2182488441467285,1.1132607460021973,1.683051586151123
1667266048916275200,1.723275146484375,7.457530975341797,1.1443674564361572,1.7476578950881958
1667266048918673200,1.725673095703125,7.71386194229126,1.1850453615188599,1.8194425106048584
1667266048921070800,1.72807080078125,8.005785942077637,1.2376874685287476,1.903191328048706
1667266048923468800,1.73046875,8.305188179016113,1.256830096244812,1.9872392416000366
1667266048925866500,1.732866455078125,8.623434066772461,1.2664014101028442,2.0997018814086914
1667266048928264400,1.735264404296875,8.908478736877441,1.292722463607788,2.173879384994507
1667266048930662400,1.737662353515625,9.193224906921387,1.2903295755386353,2.2671995162963867
1667266048933060000,1.74006005859375,9.456734657287598,1.2783654928207397,2.3198416233062744
1667266048935458000,1.7424580078125,9.674481391906738,1.256830096244812,2.3509483337402344
1667266048937855700,1.744855712890625,9.880562782287598,1.220937728881836,2.3820550441741943
1667266048940253700,1.747253662109375,10.086345672607422,1.1778669357299805,2.4155545234680176
1667266048942651400,1.7496513671875,10.275378227233887,1.1395817995071411,2.4059832096099854
1667266048945049300,1.75204931640625,10.445568084716797,1.072582721710205,2.3988046646118164
1667266048947447300,1.754447265625,10.615458488464355,1.0103694200515747,2.372483730316162
1667266048949845000,1.756844970703125,10.754241943359375,0.9577272534370422,2.338984251022339
1667266048952243000,1.759242919921875,10.897811889648438,0.9002995491027832,2.3150558471679688
1667266048954640600,1.761640625,11.027322769165039,0.8428717851638794,2.2480568885803223
1667266048957038600,1.76403857421875,11.142178535461426,0.8066803216934204,2.200200319290161
1667266048959436300,1.766436279296875,11.25464153289795,0.7755736112594604,2.14516544342041
1667266048961834200,1.768834228515625,11.379068374633789,0.7588238716125488,2.0614166259765625
1667266048964232000,1.77123193359375,11.506186485290527,0.7181459069252014,1.9896320104599
1667266048966630000,1.7736298828125,11.623435020446777,0.7037889361381531,1.8888343572616577
1667266048969027600,1.776027587890625,11.740683555603027,0.6918248534202576,1.812264084815979
1667266048971425500,1.778425537109375,11.824432373046875,0.6559324860572815,1.714158296585083
1667266048973823500,1.780823486328125,11.908181190490723,0.6296114325523376,1.6399807929992676
1667266048976221200,1.78322119140625,11.977572441101074,0.5650052428245544,1.55623197555542
1667266048978619100,1.785619140625,12.054142951965332,0.490827739238739,1.4413765668869019
1667266048981016800,1.788016845703125,12.097513198852539,0.4094717800617218,1.3573286533355713
1667266048983414800,1.790414794921875,12.133405685424805,0.3209373354911804,1.2855439186096191
1667266048985812500,1.7928125,12.157333374023438,0.24406790733337402,1.1922239065170288
1667266048988210400,1.79521044921875,12.166905403137207,0.16271193325519562,1.0893324613571167
1667266048990608400,1.7976083984375,12.164511680603027,0.09810572862625122,0.9984052777290344
1667266048993006000,1.800006103515625,12.150155067443848,0.0526420995593071,0.9170492887496948
1667266048995404000,1.802404052734375,12.126227378845215,-0.009571290574967861,0.8401798605918884
1667266048997801700,1.8048017578125,12.085549354553223,-0.04546362906694412,0.766002357006073
1667266049000199700,1.80719970703125,12.049357414245605,-0.08374879509210587,0.6990033388137817
1667266049002597400,1.809597412109375,12.00628662109375,-0.11006984114646912,0.6415755748748779
1667266049004995300,1.811995361328125,11.982358932495117,-0.12203395366668701,0.5961119532585144
1667266049007393300,1.814393310546875,11.953644752502441,-0.11724831163883209,0.521934449672699
1667266049009791000,1.816791015625,11.936894416809082,-0.12921242415905,0.4812564551830292
1667266049012189000,1.81918896484375,11.917752265930176,-0.13639089465141296,0.45254257321357727
1667266049014586600,1.821586669921875,11.915359497070312,-0.14835500717163086,0.41904306411743164
1667266049016984600,1.823984619140625,11.903395652770996,-0.12442677468061447,0.38315072655677795
1667266049019382300,1.82638232421875,11.896217346191406,-0.15314064919948578,0.3735794425010681
1667266049021780200,1.8287802734375,11.86750316619873,-0.1866401731967926,0.3735794425010681
1667266049024178200,1.83117822265625,11.819646835327148,-0.19621145725250244,0.3640081584453583
1667266049026576000,1.833575927734375,11.771790504455566,-0.20338992774486542,0.3568296730518341
1667266049028973800,1.835973876953125,11.726326942443848,-0.23688943684101105,0.34247273206710815
1667266049031371500,1.83837158203125,11.661720275878906,-0.275174617767334,0.30179476737976074
1667266049033769500,1.84076953125,11.582756996154785,-0.2826521694660187,0.27038896083831787
1667266049036167200,1.843167236328125,11.534900665283203,-0.27756741642951965,0.25363919138908386
1667266049038565000,1.845565185546875,11.45803165435791,-0.2994019389152527,0.19142581522464752
1667266049040963000,1.847963134765625,11.424531936645508,-0.3161516785621643,0.1459621787071228
1667266049043360800,1.85036083984375,11.414960861206055,-0.31854450702667236,0.10049854964017868
1667266049045758700,1.8527587890625,11.400603294372559,-0.3041875660419464,0.059820566326379776
1667266049048156400,1.855156494140625,11.400603294372559,-0.2922234535217285,0.014356935396790504
1667266049050554400,1.857554443359375,11.422139167785645,-0.3113660514354706,-0.040677983313798904
1667266049052952000,1.8599521484375,11.417353630065918,-0.3089732229709625,-0.08614161610603333
1667266049055350000,1.86235009765625,11.429317474365234,-0.3089732229709625,-0.12921242415905
1667266049057747700,1.864747802734375,11.453245162963867,-0.30658039450645447,-0.15553347766399384
1667266049060145700,1.867145751953125,11.462817192077637,-0.31854450702667236,-0.18424734473228455
1667266049062543400,1.86954345703125,11.45563793182373,-0.33529427647590637,-0.20578274130821228
1667266049064941300,1.87194140625,11.402996063232422,-0.3233301639556885,-0.22013968229293823
1667266049067339300,1.87433935546875,11.338390350341797,-0.3161516785621643,-0.23210379481315613
1667266049069737000,1.876737060546875,11.273783683776855,-0.3209373354911804,-0.23210379481315613
1667266049072135000,1.879135009765625,11.199605941772461,-0.33768710494041443,-0.2632105052471161
1667266049074532600,1.88153271484375,11.087143898010254,-0.33050861954689026,-0.2874378263950348
1667266049076930600,1.8839306640625,10.969895362854004,-0.33529427647590637,-0.3113660514354706
1667266049079328300,1.886328369140625,10.830812454223633,-0.3161516785621643,-0.32572299242019653
1667266049081726200,1.888726318359375,10.6657075881958,-0.3089732229709625,-0.33768710494041443
1667266049084124200,1.891124267578125,10.505388259887695,-0.29700911045074463,-0.3640081584453583
1667266049086521900,1.89352197265625,10.304092407226562,-0.2679961323738098,-0.385543555021286
1667266049088919800,1.895919921875,10.12463092803955,-0.24406790733337402,-0.385543555021286
1667266049091317500,1.8983173828125,9.971489906311035,-0.22492532432079315,-0.36640095710754395
1667266049093715500,1.900715576171875,9.818050384521484,-0.16749759018421173,-0.35922250151634216
1667266049096113200,1.903113037109375,9.679266929626465,-0.1052841991186142,-0.35922250151634216
1667266049098511000,1.905510986328125,9.559625625610352,-0.05024927482008934,-0.35443684458732605
1667266049100909000,1.907908935546875,9.478269577026367,0.014356935396790504,-0.3329014480113983
1667266049103306800,1.910306640625,9.382556915283203,0.09571290761232376,-0.3161516785621643
1667266049105704700,1.91270458984375,9.325128555297852,0.1459621787071228,-0.275174617767334
1667266049108102400,1.915102294921875,9.274879455566406,0.19381862878799438,-0.2512463629245758
1667266049110500400,1.917500244140625,9.233902931213379,0.24167509377002716,-0.19621145725250244
1667266049112898000,1.91989794921875,9.205188751220703,0.30179476737976074,-0.1459621787071228
1667266049115296000,1.9222958984375,9.169296264648438,0.35443684458732605,-0.08614161610603333
1667266049117694000,1.92469384765625,9.138189315795898,0.41186460852622986,0.004785645287483931
1667266049120091600,1.927091552734375,9.109476089477539,0.4621138870716095,0.10049854964017868
1667266049122489600,1.929489501953125,9.073583602905273,0.5099703073501587,0.1818545162677765
1667266049124887300,1.93188720703125,9.059226989746094,0.5697908997535706,0.2679961323738098
1667266049127285200,1.93428515625,9.018548965454102,0.6080760359764099,0.3400799036026001
1667266049129683000,1.936682861328125,8.987442016601562,0.6583253145217896,0.3975076675415039
1667266049132081000,1.939080810546875,8.975478172302246,0.6942176818847656,0.44297128915786743
1667266049134478600,1.941478515625,8.95394229888916,0.7301099896430969,0.4788636267185211
1667266049136876500,1.94387646484375,8.93240737915039,0.7923234105110168,0.521934449672699
1667266049139274500,1.9462744140625,8.930013656616211,0.8401798605918884,0.5602195858955383
1667266049141672200,1.948672119140625,8.925228118896484,0.8811569213867188,0.5769693851470947
1667266049144070100,1.951070068359375,8.910871505737305,0.9170492887496948,0.579362154006958
1667266049146467800,1.9534677734375,8.906085968017578,0.9361918568611145,0.5913262963294983
1667266049148865800,1.95586572265625,8.865407943725586,0.9625129103660583,0.5841478109359741
1667266049151263500,1.958263427734375,8.8438720703125,0.981655478477478,0.5913262963294983
1667266049153661400,1.960661376953125,8.817551612854004,0.9936196208000183,0.5913262963294983
1667266049156059100,1.96305908203125,8.788837432861328,1.0223335027694702,0.5745765566825867
1667266049158457000,1.96545703125,8.767302513122559,1.0151549577713013,0.5530411601066589
1667266049160855000,1.96785498046875,8.72901725769043,0.9936196208000183,0.5075774788856506
1667266049163252700,1.970252685546875,8.695218086242676,0.9912267923355103,0.48364928364753723
1667266049165650700,1.972650634765625,8.666504859924316,0.9864411354064941,0.47168517112731934
1667266049168048400,1.97504833984375,8.64496898651123,0.9888339638710022,0.4286143481731415
1667266049170446300,1.9774462890625,8.63061237335205,0.9577272534370422,0.35922250151634216
1667266049172844000,1.979843994140625,8.625826835632324,0.9314061999320984,0.30658039450645447
1667266049175242000,1.982241943359375,8.611469268798828,0.9050851464271545,0.24885354936122894
1667266049177640000,1.984639892578125,8.628219604492188,0.8955138921737671,0.20817556977272034
1667266049180037600,1.98703759765625,8.635397911071777,0.8739784955978394,0.17228323221206665
1667266049182435600,1.989435546875,8.656932830810547,0.859621524810791,0.12681959569454193
1667266049184833300,1.991833251953125,8.69043254852295,0.857228696346283,0.0933200865983963
1667266049187231200,1.994231201171875,8.724231719970703,0.8428717851638794,0.0526420995593071
1667266049189629000,1.99662890625,8.786444664001465,0.8353942036628723,0.009571290574967861
1667266049192027000,1.99902685546875,8.848658561706543,0.8018946647644043,-0.062213387340307236
1667266049194424800,2.0014248046875,8.891729354858398,0.7947162389755249,-0.13878370821475983
1667266049196822500,2.003822509765625,8.949156761169434,0.766002357006073,-0.19142581522464752
1667266049199220500,2.006220458984375,8.994620323181152,0.7612167000770569,-0.24406790733337402
1667266049201618200,2.0086181640625,9.035298347473145,0.7420741319656372,-0.2874378263950348
1667266049204016000,2.01101611328125,9.07119083404541,0.7181459069252014,-0.3281157910823822
1667266049206413800,2.013413818359375,9.097511291503906,0.7037889361381531,-0.3568296730518341
1667266049208811800,2.015811767578125,9.138189315795898,0.6942176818847656,-0.39032918214797974
1667266049211209500,2.01820947265625,9.174081802368164,0.675075113773346,-0.3927220106124878
1667266049213607400,2.020607421875,9.19561767578125,0.675075113773346,-0.40229329466819763
1667266049216005400,2.02300537109375,9.176474571228027,0.6511468887329102,-0.4142574071884155
1667266049218403000,2.025403076171875,9.1716890335083,0.6535396575927734,-0.41904306411743164
1667266049220801000,2.027801025390625,9.162117958068848,0.6678966283798218,-0.4381856322288513
1667266049223198700,2.03019873046875,9.154939651489258,0.6894320249557495,-0.44297128915786743
1667266049225596700,2.0325966796875,9.131011009216309,0.6870391964912415,-0.43100717663764954
1667266049227994400,2.034994384765625,9.107083320617676,0.701396107673645,-0.43579283356666565
1667266049230392300,2.037392333984375,9.10229778289795,0.7157530784606934,-0.4501497745513916
1667266049232790000,2.0397900390625,9.078369140625,0.6990033388137817,-0.44775694608688354
1667266049235188000,2.04218798828125,9.052047729492188,0.7133602499961853,-0.44297128915786743
1667266049237586000,2.0445859375,9.040083885192871,0.7205387353897095,-0.4573282301425934
1667266049239983600,2.046983642578125,9.061619758605957,0.7444669604301453,-0.43579283356666565
1667266049242381600,2.049381591796875,9.08554744720459,0.7277171611785889,-0.4142574071884155
1667266049244779300,2.051779296875,9.114261627197266,0.732502818107605,-0.37597227096557617
1667266049247177200,2.05417724609375,9.159725189208984,0.7253243923187256,-0.3520440459251404
1667266049249575000,2.056574951171875,9.212367057800293,0.7301099896430969,-0.3400799036026001
1667266049251972900,2.058972900390625,9.294022560119629,0.7277171611785889,-0.30179476737976074
1667266049254370800,2.061370849609375,9.382556915283203,0.7396813035011292,-0.27038896083831787
1667266049256768500,2.0637685546875,9.471091270446777,0.7396813035011292,-0.23210379481315613
1667266049259166500,2.06616650390625,9.578767776489258,0.7803592681884766,-0.19621145725250244
1667266049261564200,2.068564208984375,9.724730491638184,0.797109067440033,-0.14117653667926788
1667266049263962000,2.070962158203125,9.866206169128418,0.7995018362998962,-0.08853443711996078
1667266049266359800,2.07335986328125,9.993025779724121,0.8018946647644043,-0.01196411345154047
1667266049268757800,2.0757578125,10.12463092803955,0.8162516355514526,0.035892341285943985
1667266049271155700,2.07815576171875,10.25623607635498,0.8162516355514526,0.08374879509210587
1667266049273553400,2.080553466796875,10.371091842651367,0.8090731501579285,0.1052841991186142
1667266049275951400,2.082951416015625,10.474282264709473,0.8018946647644043,0.12921242415905
1667266049278349000,2.08534912109375,10.55085277557373,0.7851449251174927,0.1339980661869049
1667266049280747000,2.0877470703125,10.593923568725586,0.7636095285415649,0.1339980661869049
1667266049283144700,2.090144775390625,10.629815101623535,0.734895646572113,0.11964113265275955
1667266049285542700,2.092542724609375,10.641779899597168,0.6822535395622253,0.10767702013254166
1667266049287940400,2.0949404296875,10.648958206176758,0.6583253145217896,0.09092725813388824
1667266049290338300,2.09733837890625,10.613065719604492,0.610468864440918,0.08374879509210587
1667266049292736300,2.099736328125,10.560423851013184,0.5650052428245544,0.05742774158716202
1667266049295134000,2.102134033203125,10.512567520141602,0.5147559642791748,0.0023928226437419653
1667266049297532000,2.104531982421875,10.469496726989746,0.4812564551830292,-0.04785645380616188
1667266049299929600,2.1069296875,10.424033164978027,0.41904306411743164,-0.0933200865983963
