time,seconds_elapsed,z,y,x
1667266547112254500,0.06525439453125,-0.13682979345321655,-0.10689827054738998,-0.21868331730365753
1667266547114652400,0.06765234375,-0.1447708010673523,-0.09345962852239609,-0.17653486132621765
1667266547117050000,0.070050048828125,-0.15210096538066864,-0.0787992998957634,-0.13560809195041656
1667266547119447800,0.07244775390625,-0.16004198789596558,-0.06047387793660164,-0.09468132257461548
1667266547121845800,0.074845703125,-0.16798299551010132,-0.04153761267662048,-0.051922015845775604
1667266547124243500,0.077243408203125,-0.17897824943065643,-0.021990500390529633,-0.014660334214568138
1667266547126641400,0.079641357421875,-0.18753011524677277,-0.0018325417768210173,0.022601349279284477
1667266547129039000,0.0820390625,-0.19363857805728912,0.020157959312200546,0.05803048983216286
1667266547131437000,0.08443701171875,-0.20402298867702484,0.038483377546072006,0.09040539711713791
1667266547133834800,0.086834716796875,-0.2101314514875412,0.05497625470161438,0.12400199472904205
1667266547136232400,0.089232421875,-0.21929416060447693,0.06780404597520828,0.15149012207984924
1667266547138630400,0.09163037109375,-0.21990501880645752,0.07574506103992462,0.17775654792785645
1667266547141028000,0.094028076171875,-0.21990501880645752,0.0781884491443634,0.20157960057258606
1667266547143426000,0.096426025390625,-0.2223484069108963,0.0781884491443634,0.2241809368133545
1667266547145823700,0.09882373046875,-0.2217375487089157,0.07330167293548584,0.24311721324920654
1667266547148221700,0.1012216796875,-0.21929416060447693,0.06413896381855011,0.25716668367385864
1667266547150619400,0.103619384765625,-0.21440738439559937,0.05497625470161438,0.26938363909721375
1667266547153017000,0.10601708984375,-0.2095206081867218,0.04092676565051079,0.28098973631858826
1667266547155415000,0.1084150390625,-0.20280128717422485,0.023823043331503868,0.288930743932724
1667266547157812700,0.110812744140625,-0.1954711228609085,0.0024433890357613564,0.29259583353996277
1667266547160210700,0.113210693359375,-0.18569757044315338,-0.023823043331503868,0.29381752014160156
1667266547162608400,0.1156083984375,-0.17409147322177887,-0.04825693368911743,0.29503923654556274
1667266547165006300,0.11800634765625,-0.16309621930122375,-0.07635590434074402,0.291374146938324
1667266547167404000,0.120404052734375,-0.15149012207984924,-0.1056765764951706,0.28343313932418823
1667266547169801700,0.1228017578125,-0.13927318155765533,-0.13621893525123596,0.2742704153060913
1667266547172199700,0.12519970703125,-0.12522368133068085,-0.16492876410484314,0.2651077210903168
1667266547174597400,0.127597412109375,-0.11178504675626755,-0.19058434665203094,0.2522799074649811
1667266547176995000,0.1299951171875,-0.10017894953489304,-0.21379654109477997,0.23884128034114838
1667266547179393000,0.13239306640625,-0.08490777015686035,-0.2363978922367096,0.2235700935125351
1667266547181790700,0.134790771484375,-0.07207997888326645,-0.25533416867256165,0.20524467527866364
1667266547184188700,0.137188720703125,-0.06047387793660164,-0.26999449729919434,0.18630841374397278
1667266547186586400,0.13958642578125,-0.047646086663007736,-0.28098973631858826,0.16553960740566254
1667266547188984300,0.141984375,-0.036039989441633224,-0.2919849753379822,0.14660334587097168
1667266547191382000,0.144382080078125,-0.028098974376916885,-0.3023693859577179,0.12644538283348083
1667266547193779700,0.14677978515625,-0.021379653364419937,-0.312142938375473,0.1050657257437706
1667266547196177700,0.149177734375,-0.017714571207761765,-0.31825143098831177,0.08246438205242157
1667266547198575400,0.151575439453125,-0.012827792204916477,-0.32374903559684753,0.061084724962711334
1667266547200973300,0.153973388671875,-0.00916270911693573,-0.3255815804004669,0.037261683493852615
1667266547203371000,0.15637109375,-0.008551862090826035,-0.3274141252040863,0.017714571207761765
1667266547205768700,0.158768798828125,-0.011606098152697086,-0.3268032968044281,-0.005497625097632408
1667266547208166700,0.161166748046875,-0.01588202826678753,-0.32313820719718933,-0.026877280324697495
1667266547210564400,0.163564453125,-0.025655584409832954,-0.3170297145843506,-0.0525328628718853
1667266547212962300,0.16596240234375,-0.03542914241552353,-0.30725616216659546,-0.07269082218408585
1667266547215360000,0.168360107421875,-0.04947862774133682,-0.29442837834358215,-0.09895725548267365
1667266547217758000,0.170758056640625,-0.061084724962711334,-0.2779355049133301,-0.11972606182098389
1667266547220155600,0.17315576171875,-0.07574506103992462,-0.261442631483078,-0.14110571146011353
1667266547222553300,0.17555322265625,-0.0922379344701767,-0.24494975805282593,-0.16370706260204315
1667266547224951300,0.177951416015625,-0.1056765764951706,-0.22601348161697388,-0.183865025639534
1667266547227349000,0.180348876953125,-0.12155860662460327,-0.20707722008228302,-0.20646637678146362
1667266547229747000,0.182746826171875,-0.13438639044761658,-0.19058434665203094,-0.22845686972141266
1667266547232144600,0.18514453125,-0.14904673397541046,-0.17286977171897888,-0.2492256760597229
1667266547234542300,0.187542236328125,-0.16065283119678497,-0.1588202863931656,-0.26816195249557495
1667266547236940300,0.189940185546875,-0.1704263836145401,-0.1453816443681717,-0.288930743932724
1667266547239338000,0.192337890625,-0.17897824943065643,-0.1325538605451584,-0.3054236173629761
1667266547241736000,0.19473583984375,-0.1844758689403534,-0.12155860662460327,-0.32313820719718933
1667266547244133600,0.197133544921875,-0.18875180184841156,-0.10934165865182877,-0.3426853120326996
1667266547246531600,0.199531494140625,-0.19241689145565033,-0.09895725548267365,-0.35795649886131287
1667266547248929300,0.20192919921875,-0.18936264514923096,-0.09040539711713791,-0.37322768568992615
1667266547251327000,0.204326904296875,-0.18630841374397278,-0.08002099394798279,-0.38666632771492004
1667266547253725000,0.206724853515625,-0.1844758689403534,-0.07513421028852463,-0.40132665634155273
1667266547256122600,0.20912255859375,-0.17836740612983704,-0.07024743407964706,-0.41171106696128845
1667266547258520600,0.2115205078125,-0.1704263836145401,-0.06658235192298889,-0.4220954477787018
1667266547260918300,0.213918212890625,-0.16126367449760437,-0.06902574002742767,-0.4306473135948181
1667266547263316000,0.21631591796875,-0.14965757727622986,-0.07391251623630524,-0.43981003761291504
1667266547265714000,0.2187138671875,-0.13927318155765533,-0.07513421028852463,-0.4477510452270508
1667266547268111600,0.221111572265625,-0.12705622613430023,-0.08063183724880219,-0.45324867963790894
1667266547270509600,0.223509521484375,-0.11361759155988693,-0.08612946420907974,-0.4563029110431671
1667266547272907300,0.2259072265625,-0.09895725548267365,-0.08918370306491852,-0.4575245976448059
1667266547275305000,0.228304931640625,-0.08368607610464096,-0.09407047927379608,-0.4599680006504059
1667266547277703000,0.230702880859375,-0.07085828483104706,-0.09895725548267365,-0.4575245976448059
1667266547280100600,0.2331005859375,-0.054365407675504684,-0.10140064358711243,-0.4563029110431671
1667266547282498600,0.23549853515625,-0.0397050715982914,-0.1056765764951706,-0.45324867963790894
1667266547284896300,0.237896240234375,-0.023823043331503868,-0.10750912129878998,-0.446529358625412
1667266547287294000,0.2402939453125,-0.007941014133393764,-0.10873081535100937,-0.44042086601257324
1667266547289692000,0.24269189453125,0.007330167107284069,-0.10995250940322876,-0.4337015450000763
1667266547292089600,0.245089599609375,0.021990500390529633,-0.11422843486070633,-0.42576053738594055
1667266547294487600,0.247487548828125,0.04153761267662048,-0.11911521852016449,-0.41293275356292725
1667266547296885200,0.24988525390625,0.05803048983216286,-0.12766708433628082,-0.40254834294319153
1667266547299283200,0.252283203125,0.07452336698770523,-0.13866232335567474,-0.3903313875198364
1667266547301681000,0.254680908203125,0.09040539711713791,-0.15026842057704926,-0.3799470067024231
1667266547304078600,0.25707861328125,0.10811996459960938,-0.16370706260204315,-0.3646758198738098
1667266547306476500,0.2594765625,0.12583453953266144,-0.1820324808359146,-0.3500154912471771
1667266547308874200,0.261874267578125,0.13988402485847473,-0.20280128717422485,-0.33474430441856384
1667266547311272200,0.264272216796875,0.1582094430923462,-0.2241809368133545,-0.31825143098831177
1667266547313670000,0.266669921875,0.17470231652259827,-0.24372805655002594,-0.3011476993560791
1667266547316067800,0.26906787109375,0.18875180184841156,-0.2620534598827362,-0.28343313932418823
1667266547318465500,0.271465576171875,0.20157960057258606,-0.2754921019077301,-0.2626643180847168
1667266547320863200,0.27386328125,0.21440738439559937,-0.2877090573310852,-0.24311721324920654
1667266547323261200,0.27626123046875,0.22479179501533508,-0.29565006494522095,-0.21868331730365753
1667266547325659000,0.278658935546875,0.23334364593029022,-0.3035911023616791,-0.1954711228609085
1667266547328056800,0.281056884765625,0.23823043704032898,-0.30969956517219543,-0.1698155403137207
1667266547330454500,0.28345458984375,0.24372805655002594,-0.30786702036857605,-0.1441599577665329
1667266547332852200,0.285852294921875,0.2504473626613617,-0.30725616216659546,-0.11483928561210632
1667266547335250200,0.288250244140625,0.2522799074649811,-0.30603447556495667,-0.08918370306491852
1667266547337647900,0.29064794921875,0.25594499707221985,-0.29626092314720154,-0.05925218388438225
1667266547340045800,0.2930458984375,0.25777754187583923,-0.284654825925827,-0.03237490355968475
1667266547342443500,0.295443603515625,0.25777754187583923,-0.2730487287044525,-0.0036650835536420345
1667266547344841200,0.29784130859375,0.258999228477478,-0.25777754187583923,0.025655584409832954
1667266547347239200,0.3002392578125,0.2583884000778198,-0.237008735537529,0.05070032179355621
1667266547349636900,0.302636962890625,0.25716668367385864,-0.21807247400283813,0.07696675509214401
1667266547352034800,0.305034912109375,0.2583884000778198,-0.1985253542661667,0.1044548824429512
1667266547354432500,0.3074326171875,0.25655585527420044,-0.17836740612983704,0.130721315741539
1667266547356830200,0.309830322265625,0.25716668367385864,-0.16004198789596558,0.15271180868148804
1667266547359228200,0.312228271484375,0.25655585527420044,-0.1429382562637329,0.17958909273147583
1667266547361625900,0.3146259765625,0.25594499707221985,-0.12705622613430023,0.20157960057258606
1667266547364023800,0.31702392578125,0.25655585527420044,-0.11239589750766754,0.2241809368133545
1667266547366421500,0.31942138671875,0.25594499707221985,-0.09895725548267365,0.24433889985084534
1667266547368819500,0.3218193359375,0.25533416867256165,-0.08490777015686035,0.2608317732810974
1667266547371217200,0.324217041015625,0.25594499707221985,-0.07635590434074402,0.2754921019077301
1667266547373614800,0.32661474609375,0.25411245226860046,-0.06841489672660828,0.2907632887363434
1667266547376012800,0.3290126953125,0.25472331047058105,-0.06413896381855011,0.3011476993560791
1667266547378410500,0.331410400390625,0.25472331047058105,-0.0653606578707695,0.31031039357185364
1667266547380808400,0.333808349609375,0.25289076566696167,-0.07330167293548584,0.3158080279827118
1667266547383206100,0.3362060546875,0.25289076566696167,-0.08551861345767975,0.31947311758995056
1667266547385603800,0.338603759765625,0.2498365342617035,-0.10201149433851242,0.32008397579193115
1667266547388001800,0.341001708984375,0.24678228795528412,-0.12827792763710022,0.31825143098831177
1667266547390399500,0.3433994140625,0.24311721324920654,-0.16004198789596558,0.3139754831790924
1667266547392797400,0.34579736328125,0.2363978922367096,-0.19241689145565033,0.30481278896331787
1667266547395195100,0.348195068359375,0.22906772792339325,-0.2357870489358902,0.29442837834358215
1667266547397592800,0.3505927734375,0.2211267054080963,-0.28098973631858826,0.2773246467113495
1667266547399990800,0.35299072265625,0.21196399629116058,-0.3249707520008087,0.2583884000778198
1667266547402388500,0.355388427734375,0.20035789906978607,-0.37078428268432617,0.24006296694278717
1667266547404786400,0.357786376953125,0.18936264514923096,-0.4159869849681854,0.21746163070201874
1667266547407184100,0.36018408203125,0.17836740612983704,-0.4563029110431671,0.19241689145565033
1667266547409581800,0.362581787109375,0.16431790590286255,-0.49417543411254883,0.16676130890846252
1667266547411979800,0.364979736328125,0.15332266688346863,-0.5265503525733948,0.14110571146011353
1667266547414377500,0.36737744140625,0.14049486815929413,-0.554649293422699,0.11483928561210632
1667266547416775400,0.369775390625,0.1301104724407196,-0.5766398310661316,0.08857285231351852
1667266547419173000,0.372173095703125,0.11972606182098389,-0.5955760478973389,0.062306419014930725
1667266547421571000,0.374571044921875,0.11300674080848694,-0.6096255779266357,0.0397050715982914
1667266547423968800,0.37696875,0.11178504675626755,-0.6169557571411133,0.014049487188458443
1667266547426366500,0.379366455078125,0.11117420345544815,-0.6230642199516296,-0.007941014133393764
1667266547428764400,0.381764404296875,0.11300674080848694,-0.6273401379585266,-0.03237490355968475
1667266547431162000,0.384162109375,0.11422843486070633,-0.6279509663581848,-0.04825693368911743
1667266547433560000,0.38656005859375,0.1172826737165451,-0.6218425035476685,-0.06719319522380829
1667266547435957800,0.388957763671875,0.12216944992542267,-0.6163448691368103,-0.08490777015686035
1667266547438355700,0.391355712890625,0.12827792763710022,-0.6126797795295715,-0.10323318839073181
1667266547440753400,0.39375341796875,0.13621893525123596,-0.6114581227302551,-0.12033691257238388
1667266547443151000,0.396151123046875,0.1441599577665329,-0.6151232123374939,-0.13866232335567474
1667266547445549000,0.398549072265625,0.15332266688346863,-0.6212316751480103,-0.1588202863931656
1667266547447946800,0.40094677734375,0.16431790590286255,-0.6267293095588684,-0.17653486132621765
1667266547450344700,0.4033447265625,0.17348061501979828,-0.6358919739723206,-0.19363857805728912
1667266547452742400,0.405742431640625,0.1844758689403534,-0.6444438695907593,-0.21623992919921875
1667266547455140000,0.40814013671875,0.19424942135810852,-0.6493306159973145,-0.2339545041322708
1667266547457538000,0.4105380859375,0.20646637678146362,-0.6511631608009338,-0.2504473626613617
1667266547459935700,0.412935791015625,0.21562908589839935,-0.6493306159973145,-0.26816195249557495
1667266547462333400,0.41533349609375,0.22540263831615448,-0.6413896083831787,-0.2864873707294464
1667266547464731400,0.4177314453125,0.2357870489358902,-0.6297835111618042,-0.3035911023616791
1667266547467129000,0.420129150390625,0.24617144465446472,-0.6169557571411133,-0.32069480419158936
1667266547469527000,0.422527099609375,0.25472331047058105,-0.5967977643013,-0.33413344621658325
1667266547471924700,0.4249248046875,0.2620534598827362,-0.5711421966552734,-0.34818294644355774
1667266547474322700,0.42732275390625,0.26938363909721375,-0.5424323678016663,-0.36162158846855164
1667266547476720400,0.429720458984375,0.2742704153060913,-0.5033381581306458,-0.37261682748794556
1667266547479118000,0.4321181640625,0.27915719151496887,-0.46302223205566406,-0.3830012381076813
1667266547481516000,0.43451611328125,0.28404396772384644,-0.4214846193790436,-0.390942245721817
1667266547483913700,0.436913818359375,0.2864873707294464,-0.37567105889320374,-0.40193748474121094
1667266547486311700,0.439311767578125,0.2877090573310852,-0.3310792148113251,-0.4086568057537079
1667266547488709400,0.44170947265625,0.29381752014160156,-0.2864873707294464,-0.4159869849681854
1667266547491107300,0.444107421875,0.29565006494522095,-0.24067382514476776,-0.42392799258232117
1667266547493505000,0.446505126953125,0.29503923654556274,-0.1966928243637085,-0.4312581717967987
1667266547495902700,0.44890283203125,0.2987042963504791,-0.15210096538066864,-0.44103172421455383
1667266547498300700,0.45130078125,0.3017585575580597,-0.11117420345544815,-0.4489727318286896
1667266547500698400,0.453698486328125,0.3029802441596985,-0.07085828483104706,-0.4575245976448059
1667266547503096300,0.456096435546875,0.30481278896331787,-0.03298575058579445,-0.46424391865730286
1667266547505494000,0.458493896484375,0.30786702036857605,0.004275931045413017,-0.4703523814678192
1667266547507891700,0.4608916015625,0.30908870697021484,0.03787253051996231,-0.47829338908195496
1667266547510289700,0.46328955078125,0.30908870697021484,0.07085828483104706,-0.4819584786891937
1667266547512687400,0.465687255859375,0.31031039357185364,0.09712471067905426,-0.4886777997016907
1667266547515085300,0.468085205078125,0.30969956517219543,0.11972606182098389,-0.4953971207141876
1667266547517483000,0.47048291015625,0.30969956517219543,0.14049486815929413,-0.4978405237197876
1667266547519880700,0.472880615234375,0.30847787857055664,0.1557660549879074,-0.499673068523407
1667266547522278700,0.475278564453125,0.30908870697021484,0.16553960740566254,-0.5002838969230652
1667266547524676400,0.47767626953125,0.30725616216659546,0.1692046970129013,-0.5015056133270264
1667266547527074300,0.48007421875,0.3042019307613373,0.16798299551010132,-0.4984513521194458
1667266547529472000,0.482471923828125,0.3042019307613373,0.16492876410484314,-0.4953971207141876
1667266547531869700,0.48486962890625,0.3005368411540985,0.1582094430923462,-0.4874561131000519
1667266547534267600,0.487267578125,0.29748260974884033,0.14843589067459106,-0.48073679208755493
1667266547536665300,0.489665283203125,0.29565006494522095,0.13866232335567474,-0.4703523814678192
1667266547539063300,0.492063232421875,0.29442837834358215,0.12644538283348083,-0.4581354558467865
1667266547541461000,0.4944609375,0.2895416021347046,0.11361759155988693,-0.444085955619812
1667266547543858700,0.496858642578125,0.2852656841278076,0.10078980028629303,-0.42881476879119873
1667266547546256600,0.499256591796875,0.28037887811660767,0.08735115826129913,-0.41232189536094666
1667266547548654300,0.501654296875,0.2754921019077301,0.07574506103992462,-0.3927747905254364
1667266547551052300,0.50405224609375,0.26816195249557495,0.06658235192298889,-0.37444937229156494
1667266547553450000,0.506449951171875,0.258999228477478,0.05986303091049194,-0.3524588644504547
1667266547555848000,0.508847900390625,0.2504473626613617,0.053143709897994995,-0.3310792148113251
1667266547558245600,0.51124560546875,0.24128466844558716,0.04703523963689804,-0.31031039357185364
1667266547560643300,0.513643310546875,0.22967857122421265,0.04581354558467865,-0.2895416021347046
1667266547563041300,0.516041259765625,0.21990501880645752,0.04825693368911743,-0.26999449729919434
1667266547565439000,0.51843896484375,0.2113531529903412,0.04703523963689804,-0.25289076566696167
1667266547567837000,0.5208369140625,0.20157960057258606,0.051922015845775604,-0.2357870489358902
1667266547570234600,0.523234619140625,0.19119518995285034,0.055587101727724075,-0.21746163070201874
1667266547572632300,0.52563232421875,0.182643324136734,0.05864133685827255,-0.20341213047504425
1667266547575030300,0.5280302734375,0.17409147322177887,0.0653606578707695,-0.19058434665203094
1667266547577428000,0.530427978515625,0.1698155403137207,0.07146912813186646,-0.17775654792785645
1667266547579826000,0.532825927734375,0.16309621930122375,0.0781884491443634,-0.1710372269153595
1667266547582223600,0.5352236328125,0.16065283119678497,0.08612946420907974,-0.16492876410484314
1667266547584621300,0.537621337890625,0.1569877415895462,0.09468132257461548,-0.1588202863931656
1667266547587019300,0.540019287109375,0.15454435348510742,0.10262233763933182,-0.1582094430923462
1667266547589417000,0.5424169921875,0.15087927877902985,0.10995250940322876,-0.1575985997915268
1667266547591815000,0.54481494140625,0.15026842057704926,0.11972606182098389,-0.15515519678592682
1667266547594212600,0.547212646484375,0.14721418917179108,0.129499614238739,-0.15515519678592682
1667266547596610300,0.5496103515625,0.1459924876689911,0.13682979345321655,-0.15210096538066864
1667266547599008300,0.55200830078125,0.1453816443681717,0.13805148005485535,-0.15271180868148804
1667266547601406000,0.554406005859375,0.1447708010673523,0.13805148005485535,-0.15271180868148804
1667266547603804000,0.556803955078125,0.1423274129629135,0.13560809195041656,-0.15210096538066864
1667266547606201600,0.55920166015625,0.13866232335567474,0.13621893525123596,-0.15026842057704926
1667266547608599600,0.561599609375,0.13560809195041656,0.13316470384597778,-0.14843589067459106
1667266547610997200,0.563997314453125,0.1313321590423584,0.13316470384597778,-0.1453816443681717
1667266547613395000,0.56639501953125,0.12278030067682266,0.1313321590423584,-0.13988402485847473
1667266547615793000,0.56879296875,0.1172826737165451,0.13316470384597778,-0.13316470384597778
1667266547618190600,0.571190673828125,0.10934165865182877,0.1319430023431778,-0.12278030067682266
1667266547620588500,0.573588623046875,0.10078980028629303,0.1319430023431778,-0.11300674080848694
1667266547622986200,0.575986328125,0.09345962852239609,0.12583453953266144,-0.10140064358711243
1667266547625384200,0.57838427734375,0.08429691940546036,0.12339114397764206,-0.08612946420907974
1667266547627782000,0.580781982421875,0.07513421028852463,0.11300674080848694,-0.07085828483104706
1667266547630179600,0.5831796875,0.06719319522380829,0.10384403169155121,-0.055587101727724075
1667266547632577500,0.58557763671875,0.05986303091049194,0.09284878522157669,-0.04031591862440109
1667266547634975200,0.587975341796875,0.051922015845775604,0.08124268800020218,-0.021990500390529633
1667266547637373000,0.590373046875,0.04153761267662048,0.06352811306715012,-0.007941014133393764
1667266547639771000,0.59277099609375,0.03420744836330414,0.04947862774133682,0.006108472589403391
1667266547642168600,0.59516845703125,0.02626643143594265,0.03298575058579445,0.01954711228609085
1667266547644566500,0.59756640625,0.01832541823387146,0.014049487188458443,0.03298575058579445
1667266547646964200,0.599964111328125,0.007330167107284069,-0.0024433890357613564,0.046424392610788345
1667266547649362000,0.60236181640625,0,-0.017714571207761765,0.05864133685827255
1667266547651759900,0.604759765625,-0.008551862090826035,-0.03298575058579445,0.06963659077882767
1667266547654157600,0.607157470703125,-0.016492875292897224,-0.04703523963689804,0.0787992998957634
1667266547656555500,0.609555419921875,-0.023212196305394173,-0.056808795779943466,0.08368607610464096
1667266547658953200,0.611953125,-0.03298575058579445,-0.0659715011715889,0.0916270911693573
1667266547661351200,0.61435107421875,-0.043981000781059265,-0.07513421028852463,0.09651386737823486
1667266547663748900,0.616748779296875,-0.05131116881966591,-0.08246438205242157,0.10078980028629303
1667266547666146600,0.619146484375,-0.05986303091049194,-0.08612946420907974,0.10323318839073181
1667266547668544500,0.62154443359375,-0.06658235192298889,-0.09468132257461548,0.1050657257437706
1667266547670942200,0.623942138671875,-0.07207997888326645,-0.09590301662683487,0.10628741979598999
1667266547673340200,0.626340087890625,-0.07696675509214401,-0.09773556143045425,0.1044548824429512
1667266547675737900,0.62873779296875,-0.08246438205242157,-0.10140064358711243,0.10384403169155121
1667266547678135800,0.6311357421875,-0.08185353130102158,-0.10078980028629303,0.09956810623407364
1667266547680533500,0.633533447265625,-0.08307522535324097,-0.10323318839073181,0.09468132257461548
1667266547682931200,0.63593115234375,-0.08246438205242157,-0.10323318839073181,0.08796200156211853
1667266547685329200,0.6383291015625,-0.08246438205242157,-0.10140064358711243,0.08185353130102158
1667266547687726800,0.640726806640625,-0.0794101431965828,-0.09895725548267365,0.07452336698770523
1667266547690124500,0.64312451171875,-0.0787992998957634,-0.09529217332601547,0.06291726976633072
1667266547692522500,0.6455224609375,-0.07574506103992462,-0.08857285231351852,0.05008947476744652
1667266547694920200,0.647920166015625,-0.07330167293548584,-0.07757759839296341,0.037261683493852615
1667266547697318100,0.650318115234375,-0.07024743407964706,-0.062306419014930725,0.021990500390529633
1667266547699715800,0.6527158203125,-0.06719319522380829,-0.04459185153245926,0.005497625097632408
1667266547702113500,0.655113525390625,-0.07024743407964706,-0.02076880633831024,-0.014660334214568138
1667266547704511500,0.657511474609375,-0.06902574002742767,0.005497625097632408,-0.03542914241552353
1667266547706909200,0.6599091796875,-0.07269082218408585,0.02870982140302658,-0.05864133685827255
1667266547709307100,0.66230712890625,-0.07513421028852463,0.05375456064939499,-0.08124268800020218
1667266547711704800,0.664704833984375,-0.0787992998957634,0.08124268800020218,-0.1056765764951706
1667266547714102800,0.667102783203125,-0.08246438205242157,0.11300674080848694,-0.1325538605451584
1667266547716500500,0.66950048828125,-0.08796200156211853,0.14965757727622986,-0.16187451779842377
1667266547718898200,0.671898193359375,-0.09345962852239609,0.19119518995285034,-0.19302773475646973
1667266547721296100,0.674296142578125,-0.09834641218185425,0.2345653474330902,-0.22601348161697388
1667266547723693800,0.67669384765625,-0.10323318839073181,0.28037887811660767,-0.258999228477478
1667266547726091800,0.679091796875,-0.10934165865182877,0.3261924386024475,-0.29442837834358215
1667266547728489500,0.681489501953125,-0.11361759155988693,0.37383851408958435,-0.3274141252040863
1667266547730887400,0.683887451171875,-0.1172826737165451,0.42637139558792114,-0.36101073026657104
1667266547733285000,0.68628515625,-0.12400199472904205,0.47585001587867737,-0.3970507085323334
1667266547735682800,0.688682861328125,-0.12522368133068085,0.5222744345664978,-0.43614494800567627
1667266547738080800,0.691080810546875,-0.12827792763710022,0.5638120174407959,-0.4746283292770386
1667266547740478500,0.693478515625,-0.12827792763710022,0.6004628539085388,-0.5137225389480591
1667266547742876400,0.69587646484375,-0.13316470384597778,0.6328377723693848,-0.5534276366233826
1667266547745274000,0.698274169921875,-0.13621893525123596,0.660936713218689,-0.5925218462944031
1667266547747671800,0.700671875,-0.13866232335567474,0.6859814524650574,-0.633448600769043
1667266547750069800,0.70306982421875,-0.13866232335567474,0.7085828185081482,-0.6700994372367859
1667266547752467500,0.705467529296875,-0.13682979345321655,0.7348492741584778,-0.7043069005012512
1667266547754865200,0.707865234375,-0.13805148005485535,0.7605048418045044,-0.7379034757614136
1667266547757263000,0.71026318359375,-0.13744063675403595,0.7843278646469116,-0.7690566778182983
1667266547759660800,0.712660888671875,-0.13560809195041656,0.8002098798751831,-0.7959339618682861
1667266547762058800,0.715058837890625,-0.13438639044761658,0.8118160367012024,-0.8222004175186157
1667266547764456400,0.71745654296875,-0.1325538605451584,0.8252546191215515,-0.8472451567649841
1667266547766854400,0.7198544921875,-0.1313321590423584,0.8350282311439514,-0.869846522808075
1667266547769252000,0.722252197265625,-0.1325538605451584,0.8405258059501648,-0.8906152844429016
1667266547771649800,0.72464990234375,-0.13438639044761658,0.8454126119613647,-0.9089407324790955
1667266547774047700,0.7270478515625,-0.13805148005485535,0.8441908955574036,-0.9248227477073669
1667266547776445400,0.729445556640625,-0.1441599577665329,0.8429692387580872,-0.939483106136322
1667266547778843400,0.731843505859375,-0.14965757727622986,0.8393041491508484,-0.9504783153533936
1667266547781241000,0.734240966796875,-0.16187451779842377,0.8338065147399902,-0.9596410393714905
1667266547783639000,0.73663916015625,-0.1704263836145401,0.8301414251327515,-0.9657495021820068
1667266547786036700,0.73903662109375,-0.18019993603229523,0.8240329623222351,-0.966971218585968
1667266547788434400,0.741434326171875,-0.19302773475646973,0.8167027831077576,-0.9688037633895874
1667266547790832400,0.743832275390625,-0.20219044387340546,0.8050966858863831,-0.9663603901863098
1667266547793230000,0.74622998046875,-0.21257483959197998,0.7941014170646667,-0.9614735841751099
1667266547795628000,0.7486279296875,-0.22051586210727692,0.7831062078475952,-0.9529217481613159
1667266547798025700,0.751025634765625,-0.22906772792339325,0.7647807598114014,-0.9413156509399414
1667266547800423400,0.75342333984375,-0.2345653474330902,0.7452336549758911,-0.9327637553215027
1667266547802821400,0.7558212890625,-0.23823043704032898,0.7220214605331421,-0.9199360013008118
1667266547805219000,0.758218994140625,-0.24189551174640656,0.6945333480834961,-0.9064973592758179
1667266547807617000,0.760616943359375,-0.24250635504722595,0.6652126908302307,-0.893058717250824
1667266547810014700,0.7630146484375,-0.24067382514476776,0.6303943991661072,-0.8802309036254883
1667266547812412400,0.765412353515625,-0.23884128034114838,0.5913001298904419,-0.8655705451965332
1667266547814810400,0.767810302734375,-0.23212195932865143,0.550373375415802,-0.8490777015686035
1667266547817208000,0.7702080078125,-0.22540263831615448,0.5063923597335815,-0.8301414251327515
1667266547819606000,0.77260595703125,-0.21746163070201874,0.46485477685928345,-0.8105943202972412
1667266547822003700,0.775003662109375,-0.20768806338310242,0.4227063059806824,-0.790436327457428
1667266547824401400,0.7774013671875,-0.1966928243637085,0.38483378291130066,-0.767224133014679
1667266547826799400,0.77979931640625,-0.1832541823387146,0.34573954343795776,-0.7427902817726135
1667266547829197000,0.782197021484375,-0.1716480851173401,0.3035911023616791,-0.7165238261222839
1667266547831595000,0.784594970703125,-0.1569877415895462,0.265718549489975,-0.6878139972686768
1667266547833992700,0.78699267578125,-0.14171656966209412,0.22662433981895447,-0.6536065936088562
1667266547836390700,0.789390625,-0.12583453953266144,0.18997350335121155,-0.6193991303443909
1667266547838788400,0.791788330078125,-0.10995250940322876,0.1563768982887268,-0.582748293876648
1667266547841186000,0.79418603515625,-0.09468132257461548,0.12155860662460327,-0.546097457408905
1667266547843584000,0.796583984375,-0.07696675509214401,0.08857285231351852,-0.5063923597335815
1667266547845981700,0.798981689453125,-0.0653606578707695,0.061084724962711334,-0.46424391865730286
1667266547848379600,0.801379638671875,-0.0525328628718853,0.03542914241552353,-0.4227063059806824
1667266547850777300,0.80377734375,-0.04153761267662048,0.01038440316915512,-0.38483378291130066
1667266547853175300,0.80617529296875,-0.03237490355968475,-0.01038440316915512,-0.342074453830719
1667266547855573000,0.808572998046875,-0.02504473738372326,-0.03420744836330414,-0.3029802441596985
1667266547857970700,0.810970703125,-0.020157959312200546,-0.051922015845775604,-0.2626643180847168
1667266547860368600,0.81336865234375,-0.01588202826678753,-0.07330167293548584,-0.22601348161697388
1667266547862766300,0.815766357421875,-0.013438640162348747,-0.10017894953489304,-0.19302773475646973
1667266547865164300,0.818164306640625,-0.011606098152697086,-0.12644538283348083,-0.16126367449760437
1667266547867562000,0.82056201171875,-0.011606098152697086,-0.1569877415895462,-0.13316470384597778
1667266547869959700,0.822959716796875,-0.008551862090826035,-0.18997350335121155,-0.11056335270404816
1667266547872357600,0.825357666015625,-0.00916270911693573,-0.22784602642059326,-0.09468132257461548
1667266547874755300,0.82775537109375,-0.011606098152697086,-0.26816195249557495,-0.08429691940546036
1667266547877153300,0.8301533203125,-0.009773556143045425,-0.30969956517219543,-0.07513421028852463
1667266547879551000,0.832551025390625,-0.008551862090826035,-0.3530697226524353,-0.07085828483104706
1667266547881948700,0.83494873046875,-0.006719320081174374,-0.39766156673431396,-0.06658235192298889
1667266547884346600,0.8373466796875,-0.005497625097632408,-0.4428642690181732,-0.0647498071193695
1667266547886744300,0.839744384765625,-0.006719320081174374,-0.4856235682964325,-0.06719319522380829
1667266547889142300,0.842142333984375,-0.0030542362947016954,-0.5253286361694336,-0.06902574002742767
1667266547891540000,0.8445400390625,-0.0036650835536420345,-0.5583143830299377,-0.06780404597520828
1667266547893937700,0.846937744140625,-0.0036650835536420345,-0.5815265774726868,-0.06719319522380829
1667266547896335600,0.849335693359375,-0.005497625097632408,-0.6022953987121582,-0.06169557198882103
1667266547898733300,0.8517333984375,-0.007330167107284069,-0.6145123243331909,-0.053143709897994995
1667266547901131300,0.85413134765625,-0.012216945178806782,-0.6212316751480103,-0.04459185153245926
1667266547903529000,0.856529052734375,-0.015271181240677834,-0.6218425035476685,-0.030542362481355667
1667266547905926700,0.8589267578125,-0.02076880633831024,-0.6206207871437073,-0.01710372418165207
1667266547908324600,0.86132470703125,-0.028098974376916885,-0.6181774139404297,-0.0018325417768210173
1667266547910722300,0.863722412109375,-0.03420744836330414,-0.6151232123374939,0.014049487188458443
1667266547913120300,0.866120361328125,-0.046424392610788345,-0.6132906675338745,0.026877280324697495
1667266547915518000,0.86851806640625,-0.05925218388438225,-0.6077930331230164,0.038483377546072006
1667266547917916000,0.870916015625,-0.07024743407964706,-0.6022953987121582,0.04825693368911743
1667266547920313600,0.873313720703125,-0.08551861345767975,-0.5967977643013,0.05497625470161438
1667266547922711300,0.875711181640625,-0.09773556143045425,-0.5858024954795837,0.05619794875383377
1667266547925109200,0.878109130859375,-0.10995250940322876,-0.573585569858551,0.054365407675504684
1667266547927507000,0.8805068359375,-0.12155860662460327,-0.5558710098266602,0.043981000781059265
1667266547929905000,0.88290478515625,-0.129499614238739,-0.5302154421806335,0.03237490355968475
1667266547932302600,0.885302490234375,-0.13621893525123596,-0.5002838969230652,0.014660334214568138
1667266547934700500,0.887700439453125,-0.13988402485847473,-0.46241137385368347,-0.008551862090826035
1667266547937098200,0.89009814453125,-0.13560809195041656,-0.4196520745754242,-0.04031591862440109
1667266547939496000,0.892495849609375,-0.1301104724407196,-0.3646758198738098,-0.07452336698770523
1667266547941894000,0.894893798828125,-0.12216944992542267,-0.3029802441596985,-0.11300674080848694
1667266547944291600,0.89729150390625,-0.11300674080848694,-0.23273280262947083,-0.1582094430923462
1667266547946689500,0.899689453125,-0.10262233763933182,-0.15515519678592682,-0.20646637678146362
1667266547949087200,0.902087158203125,-0.0922379344701767,-0.07207997888326645,-0.2632751762866974
1667266547951485000,0.90448486328125,-0.08307522535324097,0.017714571207761765,-0.3249707520008087
1667266547953883000,0.9068828125,-0.07391251623630524,0.11667182296514511,-0.38788801431655884
1667266547956280600,0.909280517578125,-0.06413896381855011,0.22601348161697388,-0.45141613483428955
1667266547958678500,0.911678466796875,-0.05497625470161438,0.3432961702346802,-0.5161659121513367
1667266547961076200,0.914076171875,-0.04703523963689804,0.46546560525894165,-0.5809157490730286
1667266547963474000,0.916473876953125,-0.037261683493852615,0.5888567566871643,-0.6474980711936951
1667266547965871900,0.918871826171875,-0.02626643143594265,0.7116370797157288,-0.7116370797157288
1667266547968269600,0.92126953125,-0.013438640162348747,0.8344173431396484,-0.7782194018363953
1667266547970667500,0.92366748046875,-0.0006108472589403391,0.9529217481613159,-0.8448017835617065
1667266547973065200,0.926065185546875,0.017714571207761765,1.063485026359558,-0.9144383668899536
1667266547975463000,0.928462890625,0.036039989441633224,1.166107416152954,-0.9810206890106201
1667266547977860900,0.93086083984375,0.05497625470161438,1.2565127611160278,-1.0531007051467896
1667266547980258600,0.933258544921875,0.07635590434074402,1.3340904712677002,-1.1209046840667725
1667266547982656500,0.935656494140625,0.09529217332601547,1.4007490873336792,-1.1893196105957031
1667266547985054200,0.93805419921875,0.11300674080848694,1.4624446630477905,-1.2565127611160278
1667266547987452200,0.9404521484375,0.1301104724407196,1.5143667459487915,-1.3206517696380615
1667266547989849900,0.942849853515625,0.14110571146011353,1.5516283512115479,-1.382423758506775
1667266547992247600,0.94524755859375,0.14660334587097168,1.5821707248687744,-1.4392324686050415
1667266547994645500,0.9476455078125,0.1459924876689911,1.6078263521194458,-1.4942086935043335
1667266547997043200,0.950043212890625,0.13682979345321655,1.6322602033615112,-1.5381897687911987
1667266547999441200,0.952441162109375,0.12094775587320328,1.6554723978042603,-1.5778948068618774
1667266548001838800,0.9548388671875,0.10201149433851242,1.6719653606414795,-1.6114914417266846
1667266548004236800,0.95723681640625,0.08918370306491852,1.678073763847351,-1.63592529296875
1667266548006634500,0.959634521484375,0.07269082218408585,1.6701327562332153,-1.6554723978042603
1667266548009032200,0.9620322265625,0.05619794875383377,1.6566941738128662,-1.6658568382263184
1667266548011430100,0.96443017578125,0.042759306728839874,1.6377578973770142,-1.6707435846328735
1667266548013827800,0.966827880859375,0.02748812735080719,1.616989016532898,-1.6664676666259766
1667266548016225800,0.969225830078125,0.01038440316915512,1.595609426498413,-1.6542507410049438
1667266548018623500,0.97162353515625,-0.004886778071522713,1.5742297172546387,-1.63592529296875
1667266548021021400,0.974021484375,-0.02076880633831024,1.553460955619812,-1.6102697849273682
1667266548023419100,0.976419189453125,-0.036039989441633224,1.5357463359832764,-1.5778948068618774
1667266548025816800,0.97881689453125,-0.0525328628718853,1.5161992311477661,-1.5375789403915405
1667266548028214800,0.98121484375,-0.06902574002742767,1.5039823055267334,-1.4923762083053589
1667266548030612500,0.983612548828125,-0.08246438205242157,1.4935978651046753,-1.4410650730133057
1667266548033010400,0.986010498046875,-0.09529217332601547,1.4905437231063843,-1.3842562437057495
1667266548035408100,0.988408203125,-0.1056765764951706,1.4899327754974365,-1.3224843740463257
1667266548037805800,0.990805908203125,-0.11422843486070633,1.4923762083053589,-1.2589561939239502
1667266548040203800,0.993203857421875,-0.11972606182098389,1.4960412979125977,-1.1899304389953613
1667266548042601500,0.9956015625,-0.11911521852016449,1.5064257383346558,-1.1129636764526367
1667266548044999400,0.99799951171875,-0.11483928561210632,1.5210859775543213,-1.0378295183181763
1667266548047397000,1.000397216796875,-0.10873081535100937,1.5424656867980957,-0.9553651213645935
1667266548049794800,1.002794921875,-0.09895725548267365,1.5687321424484253,-0.8729007244110107
1667266548052192800,1.00519287109375,-0.08368607610464096,1.5949985980987549,-0.7886037826538086
1667266548054590500,1.007590576171875,-0.0653606578707695,1.623097538948059,-0.7012526392936707
1667266548056988400,1.009988525390625,-0.045202698558568954,1.6438663005828857,-0.6151232123374939
1667266548059386000,1.01238623046875,-0.018936265259981155,1.6670784950256348,-0.5247178077697754
1667266548061783800,1.01478369140625,0.009773556143045425,1.6829605102539062,-0.4324798583984375
1667266548064181800,1.017181640625,0.04214845970273018,1.6701327562332153,-0.34818294644355774
1667266548066579500,1.019579345703125,0.07757759839296341,1.6426446437835693,-0.26694026589393616
1667266548068977400,1.021977294921875,0.11422843486070633,1.6139347553253174,-0.18081079423427582
1667266548071375000,1.024375,0.15454435348510742,1.5778948068618774,-0.0910162404179573
1667266548073773000,1.02677294921875,0.20280128717422485,1.5235294103622437,-0.0036650835536420345
1667266548076170800,1.029170654296875,0.2504473626613617,1.4282371997833252,0.07085828483104706
1667266548078568400,1.031568359375,0.2999260127544403,1.3200409412384033,0.1447708010673523
1667266548080966400,1.03396630859375,0.3555130958557129,1.2082558870315552,0.22479179501533508
1667266548083364000,1.036364013671875,0.41476529836654663,1.0787562131881714,0.30481278896331787
1667266548085762000,1.038761962890625,0.47951510548591614,0.9370396733283997,0.3830012381076813
1667266548088159700,1.04115966796875,0.5473191738128662,0.7647807598114014,0.45324867963790894
1667266548090557400,1.043557373046875,0.6139014959335327,0.5601469278335571,0.5076140761375427
1667266548092955400,1.045955322265625,0.684148907661438,0.3530697226524353,0.5638120174407959
1667266548095353000,1.04835302734375,0.7574505805969238,0.1582094430923462,0.6279509663581848
1667266548097751000,1.0507509765625,0.833195686340332,-0.02993151545524597,0.6914790868759155
1667266548100148700,1.053148681640625,0.9119949340820312,-0.22051586210727692,0.7550072073936462
1667266548102546700,1.055546630859375,0.9846857786178589,-0.43981003761291504,0.8032641410827637
1667266548104944400,1.0579443359375,1.058598279953003,-0.6548282504081726,0.8496885299682617
1667266548107342000,1.060342041015625,1.1318999528884888,-0.8539644479751587,0.8997780084609985
1667266548109740000,1.062739990234375,1.206423282623291,-1.040272831916809,0.9547542929649353
1667266548112137700,1.0651376953125,1.281557559967041,-1.2082558870315552,1.0115630626678467
1667266548114535700,1.06753564453125,1.3549355268478394,-1.3653199672698975,1.0708152055740356
1667266548116933400,1.069933349609375,1.4294589757919312,-1.502760648727417,1.138619303703308
1667266548119331300,1.072331298828125,1.5021498203277588,-1.616989016532898,1.2088667154312134
1667266548121729000,1.07472900390625,1.5748405456542969,-1.7110595703125,1.2840009927749634
1667266548124126700,1.077126708984375,1.6450880765914917,-1.7880263328552246,1.3610440492630005
1667266548126524700,1.079524658203125,1.7147246599197388,-1.8387266397476196,1.442286729812622
1667266548128922400,1.08192236328125,1.7800853252410889,-1.8735449314117432,1.525972843170166
1667266548131320300,1.0843203125,1.844224214553833,-1.8967571258544922,1.6114914417266846
1667266548133718000,1.086718017578125,1.9028655290603638,-1.9040873050689697,1.6988425254821777
1667266548136115700,1.08911572265625,1.9566200971603394,-1.8985896110534668,1.7868045568466187
1667266548138513700,1.091513671875,2.0079312324523926,-1.8827075958251953,1.8735449314117432
1667266548140911400,1.093911376953125,2.053133964538574,-1.8564411401748657,1.9608960151672363
1667266548143309300,1.096309326171875,2.09039568901062,-1.8234554529190063,2.046414613723755
1667266548145707000,1.09870703125,2.1209380626678467,-1.7819178104400635,2.130100727081299
1667266548148104700,1.101104736328125,2.1441502571105957,-1.7483211755752563,2.2107326984405518
1667266548150502700,1.103502685546875,2.1612539291381836,-1.715335488319397,2.28342342376709
1667266548152900400,1.105900390625,2.1673624515533447,-1.690901517868042,2.3518383502960205
1667266548155298300,1.10829833984375,2.171638250350952,-1.6725761890411377,2.4117014408111572
1667266548157696000,1.110696044921875,2.1691949367523193,-1.659137487411499,2.4617908000946045
1667266548160093700,1.11309375,2.1636972427368164,-1.6487531661987305,2.506993532180786
1667266548162491600,1.11549169921875,2.1551454067230225,-1.63592529296875,2.5460877418518066
1667266548164889300,1.117889404296875,2.1404850482940674,-1.621264934539795,2.578462600708008
1667266548167287300,1.120287353515625,2.1227705478668213,-1.6035504341125488,2.604729175567627
1667266548169685000,1.12268505859375,2.1026127338409424,-1.5821707248687744,2.6267194747924805
1667266548172083000,1.1250830078125,2.0745136737823486,-1.5546826124191284,2.642601490020752
1667266548174480600,1.127480712890625,2.047025442123413,-1.52475106716156,2.651764392852783
1667266548176878300,1.12987841796875,2.0158722400665283,-1.4966521263122559,2.6560401916503906
1667266548179276300,1.1322763671875,1.9841082096099854,-1.4661097526550293,2.654207706451416
1667266548181674000,1.134674072265625,1.9474574327468872,-1.436178207397461,2.6468775272369385
1667266548184072000,1.137072021484375,1.9083632230758667,-1.4093009233474731,2.630384683609009
1667266548186469600,1.1394697265625,1.8704906702041626,-1.381201982498169,2.6096158027648926
1667266548188867600,1.14186767578125,1.8289530277252197,-1.3567681312561035,2.581516981124878
1667266548191265300,1.144265380859375,1.789247989654541,-1.3340904712677002,2.543644428253174
1667266548193663000,1.1466630859375,1.751375436782837,-1.3114891052246094,2.5057718753814697
1667266548196061000,1.14906103515625,1.7135028839111328,-1.2888877391815186,2.4624016284942627
1667266548198458600,1.151458740234375,1.6756303310394287,-1.2705622911453247,2.4184205532073975
1667266548200856600,1.153856689453125,1.6389795541763306,-1.252847671508789,2.36833119392395
1667266548203254300,1.156254150390625,1.6023286581039429,-1.2314680814743042,2.318852663040161
1667266548205652000,1.15865185546875,1.5668995380401611,-1.2143644094467163,2.26693058013916
1667266548208050000,1.1610498046875,1.53452467918396,-1.197871446609497,2.2156193256378174
1667266548210447600,1.163447509765625,1.4960412979125977,-1.1826002597808838,2.1612539291381836
1667266548212845600,1.165845458984375,1.4557254314422607,-1.1673290729522705,2.109942674636841
1667266548215243300,1.1682431640625,1.414798617362976,-1.1563338041305542,2.0567991733551025
1667266548217641200,1.17064111328125,1.3738718032836914,-1.1435060501098633,2.0042662620544434
1667266548220039000,1.173038818359375,1.3328686952590942,-1.1410627365112305,1.9560092687606812
1667266548222436600,1.1754365234375,1.2876659631729126,-1.1422843933105469,1.9053089618682861
1667266548224834600,1.17783447265625,1.2424633502960205,-1.1477819681167603,1.8607170581817627
1667266548227232300,1.180232177734375,1.1954281330108643,-1.1587772369384766,1.81246018409729
1667266548229630200,1.182630126953125,1.1496145725250244,-1.1740484237670898,1.7697008848190308
1667266548232028000,1.18502783203125,1.100746750831604,-1.1911520957946777,1.7269415855407715
1667266548234425900,1.18742578125,1.0524898767471313,-1.2100883722305298,1.6854039430618286
1667266548236823600,1.189823486328125,1.003622055053711,-1.2290246486663818,1.6450880765914917
1667266548239221200,1.19222119140625,0.9535325765609741,-1.248571753501892,1.6102697849273682
1667266548241619200,1.194619140625,0.9034430980682373,-1.2620104551315308,1.5754514932632446
1667266548244017000,1.197016845703125,0.8539644479751587,-1.2766708135604858,1.5424656867980957
1667266548246414800,1.199414794921875,0.8044858574867249,-1.2827792167663574,1.5094798803329468
1667266548248812500,1.2018125,0.7531746625900269,-1.2852226495742798,1.4764941930770874
1667266548251210200,1.204210205078125,0.7024743556976318,-1.2870551347732544,1.4435083866119385
1667266548253608200,1.206608154296875,0.6499415040016174,-1.2846118211746216,1.4093009233474731
1667266548256006000,1.209005859375,0.5949652194976807,-1.2833900451660156,1.3744826316833496
1667266548258403800,1.21140380859375,0.5418215394020081,-1.2785032987594604,1.340886116027832
1667266548260801500,1.213801513671875,0.4862344264984131,-1.2699514627456665,1.3023263216018677
1667266548263199200,1.21619921875,0.4343124032020569,-1.2595670223236084,1.2632321119308472
1667266548265597200,1.21859716796875,0.3781144618988037,-1.2449066638946533,1.2229162454605103
1667266548267995000,1.220994873046875,0.32374903559684753,-1.226581335067749,1.1813786029815674
1667266548270392800,1.223392822265625,0.27060532569885254,-1.2045907974243164,1.138619303703308
1667266548272790500,1.22579052734375,0.21868331730365753,-1.1777135133743286,1.0940274000167847
1667266548275188200,1.228188232421875,0.16859383881092072,-1.147171139717102,1.0506572723388672
1667266548277586200,1.230586181640625,0.12094775587320328,-1.1129636764526367,1.0042328834533691
1667266548279983900,1.23298388671875,0.07696675509214401,-1.0726478099822998,0.9590302109718323
1667266548282381800,1.2353818359375,0.031153209507465363,-1.0280559062957764,0.9138274788856506
1667266548284779500,1.237779541015625,-0.00916270911693573,-0.9840749502182007,0.8680139780044556
1667266548287177500,1.240177490234375,-0.047646086663007736,-0.9352071285247803,0.8203678727149963
1667266548289575200,1.2425751953125,-0.08551861345767975,-0.8832851648330688,0.7763868570327759
1667266548291972900,1.244972900390625,-0.12339114397764206,-0.8105943202972412,0.7403468489646912
1667266548294370800,1.247370849609375,-0.1569877415895462,-0.739736020565033,0.7061394453048706
1667266548296768500,1.2497685546875,-0.19119518995285034,-0.6810947060585022,0.6713211536407471
1667266548299166500,1.25216650390625,-0.21868331730365753,-0.6352811455726624,0.6389462351799011
1667266548301564200,1.254564208984375,-0.24617144465446472,-0.6029062271118164,0.6071822047233582
1667266548303962000,1.256962158203125,-0.27060532569885254,-0.582748293876648,0.5741963982582092
1667266548306359800,1.25935986328125,-0.29626092314720154,-0.578472375869751,0.5442649126052856
1667266548308757500,1.261757568359375,-0.3158080279827118,-0.5864133834838867,0.5155550837516785
1667266548311155500,1.264155517578125,-0.3310792148113251,-0.6053496599197388,0.4886777997016907
1667266548313553200,1.26655322265625,-0.34757208824157715,-0.6346703171730042,0.46241137385368347
1667266548315951000,1.268951171875,-0.35917818546295166,-0.6707102656364441,0.43858832120895386
1667266548318348800,1.271348876953125,-0.3695625960826874,-0.712247908115387,0.4178195297718048
1667266548320746800,1.273746826171875,-0.3787252902984619,-0.7592831254005432,0.40071579813957214
1667266548323144400,1.27614453125,-0.38727715611457825,-0.8069292306900024,0.3915531039237976
1667266548325542100,1.278542236328125,-0.3958290219306946,-0.8490777015686035,0.38605546951293945
1667266548327940000,1.280940185546875,-0.4049917459487915,-0.8887827396392822,0.3836120665073395
1667266548330337800,1.283337890625,-0.41232189536094666,-0.9242119193077087,0.3823903799057007
1667266548332735700,1.28573583984375,-0.4190412163734436,-0.9596410393714905,0.38483378291130066
1667266548335133400,1.288133544921875,-0.42453885078430176,-0.9877400398254395,0.38849884271621704
1667266548337531100,1.29053125,-0.4343124032020569,-1.0158389806747437,0.39643988013267517
1667266548339929000,1.29292919921875,-0.43919917941093445,-1.037218689918518,0.4056025743484497
1667266548342326800,1.295326904296875,-0.4459185004234314,-1.0512681007385254,0.418430358171463
1667266548344724700,1.297724853515625,-0.45202696323394775,-1.0592091083526611,0.4349232614040375
1667266548347122400,1.300122314453125,-0.4569137394428253,-1.0598199367523193,0.45080527663230896
1667266548349520400,1.302520263671875,-0.46485477685928345,-1.0524898767471313,0.4709632396697998
1667266548351918000,1.30491796875,-0.4703523814678192,-1.035996913909912,0.4960079789161682
1667266548354315800,1.307315673828125,-0.47707170248031616,-1.0152281522750854,0.5198310017585754
1667266548356713700,1.309713623046875,-0.4819584786891937,-0.990183413028717,0.546097457408905
1667266548359111400,1.312111328125,-0.48928865790367126,-0.9596410393714905,0.5748072862625122
1667266548361509400,1.31450927734375,-0.497229665517807,-0.9254335761070251,0.6035171151161194
1667266548363907000,1.316906982421875,-0.5045598149299622,-0.8851176500320435,0.6328377723693848
1667266548366304800,1.3193046875,-0.5112791657447815,-0.8478559851646423,0.6652126908302307
1667266548368702700,1.32170263671875,-0.5173876285552979,-0.8044858574867249,0.7000309824943542
1667266548371100400,1.324100341796875,-0.5247178077697754,-0.7611156702041626,0.731184184551239
1667266548373498400,1.326498291015625,-0.5302154421806335,-0.7207997441291809,0.7611156702041626
1667266548375896000,1.32889599609375,-0.5375455617904663,-0.6835380792617798,0.7934905886650085
1667266548378293800,1.331293701171875,-0.5454866290092468,-0.6450546979904175,0.8246437907218933
1667266548380691700,1.333691650390625,-0.5497625470161438,-0.6090146899223328,0.856407880783081
1667266548383089400,1.33608935546875,-0.5509842038154602,-0.578472375869751,0.883895993232727
1667266548385487400,1.3384873046875,-0.555260181427002,-0.5473191738128662,0.911384105682373
1667266548387885000,1.340885009765625,-0.5583143830299377,-0.5192201733589172,0.9376505613327026
1667266548390283000,1.343282958984375,-0.5583143830299377,-0.4966188073158264,0.9633061289787292
1667266548392680700,1.3456806640625,-0.5613686442375183,-0.4746283292770386,0.9883508682250977
1667266548395078400,1.348078369140625,-0.5625903010368347,-0.4581354558467865,1.007897973060608
1667266548397476400,1.350476318359375,-0.5650337338447571,-0.4422534108161926,1.0304993391036987
1667266548399874000,1.3528740234375,-0.5656445622444153,-0.4312581717967987,1.0512681007385254
1667266548402272000,1.35527197265625,-0.5662553906440735,-0.42576053738594055,1.0665392875671387
1667266548404669700,1.357669677734375,-0.5699204802513123,-0.42392799258232117,1.0836430788040161
1667266548407067400,1.3600673828125,-0.5723638534545898,-0.42453885078430176,1.0989142656326294
1667266548409465300,1.36246533203125,-0.5766398310661316,-0.4318690001964569,1.1147962808609009
1667266548411863000,1.364863037109375,-0.5821374654769897,-0.44103172421455383,1.1270132064819336
1667266548414261000,1.367260986328125,-0.5888567566871643,-0.4563029110431671,1.1373976469039917
1667266548416658700,1.36965869140625,-0.5974085927009583,-0.4734066128730774,1.147171139717102
1667266548419056600,1.372056640625,-0.6090146899223328,-0.49051034450531006,1.1520578861236572
1667266548421454300,1.374454345703125,-0.6206207871437073,-0.5106683373451233,1.1563338041305542
1667266548423852000,1.37685205078125,-0.6340594291687012,-0.5351021885871887,1.159998893737793
1667266548426250000,1.37925,-0.6505523324012756,-0.5619794726371765,1.161220669746399
1667266548428647700,1.381647705078125,-0.6688777208328247,-0.5882459282875061,1.1563338041305542
1667266548431045600,1.384045654296875,-0.6853706240653992,-0.6157340407371521,1.152668833732605
1667266548433443300,1.386443359375,-0.7067502737045288,-0.6456655263900757,1.1477819681167603
1667266548435841300,1.38884130859375,-0.7281299233436584,-0.675597071647644,1.1404517889022827
1667266548438239000,1.391239013671875,-0.7525638341903687,-0.7061394453048706,1.1288456916809082
1667266548440636700,1.39363671875,-0.7745543122291565,-0.7342383861541748,1.1178505420684814
1667266548443034600,1.39603466796875,-0.7965448498725891,-0.7598940134048462,1.1013575792312622
1667266548445432300,1.398432373046875,-0.8240329623222351,-0.7812736630439758,1.086086392402649
1667266548447830300,1.400830322265625,-0.846023440361023,-0.8002098798751831,1.0671501159667969
1667266548450228000,1.40322802734375,-0.8686248064041138,-0.8179244995117188,1.0488247871398926
1667266548452626000,1.4056259765625,-0.893058717250824,-0.8289197087287903,1.0280559062957764
1667266548455023600,1.408023681640625,-0.9168817400932312,-0.8380824327468872,1.0048437118530273
1667266548457421300,1.41042138671875,-0.9376505613327026,-0.8472451567649841,0.9773555994033813
1667266548459819300,1.4128193359375,-0.9584193229675293,-0.8515210747718811,0.9510892033576965
1667266548462217000,1.415217041015625,-0.9785773158073425,-0.8533536195755005,0.9229902029037476
1667266548464615000,1.417614990234375,-0.9962918758392334,-0.8533536195755005,0.8955020904541016
1667266548467012600,1.4200126953125,-1.0115630626678467,-0.8509102463722229,0.8637380003929138
1667266548469410300,1.422410400390625,-1.0286667346954346,-0.8496885299682617,0.832584798336029
1667266548471808300,1.424808349609375,-1.0390511751174927,-0.8399149775505066,0.7995990514755249
1667266548474206000,1.4272060546875,-1.0482138395309448,-0.8264763355255127,0.7592831254005432
1667266548476604000,1.42960400390625,-1.0592091083526611,-0.8081509470939636,0.7171346545219421
1667266548479001600,1.432001708984375,-1.068982720375061,-0.7922688722610474,0.6731536984443665
1667266548481399600,1.434399658203125,-1.0769237279891968,-0.7733326554298401,0.6297835111618042
1667266548483797200,1.43679736328125,-1.081810474395752,-0.7562289237976074,0.5882459282875061
1667266548486195000,1.43919482421875,-1.0836430788040161,-0.7403468489646912,0.5473191738128662
1667266548488593000,1.441593017578125,-1.0836430788040161,-0.7238540053367615,0.5076140761375427
1667266548490990600,1.443990478515625,-1.0811996459960938,-0.7061394453048706,0.46851983666419983
1667266548493388500,1.446388427734375,-1.0757020711898804,-0.6853706240653992,0.4324798583984375
1667266548495786200,1.4487861328125,-1.068982720375061,-0.6633801460266113,0.3921639323234558
1667266548498184000,1.451183837890625,-1.0592091083526611,-0.6346703171730042,0.3549022674560547
1667266548500582000,1.453581787109375,-1.045770525932312,-0.5906893014907837,0.32191649079322815
1667266548502979600,1.4559794921875,-1.0317209959030151,-0.546097457408905,0.2907632887363434
1667266548505377500,1.45837744140625,-1.014006495475769,-0.4990622103214264,0.258999228477478
1667266548507775200,1.460775146484375,-0.9981244206428528,-0.45447036623954773,0.22662433981895447
1667266548510173000,1.4631728515625,-0.9797990322113037,-0.40987852215766907,0.1954711228609085
1667266548512571000,1.46557080078125,-0.9596410393714905,-0.367730051279068,0.16248537600040436
1667266548514968600,1.467968505859375,-0.9419264793395996,-0.3249707520008087,0.13377554714679718
1667266548517366500,1.470366455078125,-0.9248227477073669,-0.27915719151496887,0.10262233763933182
1667266548519764200,1.47276416015625,-0.9077190160751343,-0.2357870489358902,0.07330167293548584
1667266548522162000,1.475161865234375,-0.8912261724472046,-0.18753011524677277,0.04459185153245926
1667266548524560000,1.477559814453125,-0.8759549856185913,-0.13805148005485535,0.015271181240677834
1667266548526957600,1.47995751953125,-0.8619054555892944,-0.08857285231351852,-0.013438640162348747
1667266548529355500,1.48235546875,-0.8502993583679199,-0.03787253051996231,-0.04031591862440109
1667266548531753200,1.484753173828125,-0.836860716342926,0.012827792204916477,-0.0647498071193695
1667266548534151200,1.487151123046875,-0.8252546191215515,0.06413896381855011,-0.0910162404179573
1667266548536548900,1.489548828125,-0.8160919547080994,0.11545012891292572,-0.11606097966432571
1667266548538946600,1.491946533203125,-0.8087617754936218,0.1698155403137207,-0.14049486815929413
1667266548541344500,1.494344482421875,-0.8014315962791443,0.22601348161697388,-0.16309621930122375
1667266548543742200,1.4967421875,-0.7941014170646667,0.28282228112220764,-0.18569757044315338
1667266548546140200,1.49914013671875,-0.7873821258544922,0.3402419090270996,-0.20707722008228302
1667266548548537900,1.501537841796875,-0.7800519466400146,0.39766156673431396,-0.22601348161697388
1667266548550935800,1.503935791015625,-0.7727217674255371,0.4563029110431671,-0.2486148327589035
1667266548553333500,1.50633349609375,-0.7678350210189819,0.517998456954956,-0.26877278089523315
1667266548555731200,1.508731201171875,-0.7617265582084656,0.5821374654769897,-0.2864873707294464
1667266548558129200,1.511129150390625,-0.7562289237976074,0.6444438695907593,-0.3035911023616791
1667266548560526800,1.51352685546875,-0.7501204609870911,0.7104153633117676,-0.32069480419158936
1667266548562924800,1.5159248046875,-0.7458444833755493,0.7782194018363953,-0.3390202224254608
1667266548565322500,1.518322509765625,-0.7403468489646912,0.8411366939544678,-0.3536805510520935
1667266548567720400,1.520720458984375,-0.7379034757614136,0.9046648144721985,-0.37444937229156494
1667266548570118100,1.5231181640625,-0.7324058413505554,0.9724688529968262,-0.390942245721817
1667266548572515800,1.525515869140625,-0.731184184551239,1.0378295183181763,-0.4068242609500885
1667266548574913800,1.527913818359375,-0.731184184551239,1.100746750831604,-0.42576053738594055
1667266548577311500,1.5303115234375,-0.7287407517433167,1.155722975730896,-0.4446968138217926
1667266548579709400,1.53270947265625,-0.7281299233436584,1.211920976638794,-0.46241137385368347
1667266548582107100,1.535107177734375,-0.7281299233436584,1.2638429403305054,-0.47768256068229675
1667266548584505000,1.537505126953125,-0.7262973785400391,1.3096565008163452,-0.4966188073158264
1667266548586902800,1.53990283203125,-0.7287407517433167,1.349437952041626,-0.5137225389480591
1667266548589300500,1.542300537109375,-0.7324058413505554,1.385477900505066,-0.5320479869842529
1667266548591698400,1.544698486328125,-0.735460102558136,1.414798617362976,-0.5497625470161438
1667266548594096000,1.54709619140625,-0.7391251921653748,1.4410650730133057,-0.5680879354476929
1667266548596494000,1.549494140625,-0.7440119385719299,1.4612230062484741,-0.5821374654769897
1667266548598891800,1.551891845703125,-0.7501204609870911,1.478326678276062,-0.5974085927009583
1667266548601289500,1.55428955078125,-0.7574505805969238,1.4905437231063843,-0.6132906675338745
1667266548603687400,1.5566875,-0.762948215007782,1.49848473072052,-0.6267293095588684
1667266548606085000,1.559085205078125,-0.7690566778182983,1.502760648727417,-0.6389462351799011
1667266548608483000,1.561483154296875,-0.7757760286331177,1.5003172159194946,-0.648108959197998
1667266548610880800,1.563880859375,-0.7837170362472534,1.4954304695129395,-0.6591041684150696
1667266548613278500,1.566278564453125,-0.7892146706581116,1.4850460290908813,-0.6646018028259277
1667266548615676400,1.568676513671875,-0.790436327457428,1.4685531854629517,-0.6700994372367859
1667266548618074000,1.57107421875,-0.7879929542541504,1.4471734762191772,-0.6713211536407471
1667266548620472000,1.57347216796875,-0.781884491443634,1.42335045337677,-0.6688777208328247
1667266548622869800,1.575869873046875,-0.7788302302360535,1.4007490873336792,-0.6646018028259277
1667266548625267700,1.578267822265625,-0.7702783942222595,1.3757044076919556,-0.6572716236114502
1667266548627665400,1.58066552734375,-0.7580614686012268,1.3488271236419678,-0.6487197875976562
1667266548630063000,1.58306298828125,-0.7415685653686523,1.318819284439087,-0.6365028619766235
1667266548632461000,1.5854609375,-0.7220214605331421,1.2894985675811768,-0.6206207871437073
1667266548634858800,1.587858642578125,-0.6994200944900513,1.2601778507232666,-0.601073682308197
1667266548637256700,1.590256591796875,-0.6719319820404053,1.2326897382736206,-0.578472375869751
1667266548639654400,1.592654296875,-0.6432221531867981,1.2045907974243164,-0.5534276366233826
1667266548642052000,1.595052001953125,-0.6114581227302551,1.1777135133743286,-0.5265503525733948
1667266548644450000,1.597449951171875,-0.5772506594657898,1.1538904905319214,-0.497229665517807
1667266548646847700,1.59984765625,-0.5412106513977051,1.12823486328125,-0.46607646346092224
1667266548649245700,1.60224560546875,-0.5015056133270264,1.109298586845398,-0.4318690001964569
1667266548651643400,1.604643310546875,-0.46302223205566406,1.0915840864181519,-0.39888325333595276
1667266548654041000,1.607041015625,-0.4227063059806824,1.0793671607971191,-0.3683409094810486
1667266548656439000,1.60943896484375,-0.3830012381076813,1.073258638381958,-0.33596599102020264
1667266548658836700,1.611836669921875,-0.34451785683631897,1.0769237279891968,-0.3029802441596985
1667266548661234700,1.614234619140625,-0.30664533376693726,1.0854755640029907,-0.27121618390083313
1667266548663632400,1.61663232421875,-0.27121618390083313,1.0989142656326294,-0.23884128034114838
1667266548666030300,1.6190302734375,-0.23823043704032898,1.119683027267456,-0.20768806338310242
1667266548668428000,1.621427978515625,-0.20585553348064423,1.1435060501098633,-0.17225892841815948
1667266548670825700,1.62382568359375,-0.17470231652259827,1.1716049909591675,-0.14110571146011353
1667266548673223700,1.6262236328125,-0.14965757727622986,1.203369140625,-0.10811996459960938
1667266548675621400,1.628621337890625,-0.12400199472904205,1.2369656562805176,-0.07574506103992462
1667266548678019300,1.631019287109375,-0.10017894953489304,1.26872980594635,-0.04214845970273018
1667266548680417000,1.6334169921875,-0.0787992998957634,1.3017154932022095,-0.007941014133393764
1667266548682815000,1.63581494140625,-0.05741964280605316,1.3353121280670166,0.026877280324697495
1667266548685212700,1.638212646484375,-0.037261683493852615,1.359822392463684,0.05986303091049194
1667266548687610400,1.6406103515625,-0.021379653364419937,1.38731050491333,0.09468132257461548
1667266548690008300,1.64300830078125,0,1.4111335277557373,0.12827792763710022
1667266548692406000,1.645406005859375,0.021379653364419937,1.42335045337677,0.16309621930122375
1667266548694804000,1.647803955078125,0.04031591862440109,1.4349565505981445,0.1973036676645279
1667266548697201700,1.65020166015625,0.062306419014930725,1.4447301626205444,0.23273280262947083
1667266548699599600,1.652599609375,0.08246438205242157,1.456336259841919,0.26999449729919434
1667266548701997300,1.654997314453125,0.10323318839073181,1.4728291034698486,0.30603447556495667
1667266548704395000,1.65739501953125,0.12155860662460327,1.4905437231063843,0.3402419090270996
1667266548706793000,1.65979296875,0.13805148005485535,1.515588402748108,0.3762819170951843
1667266548709190700,1.662190673828125,0.1569877415895462,1.5522392988204956,0.4080459773540497
1667266548711588600,1.664588623046875,0.17409147322177887,1.6011070013046265,0.43797749280929565
1667266548713986300,1.666986328125,0.18814095854759216,1.6597483158111572,0.46668729186058044
1667266548716384000,1.669384033203125,0.20280128717422485,1.7275524139404297,0.4966188073158264
1667266548718782000,1.671781982421875,0.21440738439559937,1.7953563928604126,0.5216635465621948
1667266548721179600,1.6741796875,0.22662433981895447,1.8564411401748657,0.5497625470161438
1667266548723577600,1.67657763671875,0.24067382514476776,1.8943136930465698,0.5754181146621704
1667266548725975300,1.678975341796875,0.2608317732810974,1.9114174842834473,0.5961869359016418
1667266548728373200,1.681373291015625,0.2858765125274658,1.9022547006607056,0.6193991303443909
1667266548730771000,1.68377099609375,0.312142938375473,1.8747665882110596,0.6432221531867981
1667266548733168600,1.686168701171875,0.34512871503829956,1.8240662813186646,0.660936713218689
1667266548735566600,1.688566650390625,0.3811686933040619,1.7593164443969727,0.675597071647644
1667266548737964300,1.69096435546875,0.4190412163734436,1.6786845922470093,0.6872031688690186
1667266548740362200,1.6933623046875,0.4575245976448059,1.593776822090149,0.6969767212867737
1667266548742760000,1.695760009765625,0.4947862923145294,1.507036566734314,0.7067502737045288
1667266548745158000,1.698157958984375,0.527161180973053,1.410522699356079,0.7085828185081482
1667266548747555600,1.7005556640625,0.5613686442375183,1.309045672416687,0.7140804529190063
1667266548749953300,1.702953369140625,0.5931326746940613,1.2039799690246582,0.7153021693229675
1667266548752351200,1.705351318359375,0.6255075931549072,1.096470832824707,0.7165238261222839
1667266548754749000,1.7077490234375,0.6560499668121338,0.9840749502182007,0.7159129977226257
1667266548757146600,1.710146728515625,0.684759795665741,0.8729007244110107,0.7165238261222839
1667266548759544600,1.712544677734375,0.7128587365150452,0.7641699314117432,0.7165238261222839
1667266548761942300,1.7149423828125,0.7409577369689941,0.656660795211792,0.7177455425262451
1667266548764340200,1.71734033203125,0.767224133014679,0.5497625470161438,0.7195780873298645
1667266548766738000,1.719738037109375,0.7898254990577698,0.45019441843032837,0.7232431769371033
1667266548769135900,1.722135986328125,0.8112051486968994,0.3573456406593323,0.730573296546936
1667266548771533600,1.724533447265625,0.8319739699363708,0.26999449729919434,0.7348492741584778
1667266548773931300,1.72693115234375,0.8515210747718811,0.18997350335121155,0.7427902817726135
1667266548776329200,1.7293291015625,0.8686248064041138,0.11667182296514511,0.7513421177864075
1667266548778727000,1.731726806640625,0.8845068216323853,0.04947862774133682,0.7592831254005432
1667266548781124900,1.734124755859375,0.8961129188537598,-0.012827792204916477,0.7678350210189819
1667266548783522600,1.7365224609375,0.9083298444747925,-0.06719319522380829,0.7763868570327759
1667266548785920300,1.738920166015625,0.9181034564971924,-0.1178935244679451,0.7843278646469116
1667266548788318200,1.741318115234375,0.9223793745040894,-0.16859383881092072,0.7892146706581116
1667266548790716000,1.7437158203125,0.9272661209106445,-0.22051586210727692,0.7941014170646667
1667266548793113900,1.74611376953125,0.9278770089149475,-0.27060532569885254,0.7971556782722473
1667266548795511600,1.748511474609375,0.9272661209106445,-0.32313820719718933,0.7983773946762085
1667266548797909500,1.750909423828125,0.9260444641113281,-0.3775036036968231,0.7983773946762085
1667266548800307200,1.75330712890625,0.9199360013008118,-0.43614494800567627,0.7971556782722473
1667266548802705000,1.755704833984375,0.9119949340820312,-0.4978405237197876,0.7916580438613892
1667266548805102800,1.758102783203125,0.9022213816642761,-0.5595360994338989,0.7849387526512146
1667266548807500500,1.76050048828125,0.8887827396392822,-0.6236750483512878,0.7715001106262207
1667266548809898500,1.7628984375,0.8729007244110107,-0.6878139972686768,0.7562289237976074
1667266548812296200,1.765296142578125,0.8551861643791199,-0.7537854909896851,0.735460102558136
1667266548814694100,1.767694091796875,0.8313631415367126,-0.8173136115074158,0.7061394453048706
1667266548817091800,1.770091796875,0.8069292306900024,-0.8790091872215271,0.6719319820404053
1667266548819489500,1.772489501953125,0.7782194018363953,-0.9352071285247803,0.6328377723693848
1667266548821887500,1.774887451171875,0.7470661997795105,-0.9883508682250977,0.5864133834838867
1667266548824285200,1.77728515625,0.7177455425262451,-1.035386085510254,0.5375455617904663
1667266548826683100,1.77968310546875,0.6890357136726379,-1.0836430788040161,0.4831801950931549
1667266548829080800,1.782080810546875,0.660936713218689,-1.129456639289856,0.42759308218955994
1667266548831478800,1.784478759765625,0.6328377723693848,-1.161220669746399,0.3665083646774292
1667266548833876500,1.78687646484375,0.6004628539085388,-1.178935170173645,0.3054236173629761
1667266548836274200,1.789274169921875,0.5656445622444153,-1.1807677745819092,0.24433889985084534
1667266548838672100,1.791672119140625,0.5277720093727112,-1.1685508489608765,0.18569757044315338
1667266548841069800,1.79406982421875,0.4874561131000519,-1.142895221710205,0.12888877093791962
1667266548843467800,1.7964677734375,0.446529358625412,-1.1074661016464233,0.07269082218408585
1667266548845865500,1.798865478515625,0.39766156673431396,-1.0628741979599,0.017714571207761765
1667266548848263200,1.80126318359375,0.34757208824157715,-1.014006495475769,-0.03420744836330414
1667266548850661000,1.8036611328125,0.29748260974884033,-0.9602518677711487,-0.08368607610464096
1667266548853058800,1.806058837890625,0.24128466844558716,-0.9022213816642761,-0.1313321590423584
1667266548855456800,1.808456787109375,0.18753011524677277,-0.8429692387580872,-0.17897824943065643
1667266548857854500,1.8108544921875,0.13316470384597778,-0.7812736630439758,-0.2223484069108963
1667266548860252200,1.813252197265625,0.07696675509214401,-0.7171346545219421,-0.2644968628883362
1667266548862650000,1.815650146484375,0.023212196305394173,-0.6493306159973145,-0.3054236173629761
1667266548865047800,1.8180478515625,-0.02993151545524597,-0.5796940326690674,-0.3432961702346802
1667266548867445800,1.82044580078125,-0.08002099394798279,-0.5137225389480591,-0.3775036036968231
1667266548869843500,1.822843505859375,-0.12583453953266144,-0.44042086601257324,-0.41232189536094666
1667266548872241400,1.825241455078125,-0.1692046970129013,-0.37261682748794556,-0.444085955619812
1667266548874639000,1.82763916015625,-0.20585553348064423,-0.30725616216659546,-0.474017471075058
1667266548877036800,1.830036865234375,-0.2363978922367096,-0.24128466844558716,-0.5021164417266846
1667266548879434800,1.832434814453125,-0.2620534598827362,-0.17836740612983704,-0.5283828973770142
1667266548881832400,1.83483251953125,-0.28282228112220764,-0.12155860662460327,-0.5528167486190796
1667266548884230400,1.83723046875,-0.29442837834358215,-0.0659715011715889,-0.5717530250549316
1667266548886628000,1.839628173828125,-0.3023693859577179,-0.018936265259981155,-0.5906893014907837
1667266548889025800,1.84202587890625,-0.3054236173629761,0.02870982140302658,-0.605960488319397
1667266548891423700,1.844423828125,-0.3011476993560791,0.07207997888326645,-0.6193991303443909
1667266548893821400,1.846821533203125,-0.29381752014160156,0.11422843486070633,-0.6297835111618042
1667266548896219400,1.849219482421875,-0.28221142292022705,0.15271180868148804,-0.6371136903762817
1667266548898617000,1.8516171875,-0.2632751762866974,0.18936264514923096,-0.6438329815864563
1667266548901014800,1.854014892578125,-0.24556060135364532,0.22601348161697388,-0.6444438695907593
1667266548903412700,1.856412841796875,-0.22479179501533508,0.2626643180847168,-0.6438329815864563
1667266548905810400,1.858810546875,-0.20157960057258606,0.2993151545524597,-0.6413896083831787
1667266548908208400,1.86120849609375,-0.17470231652259827,0.3365768492221832,-0.6383354067802429
1667266548910606000,1.863606201171875,-0.14721418917179108,0.3671191930770874,-0.6328377723693848
1667266548913004000,1.866004150390625,-0.11911521852016449,0.4037700295448303,-0.6273401379585266
1667266548915401700,1.868401611328125,-0.08857285231351852,0.43614494800567627,-0.6157340407371521
1667266548917799400,1.87079931640625,-0.05986303091049194,0.46851983666419983,-0.6077930331230164
1667266548920197400,1.873197265625,-0.030542362481355667,0.4990622103214264,-0.5955760478973389
1667266548922595000,1.875594970703125,-0.0024433890357613564,0.5283828973770142,-0.5864133834838867
1667266548924993000,1.877992919921875,0.022601349279284477,0.5564818382263184,-0.573585569858551
1667266548927390700,1.880390625,0.04703523963689804,0.5809157490730286,-0.5632011890411377
1667266548929788700,1.88278857421875,0.06902574002742767,0.6090146899223328,-0.5509842038154602
1667266548932186400,1.885186279296875,0.09040539711713791,0.633448600769043,-0.5375455617904663
1667266548934584000,1.887583984375,0.1044548824429512,0.6536065936088562,-0.5241069197654724
1667266548936982000,1.88998193359375,0.11545012891292572,0.6737645268440247,-0.5125008225440979
1667266548939379700,1.892379638671875,0.12644538283348083,0.6914790868759155,-0.5008947253227234
1667266548941777700,1.894777587890625,0.13316470384597778,0.7036960124969482,-0.49173203110694885
1667266548944175400,1.89717529296875,0.13805148005485535,0.7116370797157288,-0.47890424728393555
1667266548946573300,1.8995732421875,0.14049486815929413,0.712247908115387,-0.4703523814678192
1667266548948971000,1.901970947265625,0.13988402485847473,0.7012526392936707,-0.4593571424484253
1667266548951368700,1.90436865234375,0.13316470384597778,0.6884248852729797,-0.446529358625412
1667266548953766700,1.9067666015625,0.12705622613430023,0.660936713218689,-0.4337015450000763
1667266548956164400,1.909164306640625,0.1185043677687645,0.6303943991661072,-0.4196520745754242
1667266548958562300,1.911562255859375,0.10689827054738998,0.5906893014907837,-0.4056025743484497
1667266548960960000,1.9139599609375,0.09529217332601547,0.5467082858085632,-0.38849884271621704
1667266548963357700,1.916357666015625,0.08124268800020218,0.5008947253227234,-0.37261682748794556
1667266548965755600,1.918755615234375,0.062306419014930725,0.45385950803756714,-0.3573456406593323
1667266548968153300,1.9211533203125,0.04459185153245926,0.4080459773540497,-0.33718767762184143
1667266548970551300,1.92355126953125,0.029320668429136276,0.363454133272171,-0.32069480419158936
1667266548972949000,1.925948974609375,0.005497625097632408,0.31947311758995056,-0.30603447556495667
1667266548975346700,1.9283466796875,-0.012827792204916477,0.27976804971694946,-0.2883199155330658
1667266548977744600,1.93074462890625,-0.037261683493852615,0.24372805655002594,-0.2724378705024719
1667266548980142300,1.933142333984375,-0.05986303091049194,0.208298921585083,-0.2602209448814392
1667266548982540300,1.935540283203125,-0.08307522535324097,0.17897824943065643,-0.24678228795528412
1667266548984938000,1.93793798828125,-0.10689827054738998,0.1569877415895462,-0.23273280262947083
1667266548987335700,1.940335693359375,-0.1313321590423584,0.13377554714679718,-0.2223484069108963
1667266548989733600,1.942733642578125,-0.15454435348510742,0.1185043677687645,-0.2113531529903412
1667266548992131300,1.94513134765625,-0.18081079423427582,0.10262233763933182,-0.20219044387340546
1667266548994529300,1.947529296875,-0.19913621246814728,0.08490777015686035,-0.19363857805728912
1667266548996927000,1.949927001953125,-0.2217375487089157,0.07207997888326645,-0.18875180184841156
1667266548999325000,1.952324951171875,-0.24189551174640656,0.05986303091049194,-0.1832541823387146
1667266549001722600,1.95472265625,-0.261442631483078,0.047646086663007736,-0.17714570462703705
1667266549004120300,1.957120361328125,-0.2761029601097107,0.0397050715982914,-0.17470231652259827
1667266549006518300,1.959518310546875,-0.2895416021347046,0.033596597611904144,-0.17409147322177887
1667266549008916000,1.961916015625,-0.3017585575580597,0.028098974376916885,-0.1716480851173401
1667266549011314000,1.96431396484375,-0.3115321099758148,0.01954711228609085,-0.1704263836145401
1667266549013711600,1.966711669921875,-0.3170297145843506,0.01588202826678753,-0.1710372269153595
1667266549016109600,1.969109619140625,-0.32069480419158936,0.007330167107284069,-0.1710372269153595
1667266549018507300,1.97150732421875,-0.32313820719718933,0.0018325417768210173,-0.1716480851173401
1667266549020905000,1.973905029296875,-0.31886225938796997,-0.0036650835536420345,-0.1710372269153595
1667266549023303000,1.976302978515625,-0.314586341381073,-0.007330167107284069,-0.1692046970129013
1667266549025700600,1.97870068359375,-0.30664533376693726,-0.01038440316915512,-0.1704263836145401
1667266549028098600,1.9810986328125,-0.29565006494522095,-0.014660334214568138,-0.16737215220928192
1667266549030496300,1.983496337890625,-0.2858765125274658,-0.011606098152697086,-0.16737215220928192
1667266549032894000,1.98589404296875,-0.26877278089523315,-0.01038440316915512,-0.16370706260204315
1667266549035292000,1.9882919921875,-0.2492256760597229,-0.007941014133393764,-0.16187451779842377
1667266549037689600,1.990689697265625,-0.23273280262947083,-0.0012216945178806782,-0.16004198789596558
1667266549040087600,1.993087646484375,-0.20707722008228302,0.009773556143045425,-0.16004198789596558
1667266549042485200,1.9954853515625,-0.18569757044315338,0.020157959312200546,-0.1582094430923462
1667266549044883200,1.99788330078125,-0.16248537600040436,0.03542914241552353,-0.15454435348510742
1667266549047281000,2.000281005859375,-0.13682979345321655,0.046424392610788345,-0.15210096538066864
1667266549049678600,2.0026787109375,-0.11239589750766754,0.06352811306715012,-0.14965757727622986
1667266549052076500,2.00507666015625,-0.08429691940546036,0.08185353130102158,-0.1453816443681717
1667266549054474200,2.00747412109375,-0.05741964280605316,0.10201149433851242,-0.1459924876689911
1667266549056872200,2.0098720703125,-0.02870982140302658,0.12094775587320328,-0.1453816443681717
1667266549059270000,2.012269775390625,0.0036650835536420345,0.13927318155765533,-0.1459924876689911
1667266549061667600,2.01466748046875,0.02870982140302658,0.1563768982887268,-0.1453816443681717
1667266549064065500,2.0170654296875,0.05925218388438225,0.17225892841815948,-0.1453816443681717
1667266549066463200,2.019463134765625,0.08918370306491852,0.18875180184841156,-0.1441599577665329
1667266549068861200,2.021861083984375,0.11239589750766754,0.20707722008228302,-0.14660334587097168
1667266549071259000,2.0242587890625,0.14049486815929413,0.22967857122421265,-0.14660334587097168
1667266549073656600,2.026656494140625,0.16492876410484314,0.25533416867256165,-0.14721418917179108
1667266549076054500,2.029054443359375,0.18691925704479218,0.28160059452056885,-0.15149012207984924
1667266549078452200,2.0314521484375,0.2089097648859024,0.31031039357185364,-0.15332266688346863
1667266549080850200,2.03385009765625,0.22845686972141266,0.33352261781692505,-0.15515519678592682
1667266549083247900,2.036247802734375,0.2473931461572647,0.3549022674560547,-0.1588202863931656
1667266549085645600,2.0386455078125,0.2632751762866974,0.3683409094810486,-0.16004198789596558
1667266549088043500,2.04104345703125,0.2779355049133301,0.37689274549484253,-0.16431790590286255
1667266549090441200,2.043441162109375,0.2907632887363434,0.37322768568992615,-0.16615045070648193
1667266549092839200,2.045839111328125,0.3035911023616791,0.3640649616718292,-0.16676130890846252
1667266549095236900,2.04823681640625,0.314586341381073,0.34940463304519653,-0.1698155403137207
1667266549097634800,2.050634765625,0.32252734899520874,0.3298575282096863,-0.1704263836145401
1667266549100032500,2.053032470703125,0.3298575282096863,0.30908870697021484,-0.1716480851173401
1667266549102430200,2.05543017578125,0.33474430441856384,0.28404396772384644,-0.1710372269153595
1667266549104828200,2.057828125,0.3432961702346802,0.2638860046863556,-0.1716480851173401
1667266549107225900,2.060225830078125,0.34940463304519653,0.24311721324920654,-0.1569877415895462
1667266549109623800,2.062623779296875,0.3573456406593323,0.23945212364196777,-0.10811996459960938
1667266549112021500,2.065021484375,0.36162158846855164,0.23273280262947083,-0.03665083646774292
1667266549114419500,2.06741943359375,0.3658975064754486,0.21501824259757996,0.030542362481355667
1667266549116817200,2.069817138671875,0.37689274549484253,0.17775654792785645,0.0922379344701767
