time,seconds_elapsed,z,y,x
1667266547112254500,0.06525439453125,-0.1465269923210144,-0.10957072675228119,-0.20730629563331604
1667266547114652400,0.06765234375,-0.15446799993515015,-0.09613208472728729,-0.16515782475471497
1667266547117050000,0.070050048828125,-0.1617981642484665,-0.0814717561006546,-0.12423106282949448
1667266547119447800,0.07244775390625,-0.16973918676376343,-0.06314633786678314,-0.08330429345369339
1667266547121845800,0.074845703125,-0.17768019437789917,-0.04421006888151169,-0.040544986724853516
1667266547124243500,0.077243408203125,-0.18867544829845428,-0.024662958458065987,-0.0032833039294928312
1667266547126641400,0.079641357421875,-0.19722731411457062,-0.004504998680204153,0.033978380262851715
1667266547129039000,0.0820390625,-0.20333577692508698,0.01748550310730934,0.06940752267837524
1667266547131437000,0.08443701171875,-0.2137201875448227,0.0358109213411808,0.10178242623806
1667266547133834800,0.086834716796875,-0.21982865035533905,0.05230379477143288,0.13537901639938354
1667266547136232400,0.089232421875,-0.22899135947227478,0.06513158977031708,0.16286714375019073
1667266547138630400,0.09163037109375,-0.22960221767425537,0.07307260483503342,0.18913358449935913
1667266547141028000,0.094028076171875,-0.22960221767425537,0.0755159929394722,0.21295662224292755
1667266547143426000,0.096426025390625,-0.23204560577869415,0.0755159929394722,0.23555797338485718
1667266547145823700,0.09882373046875,-0.23143476247787476,0.07062921673059464,0.25449424982070923
1667266547148221700,0.1012216796875,-0.22899135947227478,0.06146650388836861,0.26854372024536133
1667266547150619400,0.103619384765625,-0.22410458326339722,0.05230379477143288,0.28076067566871643
1667266547153017000,0.10601708984375,-0.21921780705451965,0.03825430944561958,0.29236677289009094
1667266547155415000,0.1084150390625,-0.2124984860420227,0.021150587126612663,0.3003077805042267
1667266547157812700,0.110812744140625,-0.20516832172870636,-0.00022906772210262716,0.30397287011146545
1667266547160210700,0.113210693359375,-0.19539476931095123,-0.026495499536395073,0.30519455671310425
1667266547162608400,0.1156083984375,-0.18378867208957672,-0.050929389894008636,0.30641624331474304
1667266547165006300,0.11800634765625,-0.1727934181690216,-0.07902836054563522,0.30275118350982666
1667266547167404000,0.120404052734375,-0.1611873209476471,-0.1083490327000618,0.29481014609336853
1667266547169801700,0.1228017578125,-0.14897038042545319,-0.13889139890670776,0.285647451877594
1667266547172199700,0.12519970703125,-0.1349208950996399,-0.16760121285915375,0.27648472785949707
1667266547174597400,0.127597412109375,-0.1214822456240654,-0.19325679540634155,0.26365694403648376
1667266547176995000,0.1299951171875,-0.10987614840269089,-0.21646900475025177,0.25021830201148987
1667266547179393000,0.13239306640625,-0.0946049690246582,-0.2390703409910202,0.23494713008403778
1667266547181790700,0.134790771484375,-0.0817771777510643,-0.25800660252571106,0.21662171185016632
1667266547184188700,0.137188720703125,-0.07017108052968979,-0.27266693115234375,0.19768545031547546
1667266547186586400,0.13958642578125,-0.05734328553080559,-0.28366219997406006,0.17691664397716522
1667266547188984300,0.141984375,-0.045737188309431076,-0.294657438993454,0.15798036754131317
1667266547191382000,0.144382080078125,-0.03779617324471474,-0.3050418496131897,0.13782241940498352
1667266547193779700,0.14677978515625,-0.031076854094862938,-0.3148154020309448,0.11644276231527328
1667266547196177700,0.149177734375,-0.027411770075559616,-0.3209238648414612,0.09384141117334366
1667266547198575400,0.151575439453125,-0.022524992004036903,-0.32642149925231934,0.07246175408363342
1667266547200973300,0.153973388671875,-0.01885990984737873,-0.3282540440559387,0.048638712614774704
1667266547203371000,0.15637109375,-0.018249060958623886,-0.3300865888595581,0.029091600328683853
1667266547205768700,0.158768798828125,-0.021303297951817513,-0.3294757306575775,0.005879404954612255
1667266547208166700,0.161166748046875,-0.02557922899723053,-0.32581067085266113,-0.015500249341130257
1667266547210564400,0.163564453125,-0.035352785140275955,-0.3197021782398224,-0.04115583375096321
1667266547212962300,0.16596240234375,-0.04512634128332138,-0.30992862582206726,-0.06131379306316376
1667266547215360000,0.168360107421875,-0.059175826609134674,-0.29710084199905396,-0.08758022636175156
1667266547217758000,0.170758056640625,-0.07078192383050919,-0.2806079685688019,-0.1083490327000618
1667266547220155600,0.17315576171875,-0.08544225990772247,-0.2641150951385498,-0.12972868978977203
1667266547222553300,0.17555322265625,-0.10193513333797455,-0.24762220680713654,-0.15233004093170166
1667266547224951300,0.177951416015625,-0.11537377536296844,-0.22868594527244568,-0.1724879890680313
1667266547227349000,0.180348876953125,-0.13125580549240112,-0.20974968373775482,-0.19508934020996094
1667266547229747000,0.182746826171875,-0.14408360421657562,-0.19325679540634155,-0.21707984805107117
1667266547232144600,0.18514453125,-0.1587439328432083,-0.17554223537445068,-0.2378486543893814
1667266547234542300,0.187542236328125,-0.17035003006458282,-0.1614927500486374,-0.25678491592407227
1667266547236940300,0.189940185546875,-0.18012358248233795,-0.1480541080236435,-0.2775537371635437
1667266547239338000,0.192337890625,-0.18867544829845428,-0.135226309299469,-0.2940466105937958
1667266547241736000,0.19473583984375,-0.19417306780815125,-0.12423106282949448,-0.31176117062568665
1667266547244133600,0.197133544921875,-0.1984490007162094,-0.11201411485671997,-0.3313082754611969
1667266547246531600,0.199531494140625,-0.20211409032344818,-0.10162971168756485,-0.3465794622898102
1667266547248929300,0.20192919921875,-0.1990598440170288,-0.09307785332202911,-0.36185064911842346
1667266547251327000,0.204326904296875,-0.19600561261177063,-0.08269345015287399,-0.37528929114341736
1667266547253725000,0.206724853515625,-0.19417306780815125,-0.07780666649341583,-0.38994961977005005
1667266547256122600,0.20912255859375,-0.1880646049976349,-0.07291989028453827,-0.40033403038978577
1667266547258520600,0.2115205078125,-0.18012358248233795,-0.0692548081278801,-0.4107184112071991
1667266547260918300,0.213918212890625,-0.17096087336540222,-0.07169819623231888,-0.41927027702331543
1667266547263316000,0.21631591796875,-0.1593547761440277,-0.07658497244119644,-0.42843300104141235
1667266547265714000,0.2187138671875,-0.14897038042545319,-0.07780666649341583,-0.4363740086555481
1667266547268111600,0.221111572265625,-0.13675342500209808,-0.08330429345369339,-0.44187164306640625
1667266547270509600,0.223509521484375,-0.12331479042768478,-0.08880192041397095,-0.44492587447166443
1667266547272907300,0.2259072265625,-0.1086544543504715,-0.09185615926980972,-0.4461475610733032
1667266547275305000,0.228304931640625,-0.09338327497243881,-0.09674293547868729,-0.4485909640789032
1667266547277703000,0.230702880859375,-0.08055548369884491,-0.10162971168756485,-0.4461475610733032
1667266547280100600,0.2331005859375,-0.06406260281801224,-0.10407309979200363,-0.44492587447166443
1667266547282498600,0.23549853515625,-0.04940227046608925,-0.1083490327000618,-0.44187164306640625
1667266547284896300,0.237896240234375,-0.03352024406194687,-0.11018157750368118,-0.4351523220539093
1667266547287294000,0.2402939453125,-0.01763821393251419,-0.11140327155590057,-0.42904382944107056
1667266547289692000,0.24269189453125,-0.0023670331574976444,-0.11262496560811996,-0.422324538230896
1667266547292089600,0.245089599609375,0.012293301522731781,-0.11690089106559753,-0.41438350081443787
1667266547294487600,0.247487548828125,0.03184041380882263,-0.1217876747250557,-0.40155571699142456
1667266547296885200,0.24988525390625,0.048333290964365005,-0.13033953309059143,-0.39117130637168884
1667266547299283200,0.252283203125,0.06482616811990738,-0.14133478701114655,-0.37895438075065613
1667266547301681000,0.254680908203125,0.08070819079875946,-0.15294088423252106,-0.3685699701309204
1667266547304078600,0.25707861328125,0.09842276573181152,-0.16637952625751495,-0.35329878330230713
1667266547306476500,0.2594765625,0.11613733321428299,-0.1847049444913864,-0.33863845467567444
1667266547308874200,0.261874267578125,0.13018682599067688,-0.20547375082969666,-0.32336726784706116
1667266547311272200,0.264272216796875,0.14851224422454834,-0.2268534004688263,-0.3068743944168091
1667266547313670000,0.266669921875,0.16500511765480042,-0.24640052020549774,-0.2897706627845764
1667266547316067800,0.26906787109375,0.1790546029806137,-0.264725923538208,-0.27205610275268555
1667266547318465500,0.271465576171875,0.1918824017047882,-0.2781645655632019,-0.2512872815132141
1667266547320863200,0.27386328125,0.2047101855278015,-0.290381520986557,-0.23174017667770386
1667266547323261200,0.27626123046875,0.21509459614753723,-0.29832252860069275,-0.20730629563331604
1667266547325659000,0.278658935546875,0.22364644706249237,-0.3062635362148285,-0.18409408628940582
1667266547328056800,0.281056884765625,0.22853323817253113,-0.31237202882766724,-0.15843850374221802
1667266547330454500,0.28345458984375,0.2340308576822281,-0.31053948402404785,-0.1327829211950302
1667266547332852200,0.285852294921875,0.24075017869472504,-0.30992862582206726,-0.10346225649118423
1667266547335250200,0.288250244140625,0.24258272349834442,-0.30870693922042847,-0.07780666649341583
1667266547337647900,0.29064794921875,0.246247798204422,-0.29893338680267334,-0.04787515476346016
1667266547340045800,0.2930458984375,0.24808034300804138,-0.28732728958129883,-0.020997874438762665
1667266547342443500,0.295443603515625,0.24808034300804138,-0.2757211923599243,0.007711946498602629
1667266547344841200,0.29784130859375,0.24930204451084137,-0.26045000553131104,0.03703261539340019
1667266547347239200,0.3002392578125,0.24869118630886078,-0.2396811991930008,0.0620773509144783
1667266547349636900,0.302636962890625,0.24746949970722198,-0.22074492275714874,0.0883437842130661
1667266547352034800,0.305034912109375,0.24869118630886078,-0.2011978179216385,0.11583191156387329
1667266547354432500,0.3074326171875,0.2468586415052414,-0.18103985488414764,0.1420983374118805
1667266547356830200,0.309830322265625,0.24746949970722198,-0.16271443665027618,0.16408884525299072
1667266547359228200,0.312228271484375,0.2468586415052414,-0.1456107199192047,0.19096612930297852
1667266547361625900,0.3146259765625,0.246247798204422,-0.12972868978977203,0.21295662224292755
1667266547364023800,0.31702392578125,0.2468586415052414,-0.11506835371255875,0.23555797338485718
1667266547366421500,0.31942138671875,0.246247798204422,-0.10162971168756485,0.255715936422348
1667266547368819500,0.3218193359375,0.2456369549036026,-0.08758022636175156,0.2722088098526001
1667266547371217200,0.324217041015625,0.246247798204422,-0.07902836054563522,0.2868691384792328
1667266547373614800,0.32661474609375,0.2444152534008026,-0.07108735293149948,0.30214032530784607
1667266547376012800,0.3290126953125,0.2450261116027832,-0.06681142002344131,0.3125247359275818
1667266547378410500,0.331410400390625,0.2450261116027832,-0.0680331140756607,0.3216874301433563
1667266547380808400,0.333808349609375,0.24319356679916382,-0.07597412914037704,0.3271850645542145
1667266547383206100,0.3362060546875,0.24319356679916382,-0.08819106966257095,0.33085015416145325
1667266547385603800,0.338603759765625,0.24013933539390564,-0.10468395054340363,0.33146098256111145
1667266547388001800,0.341001708984375,0.23708508908748627,-0.13095037639141083,0.32962843775749207
1667266547390399500,0.3433994140625,0.2334200143814087,-0.16271443665027618,0.3253525197505951
1667266547392797400,0.34579736328125,0.22670069336891174,-0.19508934020996094,0.31618982553482056
1667266547395195100,0.348195068359375,0.2193705290555954,-0.2384594976902008,0.30580541491508484
1667266547397592800,0.3505927734375,0.21142950654029846,-0.28366219997406006,0.2887016832828522
1667266547399990800,0.35299072265625,0.20226679742336273,-0.32764318585395813,0.2697654068470001
1667266547402388500,0.355388427734375,0.19066070020198822,-0.373456746339798,0.25143998861312866
1667266547404786400,0.357786376953125,0.1796654462814331,-0.4186594486236572,0.22883865237236023
1667266547407184100,0.36018408203125,0.168670192360878,-0.4590517282485962,0.20379391312599182
1667266547409581800,0.362581787109375,0.1546207070350647,-0.4969242513179779,0.17813833057880402
1667266547411979800,0.364979736328125,0.14362546801567078,-0.5292991399765015,0.1524827480316162
1667266547414377500,0.36737744140625,0.13079766929149628,-0.5573981404304504,0.126216322183609
1667266547416775400,0.369775390625,0.12041326612234116,-0.5793886184692383,0.09994988143444061
1667266547419173000,0.372173095703125,0.11002886295318604,-0.5983248949050903,0.07368344813585281
1667266547421571000,0.374571044921875,0.10330954194068909,-0.6123743653297424,0.051082100719213486
1667266547423968800,0.37696875,0.1020878478884697,-0.61970454454422,0.02542651630938053
1667266547426366500,0.379366455078125,0.1014770045876503,-0.6258130073547363,0.0034360159188508987
1667266547428764400,0.381764404296875,0.10330954194068909,-0.6300889253616333,-0.020997874438762665
1667266547431162000,0.384162109375,0.10453123599290848,-0.6306998133659363,-0.03687990456819534
1667266547433560000,0.38656005859375,0.10758547484874725,-0.6245913505554199,-0.0558161698281765
1667266547435957800,0.388957763671875,0.11247225105762482,-0.6190937161445618,-0.07353074103593826
1667266547438355700,0.391355712890625,0.11858072131872177,-0.615428626537323,-0.09185615926980972
1667266547440753400,0.39375341796875,0.1265217363834381,-0.6142069101333618,-0.10895988345146179
1667266547443151000,0.396151123046875,0.13446275889873505,-0.6178719997406006,-0.12728530168533325
1667266547445549000,0.398549072265625,0.14362546801567078,-0.6239804625511169,-0.1474432498216629
1667266547447946800,0.40094677734375,0.1546207070350647,-0.6294780969619751,-0.16515782475471497
1667266547450344700,0.4033447265625,0.16378341615200043,-0.638640820980072,-0.18226155638694763
1667266547452742400,0.405742431640625,0.17477867007255554,-0.647192656993866,-0.20486289262771606
1667266547455140000,0.40814013671875,0.18455222249031067,-0.6520794630050659,-0.22257746756076813
1667266547457538000,0.4105380859375,0.19676917791366577,-0.6539120078086853,-0.2390703409910202
1667266547459935700,0.412935791015625,0.2059318870306015,-0.6520794630050659,-0.25678491592407227
1667266547462333400,0.41533349609375,0.21570543944835663,-0.6441384553909302,-0.2751103341579437
1667266547464731400,0.4177314453125,0.22608983516693115,-0.6325323581695557,-0.2922140657901764
1667266547467129000,0.420129150390625,0.23647424578666687,-0.61970454454422,-0.30931776762008667
1667266547469527000,0.422527099609375,0.2450261116027832,-0.5995466113090515,-0.32275640964508057
1667266547471924700,0.4249248046875,0.25235626101493835,-0.5738909840583801,-0.33680590987205505
1667266547474322700,0.42732275390625,0.2596864402294159,-0.545181155204773,-0.35024455189704895
1667266547476720400,0.429720458984375,0.26457321643829346,-0.5060869455337524,-0.36123979091644287
1667266547479118000,0.4321181640625,0.269459992647171,-0.46577104926109314,-0.3716242015361786
1667266547481516000,0.43451611328125,0.2743467688560486,-0.424157053232193,-0.37956520915031433
1667266547483913700,0.436913818359375,0.27679017186164856,-0.37834352254867554,-0.39056047797203064
1667266547486311700,0.439311767578125,0.27801185846328735,-0.3337516784667969,-0.3972797989845276
1667266547488709400,0.44170947265625,0.2841203212738037,-0.2891598343849182,-0.40460994839668274
1667266547491107300,0.444107421875,0.2859528660774231,-0.24334627389907837,-0.4125509560108185
1667266547493505000,0.446505126953125,0.2853420376777649,-0.1993652731180191,-0.419881135225296
1667266547495902700,0.44890283203125,0.2890070974826813,-0.15477342903614044,-0.42965468764305115
1667266547498300700,0.45130078125,0.29206135869026184,-0.11384665966033936,-0.4375956952571869
1667266547500698400,0.453698486328125,0.29328304529190063,-0.07353074103593826,-0.4461475610733032
1667266547503096300,0.456096435546875,0.29511559009552,-0.03565821051597595,-0.45286688208580017
1667266547505494000,0.458493896484375,0.2981698215007782,0.0016034740256145597,-0.45897534489631653
1667266547507891700,0.4608916015625,0.299391508102417,0.035200074315071106,-0.46691638231277466
1667266547510289700,0.46328955078125,0.299391508102417,0.06818582862615585,-0.4705814719200134
1667266547512687400,0.465687255859375,0.3006131947040558,0.09445225447416306,-0.477300763130188
1667266547515085300,0.468085205078125,0.3000023663043976,0.11705360561609268,-0.48402008414268494
1667266547517483000,0.47048291015625,0.3000023663043976,0.13782241940498352,-0.4864634871482849
1667266547519880700,0.472880615234375,0.2987806797027588,0.1530935913324356,-0.4882960319519043
1667266547522278700,0.475278564453125,0.299391508102417,0.16286714375019073,-0.4889068603515625
1667266547524676400,0.47767626953125,0.2975589632987976,0.1665322333574295,-0.4901285767555237
1667266547527074300,0.48007421875,0.29450473189353943,0.1653105467557907,-0.4870743453502655
1667266547529472000,0.482471923828125,0.29450473189353943,0.16225630044937134,-0.48402008414268494
1667266547531869700,0.48486962890625,0.29083964228630066,0.1555369794368744,-0.4760790765285492
1667266547534267600,0.487267578125,0.2877854108810425,0.14576342701911926,-0.46935975551605225
1667266547536665300,0.489665283203125,0.2859528660774231,0.13598987460136414,-0.45897534489631653
1667266547539063300,0.492063232421875,0.2847311794757843,0.12377292662858963,-0.4467584192752838
1667266547541461000,0.4944609375,0.27984440326690674,0.11094513535499573,-0.4327089190483093
1667266547543858700,0.496858642578125,0.2755684554576874,0.09811734408140182,-0.41743773221969604
1667266547546256600,0.499256591796875,0.2706816792488098,0.08467870205640793,-0.40094485878944397
1667266547548654300,0.501654296875,0.26579490303993225,0.07307260483503342,-0.3813977539539337
1667266547551052300,0.50405224609375,0.2584647536277771,0.06390989571809769,-0.36307233572006226
1667266547553450000,0.506449951171875,0.24930204451084137,0.05719057470560074,-0.341081827878952
1667266547555848000,0.508847900390625,0.24075017869472504,0.05047125369310379,-0.3197021782398224
1667266547558245600,0.51124560546875,0.2315874695777893,0.044362783432006836,-0.29893338680267334
1667266547560643300,0.513643310546875,0.2199813723564148,0.043141089379787445,-0.2781645655632019
1667266547563041300,0.516041259765625,0.21020781993865967,0.04558447748422623,-0.25861746072769165
1667266547565439000,0.51843896484375,0.20165595412254333,0.044362783432006836,-0.24151372909545898
1667266547567837000,0.5208369140625,0.1918824017047882,0.0492495596408844,-0.2244100123643875
1667266547570234600,0.523234619140625,0.1814979910850525,0.05291464552283287,-0.20608459413051605
1667266547572632300,0.52563232421875,0.17294612526893616,0.05596888065338135,-0.19203510880470276
1667266547575030300,0.5280302734375,0.16439427435398102,0.0626882016658783,-0.17920731008052826
1667266547577428000,0.530427978515625,0.16011834144592285,0.06879667192697525,-0.16637952625751495
1667266547579826000,0.532825927734375,0.1533990204334259,0.0755159929394722,-0.159660205245018
1667266547582223600,0.5352236328125,0.15095563232898712,0.08345700800418854,-0.15355172753334045
1667266547584621300,0.537621337890625,0.14729054272174835,0.09200886636972427,-0.1474432498216629
1667266547587019300,0.540019287109375,0.14484715461730957,0.09994988143444061,-0.1468324065208435
1667266547589417000,0.5424169921875,0.141182079911232,0.10728005319833755,-0.1462215632200241
1667266547591815000,0.54481494140625,0.1405712217092514,0.11705360561609268,-0.14377817511558533
1667266547594212600,0.547212646484375,0.13751699030399323,0.1268271654844284,-0.14377817511558533
1667266547596610300,0.5496103515625,0.13629528880119324,0.13415732979774475,-0.14072394371032715
1667266547599008300,0.55200830078125,0.13568444550037384,0.13537901639938354,-0.14133478701114655
1667266547601406000,0.554406005859375,0.13507360219955444,0.13537901639938354,-0.14133478701114655
1667266547603804000,0.556803955078125,0.13263021409511566,0.13293562829494476,-0.14072394371032715
1667266547606201600,0.55920166015625,0.1289651244878769,0.13354648649692535,-0.13889139890670776
1667266547608599600,0.561599609375,0.1259108930826187,0.13049224019050598,-0.13705885410308838
1667266547610997200,0.563997314453125,0.12163496017456055,0.13049224019050598,-0.1340046226978302
1667266547613395000,0.56639501953125,0.11308310180902481,0.1286597102880478,-0.12850698828697205
1667266547615793000,0.56879296875,0.10758547484874725,0.13049224019050598,-0.1217876747250557
1667266547618190600,0.571190673828125,0.09964445978403091,0.1292705535888672,-0.11140327155590057
1667266547620588500,0.573588623046875,0.09109259396791458,0.1292705535888672,-0.10162971168756485
1667266547622986200,0.575986328125,0.08376242965459824,0.12316207587718964,-0.09002361446619034
1667266547625384200,0.57838427734375,0.0745997205376625,0.12071868777275085,-0.07475243508815765
1667266547627782000,0.580781982421875,0.06543701142072678,0.11033428460359573,-0.05948125198483467
1667266547630179600,0.5831796875,0.057496000081300735,0.10117157548666,-0.04421006888151169
1667266547632577500,0.58557763671875,0.05016583204269409,0.09017632901668549,-0.028938889503479004
1667266547634975200,0.587975341796875,0.04222481697797775,0.07857023179531097,-0.010613471269607544
1667266547637373000,0.590373046875,0.03184041380882263,0.06085565686225891,0.0034360159188508987
1667266547639771000,0.59277099609375,0.024510245770215988,0.04680617153644562,0.01748550310730934
1667266547642168600,0.59516845703125,0.0165692325681448,0.030313294380903244,0.03092414326965809
1667266547644566500,0.59756640625,0.00862821750342846,0.011377030052244663,0.044362783432006836
1667266547646964200,0.599964111328125,-0.0023670331574976444,-0.0051158457063138485,0.057801421731710434
1667266547649362000,0.60236181640625,-0.009697199799120426,-0.02038702741265297,0.07001836597919464
1667266547651759900,0.604759765625,-0.018249060958623886,-0.03565821051597595,0.08101361989974976
1667266547654157600,0.607157470703125,-0.026190076023340225,-0.049707695841789246,0.09017632901668549
1667266547656555500,0.609555419921875,-0.03290939703583717,-0.05948125198483467,0.09506310522556305
1667266547658953200,0.611953125,-0.0426829531788826,-0.0686439573764801,0.10300412029027939
1667266547661351200,0.61435107421875,-0.053678203374147415,-0.07780666649341583,0.10789089649915695
1667266547663748900,0.616748779296875,-0.06100837141275406,-0.08513683825731277,0.11216682940721512
1667266547666146600,0.619146484375,-0.0695602297782898,-0.08880192041397095,0.1146102175116539
1667266547668544500,0.62154443359375,-0.07627955079078674,-0.09735377877950668,0.11644276231527328
1667266547670942200,0.623942138671875,-0.0817771777510643,-0.09857547283172607,0.11766445636749268
1667266547673340200,0.626340087890625,-0.08666395395994186,-0.10040801763534546,0.11583191156387329
1667266547675737900,0.62873779296875,-0.09216158092021942,-0.10407309979200363,0.1152210608124733
1667266547678135800,0.6311357421875,-0.09155073016881943,-0.10346225649118423,0.11094513535499573
1667266547680533500,0.633533447265625,-0.09277242422103882,-0.10590564459562302,0.10605835169553757
1667266547682931200,0.63593115234375,-0.09216158092021942,-0.10590564459562302,0.09933903813362122
1667266547685329200,0.6383291015625,-0.09216158092021942,-0.10407309979200363,0.09323056042194366
1667266547687726800,0.640726806640625,-0.08910734206438065,-0.10162971168756485,0.08590039610862732
1667266547690124500,0.64312451171875,-0.08849649876356125,-0.09796462953090668,0.07429429888725281
1667266547692522500,0.6455224609375,-0.08544225990772247,-0.09124530851840973,0.06146650388836861
1667266547694920200,0.647920166015625,-0.08299887180328369,-0.08025006204843521,0.048638712614774704
1667266547697318100,0.650318115234375,-0.07994463294744492,-0.06497887521982193,0.03336753323674202
1667266547699715800,0.6527158203125,-0.07689040154218674,-0.047264307737350464,0.016874656081199646
1667266547702113500,0.655113525390625,-0.07994463294744492,-0.023441264405846596,-0.0032833039294928312
1667266547704511500,0.657511474609375,-0.07872293889522552,0.0028251686599105597,-0.02405211143195629
1667266547706909200,0.6599091796875,-0.0823880210518837,0.026037365198135376,-0.047264307737350464
1667266547709307100,0.66230712890625,-0.08483141660690308,0.051082100719213486,-0.06986565887928009
1667266547711704800,0.664704833984375,-0.08849649876356125,0.07857023179531097,-0.0942995473742485
1667266547714102800,0.667102783203125,-0.09216158092021942,0.11033428460359573,-0.1211768239736557
1667266547716500500,0.66950048828125,-0.09765920788049698,0.14698512852191925,-0.15049749612808228
1667266547718898200,0.671898193359375,-0.10315682739019394,0.18852274119853973,-0.18165069818496704
1667266547721296100,0.674296142578125,-0.1080436110496521,0.2318928837776184,-0.21463645994663239
1667266547723693800,0.67669384765625,-0.11293038725852966,0.27770644426345825,-0.24762220680713654
1667266547726091800,0.679091796875,-0.11903885751962662,0.3235199749469757,-0.28305134177207947
1667266547728489500,0.681489501953125,-0.12331479042768478,0.37116608023643494,-0.3160370886325836
1667266547730887400,0.683887451171875,-0.12697987258434296,0.42369893193244934,-0.34963369369506836
1667266547733285000,0.68628515625,-0.1336991935968399,0.47317755222320557,-0.3856737017631531
1667266547735682800,0.688682861328125,-0.1349208950996399,0.5196019411087036,-0.4247679114341736
1667266547738080800,0.691080810546875,-0.13797512650489807,0.5611395835876465,-0.4632512927055359
1667266547740478500,0.693478515625,-0.13797512650489807,0.5977904200553894,-0.5023455023765564
1667266547742876400,0.69587646484375,-0.14286190271377563,0.6301652789115906,-0.5420506000518799
1667266547745274000,0.698274169921875,-0.1459161341190338,0.6582642793655396,-0.5811448097229004
1667266547747671800,0.700671875,-0.1483595222234726,0.683309018611908,-0.6220715641975403
1667266547750069800,0.70306982421875,-0.1483595222234726,0.7059103846549988,-0.6587224006652832
1667266547752467500,0.705467529296875,-0.1465269923210144,0.7321767807006836,-0.6929298639297485
1667266547754865200,0.707865234375,-0.1477486789226532,0.757832407951355,-0.7265264391899109
1667266547757263000,0.71026318359375,-0.1471378356218338,0.7816554307937622,-0.7576796412467957
1667266547759660800,0.712660888671875,-0.14530529081821442,0.7975374460220337,-0.7845569252967834
1667266547762058800,0.715058837890625,-0.14408360421657562,0.8091435432434082,-0.810823380947113
1667266547764456400,0.71745654296875,-0.14225105941295624,0.8225821852684021,-0.8358681201934814
1667266547766854400,0.7198544921875,-0.14102935791015625,0.8323557376861572,-0.8584694862365723
1667266547769252000,0.722252197265625,-0.14225105941295624,0.8378533720970154,-0.8792382478713989
1667266547771649800,0.72464990234375,-0.14408360421657562,0.8427401781082153,-0.8975636959075928
1667266547774047700,0.7270478515625,-0.1477486789226532,0.8415184617042542,-0.9134457111358643
1667266547776445400,0.729445556640625,-0.15385715663433075,0.840296745300293,-0.9281060695648193
1667266547778843400,0.731843505859375,-0.1593547761440277,0.8366316556930542,-0.9391012787818909
1667266547781241000,0.734240966796875,-0.17157171666622162,0.8311340808868408,-0.9482640027999878
1667266547783639000,0.73663916015625,-0.18012358248233795,0.827468991279602,-0.9543724656105042
1667266547786036700,0.73903662109375,-0.18989713490009308,0.8213604688644409,-0.9555941820144653
1667266547788434400,0.741434326171875,-0.20272493362426758,0.8140303492546082,-0.9574267268180847
1667266547790832400,0.743832275390625,-0.2118876427412033,0.8024242520332336,-0.9549833536148071
1667266547793230000,0.74622998046875,-0.22227205336093903,0.7914289832115173,-0.9500965476036072
1667266547795628000,0.7486279296875,-0.23021306097507477,0.780433714389801,-0.9415447115898132
1667266547798025700,0.751025634765625,-0.2387649267911911,0.762108325958252,-0.9299386143684387
1667266547800423400,0.75342333984375,-0.24426254630088806,0.7425612211227417,-0.92138671875
1667266547802821400,0.7558212890625,-0.24792763590812683,0.7193490266799927,-0.9085589647293091
1667266547805219000,0.758218994140625,-0.2515927255153656,0.6918608546257019,-0.8951203227043152
1667266547807617000,0.760616943359375,-0.2522035539150238,0.6625401973724365,-0.8816816806793213
1667266547810014700,0.7630146484375,-0.2503710091114044,0.627721905708313,-0.8688538670539856
1667266547812412400,0.765412353515625,-0.24853847920894623,0.5886276960372925,-0.8541935086250305
1667266547814810400,0.767810302734375,-0.24181915819644928,0.5477009415626526,-0.8377006649971008
1667266547817208000,0.7702080078125,-0.23509983718395233,0.5037199258804321,-0.8187643885612488
1667266547819606000,0.77260595703125,-0.2271588295698166,0.46218231320381165,-0.7992172837257385
1667266547822003700,0.775003662109375,-0.21738526225090027,0.42003384232521057,-0.7790593504905701
1667266547824401400,0.7774013671875,-0.20639002323150635,0.38216131925582886,-0.755847156047821
1667266547826799400,0.77979931640625,-0.19295138120651245,0.34306707978248596,-0.7314132452011108
1667266547829197000,0.782197021484375,-0.18134528398513794,0.3009186387062073,-0.7051467895507812
1667266547831595000,0.784594970703125,-0.16668494045734406,0.26304611563682556,-0.6764369606971741
1667266547833992700,0.78699267578125,-0.15141376852989197,0.22395187616348267,-0.6422295570373535
1667266547836390700,0.789390625,-0.1355317384004593,0.18730103969573975,-0.6080220937728882
1667266547838788400,0.791788330078125,-0.11964970827102661,0.153704434633255,-0.5713712573051453
1667266547841186000,0.79418603515625,-0.10437852889299393,0.11888615041971207,-0.5347204208374023
1667266547843584000,0.796583984375,-0.08666395395994186,0.08590039610862732,-0.49501535296440125
1667266547845981700,0.798981689453125,-0.07505785673856735,0.05841226875782013,-0.45286688208580017
1667266547848379600,0.801379638671875,-0.06223006546497345,0.032756682485342026,-0.4113292694091797
1667266547850777300,0.80377734375,-0.05123481526970863,0.007711946498602629,-0.373456746339798
1667266547853175300,0.80617529296875,-0.0420721061527729,-0.0130568603053689,-0.3306974470615387
1667266547855573000,0.808572998046875,-0.03474193811416626,-0.03687990456819534,-0.2916032075881958
1667266547857970700,0.810970703125,-0.029855160042643547,-0.05459447205066681,-0.2512872815132141
1667266547860368600,0.81336865234375,-0.02557922899723053,-0.07597412914037704,-0.21463645994663239
1667266547862766300,0.815766357421875,-0.0231358390301466,-0.10285140573978424,-0.18165069818496704
1667266547865164300,0.818164306640625,-0.021303297951817513,-0.12911784648895264,-0.14988665282726288
1667266547867562000,0.82056201171875,-0.021303297951817513,-0.159660205245018,-0.1217876747250557
1667266547869959700,0.822959716796875,-0.018249060958623886,-0.19264595210552216,-0.09918632358312607
1667266547872357600,0.825357666015625,-0.01885990984737873,-0.23051849007606506,-0.08330429345369339
1667266547874755300,0.82775537109375,-0.021303297951817513,-0.27083441615104675,-0.07291989028453827
1667266547877153300,0.8301533203125,-0.019470756873488426,-0.31237202882766724,-0.06375718116760254
1667266547879551000,0.832551025390625,-0.018249060958623886,-0.3557421863079071,-0.05948125198483467
1667266547881948700,0.83494873046875,-0.0164165198802948,-0.40033403038978577,-0.0552053228020668
1667266547884346600,0.8373466796875,-0.015194825828075409,-0.4456130862236023,-0.05337277799844742
1667266547886744300,0.839744384765625,-0.0164165198802948,-0.4883723855018616,-0.0558161698281765
1667266547889142300,0.842142333984375,-0.012751436792314053,-0.5280774831771851,-0.057648710906505585
1667266547891540000,0.8445400390625,-0.013362283818423748,-0.5610632300376892,-0.056427016854286194
1667266547893937700,0.846937744140625,-0.013362283818423748,-0.5842754244804382,-0.0558161698281765
1667266547896335600,0.849335693359375,-0.015194825828075409,-0.6050441861152649,-0.05031854286789894
1667266547898733300,0.8517333984375,-0.017027366906404495,-0.6172611713409424,-0.041766680777072906
1667266547901131300,0.85413134765625,-0.021914144977927208,-0.6239804625511169,-0.03321481868624687
1667266547903529000,0.856529052734375,-0.024968381971120834,-0.6245913505554199,-0.01916533336043358
1667266547905926700,0.8589267578125,-0.030466007068753242,-0.6233696341514587,-0.005726693198084831
1667266547908324600,0.86132470703125,-0.03779617324471474,-0.6209262609481812,0.009544488042593002
1667266547910722300,0.863722412109375,-0.04390464723110199,-0.6178719997406006,0.02542651630938053
1667266547913120300,0.866120361328125,-0.0561215914785862,-0.6160394549369812,0.03825430944561958
1667266547915518000,0.86851806640625,-0.0689493864774704,-0.610541820526123,0.049860406666994095
1667266547917916000,0.870916015625,-0.07994463294744492,-0.6050441861152649,0.05963396281003952
1667266547920313600,0.873313720703125,-0.0952158197760582,-0.5995466113090515,0.06635328382253647
1667266547922711300,0.875711181640625,-0.1074327602982521,-0.5885513424873352,0.06757497787475586
1667266547925109200,0.878109130859375,-0.11964970827102661,-0.5763344168663025,0.06574243307113647
1667266547927507000,0.8805068359375,-0.13125580549240112,-0.5586197972297668,0.05535803362727165
1667266547929905000,0.88290478515625,-0.13919681310653687,-0.5329642295837402,0.04375193640589714
1667266547932302600,0.885302490234375,-0.1459161341190338,-0.5030327439308167,0.026037365198135376
1667266547934700500,0.887700439453125,-0.14958122372627258,-0.46516019105911255,0.0028251686599105597
1667266547937098200,0.89009814453125,-0.14530529081821442,-0.422324538230896,-0.028938889503479004
1667266547939496000,0.892495849609375,-0.13980767130851746,-0.3673482835292816,-0.06314633786678314
1667266547941894000,0.894893798828125,-0.13186664879322052,-0.3056527078151703,-0.10162971168756485
1667266547944291600,0.89729150390625,-0.12270393967628479,-0.23540526628494263,-0.1468324065208435
1667266547946689500,0.899689453125,-0.11231953650712967,-0.15782766044139862,-0.19508934020996094
1667266547949087200,0.902087158203125,-0.10193513333797455,-0.07475243508815765,-0.2518981397151947
1667266547951485000,0.90448486328125,-0.09277242422103882,0.015042114071547985,-0.31359371542930603
1667266547953883000,0.9068828125,-0.08360971510410309,0.1139993667602539,-0.37651097774505615
1667266547956280600,0.909280517578125,-0.07383616268634796,0.22334103286266327,-0.44003909826278687
1667266547958678500,0.911678466796875,-0.06467345356941223,0.3406237065792084,-0.504788875579834
1667266547961076200,0.914076171875,-0.05673243850469589,0.46279314160346985,-0.5695387125015259
1667266547963474000,0.916473876953125,-0.04695888236165047,0.5861843228340149,-0.6361210346221924
1667266547965871900,0.918871826171875,-0.03596363216638565,0.7089645862579346,-0.7002600431442261
1667266547968269600,0.92126953125,-0.0231358390301466,0.831744909286499,-0.7668423652648926
1667266547970667500,0.92366748046875,-0.010308047756552696,0.9502492547035217,-0.8334247469902039
1667266547973065200,0.926065185546875,0.008017370477318764,1.0608125925064087,-0.9030613303184509
1667266547975463000,0.928462890625,0.026342788711190224,1.1634349822998047,-0.9696436524391174
1667266547977860900,0.93086083984375,0.04527905210852623,1.2538403272628784,-1.041723608970642
1667266547980258600,0.933258544921875,0.06665870547294617,1.3314179182052612,-1.1095277070999146
1667266547982656500,0.935656494140625,0.08559497445821762,1.3980003595352173,-1.1779426336288452
1667266547985054200,0.93805419921875,0.10330954194068909,1.4596959352493286,-1.24513578414917
1667266547987452200,0.9404521484375,0.12041326612234116,1.51161789894104,-1.3092747926712036
1667266547989849900,0.942849853515625,0.13140851259231567,1.548879623413086,-1.370970368385315
1667266547992247600,0.94524755859375,0.13690614700317383,1.5794219970703125,-1.4277790784835815
1667266547994645500,0.9476455078125,0.13629528880119324,1.6050775051116943,-1.482755422592163
1667266547997043200,0.950043212890625,0.1271325796842575,1.6295114755630493,-1.5267363786697388
1667266547999441200,0.952441162109375,0.11125055700540543,1.6527236700057983,-1.5664414167404175
1667266548001838800,0.9548388671875,0.09231429547071457,1.669216513633728,-1.6000380516052246
1667266548004236800,0.95723681640625,0.07948649674654007,1.6753249168395996,-1.62447190284729
1667266548006634500,0.959634521484375,0.062993623316288,1.6673839092254639,-1.6440190076828003
1667266548009032200,0.9620322265625,0.04650074616074562,1.6539453268051147,-1.6544034481048584
1667266548011430100,0.96443017578125,0.03306210786104202,1.6350090503692627,-1.6592901945114136
1667266548013827800,0.966827880859375,0.01779092662036419,1.614240288734436,-1.6550142765045166
1667266548016225800,0.969225830078125,0.000687203137204051,1.5928605794906616,-1.6427973508834839
1667266548018623500,0.97162353515625,-0.014583977870643139,1.5714808702468872,-1.62447190284729
1667266548021021400,0.974021484375,-0.030466007068753242,1.5507121086120605,-1.5988163948059082
1667266548023419100,0.976419189453125,-0.045737188309431076,1.5329976081848145,-1.5664414167404175
1667266548025816800,0.97881689453125,-0.06223006546497345,1.5134503841400146,-1.5261255502700806
1667266548028214800,0.98121484375,-0.07872293889522552,1.501233458518982,-1.480922818183899
1667266548030612500,0.983612548828125,-0.09216158092021942,1.4908491373062134,-1.4296116828918457
1667266548033010400,0.986010498046875,-0.10498937219381332,1.4877948760986328,-1.3728028535842896
1667266548035408100,0.988408203125,-0.11537377536296844,1.4871840476989746,-1.3111072778701782
1667266548037805800,0.990805908203125,-0.12392564117908478,1.4896273612976074,-1.2475792169570923
1667266548040203800,0.993203857421875,-0.12942326068878174,1.4932924509048462,-1.1785534620285034
1667266548042601500,0.9956015625,-0.12881241738796234,1.5036768913269043,-1.1015866994857788
1667266548044999400,0.99799951171875,-0.12453648447990417,1.5183372497558594,-1.0264524221420288
1667266548047397000,1.000397216796875,-0.11842801421880722,1.5397168397903442,-0.9439880847930908
1667266548049794800,1.002794921875,-0.1086544543504715,1.5659832954406738,-0.8615236878395081
1667266548052192800,1.00519287109375,-0.09338327497243881,1.5922497510910034,-0.7772268056869507
1667266548054590500,1.007590576171875,-0.07505785673856735,1.6203486919403076,-0.689875602722168
1667266548056988400,1.009988525390625,-0.054899897426366806,1.6411175727844238,-0.6037461757659912
1667266548059386000,1.01238623046875,-0.028633465990424156,1.6643297672271729,-0.5133407711982727
1667266548061783800,1.01478369140625,0.00007635590736754239,1.6802117824554443,-0.4211028218269348
1667266548064181800,1.017181640625,0.03245126083493233,1.6673839092254639,-0.33680590987205505
1667266548066579500,1.019579345703125,0.06788039952516556,1.6398957967758179,-0.25556322932243347
1667266548068977400,1.021977294921875,0.10453123599290848,1.6111860275268555,-0.16943375766277313
1667266548071375000,1.024375,0.14484715461730957,1.575145959854126,-0.07963921129703522
1667266548073773000,1.02677294921875,0.193104088306427,1.5207805633544922,0.007711946498602629
1667266548076170800,1.029170654296875,0.24075017869472504,1.4254884719848633,0.08223531395196915
1667266548078568400,1.031568359375,0.29022881388664246,1.317368507385254,0.15614783763885498
1667266548080966400,1.03396630859375,0.34581589698791504,1.2055834531784058,0.23616881668567657
1667266548083364000,1.036364013671875,0.4050680994987488,1.076083779335022,0.31618982553482056
1667266548085762000,1.038761962890625,0.4698179066181183,0.9343672394752502,0.39437827467918396
1667266548088159700,1.04115966796875,0.5376219153404236,0.762108325958252,0.46462568640708923
1667266548090557400,1.043557373046875,0.6042042970657349,0.5574744939804077,0.5189911127090454
1667266548092955400,1.045955322265625,0.6744517087936401,0.3503972589969635,0.5751890540122986
1667266548095353000,1.04835302734375,0.747753381729126,0.1555369794368744,0.6393280029296875
1667266548097751000,1.0507509765625,0.8234984874725342,-0.032603971660137177,0.7028561234474182
1667266548100148700,1.053148681640625,0.9022977352142334,-0.22318831086158752,0.7664605975151062
1667266548102546700,1.055546630859375,0.974988579750061,-0.44255882501602173,0.8147175312042236
1667266548104944400,1.0579443359375,1.048901081085205,-0.6575770974159241,0.8611419200897217
1667266548107342000,1.060342041015625,1.122202754020691,-0.8567132949829102,0.9112313985824585
1667266548109740000,1.062739990234375,1.1967260837554932,-1.0430216789245605,0.9662076234817505
1667266548112137700,1.0651376953125,1.2718603610992432,-1.2110047340393066,1.0230164527893066
1667266548114535700,1.06753564453125,1.345162034034729,-1.3679924011230469,1.0822685956954956
1667266548116933400,1.069933349609375,1.4196853637695312,-1.5054330825805664,1.150072693824768
1667266548119331300,1.072331298828125,1.4923762083053589,-1.6196614503860474,1.2203201055526733
1667266548121729000,1.07472900390625,1.5650670528411865,-1.7137320041656494,1.2954543828964233
1667266548124126700,1.077126708984375,1.6353144645690918,-1.790698766708374,1.3724210262298584
1667266548126524700,1.079524658203125,1.7049510478973389,-1.841399073600769,1.45366370677948
1667266548128922400,1.08192236328125,1.770311713218689,-1.8762173652648926,1.537349820137024
1667266548131320300,1.0843203125,1.8344507217407227,-1.8994295597076416,1.6228684186935425
1667266548133718000,1.086718017578125,1.8930920362472534,-1.9067597389221191,1.7102196216583252
1667266548136115700,1.08911572265625,1.946846604347229,-1.9012620449066162,1.7981816530227661
1667266548138513700,1.091513671875,1.9981577396392822,-1.8853800296783447,1.884921908378601
1667266548140911400,1.093911376953125,2.043360471725464,-1.8591135740280151,1.9722731113433838
1667266548143309300,1.096309326171875,2.0806221961975098,-1.8261278867721558,2.0577917098999023
1667266548145707000,1.09870703125,2.1111645698547363,-1.784590244293213,2.1414778232574463
1667266548148104700,1.101104736328125,2.1343767642974854,-1.7509936094284058,2.22210955619812
1667266548150502700,1.103502685546875,2.1514804363250732,-1.7180079221725464,2.2948005199432373
1667266548152900400,1.105900390625,2.1575889587402344,-1.693574070930481,2.363215446472168
1667266548155298300,1.10829833984375,2.161864757537842,-1.675248622894287,2.4230782985687256
1667266548157696000,1.110696044921875,2.159421443939209,-1.6618099212646484,2.473167896270752
1667266548160093700,1.11309375,2.153923749923706,-1.6514256000518799,2.5183706283569336
1667266548162491600,1.11549169921875,2.145371913909912,-1.6385977268218994,2.557464838027954
1667266548164889300,1.117889404296875,2.130711555480957,-1.6239374876022339,2.5898396968841553
1667266548167287300,1.120287353515625,2.112997055053711,-1.6062228679656982,2.6161060333251953
1667266548169685000,1.12268505859375,2.092839002609253,-1.5848431587219238,2.638096570968628
1667266548172083000,1.1250830078125,2.0647401809692383,-1.5573550462722778,2.6539785861968994
1667266548174480600,1.127480712890625,2.0372519493103027,-1.527423620223999,2.6631412506103516
1667266548176878300,1.12987841796875,2.006098747253418,-1.4993245601654053,2.667417287826538
1667266548179276300,1.1322763671875,1.974334716796875,-1.4687821865081787,2.6655848026275635
1667266548181674000,1.134674072265625,1.9376838207244873,-1.4388507604599,2.658254623413086
1667266548184072000,1.137072021484375,1.8985896110534668,-1.411973476409912,2.6417617797851562
1667266548186469600,1.1394697265625,1.8607170581817627,-1.3838744163513184,2.62099289894104
1667266548188867600,1.14186767578125,1.8191795349121094,-1.359440565109253,2.5928938388824463
1667266548191265300,1.144265380859375,1.7794743776321411,-1.336839199066162,2.555021286010742
1667266548193663000,1.1466630859375,1.7416019439697266,-1.3142378330230713,2.517148733139038
1667266548196061000,1.14906103515625,1.7037293910980225,-1.29163658618927,2.47377872467041
1667266548198458600,1.151458740234375,1.6658568382263184,-1.2733111381530762,2.429797649383545
1667266548200856600,1.153856689453125,1.6292059421539307,-1.2555965185165405,2.3797082901000977
1667266548203254300,1.156254150390625,1.5925551652908325,-1.2342169284820557,2.3302295207977295
1667266548205652000,1.15865185546875,1.5571260452270508,-1.2171131372451782,2.2783076763153076
1667266548208050000,1.1610498046875,1.52475106716156,-1.2006202936172485,2.226996421813965
1667266548210447600,1.163447509765625,1.4862676858901978,-1.1853491067886353,2.172631025314331
1667266548212845600,1.165845458984375,1.4459518194198608,-1.170077919960022,2.1213197708129883
1667266548215243300,1.1682431640625,1.4050250053405762,-1.1590826511383057,2.068176031112671
1667266548217641200,1.17064111328125,1.364098310470581,-1.1462548971176147,2.015643358230591
1667266548220039000,1.173038818359375,1.3231714963912964,-1.1438114643096924,1.9673863649368286
1667266548222436600,1.1754365234375,1.2779687643051147,-1.1450332403182983,1.916685938835144
1667266548224834600,1.17783447265625,1.2327661514282227,-1.1505308151245117,1.8720941543579102
1667266548227232300,1.180232177734375,1.1857309341430664,-1.161526083946228,1.823837161064148
1667266548229630200,1.182630126953125,1.1399173736572266,-1.1767972707748413,1.7810778617858887
1667266548232028000,1.18502783203125,1.0910495519638062,-1.1939009428024292,1.7383185625076294
1667266548234425900,1.18742578125,1.0427926778793335,-1.2128372192382812,1.6967809200286865
1667266548236823600,1.189823486328125,0.9939248561859131,-1.2317734956741333,1.6564650535583496
1667266548239221200,1.19222119140625,0.9438353776931763,-1.2513206005096436,1.621646761894226
1667266548241619200,1.194619140625,0.8937458992004395,-1.2647593021392822,1.5868284702301025
1667266548244017000,1.197016845703125,0.8442672491073608,-1.2794195413589478,1.5538426637649536
1667266548246414800,1.199414794921875,0.794788658618927,-1.2855280637741089,1.5208569765090942
1667266548248812500,1.2018125,0.743477463722229,-1.2879714965820312,1.4878711700439453
1667266548251210200,1.204210205078125,0.692777156829834,-1.2898039817810059,1.454885482788086
1667266548253608200,1.206608154296875,0.6402443051338196,-1.2873605489730835,1.4206780195236206
1667266548256006000,1.209005859375,0.5852680206298828,-1.286138892173767,1.385859727859497
1667266548258403800,1.21140380859375,0.5321243405342102,-1.281252145767212,1.35226309299469
1667266548260801500,1.213801513671875,0.47653722763061523,-1.272700309753418,1.3137797117233276
1667266548263199200,1.21619921875,0.42461520433425903,-1.2623158693313599,1.2746855020523071
1667266548265597200,1.21859716796875,0.36841726303100586,-1.2476555109024048,1.2343696355819702
1667266548267995000,1.220994873046875,0.3140518367290497,-1.229330062866211,1.1928319931030273
1667266548270392800,1.223392822265625,0.2609081268310547,-1.2073396444320679,1.150072693824768
1667266548272790500,1.22579052734375,0.20898611843585968,-1.18046236038208,1.1054807901382446
1667266548275188200,1.228188232421875,0.15889663994312286,-1.1499199867248535,1.0621106624603271
1667266548277586200,1.230586181640625,0.11125055700540543,-1.1157125234603882,1.015686273574829
1667266548279983900,1.23298388671875,0.06726955622434616,-1.0753966569900513,0.9704836010932922
1667266548282381800,1.2353818359375,0.02145601063966751,-1.0308047533035278,0.9252808690071106
1667266548284779500,1.237779541015625,-0.01885990984737873,-0.9868237376213074,0.8794673681259155
1667266548287177500,1.240177490234375,-0.05734328553080559,-0.9379559755325317,0.8318212628364563
1667266548289575200,1.2425751953125,-0.0952158197760582,-0.8860339522361755,0.7878402471542358
1667266548291972900,1.244972900390625,-0.1330883502960205,-0.8133431077003479,0.7518002390861511
1667266548294370800,1.247370849609375,-0.16668494045734406,-0.7424848675727844,0.7175164818763733
1667266548296768500,1.2497685546875,-0.2008923888206482,-0.6838434934616089,0.6826981902122498
1667266548299166500,1.25216650390625,-0.22838051617145538,-0.638029932975769,0.6503232717514038
1667266548301564200,1.254564208984375,-0.2558686435222626,-0.6056550741195679,0.6185591816902161
1667266548303962000,1.256962158203125,-0.2803025245666504,-0.5854970812797546,0.5855734348297119
1667266548306359800,1.25935986328125,-0.30603447556495667,-0.5812211632728577,0.5556419491767883
1667266548308757500,1.261757568359375,-0.3255815804004669,-0.5891621708869934,0.5269321203231812
1667266548311155500,1.264155517578125,-0.3408527672290802,-0.6080984473228455,0.5000548362731934
1667266548313553200,1.26655322265625,-0.3573456406593323,-0.6374191045761108,0.47378841042518616
1667266548315951000,1.268951171875,-0.3689517378807068,-0.6734591126441956,0.44996535778045654
1667266548318348800,1.271348876953125,-0.3793361485004425,-0.7149966955184937,0.4291965663433075
1667266548320746800,1.273746826171875,-0.38849884271621704,-0.7620319724082947,0.41209283471107483
1667266548323144400,1.27614453125,-0.3970507085323334,-0.8096780180931091,0.4029301106929779
1667266548325542100,1.278542236328125,-0.4056025743484497,-0.8518264889717102,0.39743250608444214
1667266548327940000,1.280940185546875,-0.41476529836654663,-0.8915315866470337,0.39498910307884216
1667266548330337800,1.283337890625,-0.4220954477787018,-0.9269607067108154,0.39376741647720337
1667266548332735700,1.28573583984375,-0.42881476879119873,-0.9623898267745972,0.39621078968048096
1667266548335133400,1.288133544921875,-0.4343124032020569,-0.9904888272285461,0.3998758792877197
1667266548337531100,1.29053125,-0.444085955619812,-1.0185878276824951,0.40781688690185547
1667266548339929000,1.29292919921875,-0.4489727318286896,-1.03996741771698,0.4169796109199524
1667266548342326800,1.295326904296875,-0.4556920528411865,-1.0540169477462769,0.4298073947429657
1667266548344724700,1.297724853515625,-0.4618005156517029,-1.0619579553604126,0.4463002681732178
1667266548347122400,1.300122314453125,-0.46668729186058044,-1.0625687837600708,0.46218231320381165
1667266548349520400,1.302520263671875,-0.4746283292770386,-1.0552386045455933,0.4823402762413025
1667266548351918000,1.30491796875,-0.48012593388557434,-1.0387457609176636,0.5073850154876709
1667266548354315800,1.307315673828125,-0.4868452548980713,-1.017976999282837,0.5312080383300781
1667266548356713700,1.309713623046875,-0.49173203110694885,-0.9929322004318237,0.5574744939804077
1667266548359111400,1.312111328125,-0.4990622103214264,-0.9623898267745972,0.5861843228340149
1667266548361509400,1.31450927734375,-0.5070032477378845,-0.9281824231147766,0.6148941516876221
1667266548363907000,1.316906982421875,-0.5143333673477173,-0.8878664970397949,0.6442148089408875
1667266548366304800,1.3193046875,-0.5210527181625366,-0.8506048321723938,0.6765896677970886
1667266548368702700,1.32170263671875,-0.527161180973053,-0.8072346448898315,0.7114079594612122
1667266548371100400,1.324100341796875,-0.5344913601875305,-0.7638645172119141,0.742637574672699
1667266548373498400,1.326498291015625,-0.5399889945983887,-0.7235485911369324,0.7725690603256226
1667266548375896000,1.32889599609375,-0.5473191738128662,-0.6862868666648865,0.8049439787864685
1667266548378293800,1.331293701171875,-0.555260181427002,-0.647803544998169,0.8360971808433533
1667266548380691700,1.333691650390625,-0.5595360994338989,-0.6117635369300842,0.867861270904541
1667266548383089400,1.33608935546875,-0.5607577562332153,-0.5812211632728577,0.895349383354187
1667266548385487400,1.3384873046875,-0.5650337338447571,-0.5500679612159729,0.922837495803833
1667266548387885000,1.340885009765625,-0.5680879354476929,-0.5219689607620239,0.9491039514541626
1667266548390283000,1.343282958984375,-0.5680879354476929,-0.4993676245212555,0.9747595191001892
1667266548392680700,1.3456806640625,-0.5711421966552734,-0.47737714648246765,0.9998042583465576
1667266548395078400,1.348078369140625,-0.5723638534545898,-0.4608842432498932,1.0193513631820679
1667266548397476400,1.350476318359375,-0.5748072862625122,-0.4450022280216217,1.0419527292251587
1667266548399874000,1.3528740234375,-0.5754181146621704,-0.4339306354522705,1.0627214908599854
1667266548402272000,1.35527197265625,-0.5760289430618286,-0.42843300104141235,1.0779926776885986
1667266548404669700,1.357669677734375,-0.5796940326690674,-0.42660045623779297,1.095096468925476
1667266548407067400,1.3600673828125,-0.5821374654769897,-0.42721131443977356,1.1103676557540894
1667266548409465300,1.36246533203125,-0.5864133834838867,-0.434617817401886,1.1262496709823608
1667266548411863000,1.364863037109375,-0.5919110178947449,-0.4437805414199829,1.1384665966033936
1667266548414261000,1.367260986328125,-0.5986303091049194,-0.4590517282485962,1.1488510370254517
1667266548416658700,1.36965869140625,-0.6071822047233582,-0.47615543007850647,1.158624529838562
1667266548419056600,1.372056640625,-0.6187883019447327,-0.49325916171073914,1.1635112762451172
1667266548421454300,1.374454345703125,-0.6303943991661072,-0.51341712474823,1.1677871942520142
1667266548423852000,1.37685205078125,-0.6438329815864563,-0.5378510355949402,1.171452283859253
1667266548426250000,1.37925,-0.6603258848190308,-0.564728319644928,1.1726740598678589
1667266548428647700,1.381647705078125,-0.6786513328552246,-0.5909947156906128,1.1677871942520142
1667266548431045600,1.384045654296875,-0.6951441764831543,-0.6184828281402588,1.1641221046447754
1667266548433443300,1.386443359375,-0.7165238261222839,-0.6484143733978271,1.1592353582382202
1667266548435841300,1.38884130859375,-0.7379034757614136,-0.6783458590507507,1.1519051790237427
1667266548438239000,1.391239013671875,-0.7623373866081238,-0.7088882327079773,1.1402990818023682
1667266548440636700,1.39363671875,-0.7843278646469116,-0.7369872331619263,1.1293038129806519
1667266548443034600,1.39603466796875,-0.8063184022903442,-0.7626428008079529,1.1128109693527222
1667266548445432300,1.398432373046875,-0.8338065147399902,-0.7840224504470825,1.0975397825241089
1667266548447830300,1.400830322265625,-0.8557969927787781,-0.8029587268829346,1.0786035060882568
1667266548450228000,1.40322802734375,-0.8783983588218689,-0.8206732869148254,1.0602781772613525
1667266548452626000,1.4056259765625,-0.9028322696685791,-0.8316685557365417,1.0395092964172363
1667266548455023600,1.408023681640625,-0.9266552925109863,-0.8408312797546387,1.0162971019744873
1667266548457421300,1.41042138671875,-0.9474241137504578,-0.8499939441680908,0.9888089895248413
1667266548459819300,1.4128193359375,-0.9681929349899292,-0.8542698621749878,0.9625425934791565
1667266548462217000,1.415217041015625,-0.9883508682250977,-0.8561024069786072,0.9344435930252075
1667266548464615000,1.417614990234375,-1.0060654878616333,-0.8561024069786072,0.9069554805755615
1667266548467012600,1.4200126953125,-1.0213366746902466,-0.8536590337753296,0.8751913905143738
1667266548469410300,1.422410400390625,-1.0384403467178345,-0.8524373769760132,0.844038188457489
1667266548471808300,1.424808349609375,-1.0488247871398926,-0.8426637649536133,0.8110524415969849
1667266548474206000,1.4272060546875,-1.0579874515533447,-0.8292251825332642,0.7707365155220032
1667266548476604000,1.42960400390625,-1.068982720375061,-0.8108997344970703,0.7285116910934448
1667266548479001600,1.432001708984375,-1.0787562131881714,-0.7950177192687988,0.6845307350158691
1667266548481399600,1.434399658203125,-1.0866972208023071,-0.7760814428329468,0.6411605477333069
1667266548483797200,1.43679736328125,-1.0915840864181519,-0.7589777112007141,0.5996229648590088
1667266548486195000,1.43919482421875,-1.0934165716171265,-0.7430956959724426,0.5586961507797241
1667266548488593000,1.441593017578125,-1.0934165716171265,-0.7266027927398682,0.5189911127090454
1667266548490990600,1.443990478515625,-1.0909732580184937,-0.7088882327079773,0.4798968732357025
1667266548493388500,1.446388427734375,-1.0854755640029907,-0.6881194114685059,0.4438568949699402
1667266548495786200,1.4487861328125,-1.0787562131881714,-0.666128933429718,0.4035409688949585
1667266548498184000,1.451183837890625,-1.068982720375061,-0.6374191045761108,0.366279274225235
1667266548500582000,1.453581787109375,-1.0555440187454224,-0.5934380888938904,0.33329352736473083
1667266548502979600,1.4559794921875,-1.041494607925415,-0.5488462448120117,0.30214032530784607
1667266548505377500,1.45837744140625,-1.0237799882888794,-0.5018110275268555,0.2703762650489807
1667266548507775200,1.460775146484375,-1.007897973060608,-0.4572191834449768,0.23800136148929596
1667266548510173000,1.4631728515625,-0.9895725846290588,-0.4125509560108185,0.2068481594324112
1667266548512571000,1.46557080078125,-0.9694145917892456,-0.3704025149345398,0.17386239767074585
1667266548514968600,1.467968505859375,-0.9517000317573547,-0.32764318585395813,0.14515258371829987
1667266548517366500,1.470366455078125,-0.9345963001251221,-0.2818296551704407,0.1139993667602539
1667266548519764200,1.47276416015625,-0.9174925684928894,-0.2384594976902008,0.08467870205640793
1667266548522162000,1.475161865234375,-0.9009997248649597,-0.19020256400108337,0.05596888065338135
1667266548524560000,1.477559814453125,-0.8857285380363464,-0.14072394371032715,0.02664821222424507
1667266548526957600,1.47995751953125,-0.8716790676116943,-0.09124530851840973,-0.002061609411612153
1667266548529355500,1.48235546875,-0.8600729703903198,-0.040544986724853516,-0.028938889503479004
1667266548531753200,1.484753173828125,-0.8466343283653259,0.010155336000025272,-0.05337277799844742
1667266548534151200,1.487151123046875,-0.8350282311439514,0.06146650388836861,-0.07963921129703522
1667266548536548900,1.489548828125,-0.8258655071258545,0.11277767270803452,-0.10468395054340363
1667266548538946600,1.491946533203125,-0.818535327911377,0.1671430766582489,-0.12911784648895264
1667266548541344500,1.494344482421875,-0.8112051486968994,0.22334103286266327,-0.15171918272972107
1667266548543742200,1.4967421875,-0.8038749694824219,0.28014981746673584,-0.1743205338716507
1667266548546140200,1.49914013671875,-0.7971556782722473,0.3375694751739502,-0.19570018351078033
1667266548548537900,1.501537841796875,-0.7898254990577698,0.39498910307884216,-0.21463645994663239
1667266548550935800,1.503935791015625,-0.7824953198432922,0.4536304473876953,-0.237237811088562
1667266548553333500,1.50633349609375,-0.7776085734367371,0.5153260231018066,-0.25739577412605286
1667266548555731200,1.508731201171875,-0.7715001106262207,0.5794649720191956,-0.2751103341579437
1667266548558129200,1.511129150390625,-0.7660024762153625,0.6417713761329651,-0.2922140657901764
1667266548560526800,1.51352685546875,-0.7598940134048462,0.7077429294586182,-0.30931776762008667
1667266548562924800,1.5159248046875,-0.7556180357933044,0.7755469679832458,-0.32764318585395813
1667266548565322500,1.518322509765625,-0.7501204609870911,0.8384642004966736,-0.3423035442829132
1667266548567720400,1.520720458984375,-0.7476770281791687,0.9019923210144043,-0.36307233572006226
1667266548570118100,1.5231181640625,-0.7421793937683105,0.969796359539032,-0.37956520915031433
1667266548572515800,1.525515869140625,-0.7409577369689941,1.0351570844650269,-0.3954472541809082
1667266548574913800,1.527913818359375,-0.7409577369689941,1.0980743169784546,-0.41438350081443787
1667266548577311500,1.5303115234375,-0.7385143637657166,1.1530505418777466,-0.4333197772502899
1667266548579709400,1.53270947265625,-0.7379034757614136,1.2092485427856445,-0.4510343372821808
1667266548582107100,1.535107177734375,-0.7379034757614136,1.261170506477356,-0.46630552411079407
1667266548584505000,1.537505126953125,-0.7360709309577942,1.3069840669631958,-0.4852418005466461
1667266548586902800,1.53990283203125,-0.7385143637657166,1.3466891050338745,-0.5023455023765564
1667266548589300500,1.542300537109375,-0.7421793937683105,1.382729172706604,-0.5206709504127502
1667266548591698400,1.544698486328125,-0.7452336549758911,1.4120497703552246,-0.5383855104446411
1667266548594096000,1.54709619140625,-0.7488987445831299,1.4383162260055542,-0.5567108988761902
1667266548596494000,1.549494140625,-0.7537854909896851,1.4584741592407227,-0.5707604289054871
1667266548598891800,1.551891845703125,-0.7598940134048462,1.4755779504776,-0.5860316157341003
1667266548601289500,1.55428955078125,-0.767224133014679,1.4877948760986328,-0.6019136309623718
1667266548603687400,1.5566875,-0.7727217674255371,1.4957358837127686,-0.6153522729873657
1667266548606085000,1.559085205078125,-0.7788302302360535,1.5000118017196655,-0.6275691986083984
1667266548608483000,1.561483154296875,-0.7855495810508728,1.4975683689117432,-0.6367319226264954
1667266548610880800,1.563880859375,-0.7934905886650085,1.492681622505188,-0.6477271914482117
1667266548613278500,1.566278564453125,-0.7989882230758667,1.4822971820831299,-0.653224766254425
1667266548615676400,1.568676513671875,-0.8002098798751831,1.4658043384552002,-0.6587224006652832
1667266548618074000,1.57107421875,-0.7977665066719055,1.4444247484207153,-0.6599441170692444
1667266548620472000,1.57347216796875,-0.7916580438613892,1.4206016063690186,-0.6575007438659668
1667266548622869800,1.575869873046875,-0.7886037826538086,1.3980003595352173,-0.653224766254425
1667266548625267700,1.578267822265625,-0.7800519466400146,1.372955560684204,-0.6458946466445923
1667266548627665400,1.58066552734375,-0.7678350210189819,1.3460782766342163,-0.6373427510261536
1667266548630063000,1.58306298828125,-0.7513421177864075,1.316146731376648,-0.6251258254051208
1667266548632461000,1.5854609375,-0.7317950129508972,1.2868261337280273,-0.6092438101768494
1667266548634858800,1.587858642578125,-0.7091936469078064,1.2575054168701172,-0.5896966457366943
1667266548637256700,1.590256591796875,-0.6817055344581604,1.2300173044204712,-0.5670953392982483
1667266548639654400,1.592654296875,-0.6529957056045532,1.201918363571167,-0.5420506000518799
1667266548642052000,1.595052001953125,-0.6212316751480103,1.1750410795211792,-0.5151733160018921
1667266548644450000,1.597449951171875,-0.5870242118835449,1.151218056678772,-0.4858526289463043
1667266548646847700,1.59984765625,-0.5509842038154602,1.1255624294281006,-0.45469942688941956
1667266548649245700,1.60224560546875,-0.5112791657447815,1.1066261529922485,-0.4204919934272766
1667266548651643400,1.604643310546875,-0.4727957844734192,1.0889116525650024,-0.3875062167644501
1667266548654041000,1.607041015625,-0.4324798583984375,1.0766946077346802,-0.3569638729095459
1667266548656439000,1.60943896484375,-0.3927747905254364,1.0705862045288086,-0.32458895444869995
1667266548658836700,1.611836669921875,-0.3542914092540741,1.0742512941360474,-0.2916032075881958
1667266548661234700,1.614234619140625,-0.3164188861846924,1.0828031301498413,-0.25983914732933044
1667266548663632400,1.61663232421875,-0.280913382768631,1.0962417125701904,-0.2274642437696457
1667266548666030300,1.6190302734375,-0.24792763590812683,1.1170105934143066,-0.19631104171276093
1667266548668428000,1.621427978515625,-0.21555273234844208,1.1408336162567139,-0.1608818918466568
1667266548670825700,1.62382568359375,-0.18439951539039612,1.168932557106018,-0.12972868978977203
1667266548673223700,1.6262236328125,-0.1593547761440277,1.200696587562561,-0.09674293547868729
1667266548675621400,1.628621337890625,-0.1336991935968399,1.2342932224273682,-0.06436803191900253
1667266548678019300,1.631019287109375,-0.10987614840269089,1.2660572528839111,-0.03077143058180809
1667266548680417000,1.6334169921875,-0.08849649876356125,1.29904305934906,0.0034360159188508987
1667266548682815000,1.63581494140625,-0.06711684167385101,1.3326396942138672,0.03825430944561958
1667266548685212700,1.638212646484375,-0.04695888236165047,1.3570735454559326,0.07124006003141403
1667266548687610400,1.6406103515625,-0.031076854094862938,1.3845616579055786,0.10605835169553757
1667266548690008300,1.64300830078125,-0.009697199799120426,1.4083846807479858,0.1396549493074417
1667266548692406000,1.645406005859375,0.011682453565299511,1.4206016063690186,0.17447324097156525
1667266548694804000,1.647803955078125,0.03061871975660324,1.432207703590393,0.20868068933486938
1667266548697201700,1.65020166015625,0.052609220147132874,1.441981315612793,0.2441098392009735
1667266548699599600,1.652599609375,0.07276718318462372,1.4535874128341675,0.28137150406837463
1667266548701997300,1.654997314453125,0.09353598952293396,1.4700802564620972,0.31741151213645935
1667266548704395000,1.65739501953125,0.11186140775680542,1.4877948760986328,0.3516189455986023
1667266548706793000,1.65979296875,0.1283542811870575,1.5128395557403564,0.387658953666687
1667266548709190700,1.662190673828125,0.14729054272174835,1.5494904518127441,0.41942301392555237
1667266548711588600,1.664588623046875,0.16439427435398102,1.598358154296875,0.44935452938079834
1667266548713986300,1.666986328125,0.1784437596797943,1.6569995880126953,0.47806432843208313
1667266548716384000,1.669384033203125,0.193104088306427,1.7248035669326782,0.5079958438873291
1667266548718782000,1.671781982421875,0.2047101855278015,1.7926076650619507,0.5330405831336975
1667266548721179600,1.6741796875,0.21692712604999542,1.8536924123764038,0.5611395835876465
1667266548723577600,1.67657763671875,0.2309766262769699,1.8915648460388184,0.5867951512336731
1667266548725975300,1.678975341796875,0.25113457441329956,1.9086686372756958,0.6075639724731445
1667266548728373200,1.681373291015625,0.27617931365966797,1.899505853652954,0.6307761669158936
1667266548730771000,1.68377099609375,0.30244573950767517,1.872017741203308,0.6545991897583008
1667266548733168600,1.686168701171875,0.3354314863681793,1.821317434310913,0.6723137497901917
1667266548735566600,1.688566650390625,0.37147149443626404,1.7565675973892212,0.6869741082191467
1667266548737964300,1.69096435546875,0.40934401750564575,1.6759358644485474,0.6985802054405212
1667266548740362200,1.6933623046875,0.44782739877700806,1.591028094291687,0.7083537578582764
1667266548742760000,1.695760009765625,0.48508909344673157,1.5042877197265625,0.7181273102760315
1667266548745158000,1.698157958984375,0.5174639821052551,1.4077738523483276,0.7199598550796509
1667266548747555600,1.7005556640625,0.5516714453697205,1.3063732385635376,0.725457489490509
1667266548749953300,1.702953369140625,0.5834354758262634,1.2013075351715088,0.7266791462898254
1667266548752351200,1.705351318359375,0.6158103942871094,1.0937983989715576,0.7279008626937866
1667266548754749000,1.7077490234375,0.6463527679443359,0.9814024567604065,0.7272900342941284
1667266548757146600,1.710146728515625,0.6750625967979431,0.8702282905578613,0.7279008626937866
1667266548759544600,1.712544677734375,0.7031615376472473,0.761497437953949,0.7279008626937866
1667266548761942300,1.7149423828125,0.7312605381011963,0.6539883613586426,0.7291225790977478
1667266548764340200,1.71734033203125,0.7575269341468811,0.5470900535583496,0.7309551239013672
1667266548766738000,1.719738037109375,0.7801283001899719,0.44752198457717896,0.7346965670585632
1667266548769135900,1.722135986328125,0.8015079498291016,0.3546731770038605,0.742026686668396
1667266548771533600,1.724533447265625,0.822276771068573,0.26732203364372253,0.7463026642799377
1667266548773931300,1.72693115234375,0.8418238759040833,0.18730103969573975,0.7542436718940735
1667266548776329200,1.7293291015625,0.8589276075363159,0.1139993667602539,0.7627955079078674
1667266548778727000,1.731726806640625,0.8748096227645874,0.04680617153644562,0.7707365155220032
1667266548781124900,1.734124755859375,0.8864157199859619,-0.015500249341130257,0.7792884111404419
1667266548783522600,1.7365224609375,0.8986326456069946,-0.06986565887928009,0.7878402471542358
1667266548785920300,1.738920166015625,0.9084062576293945,-0.1205659806728363,0.7957812547683716
1667266548788318200,1.741318115234375,0.9126821756362915,-0.17126630246639252,0.8006680607795715
1667266548790716000,1.7437158203125,0.9175689220428467,-0.22318831086158752,0.8055548071861267
1667266548793113900,1.74611376953125,0.9181798100471497,-0.27327778935432434,0.8086090683937073
1667266548795511600,1.748511474609375,0.9175689220428467,-0.32581067085266113,0.8098307251930237
1667266548797909500,1.750909423828125,0.9163472652435303,-0.3801760673522949,0.8098307251930237
1667266548800307200,1.75330712890625,0.9102387428283691,-0.43889376521110535,0.8086090683937073
1667266548802705000,1.755704833984375,0.9022977352142334,-0.5005893111228943,0.8031114339828491
1667266548805102800,1.758102783203125,0.8925241827964783,-0.5622848868370056,0.7963921427726746
1667266548807500500,1.76050048828125,0.8790855407714844,-0.6264238357543945,0.7829535007476807
1667266548809898500,1.7628984375,0.8632035255432129,-0.6905628442764282,0.7676823139190674
1667266548812296200,1.765296142578125,0.845488965511322,-0.7565343379974365,0.746913492679596
1667266548814694100,1.767694091796875,0.8216659426689148,-0.8200624585151672,0.7175164818763733
1667266548817091800,1.770091796875,0.7972320318222046,-0.8817580342292786,0.683309018611908
1667266548819489500,1.772489501953125,0.7685222029685974,-0.9379559755325317,0.6442148089408875
1667266548821887500,1.774887451171875,0.7373690009117126,-0.9910996556282043,0.5977904200553894
1667266548824285200,1.77728515625,0.7080483436584473,-1.0381349325180054,0.548922598361969
1667266548826683100,1.77968310546875,0.6793385148048401,-1.086391806602478,0.4945572018623352
1667266548829080800,1.782080810546875,0.6512395143508911,-1.1322053670883179,0.4389701187610626
1667266548831478800,1.784478759765625,0.6231405735015869,-1.1639693975448608,0.3778853714466095
1667266548833876500,1.78687646484375,0.590765655040741,-1.1816840171813965,0.31680065393447876
1667266548836274200,1.789274169921875,0.5559473633766174,-1.1835166215896606,0.255715936422348
1667266548838672100,1.791672119140625,0.5180748105049133,-1.1712995767593384,0.19707459211349487
1667266548841069800,1.79406982421875,0.47775891423225403,-1.1456440687179565,0.1402658075094223
1667266548843467800,1.7964677734375,0.43683215975761414,-1.1102149486541748,0.08406785130500793
1667266548845865500,1.798865478515625,0.3879643678665161,-1.0656230449676514,0.029091600328683853
1667266548848263200,1.80126318359375,0.3378748893737793,-1.016755223274231,-0.02283041551709175
1667266548850661000,1.8036611328125,0.2877854108810425,-0.9630007147789001,-0.07230904698371887
1667266548853058800,1.806058837890625,0.2315874695777893,-0.9049702286720276,-0.11995512992143631
1667266548855456800,1.808456787109375,0.17783290147781372,-0.8457180261611938,-0.16760121285915375
1667266548857854500,1.8108544921875,0.12346750497817993,-0.7840224504470825,-0.21097137033939362
1667266548860252200,1.813252197265625,0.06726955622434616,-0.7198835015296936,-0.2531198263168335
1667266548862650000,1.815650146484375,0.013514995574951172,-0.6520794630050659,-0.2940466105937958
1667266548865047800,1.8180478515625,-0.03962871432304382,-0.5824428796768188,-0.3319191336631775
1667266548867445800,1.82044580078125,-0.08971819281578064,-0.5164713859558105,-0.36612656712532043
1667266548869843500,1.822843505859375,-0.1355317384004593,-0.4431696832180023,-0.40094485878944397
1667266548872241400,1.825241455078125,-0.17890189588069916,-0.37528929114341736,-0.4327089190483093
1667266548874639000,1.82763916015625,-0.21555273234844208,-0.30992862582206726,-0.4626404345035553
1667266548877036800,1.830036865234375,-0.24609509110450745,-0.24395711719989777,-0.4907394051551819
1667266548879434800,1.832434814453125,-0.27175068855285645,-0.18103985488414764,-0.5170058608055115
1667266548881832400,1.83483251953125,-0.2925194799900055,-0.12423106282949448,-0.5414397120475769
1667266548884230400,1.83723046875,-0.3042019307613373,-0.0686439573764801,-0.560375988483429
1667266548886628000,1.839628173828125,-0.312142938375473,-0.02160872146487236,-0.579312264919281
1667266548889025800,1.84202587890625,-0.3151971995830536,0.026037365198135376,-0.5945834517478943
1667266548891423700,1.844423828125,-0.31092125177383423,0.06940752267837524,-0.6080220937728882
1667266548893821400,1.846821533203125,-0.3035911023616791,0.11155597865581512,-0.6184064745903015
1667266548896219400,1.849219482421875,-0.2919086217880249,0.15003935992717743,-0.625736653804779
1667266548898617000,1.8516171875,-0.27297237515449524,0.18669019639492035,-0.6324560046195984
1667266548901014800,1.854014892578125,-0.255257785320282,0.22334103286266327,-0.6330668330192566
1667266548903412700,1.856412841796875,-0.23448899388313293,0.259991854429245,-0.6324560046195984
1667266548905810400,1.858810546875,-0.2112767994403839,0.2966426908969879,-0.630012571811676
1667266548908208400,1.86120849609375,-0.18439951539039612,0.3339043855667114,-0.6269583702087402
1667266548910606000,1.863606201171875,-0.15691138803958893,0.364446759223938,-0.6214607357978821
1667266548913004000,1.866004150390625,-0.12881241738796234,0.4010975956916809,-0.6159631013870239
1667266548915401700,1.868401611328125,-0.09827005118131638,0.43347248435020447,-0.6043570041656494
1667266548917799400,1.87079931640625,-0.0695602297782898,0.4658474028110504,-0.5964159965515137
1667266548920197400,1.873197265625,-0.04023956134915352,0.4963897466659546,-0.584199070930481
1667266548922595000,1.875594970703125,-0.012140588834881783,0.52571040391922,-0.575036346912384
1667266548924993000,1.877992919921875,0.012904148548841476,0.553809404373169,-0.5622085332870483
1667266548927390700,1.880390625,0.03733803704380989,0.5782433152198792,-0.551824152469635
1667266548929788700,1.88278857421875,0.05932854115962982,0.6063422560691833,-0.5396072268486023
1667266548932186400,1.885186279296875,0.08070819079875946,0.6307761669158936,-0.5261685848236084
1667266548934584000,1.887583984375,0.09475768357515335,0.650934100151062,-0.5127299427986145
1667266548936982000,1.88998193359375,0.10575293004512787,0.6710920929908752,-0.50112384557724
1667266548939379700,1.892379638671875,0.11674818396568298,0.6888066530227661,-0.4895177185535431
1667266548941777700,1.894777587890625,0.12346750497817993,0.7010235786437988,-0.48035502433776855
1667266548944175400,1.89717529296875,0.1283542811870575,0.7089645862579346,-0.46752721071243286
1667266548946573300,1.8995732421875,0.13079766929149628,0.7095754742622375,-0.45897534489631653
1667266548948971000,1.901970947265625,0.13018682599067688,0.6985802054405212,-0.4479801058769226
1667266548951368700,1.90436865234375,0.12346750497817993,0.6857523918151855,-0.4351523220539093
1667266548953766700,1.9067666015625,0.11735902726650238,0.6582642793655396,-0.422324538230896
1667266548956164400,1.909164306640625,0.10880716890096664,0.627721905708313,-0.4082750380039215
1667266548958562300,1.911562255859375,0.09720107167959213,0.5880168676376343,-0.394225537776947
1667266548960960000,1.9139599609375,0.08559497445821762,0.5440358519554138,-0.37712183594703674
1667266548963357700,1.916357666015625,0.07154548168182373,0.498222291469574,-0.36123979091644287
1667266548965755600,1.918755615234375,0.052609220147132874,0.45118704438209534,-0.3459686040878296
1667266548968153300,1.9211533203125,0.03489464893937111,0.4053735136985779,-0.32581067085266113
1667266548970551300,1.92355126953125,0.019623467698693275,0.3607816696166992,-0.30931776762008667
1667266548972949000,1.925948974609375,-0.004199574701488018,0.31680065393447876,-0.294657438993454
1667266548975346700,1.9283466796875,-0.022524992004036903,0.27709558606147766,-0.2769428789615631
1667266548977744600,1.93074462890625,-0.04695888236165047,0.24105559289455414,-0.26106083393096924
1667266548980142300,1.933142333984375,-0.0695602297782898,0.2056264579296112,-0.24884390830993652
1667266548982540300,1.935540283203125,-0.09277242422103882,0.17630578577518463,-0.23540526628494263
1667266548984938000,1.93793798828125,-0.11659546941518784,0.1543152928352356,-0.22135578095912933
1667266548987335700,1.940335693359375,-0.14102935791015625,0.13110309839248657,-0.21097137033939362
1667266548989733600,1.942733642578125,-0.16424155235290527,0.11583191156387329,-0.1999761164188385
1667266548992131300,1.94513134765625,-0.19050799310207367,0.09994988143444061,-0.19081340730190277
1667266548994529300,1.947529296875,-0.20883341133594513,0.08223531395196915,-0.18226155638694763
1667266548996927000,1.949927001953125,-0.23143476247787476,0.06940752267837524,-0.17737478017807007
1667266548999325000,1.952324951171875,-0.2515927255153656,0.05719057470560074,-0.17187714576721191
1667266549001722600,1.95472265625,-0.27113983035087585,0.04497363045811653,-0.16576866805553436
1667266549004120300,1.957120361328125,-0.28580015897750854,0.03703261539340019,-0.16332527995109558
1667266549006518300,1.959518310546875,-0.29923880100250244,0.03092414326965809,-0.16271443665027618
1667266549008916000,1.961916015625,-0.3115321099758148,0.02542651630938053,-0.1602710485458374
1667266549011314000,1.96431396484375,-0.32130566239356995,0.016874656081199646,-0.1590493619441986
1667266549013711600,1.966711669921875,-0.3268032968044281,0.013209572061896324,-0.159660205245018
1667266549016109600,1.969109619140625,-0.3304683566093445,0.004657710436731577,-0.159660205245018
1667266549018507300,1.97150732421875,-0.33291175961494446,-0.0008399150101467967,-0.1602710485458374
1667266549020905000,1.973905029296875,-0.3286358118057251,-0.006337540224194527,-0.159660205245018
1667266549023303000,1.976302978515625,-0.3243598937988281,-0.010002624243497849,-0.15782766044139862
1667266549025700600,1.97870068359375,-0.3164188861846924,-0.0130568603053689,-0.1590493619441986
1667266549028098600,1.9810986328125,-0.3054236173629761,-0.017332790419459343,-0.15599511563777924
1667266549030496300,1.983496337890625,-0.29557371139526367,-0.014278554357588291,-0.15599511563777924
1667266549032894000,1.98589404296875,-0.278469979763031,-0.0130568603053689,-0.15233004093170166
1667266549035292000,1.9882919921875,-0.25892287492752075,-0.010613471269607544,-0.15049749612808228
1667266549037689600,1.990689697265625,-0.24243000149726868,-0.0038941511884331703,-0.1486649513244629
1667266549040087600,1.993087646484375,-0.21677441895008087,0.007101099472492933,-0.1486649513244629
1667266549042485200,1.9954853515625,-0.19539476931095123,0.01748550310730934,-0.1468324065208435
1667266549044883200,1.99788330078125,-0.1721825748682022,0.032756682485342026,-0.14316733181476593
1667266549047281000,2.000281005859375,-0.1465269923210144,0.04375193640589714,-0.14072394371032715
1667266549049678600,2.0026787109375,-0.1220930963754654,0.06085565686225891,-0.13828055560588837
1667266549052076500,2.00507666015625,-0.09399411827325821,0.07918107509613037,-0.1340046226978302
1667266549054474200,2.00747412109375,-0.06711684167385101,0.09933903813362122,-0.1346154659986496
1667266549056872200,2.0098720703125,-0.03840702027082443,0.11827529966831207,-0.1340046226978302
1667266549059270000,2.012269775390625,-0.006032116711139679,0.13660071790218353,-0.1346154659986496
1667266549061667600,2.01466748046875,0.01901262067258358,0.153704434633255,-0.1340046226978302
1667266549064065500,2.0170654296875,0.049554985016584396,0.16958646476268768,-0.1340046226978302
1667266549066463200,2.019463134765625,0.07948649674654007,0.18607935309410095,-0.1327829211950302
1667266549068861200,2.021861083984375,0.10269869863986969,0.2044047713279724,-0.135226309299469
1667266549071259000,2.0242587890625,0.13079766929149628,0.22700610756874084,-0.135226309299469
1667266549073656600,2.026656494140625,0.1552315652370453,0.25266170501708984,-0.1358371526002884
1667266549076054500,2.029054443359375,0.17722205817699432,0.27892813086509705,-0.14011308550834656
1667266549078452200,2.0314521484375,0.19921256601810455,0.3076379597187042,-0.14194563031196594
1667266549080850200,2.03385009765625,0.2187596708536148,0.33085015416145325,-0.14377817511558533
1667266549083247900,2.036247802734375,0.23769593238830566,0.3522298038005829,-0.1474432498216629
1667266549085645600,2.0386455078125,0.25357797741889954,0.3656684458255768,-0.1486649513244629
1667266549088043500,2.04104345703125,0.2682383060455322,0.3742203116416931,-0.15294088423252106
1667266549090441200,2.043441162109375,0.28106608986854553,0.37055522203445435,-0.15477342903614044
1667266549092839200,2.045839111328125,0.29389387369155884,0.3613924980163574,-0.15538427233695984
1667266549095236900,2.04823681640625,0.30488914251327515,0.34673216938972473,-0.15843850374221802
1667266549097634800,2.050634765625,0.3128301501274109,0.3271850645542145,-0.1590493619441986
1667266549100032500,2.053032470703125,0.3201603293418884,0.30641624331474304,-0.1602710485458374
1667266549102430200,2.05543017578125,0.325047105550766,0.28137150406837463,-0.159660205245018
1667266549104828200,2.057828125,0.3335989713668823,0.2612135708332062,-0.1602710485458374
1667266549107225900,2.060225830078125,0.3397074341773987,0.24044474959373474,-0.1456107199192047
1667266549109623800,2.062623779296875,0.3476484417915344,0.23677967488765717,-0.09674293547868729
1667266549112021500,2.065021484375,0.3519243896007538,0.23006035387516022,-0.025273805484175682
1667266549114419500,2.06741943359375,0.35620030760765076,0.21234577894210815,0.041919391602277756
1667266549116817200,2.069817138671875,0.3671955466270447,0.17508409917354584,0.10361496359109879
