time,seconds_elapsed,z,y,x
1667824472971553500,0.008553466796875,-0.94580078125,-0.3184661865234375,0.0709075927734375
1667824472981561300,0.018561279296875,-0.9398956298828125,-0.330169677734375,0.0703277587890625
1667824472991569400,0.0285693359375,-0.93463134765625,-0.342010498046875,0.0771942138671875
1667824473001576400,0.038576416015625,-0.930572509765625,-0.3551177978515625,0.0824737548828125
1667824473011584500,0.04858447265625,-0.929595947265625,-0.362823486328125,0.088592529296875
1667824473021591600,0.058591552734375,-0.9295806884765625,-0.3634490966796875,0.0881500244140625
1667824473031599600,0.068599609375,-0.9240875244140625,-0.36053466796875,0.0759124755859375
1667824473041607700,0.078607666015625,-0.913970947265625,-0.3510589599609375,0.06646728515625
1667824473051614500,0.088614501953125,-0.90948486328125,-0.340911865234375,0.0624542236328125
1667824473061622500,0.09862255859375,-0.909027099609375,-0.336395263671875,0.0567626953125
1667824473071629600,0.108629638671875,-0.90869140625,-0.3361968994140625,0.0521697998046875
1667824473081637600,0.1186376953125,-0.9204864501953125,-0.339752197265625,0.054931640625
1667824473091645400,0.1286455078125,-0.9342193603515625,-0.345367431640625,0.0519561767578125
1667824473101652700,0.13865283203125,-0.9442291259765625,-0.3434295654296875,0.020416259765625
1667824473111660500,0.14866064453125,-0.9372100830078125,-0.3440399169921875,0.042694091796875
1667824473121667600,0.15866748046875,-0.92498779296875,-0.34649658203125,0.0614166259765625
1667824473131675400,0.16867529296875,-0.9396820068359375,-0.337432861328125,0.025543212890625
1667824473141683500,0.178683349609375,-0.95062255859375,-0.32757568359375,0.0087432861328125
1667824473151690500,0.1886904296875,-0.9344940185546875,-0.32354736328125,0.0052337646484375
1667824473161698600,0.198698486328125,-0.9087982177734375,-0.3139801025390625,-0.0118865966796875
1667824473171706400,0.208706298828125,-0.886138916015625,-0.3021697998046875,-0.0290985107421875
1667824473181713700,0.218713623046875,-0.860565185546875,-0.3066864013671875,-0.0335693359375
1667824473191721500,0.228721435546875,-0.8474578857421875,-0.3096466064453125,-0.0341339111328125
1667824473201728500,0.238728515625,-0.889862060546875,-0.2201690673828125,-0.033905029296875
1667824473211736300,0.248736328125,-0.8729248046875,-0.2085113525390625,0.00384521484375
1667824473221744600,0.25874462890625,-0.8408355712890625,-0.2524566650390625,0.02667236328125
1667824473231751400,0.26875146484375,-0.8365936279296875,-0.3147735595703125,0.0194549560546875
1667824473241759500,0.278759521484375,-0.8284454345703125,-0.3758697509765625,0.006988525390625
1667824473251766500,0.2887666015625,-0.8302764892578125,-0.4035186767578125,-0.0231475830078125
1667824473261774600,0.298774658203125,-0.8338470458984375,-0.38787841796875,-0.0384368896484375
1667824473271782400,0.308782470703125,-0.787841796875,-0.33648681640625,-0.016632080078125
1667824473281789400,0.31878955078125,-0.7212371826171875,-0.308624267578125,-0.0107421875
1667824473291797500,0.328797607421875,-0.6572723388671875,-0.3167724609375,-0.033966064453125
1667824473301804500,0.338804443359375,-0.605010986328125,-0.3144683837890625,-0.072906494140625
1667824473311812400,0.348812255859375,-0.5760955810546875,-0.2306365966796875,-0.0754241943359375
1667824473321820400,0.3588203125,-0.8035125732421875,-0.16705322265625,-0.107818603515625
1667824473331827500,0.368827392578125,-0.9622955322265625,-0.20458984375,-0.07171630859375
1667824473341835500,0.37883544921875,-0.9643096923828125,-0.2627716064453125,0.0537567138671875
1667824473351842300,0.38884228515625,-0.9340972900390625,-0.3003082275390625,0.0778045654296875
1667824473361850600,0.3988505859375,-0.931671142578125,-0.3069305419921875,0.035919189453125
1667824473371858700,0.408858642578125,-0.928497314453125,-0.292388916015625,-0.0662689208984375
1667824473381865500,0.418865478515625,-0.89068603515625,-0.234771728515625,-0.2322235107421875
1667824473391873500,0.42887353515625,-0.925689697265625,-0.1735687255859375,-0.271820068359375
1667824473401880600,0.438880615234375,-1.017578125,-0.1915130615234375,-0.058135986328125
1667824473411888600,0.448888671875,-1.0128936767578125,-0.2324676513671875,0.05535888671875
1667824473421896400,0.458896484375,-1.0018768310546875,-0.2722320556640625,0.1389617919921875
1667824473431903500,0.468903564453125,-0.9921722412109375,-0.31719970703125,0.156005859375
1667824473441911600,0.47891162109375,-0.9548492431640625,-0.350006103515625,0.1977386474609375
1667824473451918600,0.488918701171875,-0.893463134765625,-0.412139892578125,0.404510498046875
1667824473461926400,0.498926513671875,-0.9011383056640625,-0.5042877197265625,0.6040191650390625
1667824473471934500,0.5089345703125,-0.9270172119140625,-0.6131744384765625,0.641845703125
1667824473481941500,0.51894140625,-0.935028076171875,-0.6920318603515625,0.55657958984375
1667824473491949600,0.528949462890625,-0.970672607421875,-0.6553955078125,0.422943115234375
1667824473501956400,0.538956298828125,-1.0260009765625,-0.512603759765625,0.30364990234375
1667824473511964700,0.548964599609375,-1.01446533203125,-0.358184814453125,0.19189453125
1667824473521972500,0.558972412109375,-0.94683837890625,-0.251495361328125,0.1177825927734375
1667824473531979500,0.5689794921875,-0.84979248046875,-0.168243408203125,0.0991058349609375
1667824473541987300,0.5789873046875,-0.7470703125,-0.09344482421875,0.0895538330078125
1667824473551994600,0.58899462890625,-0.728057861328125,-0.042449951171875,0.0903778076171875
1667824473562002400,0.59900244140625,-0.701873779296875,-0.037078857421875,0.1186981201171875
1667824473572010500,0.609010498046875,-0.6602630615234375,-0.0592041015625,0.1409759521484375
1667824473582017500,0.619017578125,-0.63787841796875,-0.0815582275390625,0.1381988525390625
1667824473592025600,0.629025634765625,-0.6559295654296875,-0.093109130859375,0.1185455322265625
1667824473602032400,0.639032470703125,-0.6639251708984375,-0.0819549560546875,0.053863525390625
1667824473612040400,0.64904052734375,-0.64837646484375,-0.041534423828125,-0.034942626953125
1667824473622048500,0.659048583984375,-0.6183929443359375,0.0234222412109375,-0.1292572021484375
1667824473632055600,0.6690556640625,-0.5894775390625,0.1076812744140625,-0.223480224609375
1667824473642063600,0.679063720703125,-0.5731353759765625,0.1974334716796875,-0.293212890625
1667824473652070400,0.6890703125,-0.564239501953125,0.2574005126953125,-0.2958831787109375
1667824473662078700,0.69907861328125,-0.5710601806640625,0.252044677734375,-0.2553253173828125
1667824473672086500,0.70908642578125,-0.6027374267578125,0.165069580078125,-0.2515411376953125
1667824473682093600,0.719093505859375,-0.6476898193359375,0.0630035400390625,-0.3218994140625
1667824473692101400,0.729101318359375,-0.6956634521484375,0.0527801513671875,-0.4027862548828125
1667824473702109700,0.739109619140625,-0.703155517578125,0.1417999267578125,-0.4680633544921875
1667824473712116500,0.749116455078125,-0.6945953369140625,0.2676544189453125,-0.5482330322265625
1667824473722124500,0.75912451171875,-0.68304443359375,0.3726043701171875,-0.6159210205078125
1667824473732131600,0.769131591796875,-0.649261474609375,0.4151458740234375,-0.6514739990234375
1667824473742139600,0.7791396484375,-0.639801025390625,0.40875244140625,-0.659759521484375
1667824473752147500,0.7891474609375,-0.659393310546875,0.401702880859375,-0.654815673828125
1667824473762154500,0.799154541015625,-0.66339111328125,0.4362640380859375,-0.67059326171875
1667824473772162600,0.80916259765625,-0.652923583984375,0.5080413818359375,-0.6941680908203125
1667824473782169600,0.819169677734375,-0.6525726318359375,0.575225830078125,-0.7133331298828125
1667824473792177400,0.829177490234375,-0.6617279052734375,0.6178436279296875,-0.7271270751953125
1667824473802184700,0.839184814453125,-0.6735992431640625,0.62921142578125,-0.7187347412109375
1667824473812192800,0.84919287109375,-0.6848907470703125,0.60986328125,-0.7020111083984375
1667824473822200800,0.859200927734375,-0.687164306640625,0.573944091796875,-0.6667938232421875
1667824473832207600,0.86920751953125,-0.666015625,0.5431976318359375,-0.6239166259765625
1667824473842215700,0.879215576171875,-0.63287353515625,0.5292816162109375,-0.58062744140625
1667824473852223700,0.8892236328125,-0.5992431640625,0.524810791015625,-0.5387420654296875
1667824473862230800,0.899230712890625,-0.5654449462890625,0.5281524658203125,-0.5264892578125
1667824473872238600,0.909238525390625,-0.531707763671875,0.5511016845703125,-0.5478668212890625
1667824473882246000,0.919245849609375,-0.507049560546875,0.5874786376953125,-0.5762176513671875
1667824473892253700,0.929253662109375,-0.5024261474609375,0.6059722900390625,-0.5825958251953125
1667824473902260700,0.9392607421875,-0.509429931640625,0.5926513671875,-0.558380126953125
1667824473912268500,0.9492685546875,-0.5147705078125,0.5618438720703125,-0.520172119140625
1667824473922276600,0.959276611328125,-0.508819580078125,0.53472900390625,-0.498382568359375
1667824473932283600,0.96928369140625,-0.5020294189453125,0.530914306640625,-0.507080078125
1667824473942291700,0.979291748046875,-0.4972991943359375,0.5501708984375,-0.5278472900390625
1667824473952299800,0.9892998046875,-0.4985198974609375,0.5746307373046875,-0.5323333740234375
1667824473962306800,0.999306884765625,-0.50628662109375,0.5889129638671875,-0.5257720947265625
1667824473972315000,1.00931494140625,-0.515045166015625,0.60113525390625,-0.5333251953125
1667824473982321700,1.01932177734375,-0.51995849609375,0.6239166259765625,-0.54443359375
1667824473992329700,1.029329833984375,-0.5174560546875,0.649627685546875,-0.54132080078125
1667824474002337800,1.039337890625,-0.524444580078125,0.67059326171875,-0.542877197265625
1667824474012344800,1.0493447265625,-0.537353515625,0.700836181640625,-0.553924560546875
1667824474022352600,1.0593525390625,-0.550445556640625,0.7395782470703125,-0.5596771240234375
1667824474032360000,1.06935986328125,-0.559234619140625,0.7644195556640625,-0.5531463623046875
1667824474042367700,1.07936767578125,-0.56317138671875,0.7695770263671875,-0.540771484375
1667824474052375800,1.089375732421875,-0.5613861083984375,0.7557220458984375,-0.513702392578125
1667824474062382600,1.099382568359375,-0.5549468994140625,0.7301177978515625,-0.4815673828125
1667824474072391000,1.109390869140625,-0.5370941162109375,0.7059326171875,-0.4570159912109375
1667824474082397700,1.119397705078125,-0.509613037109375,0.6882171630859375,-0.4342803955078125
1667824474092405800,1.12940576171875,-0.4819793701171875,0.695587158203125,-0.433563232421875
1667824474102413600,1.13941357421875,-0.4677886962890625,0.7425079345703125,-0.4547576904296875
1667824474112420900,1.1494208984375,-0.4667205810546875,0.7893829345703125,-0.4758453369140625
1667824474122428700,1.1594287109375,-0.4694671630859375,0.79571533203125,-0.4843292236328125
1667824474132435700,1.169435791015625,-0.4679107666015625,0.7634124755859375,-0.4755401611328125
1667824474142443800,1.17944384765625,-0.4591827392578125,0.7233734130859375,-0.460174560546875
1667824474152451800,1.189451904296875,-0.434600830078125,0.6973876953125,-0.45703125
1667824474162458600,1.199458740234375,-0.4020843505859375,0.69073486328125,-0.475494384765625
1667824474172466700,1.209466796875,-0.3755950927734375,0.7101593017578125,-0.51983642578125
1667824474182473700,1.2194736328125,-0.3686676025390625,0.74615478515625,-0.5694122314453125
1667824474192481800,1.229481689453125,-0.376556396484375,0.7713470458984375,-0.61566162109375
1667824474202489600,1.239489501953125,-0.382171630859375,0.7832183837890625,-0.6501617431640625
1667824474212496600,1.24949658203125,-0.3929290771484375,0.7808074951171875,-0.6694183349609375
1667824474222504700,1.259504638671875,-0.3934173583984375,0.765655517578125,-0.681427001953125
1667824474232511700,1.26951171875,-0.372283935546875,0.7381744384765625,-0.693634033203125
1667824474242519600,1.27951953125,-0.34881591796875,0.71844482421875,-0.718994140625
1667824474252527600,1.289527587890625,-0.324798583984375,0.7342529296875,-0.766693115234375
1667824474262534700,1.29953466796875,-0.2939453125,0.778533935546875,-0.8300628662109375
1667824474272542700,1.309542724609375,-0.2642974853515625,0.8185272216796875,-0.898406982421875
1667824474282550800,1.31955078125,-0.24542236328125,0.8372802734375,-0.9370574951171875
1667824474292557800,1.329557861328125,-0.223114013671875,0.841461181640625,-0.9653778076171875
1667824474302566000,1.33956591796875,-0.183624267578125,0.8438262939453125,-0.999603271484375
1667824474312572700,1.34957275390625,-0.1404876708984375,0.868438720703125,-1.02801513671875
1667824474322580700,1.359580810546875,-0.1029815673828125,0.90325927734375,-1.0643310546875
1667824474332587800,1.369587890625,-0.06353759765625,0.9361572265625,-1.111572265625
1667824474342595800,1.379595947265625,-0.04595947265625,0.9554443359375,-1.1493988037109375
1667824474352603600,1.389603759765625,-0.053741455078125,0.940032958984375,-1.1605682373046875
1667824474362611000,1.39961083984375,-0.0819091796875,0.887115478515625,-1.146240234375
1667824474372618800,1.40961865234375,-0.1150970458984375,0.8058013916015625,-1.1099395751953125
1667824474382625800,1.419625732421875,-0.1445465087890625,0.713958740234375,-1.065338134765625
1667824474392633600,1.429633544921875,-0.1531219482421875,0.6397247314453125,-1.035888671875
1667824474402641700,1.4396416015625,-0.1496429443359375,0.5959930419921875,-1.0018310546875
1667824474412648700,1.449648681640625,-0.142242431640625,0.568511962890625,-0.9522705078125
1667824474422656800,1.45965673828125,-0.134674072265625,0.5385894775390625,-0.9106292724609375
1667824474432664600,1.46966455078125,-0.119537353515625,0.499664306640625,-0.89111328125
1667824474442671900,1.479671875,-0.0971832275390625,0.4611358642578125,-0.877105712890625
1667824474452679700,1.4896796875,-0.069610595703125,0.4334716796875,-0.8643798828125
1667824474462686700,1.499686767578125,-0.029571533203125,0.4145660400390625,-0.861541748046875
1667824474472694500,1.509694580078125,0.019317626953125,0.40283203125,-0.86248779296875
1667824474482701800,1.519701904296875,0.0639801025390625,0.4056854248046875,-0.8574066162109375
1667824474492709600,1.529709716796875,0.0982666015625,0.4133758544921875,-0.8523101806640625
1667824474502717700,1.5397177734375,0.1154022216796875,0.4233551025390625,-0.8426055908203125
1667824474512724700,1.549724853515625,0.1136932373046875,0.4237518310546875,-0.82781982421875
1667824474522732800,1.55973291015625,0.1100921630859375,0.4168243408203125,-0.8108062744140625
1667824474532740900,1.569740966796875,0.129119873046875,0.375,-0.781646728515625
1667824474542747600,1.57974755859375,0.14013671875,0.327972412109375,-0.755218505859375
1667824474552755700,1.589755615234375,0.138580322265625,0.3007659912109375,-0.7371368408203125
1667824474562762800,1.5997626953125,0.14935302734375,0.299285888671875,-0.7356719970703125
1667824474572770800,1.609770751953125,0.1555938720703125,0.3202056884765625,-0.7329864501953125
1667824474582778600,1.619778564453125,0.155853271484375,0.3495025634765625,-0.736236572265625
1667824474592786000,1.629785888671875,0.164459228515625,0.3724822998046875,-0.7358856201171875
1667824474602793700,1.639793701171875,0.172943115234375,0.3932952880859375,-0.7420196533203125
1667824474612800800,1.64980078125,0.1824493408203125,0.41644287109375,-0.7519073486328125
1667824474622808600,1.65980859375,0.1834564208984375,0.4357452392578125,-0.76141357421875
1667824474632817000,1.66981689453125,0.1908416748046875,0.445343017578125,-0.77301025390625
1667824474642823700,1.67982373046875,0.20599365234375,0.447906494140625,-0.7875518798828125
1667824474652831700,1.689831787109375,0.205474853515625,0.44696044921875,-0.79583740234375
1667824474662838800,1.6998388671875,0.2180328369140625,0.46173095703125,-0.7991485595703125
1667824474672846800,1.709846923828125,0.214935302734375,0.47515869140625,-0.80279541015625
1667824474682854700,1.719854736328125,0.1967926025390625,0.4821624755859375,-0.827239990234375
1667824474692861700,1.72986181640625,0.197479248046875,0.508148193359375,-0.84063720703125
1667824474702869800,1.739869873046875,0.1875152587890625,0.5378265380859375,-0.8440093994140625
1667824474712876800,1.749876708984375,0.1786346435546875,0.5618133544921875,-0.8551483154296875
1667824474722884600,1.759884521484375,0.1824798583984375,0.6012420654296875,-0.8692474365234375
1667824474732892700,1.769892578125,0.1770172119140625,0.6464691162109375,-0.873077392578125
1667824474742899700,1.779899658203125,0.1616668701171875,0.6758575439453125,-0.86865234375
1667824474752907800,1.78990771484375,0.136993408203125,0.67974853515625,-0.864715576171875
1667824474762914600,1.79991455078125,0.137908935546875,0.6751251220703125,-0.865020751953125
1667824474772923000,1.8099228515625,0.13165283203125,0.69970703125,-0.85321044921875
1667824474782930700,1.8199306640625,0.1184234619140625,0.72705078125,-0.8565521240234375
1667824474792937700,1.829937744140625,0.1219940185546875,0.7419586181640625,-0.8402862548828125
1667824474802945000,1.839945068359375,0.1183624267578125,0.735107421875,-0.8116607666015625
1667824474812951800,1.849951904296875,0.119476318359375,0.703765869140625,-0.795684814453125
1667824474822959900,1.8599599609375,0.126220703125,0.67388916015625,-0.792449951171875
1667824474832967700,1.8699677734375,0.1225433349609375,0.6636810302734375,-0.789459228515625
1667824474842975000,1.87997509765625,0.12835693359375,0.6778106689453125,-0.788055419921875
1667824474852982800,1.889982666015625,0.134124755859375,0.7036285400390625,-0.788665771484375
1667824474862989800,1.89998974609375,0.139007568359375,0.7323150634765625,-0.7909393310546875
1667824474872998000,1.909997802734375,0.1551513671875,0.7729034423828125,-0.7932891845703125
1667824474883006000,1.920005859375,0.182952880859375,0.828826904296875,-0.8000335693359375
1667824474893012700,1.9300126953125,0.211181640625,0.899169921875,-0.82049560546875
1667824474903020800,1.940020751953125,0.2247467041015625,0.9707794189453125,-0.8392486572265625
1667824474913028900,1.95002880859375,0.225433349609375,1.022125244140625,-0.84930419921875
1667824474923036000,1.960035888671875,0.2279510498046875,1.0472412109375,-0.8562164306640625
1667824474933044000,1.9700439453125,0.217559814453125,1.053466796875,-0.8483734130859375
1667824474943050800,1.98005078125,0.1978912353515625,1.037139892578125,-0.8186492919921875
1667824474953059000,1.99005908203125,0.1788177490234375,0.9898529052734375,-0.7707061767578125
1667824474963067000,2.00006689453125,0.1632537841796875,0.923675537109375,-0.718963623046875
1667824474973074000,2.010073974609375,0.151214599609375,0.8559112548828125,-0.6709442138671875
1667824474983081700,2.020081787109375,0.1512908935546875,0.794830322265625,-0.6277008056640625
1667824474993089000,2.030089111328125,0.1529693603515625,0.7393035888671875,-0.5914764404296875
1667824475003096800,2.040096923828125,0.1638336181640625,0.6943511962890625,-0.5656280517578125
1667824475013105000,2.05010498046875,0.182159423828125,0.6708221435546875,-0.5345001220703125
1667824475023112000,2.06011181640625,0.188201904296875,0.653228759765625,-0.5175628662109375
1667824475033120000,2.0701201171875,0.201171875,0.630615234375,-0.503631591796875
1667824475043126800,2.080126708984375,0.20849609375,0.60626220703125,-0.481597900390625
1667824475053134800,2.090134765625,0.2204742431640625,0.5845489501953125,-0.46929931640625
1667824475063142700,2.100142578125,0.228607177734375,0.5756988525390625,-0.462005615234375
1667824475073150000,2.11014990234375,0.2322540283203125,0.576416015625,-0.4557342529296875
1667824475083157800,2.12015771484375,0.2356719970703125,0.5741424560546875,-0.44830322265625
1667824475093164800,2.130164794921875,0.241912841796875,0.5622100830078125,-0.4439239501953125
1667824475103172900,2.1401728515625,0.25146484375,0.5543060302734375,-0.4536285400390625
1667824475113181000,2.150180908203125,0.26422119140625,0.5503692626953125,-0.463043212890625
1667824475123187700,2.160187744140625,0.2714080810546875,0.549285888671875,-0.475128173828125
1667824475133195800,2.17019580078125,0.2771759033203125,0.5612945556640625,-0.4913787841796875
1667824475143202800,2.180202880859375,0.2805938720703125,0.5802764892578125,-0.5002899169921875
1667824475153211000,2.1902109375,0.27508544921875,0.5941009521484375,-0.505523681640625
1667824475163218700,2.20021875,0.2693634033203125,0.5970916748046875,-0.51055908203125
1667824475173226000,2.21022607421875,0.26617431640625,0.5947723388671875,-0.5224609375
1667824475183233800,2.22023388671875,0.26641845703125,0.5979156494140625,-0.535430908203125
1667824475193240800,2.23024072265625,0.268402099609375,0.614105224609375,-0.5590972900390625
1667824475203248600,2.24024853515625,0.2703704833984375,0.646026611328125,-0.5811767578125
1667824475213257000,2.250257080078125,0.2740478515625,0.6838836669921875,-0.622894287109375
1667824475223263700,2.260263671875,0.2730560302734375,0.718231201171875,-0.6604461669921875
1667824475233271800,2.270271728515625,0.265106201171875,0.733306884765625,-0.699493408203125
1667824475243278800,2.28027880859375,0.26019287109375,0.725341796875,-0.7444305419921875
1667824475253287000,2.290286865234375,0.2525482177734375,0.715911865234375,-0.7826690673828125
1667824475263295000,2.300294921875,0.23974609375,0.717803955078125,-0.8374176025390625
1667824475273301800,2.3103017578125,0.2240447998046875,0.731109619140625,-0.9276885986328125
1667824475283309800,2.320309814453125,0.206512451171875,0.744476318359375,-1.0028839111328125
1667824475293318000,2.33031787109375,0.1761016845703125,0.7430877685546875,-1.0292816162109375
1667824475303325000,2.340324951171875,0.1628265380859375,0.748809814453125,-1.027191162109375
1667824475313332700,2.350332763671875,0.161712646484375,0.7529296875,-1.0418701171875
1667824475323340000,2.360340087890625,0.1513824462890625,0.743072509765625,-1.05322265625
1667824475333347800,2.370347900390625,0.130096435546875,0.7214202880859375,-1.033172607421875
1667824475343356000,2.38035595703125,0.0952606201171875,0.6725616455078125,-1.0011138916015625
1667824475353362700,2.39036279296875,0.1031494140625,0.6372528076171875,-0.9959259033203125
1667824475363371000,2.40037109375,0.0789947509765625,0.6436004638671875,-0.9595947265625
1667824475373377800,2.410377685546875,0.0028076171875,0.6739959716796875,-0.9052886962890625
1667824475383385900,2.4203857421875,-0.068084716796875,0.719696044921875,-0.85223388671875
1667824475393393700,2.4303935546875,-0.1168060302734375,0.736480712890625,-0.81488037109375
1667824475403401000,2.44040087890625,-0.1504669189453125,0.7143402099609375,-0.7855377197265625
1667824475413408800,2.45040869140625,-0.1674957275390625,0.6856689453125,-0.767608642578125
1667824475423415800,2.460415771484375,-0.159820556640625,0.6717987060546875,-0.7751922607421875
1667824475433424000,2.470423828125,-0.14556884765625,0.6796112060546875,-0.7809600830078125
1667824475443432000,2.480431884765625,-0.1249542236328125,0.6887359619140625,-0.7846832275390625
1667824475453438700,2.490438720703125,-0.111053466796875,0.6911468505859375,-0.786376953125
1667824475463446800,2.50044677734375,-0.095367431640625,0.69036865234375,-0.81475830078125
1667824475473454800,2.510454833984375,-0.0560760498046875,0.7039337158203125,-0.8301544189453125
1667824475483462000,2.5204619140625,-0.014984130859375,0.7328643798828125,-0.86041259765625
1667824475493470000,2.530469970703125,0.0306243896484375,0.7749786376953125,-0.9048309326171875
1667824475503476700,2.540476806640625,0.07391357421875,0.8145751953125,-0.9519805908203125
1667824475513485000,2.550485107421875,0.1056365966796875,0.8371429443359375,-0.994903564453125
1667824475523491800,2.560491943359375,0.1261138916015625,0.843170166015625,-1.0386810302734375
1667824475533500000,2.5705,0.1447906494140625,0.8405914306640625,-1.06353759765625
1667824475543507700,2.5805078125,0.1535797119140625,0.8213958740234375,-1.0749969482421875
1667824475553515000,2.590514892578125,0.1549835205078125,0.7817230224609375,-1.068511962890625
1667824475563522800,2.600522705078125,0.15618896484375,0.72393798828125,-1.0669403076171875
1667824475573531000,2.61053076171875,0.170074462890625,0.6602783203125,-1.067596435546875
1667824475583538000,2.620537841796875,0.1945648193359375,0.60308837890625,-1.06549072265625
1667824475593546000,2.6305458984375,0.2242889404296875,0.5584564208984375,-1.0520172119140625
1667824475603552800,2.640552734375,0.2425537109375,0.52349853515625,-1.0138397216796875
1667824475613560800,2.650560791015625,0.246612548828125,0.4939727783203125,-0.9574127197265625
1667824475623569000,2.66056884765625,0.2509918212890625,0.4708099365234375,-0.8879852294921875
1667824475633576000,2.670575927734375,0.2452850341796875,0.4503173828125,-0.8291473388671875
1667824475643583700,2.680583740234375,0.2316741943359375,0.4329376220703125,-0.7855377197265625
1667824475653591000,2.690591064453125,0.242706298828125,0.440032958984375,-0.7280120849609375
1667824475663598800,2.700598876953125,0.249420166015625,0.450408935546875,-0.6936492919921875
1667824475673607000,2.71060693359375,0.23876953125,0.43402099609375,-0.6888580322265625
1667824475683613700,2.72061376953125,0.228759765625,0.415863037109375,-0.6732330322265625
1667824475693621800,2.730621826171875,0.213897705078125,0.4069976806640625,-0.660919189453125
1667824475703628800,2.74062890625,0.1976776123046875,0.408233642578125,-0.6396026611328125
1667824475713636900,2.750636962890625,0.18634033203125,0.4023284912109375,-0.608551025390625
1667824475723644700,2.760644775390625,0.1735076904296875,0.3881683349609375,-0.577392578125
1667824475733652000,2.77065185546875,0.1714935302734375,0.373779296875,-0.5567626953125
1667824475743659800,2.78065966796875,0.177978515625,0.3668212890625,-0.541748046875
1667824475753666800,2.790666748046875,0.180877685546875,0.369110107421875,-0.5325164794921875
1667824475763674600,2.800674560546875,0.1883544921875,0.3858184814453125,-0.5162200927734375
1667824475773683000,2.810682861328125,0.182098388671875,0.4052886962890625,-0.5137481689453125
1667824475783689700,2.820689697265625,0.1846160888671875,0.423370361328125,-0.519622802734375
1667824475793697800,2.83069775390625,0.191162109375,0.44915771484375,-0.518157958984375
1667824475803705600,2.84070556640625,0.190765380859375,0.4710235595703125,-0.523956298828125
1667824475813713700,2.850713623046875,0.19989013671875,0.4878387451171875,-0.540374755859375
1667824475823721700,2.8607216796875,0.2145233154296875,0.516998291015625,-0.5742340087890625
1667824475833728800,2.870728759765625,0.2295684814453125,0.5674285888671875,-0.6047821044921875
1667824475843736600,2.880736572265625,0.23529052734375,0.6082763671875,-0.6334381103515625
1667824475853744600,2.89074462890625,0.2371368408203125,0.635955810546875,-0.660552978515625
1667824475863751700,2.900751708984375,0.2454833984375,0.65814208984375,-0.6853790283203125
1667824475873759700,2.910759765625,0.253173828125,0.6787109375,-0.720245361328125
1667824475883766500,2.9207666015625,0.2648773193359375,0.7061767578125,-0.7601318359375
1667824475893774800,2.93077490234375,0.2641448974609375,0.725799560546875,-0.778717041015625
1667824475903782700,2.94078271484375,0.25823974609375,0.70245361328125,-0.7992095947265625
1667824475913789700,2.950789794921875,0.2709503173828125,0.6600494384765625,-0.8261260986328125
1667824475923797500,2.960797607421875,0.2811431884765625,0.635162353515625,-0.84942626953125
1667824475933804800,2.9708046875,0.2882080078125,0.628265380859375,-0.875518798828125
1667824475943812600,2.9808125,0.297760009765625,0.63067626953125,-0.8917694091796875
1667824475953820700,2.990820556640625,0.3040618896484375,0.64349365234375,-0.904266357421875
1667824475963827700,3.00082763671875,0.3055419921875,0.667022705078125,-0.9123992919921875
1667824475973835800,3.010835693359375,0.3156280517578125,0.700958251953125,-0.918731689453125
1667824475983842600,3.020842529296875,0.3197479248046875,0.72393798828125,-0.9176177978515625
1667824475993850600,3.0308505859375,0.310394287109375,0.723724365234375,-0.906463623046875
1667824476003858700,3.040858642578125,0.3040008544921875,0.7068634033203125,-0.8795318603515625
1667824476013865700,3.05086572265625,0.2852325439453125,0.6767578125,-0.838958740234375
1667824476023873800,3.060873779296875,0.2614898681640625,0.6367950439453125,-0.7995758056640625
1667824476033880800,3.070880859375,0.24609375,0.604400634765625,-0.7653656005859375
1667824476043889000,3.080888916015625,0.2262725830078125,0.5802001953125,-0.7295684814453125
1667824476053896700,3.090896728515625,0.209564208984375,0.5667572021484375,-0.7095489501953125
1667824476063903700,3.10090380859375,0.215087890625,0.5819854736328125,-0.6950836181640625
1667824476073911600,3.11091162109375,0.2057647705078125,0.6178436279296875,-0.6817626953125
1667824476083920000,3.120919921875,0.2068328857421875,0.652587890625,-0.6839752197265625
1667824476093926700,3.1309267578125,0.2163848876953125,0.6968841552734375,-0.691009521484375
1667824476103934700,3.140934814453125,0.22784423828125,0.7519989013671875,-0.7159271240234375
1667824476113941800,3.150941650390625,0.243011474609375,0.8106536865234375,-0.740570068359375
1667824476123949800,3.16094970703125,0.2568206787109375,0.8752593994140625,-0.76177978515625
1667824476133957600,3.17095751953125,0.25958251953125,0.941162109375,-0.7826690673828125
1667824476143964700,3.180964599609375,0.2482757568359375,0.994354248046875,-0.78594970703125
1667824476153972700,3.19097265625,0.2456817626953125,1.017974853515625,-0.7770538330078125
1667824476163979800,3.200979736328125,0.2313232421875,1.0117340087890625,-0.7704620361328125
1667824476173987600,3.210987548828125,0.215911865234375,0.985443115234375,-0.762847900390625
1667824476183995600,3.22099560546875,0.1988067626953125,0.9502716064453125,-0.7501983642578125
1667824476194002700,3.231002685546875,0.179351806640625,0.9034423828125,-0.729400634765625
1667824476204010800,3.2410107421875,0.160369873046875,0.824981689453125,-0.7057647705078125
1667824476214017500,3.251017578125,0.1659698486328125,0.73272705078125,-0.67449951171875
1667824476224025600,3.261025634765625,0.1529083251953125,0.6611328125,-0.6245880126953125
1667824476234034000,3.271033935546875,0.1338653564453125,0.5890350341796875,-0.5972442626953125
1667824476244040700,3.281040771484375,0.1345062255859375,0.5249786376953125,-0.5544281005859375
1667824476254048800,3.291048828125,0.118011474609375,0.47747802734375,-0.524627685546875
1667824476264056600,3.301056640625,0.1146392822265625,0.454986572265625,-0.5195159912109375
1667824476274064000,3.31106396484375,0.131561279296875,0.459320068359375,-0.5198974609375
1667824476284071700,3.32107177734375,0.13812255859375,0.48583984375,-0.5251617431640625
1667824476294078700,3.33107861328125,0.1498260498046875,0.51544189453125,-0.5359344482421875
1667824476304086800,3.341086669921875,0.1707305908203125,0.544036865234375,-0.5452728271484375
1667824476314094800,3.3510947265625,0.186492919921875,0.573150634765625,-0.55242919921875
1667824476324101600,3.3611015625,0.202423095703125,0.605072021484375,-0.566864013671875
1667824476334109700,3.371109619140625,0.2247314453125,0.644927978515625,-0.591827392578125
1667824476344116700,3.38111669921875,0.24664306640625,0.683349609375,-0.6134490966796875
1667824476354124800,3.391124755859375,0.261688232421875,0.6963043212890625,-0.640380859375
1667824476364132600,3.401132568359375,0.2738189697265625,0.6847686767578125,-0.6668853759765625
1667824476374140000,3.411139892578125,0.284088134765625,0.6734619140625,-0.6831512451171875
1667824476384147700,3.421147705078125,0.2940521240234375,0.6638336181640625,-0.700469970703125
1667824476394154800,3.43115478515625,0.298828125,0.6547088623046875,-0.717315673828125
1667824476404162600,3.44116259765625,0.2953948974609375,0.6405487060546875,-0.724151611328125
1667824476414170600,3.451170654296875,0.286834716796875,0.6226806640625,-0.730804443359375
1667824476424177700,3.461177734375,0.2755584716796875,0.611541748046875,-0.7403411865234375
1667824476434185700,3.471185791015625,0.2668914794921875,0.6120452880859375,-0.7454833984375
1667824476444193800,3.48119384765625,0.2539520263671875,0.614410400390625,-0.7541961669921875
1667824476454200800,3.491200927734375,0.23974609375,0.6098785400390625,-0.7745361328125
1667824476464209000,3.501208984375,0.23876953125,0.6086578369140625,-0.77984619140625
1667824476474215700,3.511215576171875,0.2225494384765625,0.6090087890625,-0.793365478515625
1667824476484223700,3.5212236328125,0.2135009765625,0.6128387451171875,-0.8020782470703125
1667824476494231800,3.531231689453125,0.20166015625,0.6216583251953125,-0.797821044921875
1667824476504238600,3.541238525390625,0.187469482421875,0.63232421875,-0.798828125
1667824476514246700,3.55124658203125,0.1747283935546875,0.6572265625,-0.7977142333984375
1667824476524253700,3.561253662109375,0.1695404052734375,0.6901397705078125,-0.79205322265625
1667824476534261800,3.57126171875,0.1646728515625,0.7315216064453125,-0.79083251953125
1667824476544269800,3.581269775390625,0.1613616943359375,0.7684783935546875,-0.794281005859375
1667824476554276600,3.591276611328125,0.1557159423828125,0.7914276123046875,-0.7864990234375
1667824476564285000,3.601284912109375,0.143218994140625,0.790130615234375,-0.7793426513671875
1667824476574291700,3.611291748046875,0.132720947265625,0.7822723388671875,-0.7685394287109375
1667824476584299800,3.6212998046875,0.120849609375,0.7790069580078125,-0.756500244140625
1667824476594307600,3.6313076171875,0.1100006103515625,0.7779541015625,-0.7524261474609375
1667824476604315000,3.64131494140625,0.1052398681640625,0.772705078125,-0.7503662109375
1667824476614322700,3.65132275390625,0.1059112548828125,0.7610626220703125,-0.7483367919921875
1667824476624329700,3.661329833984375,0.1054840087890625,0.7358551025390625,-0.7350311279296875
1667824476634337500,3.671337646484375,0.0957794189453125,0.6941986083984375,-0.7223358154296875
1667824476644345900,3.681345947265625,0.0867156982421875,0.6562957763671875,-0.71563720703125
1667824476654352600,3.6913525390625,0.085205078125,0.6385345458984375,-0.716033935546875
1667824476664360700,3.701360595703125,0.0833587646484375,0.6275482177734375,-0.705078125
1667824476674367700,3.71136767578125,0.0884552001953125,0.603302001953125,-0.7150421142578125
1667824476684375800,3.721375732421875,0.0998382568359375,0.58203125,-0.724456787109375
1667824476694383600,3.731383544921875,0.0977325439453125,0.57354736328125,-0.7377777099609375
1667824476704390700,3.741390625,0.112548828125,0.58624267578125,-0.765289306640625
1667824476714398700,3.751398681640625,0.136505126953125,0.635162353515625,-0.8123626708984375
1667824476724406800,3.76140673828125,0.164581298828125,0.7306976318359375,-0.89019775390625
1667824476734413600,3.77141357421875,0.2126312255859375,0.8440704345703125,-0.981719970703125
1667824476744421600,3.781421630859375,0.2488250732421875,0.9290771484375,-1.062469482421875
1667824476754428700,3.7914287109375,0.2706451416015625,0.96649169921875,-1.1214752197265625
1667824476764436700,3.801436767578125,0.279693603515625,0.9652252197265625,-1.1638946533203125
1667824476774444800,3.81144482421875,0.278900146484375,0.921234130859375,-1.1634063720703125
1667824476784451800,3.821451904296875,0.2667999267578125,0.8157806396484375,-1.1238250732421875
1667824476794460000,3.8314599609375,0.2544708251953125,0.675079345703125,-1.0719757080078125
1667824476804470500,3.841470458984375,0.2428741455078125,0.54248046875,-1.023223876953125
1667824476814478300,3.851478271484375,0.251708984375,0.4395751953125,-0.9800872802734375
1667824476824486400,3.861486328125,0.270904541015625,0.3717803955078125,-0.944061279296875
1667824476834493400,3.871493408203125,0.2906036376953125,0.3371734619140625,-0.9169769287109375
1667824476844501500,3.88150146484375,0.3083648681640625,0.3250885009765625,-0.887359619140625
1667824476854508300,3.89150830078125,0.320556640625,0.327484130859375,-0.842376708984375
1667824476864516600,3.9015166015625,0.3145751953125,0.333892822265625,-0.7976226806640625
1667824476874524700,3.911524658203125,0.3012237548828125,0.3416748046875,-0.7595367431640625
1667824476884531500,3.921531494140625,0.28948974609375,0.3567657470703125,-0.7260589599609375
1667824476894539300,3.931539306640625,0.2746429443359375,0.381927490234375,-0.6948394775390625
1667824476904547300,3.94154736328125,0.259796142578125,0.41558837890625,-0.6820831298828125
1667824476914554400,3.951554443359375,0.252044677734375,0.4588470458984375,-0.6734161376953125
1667824476924562400,3.9615625,0.239959716796875,0.493255615234375,-0.6540374755859375
1667824476934569500,3.971569580078125,0.2178192138671875,0.504547119140625,-0.6399383544921875
1667824476944577500,3.98157763671875,0.205322265625,0.5049591064453125,-0.6386871337890625
1667824476954585600,3.991585693359375,0.203765869140625,0.52520751953125,-0.633514404296875
1667824476964592400,4.00159228515625,0.204833984375,0.556488037109375,-0.646026611328125
1667824476974600400,4.011600341796875,0.212066650390625,0.58734130859375,-0.6550750732421875
1667824476984608500,4.0216083984375,0.211090087890625,0.6108245849609375,-0.64892578125
1667824476994615600,4.031615478515625,0.2023162841796875,0.61700439453125,-0.6414031982421875
1667824477004623400,4.041623291015625,0.199462890625,0.60333251953125,-0.627532958984375
1667824477014630700,4.051630615234375,0.1974029541015625,0.590362548828125,-0.62384033203125
1667824477024638500,4.061638427734375,0.2002716064453125,0.5998077392578125,-0.634429931640625
1667824477034646500,4.071646484375,0.21319580078125,0.62359619140625,-0.6502227783203125
1667824477044653300,4.0816533203125,0.22796630859375,0.641357421875,-0.6705322265625
1667824477054661600,4.09166162109375,0.243072509765625,0.648345947265625,-0.6923980712890625
1667824477064668400,4.10166845703125,0.2487640380859375,0.6491851806640625,-0.7067718505859375
1667824477074676500,4.111676513671875,0.25067138671875,0.6341400146484375,-0.7133941650390625
1667824477084684300,4.121684326171875,0.2493743896484375,0.612396240234375,-0.7153778076171875
1667824477094691600,4.131691650390625,0.2464447021484375,0.606842041015625,-0.726593017578125
1667824477104699400,4.141699462890625,0.2391204833984375,0.6280059814453125,-0.7420654296875
1667824477114706400,4.15170654296875,0.23785400390625,0.6619415283203125,-0.758026123046875
1667824477124714500,4.161714599609375,0.2356719970703125,0.692657470703125,-0.7799224853515625
1667824477134722600,4.17172265625,0.2372283935546875,0.7144622802734375,-0.79608154296875
1667824477144729300,4.181729248046875,0.234344482421875,0.7329254150390625,-0.800323486328125
1667824477154737400,4.1917373046875,0.233734130859375,0.741363525390625,-0.80377197265625
1667824477164745500,4.201745361328125,0.229034423828125,0.74554443359375,-0.8032379150390625
1667824477174752500,4.21175244140625,0.2223663330078125,0.7444305419921875,-0.80181884765625
1667824477184760600,4.221760498046875,0.2176971435546875,0.74530029296875,-0.79669189453125
1667824477194767400,4.231767333984375,0.213226318359375,0.73919677734375,-0.7877197265625
1667824477204775700,4.241775634765625,0.208526611328125,0.7217559814453125,-0.7734375
1667824477214783500,4.251783447265625,0.2071685791015625,0.6993560791015625,-0.7554779052734375
1667824477224790500,4.26179052734375,0.2064208984375,0.6811370849609375,-0.7386322021484375
1667824477234798300,4.27179833984375,0.2024993896484375,0.6614837646484375,-0.7165374755859375
1667824477244805600,4.2818056640625,0.195587158203125,0.6385650634765625,-0.690673828125
1667824477254813400,4.2918134765625,0.1876983642578125,0.6149749755859375,-0.6714019775390625
1667824477264821500,4.301821533203125,0.1729278564453125,0.60009765625,-0.6682891845703125
1667824477274828500,4.31182861328125,0.1608734130859375,0.63128662109375,-0.684234619140625
1667824477284836600,4.321836669921875,0.168121337890625,0.727630615234375,-0.7167205810546875
1667824477294843400,4.331843505859375,0.1857452392578125,0.86016845703125,-0.7601776123046875
1667824477304851500,4.3418515625,0.1971435546875,0.98260498046875,-0.8017120361328125
1667824477314859300,4.351859375,0.204864501953125,1.0812530517578125,-0.8257598876953125
1667824477324866600,4.361866455078125,0.1938934326171875,1.135589599609375,-0.83355712890625
1667824477334874400,4.371874267578125,0.1809844970703125,1.1411285400390625,-0.836395263671875
1667824477344881400,4.38188134765625,0.171173095703125,1.129852294921875,-0.8307952880859375
1667824477354889500,4.391889404296875,0.1559295654296875,1.1112823486328125,-0.8104400634765625
1667824477364897500,4.4018974609375,0.1441497802734375,1.064666748046875,-0.7808074951171875
1667824477374904300,4.411904296875,0.1381378173828125,0.9996795654296875,-0.7470245361328125
1667824477384912400,4.421912353515625,0.12689208984375,0.927398681640625,-0.7046661376953125
1667824477394920700,4.431920654296875,0.1163330078125,0.849853515625,-0.65924072265625
1667824477404927500,4.441927490234375,0.1126251220703125,0.767852783203125,-0.616424560546875
1667824477414935600,4.451935546875,0.1106109619140625,0.689208984375,-0.5750274658203125
1667824477424942600,4.461942626953125,0.1135101318359375,0.6104888916015625,-0.5402374267578125
1667824477434950700,4.47195068359375,0.1179962158203125,0.5411529541015625,-0.516387939453125
1667824477444958500,4.48195849609375,0.1218109130859375,0.4920196533203125,-0.492645263671875
1667824477454965500,4.491965576171875,0.1296234130859375,0.4588165283203125,-0.4764404296875
1667824477464973600,4.5019736328125,0.141021728515625,0.44512939453125,-0.4649810791015625
1667824477474980600,4.511980712890625,0.1528167724609375,0.4450225830078125,-0.4610137939453125
1667824477484988400,4.521988525390625,0.161346435546875,0.4547271728515625,-0.457183837890625
1667824477494996500,4.53199658203125,0.168365478515625,0.4663543701171875,-0.461639404296875
1667824477505003500,4.54200341796875,0.17266845703125,0.470672607421875,-0.4733123779296875
1667824477515011600,4.552011474609375,0.176025390625,0.4782257080078125,-0.4955902099609375
1667824477525019400,4.562019287109375,0.175628662109375,0.49737548828125,-0.5289306640625
1667824477535026400,4.5720263671875,0.1682891845703125,0.524139404296875,-0.56597900390625
1667824477545034500,4.582034423828125,0.1560516357421875,0.5461883544921875,-0.5931854248046875
1667824477555041500,4.59204150390625,0.14312744140625,0.55950927734375,-0.609893798828125
1667824477565049300,4.60204931640625,0.136383056640625,0.5705413818359375,-0.626434326171875
1667824477575057400,4.612057373046875,0.1307525634765625,0.5872802734375,-0.647796630859375
1667824477585064400,4.622064453125,0.1265716552734375,0.60516357421875,-0.6738128662109375
1667824477595072500,4.632072509765625,0.1168365478515625,0.6143951416015625,-0.705718994140625
1667824477605079300,4.642079345703125,0.1089019775390625,0.6252288818359375,-0.733856201171875
1667824477615087600,4.652087646484375,0.106781005859375,0.65911865234375,-0.7507171630859375
1667824477625095400,4.662095458984375,0.0923004150390625,0.6885528564453125,-0.783477783203125
1667824477635102500,4.6721025390625,0.07879638671875,0.703704833984375,-0.801971435546875
1667824477645110300,4.6821103515625,0.0700225830078125,0.705963134765625,-0.8191375732421875
1667824477655117600,4.69211767578125,0.0566253662109375,0.7064361572265625,-0.82537841796875
1667824477665125400,4.70212548828125,0.0421295166015625,0.7065887451171875,-0.8287506103515625
1667824477675133400,4.712133544921875,0.0320281982421875,0.7075653076171875,-0.8291015625
1667824477685140500,4.722140380859375,0.01458740234375,0.7078704833984375,-0.83343505859375
1667824477695148500,4.7321484375,0.000457763671875,0.7129058837890625,-0.8311920166015625
1667824477705155300,4.7421552734375,-0.0104827880859375,0.729339599609375,-0.8278350830078125
1667824477715163400,4.752163330078125,-0.028228759765625,0.75018310546875,-0.834014892578125
1667824477725171500,4.76217138671875,-0.0274200439453125,0.770172119140625,-0.8328094482421875
1667824477735178500,4.772178466796875,-0.03314208984375,0.782470703125,-0.8355560302734375
1667824477745186600,4.7821865234375,-0.0376739501953125,0.7849578857421875,-0.83306884765625
1667824477755193300,4.792193359375,-0.0404815673828125,0.783843994140625,-0.8370513916015625
1667824477765201700,4.80220166015625,-0.0426025390625,0.79052734375,-0.8328704833984375
1667824477775209500,4.81220947265625,-0.0499267578125,0.793212890625,-0.8321075439453125
1667824477785216500,4.822216552734375,-0.0480194091796875,0.794586181640625,-0.83843994140625
1667824477795224300,4.832224365234375,-0.0449371337890625,0.7961578369140625,-0.8467559814453125
1667824477805228500,4.842228515625,-0.0523529052734375,0.7824249267578125,-0.843170166015625
1667824477815235300,4.8522353515625,-0.06475830078125,0.752349853515625,-0.826080322265625
1667824477825243400,4.862243408203125,-0.0653839111328125,0.7175750732421875,-0.8162078857421875
1667824477835250400,4.87225048828125,-0.0606689453125,0.6944732666015625,-0.8218841552734375
1667824477845258500,4.882258544921875,-0.065338134765625,0.679779052734375,-0.814453125
1667824477855266600,4.8922666015625,-0.069793701171875,0.66070556640625,-0.813690185546875
1667824477865273600,4.902273681640625,-0.0664215087890625,0.6496734619140625,-0.82574462890625
1667824477875281700,4.91228173828125,-0.0599822998046875,0.6613311767578125,-0.842864990234375
1667824477885288400,4.922288330078125,-0.0491180419921875,0.6968231201171875,-0.871826171875
1667824477895296500,4.932296630859375,-0.0327911376953125,0.7526092529296875,-0.920501708984375
1667824477905304300,4.94230419921875,-0.0123748779296875,0.81585693359375,-0.97955322265625
1667824477915311600,4.9523115234375,0.0060272216796875,0.85919189453125,-1.0352783203125
1667824477925319400,4.9623193359375,0.021514892578125,0.874176025390625,-1.0816497802734375
1667824477935327500,4.972327392578125,0.0390625,0.8630218505859375,-1.10498046875
1667824477945334500,4.98233447265625,0.053558349609375,0.830413818359375,-1.1059417724609375
1667824477955342600,4.992342529296875,0.0702667236328125,0.7754058837890625,-1.089508056640625
1667824477965349400,5.002349365234375,0.0950469970703125,0.702117919921875,-1.0592803955078125
1667824477975357400,5.012357421875,0.11138916015625,0.628021240234375,-1.019195556640625
1667824477985365500,5.022365478515625,0.1259613037109375,0.5672454833984375,-0.975616455078125
1667824477995372500,5.03237255859375,0.1444091796875,0.5263519287109375,-0.9376068115234375
1667824478005380400,5.04238037109375,0.1541290283203125,0.5035400390625,-0.9117279052734375
1667824478015387600,5.0523876953125,0.1549072265625,0.49188232421875,-0.887298583984375
1667824478025395500,5.0623955078125,0.163909912109375,0.4883575439453125,-0.859161376953125
1667824478035403500,5.072403564453125,0.1674957275390625,0.4901580810546875,-0.8218231201171875
1667824478045410300,5.082410400390625,0.1582489013671875,0.4900054931640625,-0.78106689453125
1667824478055418400,5.09241845703125,0.1514739990234375,0.4901123046875,-0.7378997802734375
1667824478065425400,5.10242529296875,0.1516265869140625,0.4964447021484375,-0.7068328857421875
1667824478075433500,5.11243359375,0.1399993896484375,0.5013275146484375,-0.6778411865234375
1667824478085441500,5.122441650390625,0.120635986328125,0.49871826171875,-0.664337158203125
1667824478095448600,5.132448486328125,0.1106414794921875,0.4975433349609375,-0.659515380859375
1667824478105456600,5.14245654296875,0.1015472412109375,0.5001983642578125,-0.650665283203125
1667824478115463400,5.15246337890625,0.0889434814453125,0.5054168701171875,-0.64739990234375
1667824478125471500,5.162471435546875,0.0811004638671875,0.516571044921875,-0.6462860107421875
1667824478135479600,5.1724794921875,0.0775146484375,0.53466796875,-0.6493072509765625
1667824478145486600,5.182486572265625,0.0782928466796875,0.5521392822265625,-0.6417694091796875
1667824478155494400,5.192494384765625,0.07293701171875,0.5552978515625,-0.6319732666015625
1667824478165502500,5.20250244140625,0.0615386962890625,0.54010009765625,-0.6232147216796875
1667824478175509500,5.212509521484375,0.0574188232421875,0.523590087890625,-0.6173553466796875
1667824478185517600,5.222517578125,0.0538330078125,0.516326904296875,-0.6102447509765625
1667824478195524400,5.2325244140625,0.0501556396484375,0.5190582275390625,-0.6063385009765625
1667824478205532700,5.24253271484375,0.0524749755859375,0.5294952392578125,-0.610626220703125
1667824478215540500,5.25254052734375,0.0559539794921875,0.53778076171875,-0.6165313720703125
1667824478225547500,5.262547607421875,0.0634765625,0.5356292724609375,-0.626220703125
1667824478235555300,5.272555419921875,0.067169189453125,0.5350494384765625,-0.6371917724609375
1667824478245562600,5.282562744140625,0.07745361328125,0.54351806640625,-0.654510498046875
1667824478255570400,5.2925703125,0.09283447265625,0.557373046875,-0.6761322021484375
1667824478265578500,5.30257861328125,0.0926666259765625,0.569366455078125,-0.7004852294921875
1667824478275585500,5.31258544921875,0.09954833984375,0.5813751220703125,-0.7151947021484375
1667824478285593600,5.322593505859375,0.097381591796875,0.586151123046875,-0.73272705078125
1667824478295600400,5.332600341796875,0.0980987548828125,0.587371826171875,-0.7422637939453125
1667824478305608400,5.3426083984375,0.1016998291015625,0.59552001953125,-0.7585296630859375
1667824478315616300,5.3526162109375,0.10015869140625,0.618682861328125,-0.7825469970703125
1667824478325623600,5.36262353515625,0.1043701171875,0.649444580078125,-0.8069915771484375
1667824478335631400,5.37263134765625,0.11114501953125,0.6837921142578125,-0.8390960693359375
1667824478345638400,5.382638427734375,0.1170654296875,0.728607177734375,-0.86798095703125
1667824478355646500,5.392646484375,0.11865234375,0.7729034423828125,-0.8901519775390625
1667824478365654500,5.402654541015625,0.114166259765625,0.8009185791015625,-0.9115753173828125
1667824478375661300,5.412661376953125,0.120849609375,0.813629150390625,-0.92620849609375
1667824478385669400,5.42266943359375,0.121185302734375,0.81292724609375,-0.9371337890625
1667824478395677400,5.432677490234375,0.118804931640625,0.7978668212890625,-0.9267425537109375
1667824478405684500,5.4426845703125,0.1168212890625,0.760986328125,-0.901031494140625
1667824478415692500,5.452692626953125,0.1055755615234375,0.7181396484375,-0.870849609375
1667824478425699600,5.462699462890625,0.0993499755859375,0.6872100830078125,-0.8451995849609375
1667824478435707600,5.472707763671875,0.0987396240234375,0.6698455810546875,-0.825225830078125
1667824478445715500,5.482715576171875,0.097747802734375,0.6613616943359375,-0.80511474609375
1667824478455722500,5.492722412109375,0.101409912109375,0.6543731689453125,-0.7920684814453125
1667824478465730300,5.502730224609375,0.102752685546875,0.6590423583984375,-0.7873382568359375
1667824478475737600,5.512737548828125,0.1038665771484375,0.6898956298828125,-0.792236328125
1667824478485745400,5.522745361328125,0.108917236328125,0.7489013671875,-0.812255859375
1667824478495753500,5.53275341796875,0.115570068359375,0.8242340087890625,-0.8450469970703125
1667824478505760500,5.542760498046875,0.123779296875,0.900390625,-0.8809356689453125
1667824478515768600,5.5527685546875,0.1265411376953125,0.9673004150390625,-0.9063873291015625
1667824478525775400,5.562775390625,0.1212310791015625,1.0126800537109375,-0.9227752685546875
1667824478535783400,5.572783447265625,0.1170196533203125,1.021392822265625,-0.924530029296875
1667824478545791500,5.58279150390625,0.1027069091796875,0.9979095458984375,-0.9123687744140625
1667824478555798500,5.592798583984375,0.0872344970703125,0.96661376953125,-0.8967132568359375
1667824478565806300,5.602806396484375,0.0757904052734375,0.9354400634765625,-0.8740081787109375
1667824478575814400,5.612814453125,0.0577239990234375,0.893829345703125,-0.844146728515625
1667824478585821400,5.622821533203125,0.0465240478515625,0.8416900634765625,-0.8087310791015625
1667824478595829500,5.63282958984375,0.0458984375,0.78021240234375,-0.761199951171875
1667824478605836300,5.642836181640625,0.0374603271484375,0.7034759521484375,-0.7165374755859375
1667824478615844600,5.6528447265625,0.0306549072265625,0.6204071044921875,-0.675750732421875
1667824478625852700,5.662852783203125,0.027099609375,0.5417938232421875,-0.640167236328125
1667824478635859500,5.672859375,0.0196380615234375,0.4768829345703125,-0.6166229248046875
1667824478645867500,5.682867431640625,0.0156402587890625,0.429290771484375,-0.60382080078125
1667824478655874600,5.69287451171875,0.014404296875,0.3986663818359375,-0.606201171875
1667824478665882600,5.702882568359375,0.0075836181640625,0.3858795166015625,-0.6261444091796875
1667824478675890400,5.712890380859375,0.0002899169921875,0.3878631591796875,-0.6394500732421875
1667824478685897500,5.7228974609375,-0.005767822265625,0.38897705078125,-0.6470489501953125
1667824478695905500,5.732905517578125,-0.0124053955078125,0.383514404296875,-0.656768798828125
1667824478705912600,5.74291259765625,-0.0221099853515625,0.3742828369140625,-0.66790771484375
1667824478715920400,5.75292041015625,-0.03497314453125,0.363037109375,-0.6747894287109375
1667824478725928400,5.762928466796875,-0.0442962646484375,0.3542022705078125,-0.6743011474609375
1667824478735935500,5.772935546875,-0.055694580078125,0.3536834716796875,-0.6696319580078125
1667824478745943600,5.782943603515625,-0.0702056884765625,0.361968994140625,-0.661773681640625
1667824478755950300,5.792950439453125,-0.083740234375,0.3722076416015625,-0.658111572265625
1667824478765958700,5.802958740234375,-0.1021728515625,0.388824462890625,-0.653350830078125
1667824478775966500,5.812966552734375,-0.1198272705078125,0.4107513427734375,-0.64794921875
1667824478785973500,5.822973388671875,-0.13140869140625,0.428192138671875,-0.6515350341796875
1667824478795981300,5.832981201171875,-0.154266357421875,0.4379730224609375,-0.6595458984375
1667824478805993200,5.8429931640625,-0.1754913330078125,0.4404449462890625,-0.6609649658203125
1667824478816000300,5.853000244140625,-0.18463134765625,0.45037841796875,-0.669036865234375
1667824478826008300,5.86300830078125,-0.1906890869140625,0.4737091064453125,-0.686431884765625
1667824478836015000,5.87301513671875,-0.20220947265625,0.506011962890625,-0.7006683349609375
1667824478846023400,5.8830234375,-0.2098388671875,0.5387725830078125,-0.712127685546875
1667824478856031200,5.89303125,-0.2163238525390625,0.5723724365234375,-0.7238616943359375
1667824478866038300,5.903038330078125,-0.229644775390625,0.6014556884765625,-0.7363128662109375
1667824478876046000,5.913046142578125,-0.23809814453125,0.6129302978515625,-0.7492828369140625
1667824478886053400,5.923053466796875,-0.243621826171875,0.6298980712890625,-0.76617431640625
1667824478896061200,5.933061279296875,-0.2500762939453125,0.6822509765625,-0.791778564453125
1667824478906069200,5.9430693359375,-0.246185302734375,0.740966796875,-0.81787109375
1667824478916076300,5.953076171875,-0.2392425537109375,0.779388427734375,-0.841217041015625
1667824478926084400,5.96308447265625,-0.2573394775390625,0.8063201904296875,-0.8572235107421875
1667824478936091100,5.973091064453125,-0.2517547607421875,0.83221435546875,-0.8695220947265625
1667824478946099200,5.98309912109375,-0.24609375,0.859222412109375,-0.8912811279296875
1667824478956107300,5.993107177734375,-0.26068115234375,0.8874359130859375,-0.912750244140625
1667824478966114300,6.0031142578125,-0.2617034912109375,0.909149169921875,-0.9136505126953125
1667824478976122000,6.0131220703125,-0.2628631591796875,0.90423583984375,-0.9050140380859375
1667824478986129400,6.02312939453125,-0.268951416015625,0.874176025390625,-0.8917236328125
1667824478996137200,6.03313720703125,-0.2686767578125,0.8321685791015625,-0.8735198974609375
1667824479006145300,6.043145263671875,-0.2622833251953125,0.7957000732421875,-0.8517608642578125
1667824479016152000,6.053152099609375,-0.263519287109375,0.76300048828125,-0.833740234375
1667824479026160000,6.06316015625,-0.25738525390625,0.7240142822265625,-0.8104095458984375
1667824479036168400,6.07316845703125,-0.257293701171875,0.6907501220703125,-0.798004150390625
1667824479046175200,6.08317529296875,-0.255157470703125,0.6629180908203125,-0.7928466796875
1667824479056183300,6.093183349609375,-0.25128173828125,0.627716064453125,-0.7962188720703125
1667824479066190300,6.1031904296875,-0.2423095703125,0.5848388671875,-0.8062591552734375
1667824479076198400,6.113198486328125,-0.2265472412109375,0.559967041015625,-0.8309173583984375
1667824479086206200,6.123206298828125,-0.210784912109375,0.57513427734375,-0.87347412109375
1667824479096213200,6.133213134765625,-0.1949005126953125,0.623260498046875,-0.9272918701171875
1667824479106221300,6.14322119140625,-0.1832427978515625,0.6693572998046875,-0.9867095947265625
1667824479116228400,6.153228271484375,-0.1737518310546875,0.6906280517578125,-1.043914794921875
1667824479126236200,6.163236083984375,-0.163726806640625,0.69451904296875,-1.082122802734375
1667824479136244200,6.173244140625,-0.149627685546875,0.687835693359375,-1.1175537109375
1667824479146251300,6.183251220703125,-0.137451171875,0.6708831787109375,-1.1409454345703125
1667824479156259300,6.19325927734375,-0.1167449951171875,0.62872314453125,-1.1324615478515625
1667824479166266000,6.20326611328125,-0.1105194091796875,0.5617523193359375,-1.1113739013671875
1667824479176274200,6.213274169921875,-0.08453369140625,0.4913177490234375,-1.0791168212890625
1667824479186282200,6.2232822265625,-0.07843017578125,0.4331207275390625,-1.0487518310546875
1667824479196289300,6.233289306640625,-0.069549560546875,0.3958892822265625,-1.01446533203125
1667824479206297000,6.243297119140625,-0.06573486328125,0.3739166259765625,-0.9787139892578125
1667824479216305200,6.25330517578125,-0.0575103759765625,0.3625030517578125,-0.9476165771484375
1667824479226312200,6.263312255859375,-0.0531463623046875,0.3618316650390625,-0.913848876953125
1667824479236320300,6.2733203125,-0.045135498046875,0.3651123046875,-0.8801727294921875
1667824479246327000,6.2833271484375,-0.0323486328125,0.369384765625,-0.8497467041015625
1667824479256335400,6.29333544921875,-0.0242767333984375,0.3729705810546875,-0.8213348388671875
1667824479266343200,6.30334326171875,-0.024017333984375,0.377349853515625,-0.7926483154296875
1667824479276350200,6.31335009765625,-0.0269012451171875,0.3842620849609375,-0.7675323486328125
1667824479286358000,6.32335791015625,-0.032470703125,0.3994903564453125,-0.747711181640625
1667824479296365300,6.333365234375,-0.0353240966796875,0.4222564697265625,-0.7333984375
1667824479306373000,6.343373046875,-0.0378570556640625,0.447509765625,-0.7249298095703125
1667824479316381200,6.353381103515625,-0.03826904296875,0.4751129150390625,-0.724639892578125
1667824479326388200,6.36338818359375,-0.0386199951171875,0.4983673095703125,-0.726226806640625
1667824479336396300,6.373396240234375,-0.0411224365234375,0.5091400146484375,-0.730377197265625
1667824479346403000,6.383403076171875,-0.0447998046875,0.5223541259765625,-0.7278289794921875
1667824479356411100,6.3934111328125,-0.0489044189453125,0.5414886474609375,-0.725189208984375
1667824479366419200,6.403419189453125,-0.05633544921875,0.558441162109375,-0.72137451171875
1667824479376426200,6.41342626953125,-0.059417724609375,0.568603515625,-0.718109130859375
1667824479386434300,6.423434326171875,-0.04913330078125,0.577392578125,-0.7160491943359375
1667824479396442000,6.433442138671875,-0.035308837890625,0.5695343017578125,-0.73681640625
1667824479406449400,6.443449462890625,-0.03192138671875,0.5454864501953125,-0.748016357421875
1667824479416457200,6.453457275390625,-0.0210113525390625,0.5299530029296875,-0.762664794921875
1667824479426464300,6.46346435546875,-0.00701904296875,0.5375518798828125,-0.79119873046875
1667824479436472000,6.47347216796875,-0.0107269287109375,0.559173583984375,-0.808868408203125
1667824479446480400,6.48348046875,-0.0081939697265625,0.5683746337890625,-0.82733154296875
1667824479456487200,6.493487060546875,0.011871337890625,0.56060791015625,-0.838134765625
1667824479466495200,6.5034951171875,0.02716064453125,0.5488433837890625,-0.8323974609375
1667824479476502300,6.513502197265625,0.03466796875,0.54443359375,-0.81915283203125
1667824479486510300,6.52351025390625,0.039093017578125,0.5403289794921875,-0.8038330078125
1667824479496518100,6.53351806640625,0.0329742431640625,0.5308380126953125,-0.7958221435546875
1667824479506525200,6.543525146484375,0.0345458984375,0.5294036865234375,-0.7941741943359375
1667824479516533200,6.553533203125,0.0377197265625,0.538116455078125,-0.7877197265625
1667824479526541300,6.563541259765625,0.0333404541015625,0.55291748046875,-0.7884063720703125
1667824479536548000,6.573548095703125,0.0325469970703125,0.5804901123046875,-0.7943267822265625
1667824479546556200,6.58355615234375,0.0397186279296875,0.615478515625,-0.804901123046875
1667824479556563200,6.593563232421875,0.0478515625,0.6526031494140625,-0.81439208984375
1667824479566571300,6.6035712890625,0.05438232421875,0.680633544921875,-0.825286865234375
1667824479576579300,6.613579345703125,0.051849365234375,0.69873046875,-0.8366241455078125
1667824479586586000,6.623586181640625,0.053863525390625,0.70849609375,-0.8404998779296875
1667824479596594400,6.633594482421875,0.0575408935546875,0.7127685546875,-0.8459930419921875
1667824479606601200,6.643601318359375,0.051849365234375,0.71417236328125,-0.8480072021484375
1667824479616609300,6.653609375,0.046844482421875,0.712158203125,-0.84063720703125
1667824479626617000,6.6636171875,0.0422821044921875,0.6977996826171875,-0.8178253173828125
1667824479636624400,6.673624267578125,0.032745361328125,0.6729736328125,-0.7954864501953125
1667824479646632200,6.683632080078125,0.02972412109375,0.6460418701171875,-0.777984619140625
1667824479656640300,6.69364013671875,0.029571533203125,0.628082275390625,-0.76629638671875
1667824479666647300,6.703647216796875,0.0294952392578125,0.6263275146484375,-0.7620697021484375
1667824479676655400,6.7136552734375,0.02972412109375,0.637603759765625,-0.7614593505859375
1667824479686662100,6.723662109375,0.0332489013671875,0.6522216796875,-0.7699127197265625
1667824479696670200,6.733670166015625,0.0382537841796875,0.673065185546875,-0.788726806640625
1667824479706678300,6.74367822265625,0.045166015625,0.7069854736328125,-0.811798095703125
1667824479716685300,6.753685302734375,0.051544189453125,0.7523040771484375,-0.8353271484375
1667824479726693000,6.763693115234375,0.051422119140625,0.79534912109375,-0.8712158203125
1667824479736700400,6.773700439453125,0.0606231689453125,0.8417510986328125,-0.91375732421875
1667824479746708200,6.783708251953125,0.06939697265625,0.8931427001953125,-0.94403076171875
1667824479756716300,6.79371630859375,0.067901611328125,0.9354400634765625,-0.9622650146484375
1667824479766723000,6.80372314453125,0.0691375732421875,0.9572296142578125,-0.9705810546875
1667824479776731100,6.813731201171875,0.0665130615234375,0.9495849609375,-0.9555206298828125
1667824479786739200,6.8237392578125,0.0579071044921875,0.9131927490234375,-0.923187255859375
1667824479796746200,6.833746337890625,0.0509490966796875,0.8686676025390625,-0.8925933837890625
1667824479806750200,6.843750244140625,0.0513763427734375,0.8237457275390625,-0.864593505859375
1667824479816757200,6.85375732421875,0.0548553466796875,0.778717041015625,-0.836273193359375
1667824479826765300,6.863765380859375,0.06201171875,0.72735595703125,-0.810211181640625
1667824479836773000,6.873773193359375,0.0693206787109375,0.66778564453125,-0.781982421875
1667824479846780400,6.883780517578125,0.0812530517578125,0.60235595703125,-0.7415924072265625
1667824479856788200,6.893788330078125,0.0813751220703125,0.5408782958984375,-0.7094879150390625
1667824479866795300,6.903795166015625,0.07550048828125,0.4886932373046875,-0.6768951416015625
1667824479876803000,6.913802978515625,0.0767822265625,0.44073486328125,-0.6468658447265625
1667824479886811100,6.92381103515625,0.07281494140625,0.39794921875,-0.625335693359375
1667824479896818200,6.933818115234375,0.07147216796875,0.3694000244140625,-0.6132659912109375
1667824479906826200,6.943826171875,0.072906494140625,0.3541412353515625,-0.6056671142578125
1667824479916834000,6.953833984375,0.071075439453125,0.3490753173828125,-0.6037139892578125
1667824479926841300,6.96384130859375,0.0648345947265625,0.3466339111328125,-0.6084136962890625
1667824479936849200,6.97384912109375,0.0553131103515625,0.3472900390625,-0.617462158203125
1667824479946856200,6.983856201171875,0.04901123046875,0.3481597900390625,-0.6263275146484375
1667824479956864000,6.993864013671875,0.029510498046875,0.350555419921875,-0.6472930908203125
1667824479966872300,7.003872314453125,0.0148773193359375,0.359039306640625,-0.681915283203125
1667824479976879000,7.013879150390625,0.007659912109375,0.382476806640625,-0.7044830322265625
1667824479986887200,7.02388720703125,-0.0192718505859375,0.4149169921875,-0.716156005859375
1667824479996894200,7.033894287109375,-0.04486083984375,0.4461822509765625,-0.7311553955078125
1667824480006902300,7.04390234375,-0.05841064453125,0.4745025634765625,-0.738128662109375
1667824480016910300,7.053910400390625,-0.08111572265625,0.495819091796875,-0.746063232421875
1667824480026917000,7.063917236328125,-0.1014862060546875,0.5071868896484375,-0.751190185546875
1667824480036925400,7.073925537109375,-0.126068115234375,0.51409912109375,-0.7517242431640625
1667824480046933200,7.083933349609375,-0.157012939453125,0.5297698974609375,-0.7541351318359375
1667824480056940300,7.093940185546875,-0.1759185791015625,0.556915283203125,-0.7489471435546875
1667824480066948000,7.103947998046875,-0.190826416015625,0.58050537109375,-0.74359130859375
1667824480076955400,7.113955322265625,-0.2082977294921875,0.5879364013671875,-0.7343597412109375
1667824480086963200,7.123963134765625,-0.2271728515625,0.6022186279296875,-0.7388916015625
1667824480096971300,7.13397119140625,-0.2325286865234375,0.627044677734375,-0.746826171875
1667824480106978300,7.143978271484375,-0.23388671875,0.6562652587890625,-0.752288818359375
1667824480116986400,7.153986328125,-0.236602783203125,0.678924560546875,-0.750213623046875
1667824480126994200,7.163994140625,-0.2438812255859375,0.6973419189453125,-0.7504119873046875
1667824480137001200,7.174001220703125,-0.2379913330078125,0.7191314697265625,-0.754913330078125
1667824480147009000,7.184009033203125,-0.227752685546875,0.7437744140625,-0.7662811279296875
1667824480157016300,7.194016357421875,-0.227325439453125,0.772369384765625,-0.770965576171875
1667824480167024000,7.204024169921875,-0.2210235595703125,0.8069305419921875,-0.78277587890625
1667824480177032200,7.2140322265625,-0.205902099609375,0.837646484375,-0.8032073974609375
1667824480187039200,7.224039306640625,-0.19427490234375,0.8610992431640625,-0.819732666015625
1667824480197047300,7.23404736328125,-0.189453125,0.8763427734375,-0.8264617919921875
1667824480207054000,7.24405419921875,-0.190338134765625,0.8811492919921875,-0.8249664306640625
1667824480217062100,7.254062255859375,-0.1858673095703125,0.8802337646484375,-0.820098876953125
1667824480227070200,7.2640703125,-0.1818389892578125,0.8781280517578125,-0.8249664306640625
1667824480237077200,7.2740771484375,-0.186187744140625,0.874237060546875,-0.8323211669921875
1667824480247085300,7.284085205078125,-0.1781005859375,0.8583526611328125,-0.832275390625
1667824480257093000,7.294093017578125,-0.183380126953125,0.8250274658203125,-0.825653076171875
1667824480267100400,7.304100341796875,-0.1807708740234375,0.78497314453125,-0.81414794921875
1667824480277108200,7.314108154296875,-0.179412841796875,0.75006103515625,-0.8036041259765625
1667824480287115300,7.324115234375,-0.1778411865234375,0.7144927978515625,-0.7918548583984375
1667824480297123000,7.334123046875,-0.1813507080078125,0.6742095947265625,-0.7806396484375
1667824480307131400,7.34413134765625,-0.180908203125,0.6309967041015625,-0.774627685546875
1667824480317138200,7.35413818359375,-0.1758270263671875,0.597747802734375,-0.791900634765625
1667824480327146200,7.364146240234375,-0.157928466796875,0.599761962890625,-0.8307647705078125
1667824480337154000,7.374154052734375,-0.1330718994140625,0.63995361328125,-0.8917236328125
1667824480347161300,7.384161376953125,-0.1111297607421875,0.690673828125,-0.9684906005859375
1667824480357169200,7.394169189453125,-0.0882415771484375,0.7191314697265625,-1.0352783203125
1667824480367176200,7.40417626953125,-0.07135009765625,0.72314453125,-1.0772552490234375
1667824480377184300,7.414184326171875,-0.059722900390625,0.707733154296875,-1.1074676513671875
1667824480387192300,7.4241923828125,-0.0426177978515625,0.6842041015625,-1.12872314453125
1667824480397199000,7.43419921875,-0.0297698974609375,0.652252197265625,-1.12689208984375
1667824480407207200,7.444207275390625,-0.0175018310546875,0.5956268310546875,-1.11016845703125
1667824480417215200,7.45421533203125,-0.008819580078125,0.5256500244140625,-1.0901641845703125
1667824480427222300,7.46422216796875,0.002105712890625,0.464813232421875,-1.0827789306640625
1667824480437230000,7.47422998046875,0.017822265625,0.420196533203125,-1.0868072509765625
1667824480447237400,7.4842373046875,0.0333404541015625,0.385986328125,-1.100067138671875
1667824480457245200,7.4942451171875,0.0510406494140625,0.3592987060546875,-1.1046600341796875
1667824480467253200,7.504253173828125,0.0765380859375,0.3498687744140625,-1.0869293212890625
1667824480477260000,7.514260009765625,0.1038360595703125,0.3614959716796875,-1.0421142578125
1667824480487268000,7.52426806640625,0.1037139892578125,0.38330078125,-0.98040771484375
1667824480497275100,7.534275146484375,0.099090576171875,0.39263916015625,-0.937652587890625
1667824480507283200,7.544283203125,0.102935791015625,0.3940887451171875,-0.8967437744140625
1667824480517291300,7.554291259765625,0.103973388671875,0.3994293212890625,-0.868499755859375
1667824480527298300,7.56429833984375,0.0934600830078125,0.41510009765625,-0.84930419921875
1667824480537306400,7.574306396484375,0.08953857421875,0.4378662109375,-0.8295135498046875
1667824480547314200,7.584314208984375,0.093048095703125,0.4702911376953125,-0.812408447265625
1667824480557321200,7.5943212890625,0.093963623046875,0.5109100341796875,-0.78436279296875
1667824480567329300,7.604329345703125,0.0986480712890625,0.5188140869140625,-0.7644805908203125
1667824480577336300,7.61433642578125,0.094146728515625,0.47076416015625,-0.771026611328125
1667824480587344100,7.62434423828125,0.111724853515625,0.447540283203125,-0.746826171875
1667824480597352200,7.634352294921875,0.1129302978515625,0.4689483642578125,-0.7253570556640625
1667824480607359200,7.644359130859375,0.086395263671875,0.501953125,-0.7349853515625
1667824480617367300,7.6543671875,0.0622711181640625,0.5286407470703125,-0.719512939453125
1667824480627375000,7.664375,0.0616302490234375,0.546295166015625,-0.6997833251953125
1667824480637382100,7.674382080078125,0.08160400390625,0.5530548095703125,-0.688720703125
1667824480647390200,7.68439013671875,0.0964508056640625,0.5348968505859375,-0.69293212890625
1667824480657397200,7.694397216796875,0.0950927734375,0.50604248046875,-0.69476318359375
1667824480667405000,7.704405029296875,0.101776123046875,0.4986419677734375,-0.6875
1667824480677413000,7.7144130859375,0.110443115234375,0.5115966796875,-0.6982421875
1667824480687420200,7.724420166015625,0.0971527099609375,0.5320587158203125,-0.710418701171875
1667824480697428200,7.73442822265625,0.097747802734375,0.5507659912109375,-0.718719482421875
1667824480707436300,7.744436279296875,0.11383056640625,0.5845184326171875,-0.727142333984375
1667824480717443300,7.754443359375,0.1188812255859375,0.6101531982421875,-0.732147216796875
1667824480727451400,7.764451416015625,0.1202239990234375,0.621246337890625,-0.7430877685546875
1667824480737458200,7.774458251953125,0.1171112060546875,0.6284332275390625,-0.7510833740234375
1667824480747466200,7.78446630859375,0.1111297607421875,0.6387481689453125,-0.759765625
1667824480757474300,7.794474365234375,0.1040802001953125,0.6481781005859375,-0.77020263671875
1667824480767481300,7.8044814453125,0.1089324951171875,0.6561126708984375,-0.776947021484375
1667824480777489200,7.8144892578125,0.115325927734375,0.6641693115234375,-0.7765960693359375
1667824480787497200,7.824497314453125,0.113861083984375,0.675201416015625,-0.77423095703125
1667824480797504300,7.834504150390625,0.104827880859375,0.6812591552734375,-0.7660980224609375
1667824480807515600,7.844515625,0.0992431640625,0.6739044189453125,-0.7563323974609375
1667824480817522400,7.8545224609375,0.095184326171875,0.6627960205078125,-0.7554473876953125
1667824480827530500,7.864530517578125,0.1020050048828125,0.6695404052734375,-0.75982666015625
1667824480837538800,7.874538818359375,0.1085052490234375,0.6966705322265625,-0.7609710693359375
1667824480847545600,7.884545654296875,0.1031494140625,0.7165985107421875,-0.75970458984375
1667824480857553700,7.8945537109375,0.1100921630859375,0.723876953125,-0.7632598876953125
1667824480867561500,7.9045615234375,0.11968994140625,0.724822998046875,-0.766937255859375
1667824480877568800,7.91456884765625,0.1240234375,0.7170867919921875,-0.7554168701171875
1667824480887576600,7.92457666015625,0.1287078857421875,0.6987457275390625,-0.733856201171875
1667824480897583600,7.93458349609375,0.1322174072265625,0.67425537109375,-0.715423583984375
1667824480907591700,7.944591796875,0.1360626220703125,0.653350830078125,-0.7020416259765625
1667824480917599700,7.954599853515625,0.1394805908203125,0.6409759521484375,-0.6874237060546875
1667824480927606500,7.9646064453125,0.144500732421875,0.6378326416015625,-0.6756439208984375
1667824480937614600,7.974614501953125,0.1527252197265625,0.6436767578125,-0.6770782470703125
1667824480947622700,7.98462255859375,0.15765380859375,0.6511688232421875,-0.6836090087890625
1667824480957629700,7.994629638671875,0.1608428955078125,0.665985107421875,-0.6967620849609375
1667824480967637500,8.004637451171876,0.172882080078125,0.6989898681640625,-0.721282958984375
1667824480977644800,8.014644775390625,0.1783294677734375,0.755889892578125,-0.754425048828125
1667824480987652600,8.024652587890625,0.18798828125,0.826873779296875,-0.79241943359375
1667824480997660700,8.03466064453125,0.193389892578125,0.9022369384765625,-0.8235931396484375
1667824481007667500,8.04466748046875,0.1980743408203125,0.964996337890625,-0.847076416015625
1667824481017675500,8.054675537109375,0.2006988525390625,0.9986572265625,-0.86474609375
1667824481027682600,8.0646826171875,0.1911468505859375,1.006256103515625,-0.87249755859375
1667824481037690600,8.074690673828124,0.1892242431640625,0.9851531982421875,-0.8631744384765625
1667824481047698700,8.08469873046875,0.187286376953125,0.94769287109375,-0.8433685302734375
1667824481057705700,8.094705810546875,0.18133544921875,0.91436767578125,-0.82110595703125
1667824481067713800,8.1047138671875,0.1804046630859375,0.8883056640625,-0.807647705078125
1667824481077721600,8.1147216796875,0.1940765380859375,0.8715667724609375,-0.7993927001953125
1667824481087728600,8.124728759765626,0.2051544189453125,0.84979248046875,-0.777069091796875
1667824481097736700,8.13473681640625,0.2067413330078125,0.7997283935546875,-0.757781982421875
1667824481107743700,8.14474365234375,0.2180328369140625,0.7339935302734375,-0.7295684814453125
1667824481117751600,8.15475146484375,0.22845458984375,0.670867919921875,-0.69476318359375
1667824481127759600,8.164759521484376,0.2316131591796875,0.61285400390625,-0.6690521240234375
1667824481137766700,8.1747666015625,0.2391815185546875,0.562896728515625,-0.651123046875
1667824481147774700,8.184774658203125,0.257354736328125,0.525604248046875,-0.633087158203125
1667824481157782500,8.194782470703124,0.260345458984375,0.499298095703125,-0.62371826171875
1667824481167789800,8.204789794921876,0.2587432861328125,0.477630615234375,-0.616455078125
1667824481177797600,8.214797607421875,0.2645263671875,0.4582366943359375,-0.6175994873046875
1667824481187804700,8.2248046875,0.2625732421875,0.4453277587890625,-0.620849609375
1667824481197812500,8.2348125,0.250823974609375,0.442626953125,-0.627197265625
1667824481207820500,8.244820556640626,0.2390899658203125,0.4503021240234375,-0.63897705078125
1667824481217827600,8.25482763671875,0.2305450439453125,0.460296630859375,-0.64910888671875
1667824481227835600,8.264835693359375,0.2132720947265625,0.4618682861328125,-0.653472900390625
1667824481237843700,8.27484375,0.19024658203125,0.4564208984375,-0.6550750732421875
1667824481247850800,8.284850830078126,0.17059326171875,0.458404541015625,-0.6668548583984375
1667824481257858800,8.29485888671875,0.156707763671875,0.477081298828125,-0.685760498046875
1667824481267865600,8.304865478515625,0.1465301513671875,0.50640869140625,-0.70916748046875
1667824481277873700,8.314873779296875,0.134368896484375,0.5320281982421875,-0.7347869873046875
1667824481287881700,8.3248818359375,0.118560791015625,0.5421600341796875,-0.7629241943359375
1667824481297888800,8.334888671875,0.1077423095703125,0.545501708984375,-0.7877349853515625
1667824481307896600,8.344896484375,0.1099090576171875,0.5524139404296875,-0.801971435546875
1667824481317904600,8.354904541015625,0.071868896484375,0.558502197265625,-0.8312835693359375
1667824481327911700,8.36491162109375,0.0355072021484375,0.5623779296875,-0.8550567626953125
1667824481337919700,8.374919677734376,0.0476226806640625,0.582489013671875,-0.8721923828125
1667824481347927600,8.384927490234375,0.0429534912109375,0.6221160888671875,-0.8604583740234375
1667824481357934600,8.3949345703125,-0.0123138427734375,0.6373138427734375,-0.8812408447265625
1667824481367942700,8.404942626953124,-0.03167724609375,0.6445159912109375,-0.8848114013671875
1667824481377949700,8.41494970703125,-0.0498199462890625,0.63995361328125,-0.889862060546875
1667824481387957500,8.42495751953125,-0.0543975830078125,0.637359619140625,-0.8723907470703125
1667824481397965600,8.434965576171875,-0.08148193359375,0.634063720703125,-0.8683013916015625
1667824481407972600,8.44497265625,-0.09521484375,0.6302337646484375,-0.8688812255859375
1667824481417980700,8.454980712890626,-0.0827178955078125,0.6346893310546875,-0.8652496337890625
1667824481427987500,8.464987548828125,-0.0926055908203125,0.645538330078125,-0.8759307861328125
1667824481437995800,8.474995849609375,-0.0851898193359375,0.66693115234375,-0.877288818359375
1667824481448003600,8.485003662109374,-0.0699615478515625,0.69683837890625,-0.8698577880859375
1667824481458010600,8.4950107421875,-0.0634765625,0.724365234375,-0.8726654052734375
1667824481468018400,8.505018310546875,-0.050323486328125,0.7444305419921875,-0.869384765625
1667824481478026800,8.51502685546875,-0.0377349853515625,0.754638671875,-0.857208251953125
1667824481488033500,8.525033447265624,-0.022613525390625,0.7595062255859375,-0.841583251953125
1667824481498041600,8.53504150390625,-0.012298583984375,0.763031005859375,-0.8310699462890625
1667824481508049700,8.545049560546875,-0.0016632080078125,0.7700042724609375,-0.8198394775390625
1667824481518056700,8.555056640625,0.00262451171875,0.77197265625,-0.8132781982421875
1667824481528064800,8.565064697265624,0.016204833984375,0.7668914794921875,-0.81353759765625
1667824481538071600,8.575071533203126,0.028533935546875,0.751068115234375,-0.8106536865234375
1667824481548079600,8.58507958984375,0.0402984619140625,0.7234954833984375,-0.7957000732421875
1667824481558087700,8.595087646484375,0.049041748046875,0.6945648193359375,-0.7830963134765625
1667824481568094700,8.6050947265625,0.0527496337890625,0.6752777099609375,-0.778167724609375
1667824481578102500,8.6151025390625,0.055938720703125,0.66357421875,-0.7792816162109375
1667824481588110600,8.625110595703125,0.06805419921875,0.642333984375,-0.7809600830078125
1667824481598117600,8.63511767578125,0.0847625732421875,0.6156768798828125,-0.791748046875
1667824481608125700,8.645125732421874,0.1033172607421875,0.59674072265625,-0.8175201416015625
1667824481618132500,8.655132568359376,0.123504638671875,0.5850830078125,-0.8444671630859375
1667824481628140800,8.665140869140625,0.1400909423828125,0.5959014892578125,-0.89141845703125
1667824481638148600,8.675148681640625,0.161468505859375,0.651275634765625,-0.957550048828125
1667824481648155600,8.68515576171875,0.1903839111328125,0.7242431640625,-1.0173187255859375
1667824481658163500,8.69516357421875,0.2160491943359375,0.7711944580078125,-1.0725860595703125
1667824481668171500,8.705171630859375,0.23394775390625,0.76727294921875,-1.11016845703125
1667824481678178600,8.715178466796875,0.2482757568359375,0.717132568359375,-1.1210784912109375
1667824481688186600,8.7251865234375,0.2642059326171875,0.6315460205078125,-1.105224609375
1667824481698193700,8.735193603515626,0.287261962890625,0.53509521484375,-1.0780792236328125
1667824481708201700,8.74520166015625,0.3186492919921875,0.45733642578125,-1.050567626953125
1667824481718209800,8.755209716796875,0.3346710205078125,0.3997955322265625,-1.0139923095703125
1667824481728216600,8.765216552734374,0.34515380859375,0.3553009033203125,-0.978179931640625
1667824481738224600,8.775224609375,0.356658935546875,0.3268890380859375,-0.9407196044921875
1667824481748232700,8.785232666015625,0.3546295166015625,0.3146820068359375,-0.9029998779296875
1667824481758239700,8.79523974609375,0.34002685546875,0.316009521484375,-0.8659515380859375
1667824481768247600,8.80524755859375,0.32623291015625,0.3329620361328125,-0.8174591064453125
1667824481778254800,8.8152548828125,0.30718994140625,0.3502197265625,-0.779754638671875
1667824481788262700,8.8252626953125,0.284271240234375,0.36376953125,-0.74981689453125
1667824481798270700,8.835270751953125,0.272308349609375,0.3752593994140625,-0.729644775390625
1667824481808274700,8.845274658203126,0.2625885009765625,0.3877410888671875,-0.7188720703125
1667824481818282800,8.85528271484375,0.244842529296875,0.400482177734375,-0.7080841064453125
1667824481828290800,8.865290771484375,0.22564697265625,0.4099884033203125,-0.6998138427734375
1667824481838297900,8.8752978515625,0.2129974365234375,0.4236907958984375,-0.7009735107421875
1667824481848306000,8.885305908203126,0.1996002197265625,0.443450927734375,-0.70416259765625
1667824481858313000,8.89531298828125,0.186798095703125,0.4582061767578125,-0.7087860107421875
1667824481868321000,8.905321044921875,0.1782684326171875,0.4720611572265625,-0.708831787109375
1667824481878328800,8.915328857421875,0.1713714599609375,0.487762451171875,-0.7082977294921875
1667824481888336000,8.9253359375,0.1638946533203125,0.5067901611328125,-0.7158203125
1667824481898343700,8.93534375,0.1506500244140625,0.5223846435546875,-0.7125091552734375
1667824481908352000,8.94535205078125,0.14398193359375,0.5223388671875,-0.702911376953125
1667824481918358800,8.95535888671875,0.14373779296875,0.5090484619140625,-0.6938018798828125
1667824481928366800,8.965366943359374,0.14031982421875,0.4968719482421875,-0.6909942626953125
1667824481938374000,8.975373779296875,0.1337890625,0.4872589111328125,-0.68994140625
1667824481948382000,8.9853818359375,0.1390228271484375,0.4745635986328125,-0.689300537109375
1667824481958389800,8.9953896484375,0.138641357421875,0.4692230224609375,-0.686126708984375
1667824481968396800,9.005396728515626,0.12457275390625,0.472381591796875,-0.7041473388671875
1667824481978404900,9.01540478515625,0.122344970703125,0.4927215576171875,-0.7218780517578125
1667824481988413000,9.025412841796875,0.124267578125,0.527435302734375,-0.749114990234375
1667824481998419700,9.035419677734374,0.12835693359375,0.5789031982421875,-0.790985107421875
1667824482008427800,9.045427734375,0.1422882080078125,0.6526031494140625,-0.839874267578125
1667824482018435800,9.055435791015626,0.1595001220703125,0.7383270263671875,-0.9042205810546875
1667824482028443000,9.06544287109375,0.1712799072265625,0.8284912109375,-0.962982177734375
1667824482038451000,9.075450927734375,0.1612091064453125,0.8856964111328125,-0.9962921142578125
1667824482048458000,9.0854580078125,0.1507415771484375,0.8857574462890625,-1.006561279296875
1667824482058466000,9.095466064453126,0.13336181640625,0.8406982421875,-0.9775238037109375
1667824482068473900,9.105473876953125,0.1110992431640625,0.7723388671875,-0.93316650390625
1667824482078481000,9.11548095703125,0.089630126953125,0.7061920166015625,-0.893310546875
1667824482088488700,9.12548876953125,0.0746002197265625,0.6588897705078125,-0.8621063232421875
1667824482098497000,9.1354970703125,0.0722503662109375,0.6392364501953125,-0.839324951171875
1667824482108503800,9.14550390625,0.07989501953125,0.6479949951171875,-0.829345703125
1667824482118511900,9.155511962890625,0.09527587890625,0.6771697998046875,-0.830108642578125
1667824482128519000,9.165518798828124,0.114837646484375,0.7171630859375,-0.8381195068359375
1667824482138527000,9.17552685546875,0.1344146728515625,0.770050048828125,-0.8599853515625
1667824482148534800,9.18553466796875,0.152618408203125,0.84002685546875,-0.885894775390625
1667824482158541800,9.195541748046875,0.166046142578125,0.9218902587890625,-0.909515380859375
1667824482168550000,9.2055498046875,0.1776580810546875,1.0129852294921875,-0.9351043701171875
1667824482178558000,9.215557861328126,0.1808929443359375,1.1019287109375,-0.9589080810546875
1667824482188564700,9.225564697265625,0.1834259033203125,1.163238525390625,-0.9708251953125
1667824482198572800,9.23557275390625,0.173553466796875,1.18505859375,-0.969879150390625
1667824482208580600,9.24558056640625,0.16046142578125,1.168365478515625,-0.9513397216796875
1667824482218588000,9.255587890625,0.148712158203125,1.124847412109375,-0.9132537841796875
1667824482228595700,9.265595703125,0.1324310302734375,1.0678863525390625,-0.8738861083984375
1667824482238602800,9.275602783203125,0.115020751953125,1.0084991455078125,-0.8248443603515625
1667824482248610800,9.28561083984375,0.106903076171875,0.9389801025390625,-0.77508544921875
1667824482258619000,9.295618896484376,0.103546142578125,0.8654022216796875,-0.728271484375
1667824482268625700,9.305625732421875,0.107757568359375,0.7903594970703125,-0.6802825927734375
1667824482278633700,9.3156337890625,0.1075592041015625,0.7084197998046875,-0.6291351318359375
1667824482288642000,9.32564208984375,0.1150360107421875,0.6208343505859375,-0.580963134765625
1667824482298648800,9.33564892578125,0.1189422607421875,0.53814697265625,-0.5355987548828125
1667824482308657000,9.345656982421875,0.1168670654296875,0.470733642578125,-0.4958953857421875
1667824482318664000,9.355663818359375,0.1212615966796875,0.42303466796875,-0.46392822265625
1667824482328672000,9.365672119140624,0.12457275390625,0.3994598388671875,-0.445556640625
1667824482338679800,9.3756796875,0.134918212890625,0.400970458984375,-0.4427947998046875
1667824482348686800,9.385686767578125,0.151153564453125,0.4185028076171875,-0.4370880126953125
1667824482358695000,9.39569482421875,0.1582489013671875,0.438446044921875,-0.43609619140625
1667824482368703000,9.405702880859375,0.1669921875,0.4509124755859375,-0.4368438720703125
1667824482378709800,9.415709716796876,0.186248779296875,0.4480743408203125,-0.4347686767578125
1667824482388717800,9.4257177734375,0.1933441162109375,0.4405059814453125,-0.4383087158203125
1667824482398725600,9.4357255859375,0.195526123046875,0.426849365234375,-0.4398651123046875
1667824482408733000,9.44573291015625,0.200775146484375,0.41107177734375,-0.447906494140625
1667824482418740700,9.45574072265625,0.205352783203125,0.4093780517578125,-0.4628448486328125
1667824482428747800,9.465747802734375,0.2061004638671875,0.42523193359375,-0.4739837646484375
1667824482438755800,9.475755859375,0.2053070068359375,0.4411163330078125,-0.4872283935546875
1667824482448764000,9.485763916015625,0.2065582275390625,0.454071044921875,-0.504364013671875
1667824482458770700,9.495770751953126,0.2103424072265625,0.46533203125,-0.527252197265625
1667824482468778800,9.50577880859375,0.2130126953125,0.48150634765625,-0.5512847900390625
1667824482478787000,9.515787109375,0.208251953125,0.5041656494140625,-0.583282470703125
1667824482488793900,9.5257939453125,0.206329345703125,0.5286407470703125,-0.61541748046875
1667824482498802000,9.535802001953124,0.204986572265625,0.5572357177734375,-0.6545562744140625
1667824482508809000,9.54580908203125,0.198516845703125,0.5835723876953125,-0.69244384765625
1667824482518817000,9.555817138671875,0.1841583251953125,0.5992431640625,-0.72357177734375
1667824482528824800,9.565824951171875,0.1814422607421875,0.6148223876953125,-0.749969482421875
1667824482538832000,9.575831787109376,0.1635589599609375,0.6294708251953125,-0.7864837646484375
1667824482548839700,9.585839599609375,0.1374664306640625,0.651641845703125,-0.8184967041015625
1667824482558848000,9.595847900390625,0.1358489990234375,0.68975830078125,-0.8339080810546875
1667824482568854800,9.605854736328125,0.1022491455078125,0.7303009033203125,-0.857452392578125
1667824482578862800,9.61586279296875,0.080657958984375,0.7592010498046875,-0.891876220703125
1667824482588870700,9.62587060546875,0.0897979736328125,0.813232421875,-0.92523193359375
1667824482598878000,9.6358779296875,0.0736541748046875,0.887054443359375,-0.970184326171875
1667824482608885800,9.6458857421875,0.069915771484375,0.944061279296875,-1.021270751953125
1667824482618892800,9.655892822265624,0.0744781494140625,0.968963623046875,-1.062530517578125
1667824482628900900,9.66590087890625,0.08343505859375,0.978790283203125,-1.082916259765625
1667824482638909000,9.675908935546875,0.077606201171875,0.980194091796875,-1.1048736572265625
1667824482648915700,9.685915771484375,0.0841064453125,0.971649169921875,-1.1184539794921875
1667824482658923800,9.695923828125,0.0875396728515625,0.9449462890625,-1.117462158203125
1667824482668931800,9.705931884765626,0.087677001953125,0.8972320556640625,-1.0934906005859375
1667824482678939000,9.71593896484375,0.08673095703125,0.833587646484375,-1.0696563720703125
1667824482688947000,9.725947021484375,0.080230712890625,0.7725982666015625,-1.042388916015625
1667824482698954000,9.7359541015625,0.089569091796875,0.7238006591796875,-1.02618408203125
1667824482708962000,9.745962158203126,0.103485107421875,0.6829681396484375,-1.0242156982421875
1667824482718969900,9.755969970703125,0.1170654296875,0.648834228515625,-1.0484771728515625
1667824482728977000,9.765976806640625,0.1397552490234375,0.626434326171875,-1.0726470947265625
1667824482738984700,9.775984619140624,0.1520843505859375,0.6014556884765625,-1.0886993408203125
1667824482748993000,9.785992919921876,0.1712646484375,0.5521240234375,-1.094207763671875
1667824482758999800,9.795999755859375,0.192626953125,0.4829864501953125,-1.096221923828125
1667824482769007900,9.8060078125,0.2121429443359375,0.4249114990234375,-1.10009765625
1667824482779015700,9.816015625,0.23626708984375,0.3926544189453125,-1.090240478515625
1667824482789023000,9.82602294921875,0.2582550048828125,0.369293212890625,-1.081390380859375
1667824482799030800,9.83603076171875,0.2811279296875,0.3361968994140625,-1.0663604736328125
1667824482809037600,9.84603759765625,0.29730224609375,0.3066558837890625,-1.053558349609375
1667824482819045600,9.856045654296874,0.3037261962890625,0.2983856201171875,-1.0451202392578125
1667824482829053700,9.8660537109375,0.3110809326171875,0.303680419921875,-1.04388427734375
1667824482839060500,9.876060546875,0.3143157958984375,0.3232421875,-1.0454559326171875
1667824482849068500,9.886068603515625,0.3080902099609375,0.3313140869140625,-1.068115234375
1667824482859076900,9.896076904296875,0.290374755859375,0.334991455078125,-1.0774993896484375
1667824482869083600,9.906083740234376,0.27459716796875,0.3570098876953125,-1.0696868896484375
1667824482879091700,9.916091796875,0.261444091796875,0.3902435302734375,-1.063873291015625
1667824482889098800,9.9260986328125,0.2410125732421875,0.4068145751953125,-1.0346832275390625
1667824482899106800,9.93610693359375,0.210205078125,0.3964996337890625,-0.9927215576171875
1667824482909114600,9.946114501953126,0.189697265625,0.3753814697265625,-0.9537200927734375
1667824482919121700,9.95612158203125,0.1705322265625,0.3514556884765625,-0.91229248046875
1667824482929129700,9.966129638671875,0.1538848876953125,0.3256378173828125,-0.8920440673828125
1667824482939137800,9.9761376953125,0.149322509765625,0.3180084228515625,-0.8846435546875
1667824482949144600,9.98614453125,0.1482696533203125,0.3399200439453125,-0.886322021484375
1667824482959152600,9.996152587890625,0.1509552001953125,0.394317626953125,-0.89337158203125
1667824482969160400,10.006160400390625,0.1422576904296875,0.4398193359375,-0.9049072265625
1667824482979167700,10.016167724609375,0.1484222412109375,0.450439453125,-0.8964080810546875
1667824482989175600,10.026175537109374,0.1177978515625,0.4637451171875,-0.861328125
1667824482999182600,10.0361826171875,0.0769805908203125,0.459808349609375,-0.821197509765625
1667824483009190700,10.046190673828125,0.0546112060546875,0.426971435546875,-0.7676544189453125
1667824483019198700,10.05619873046875,0.044281005859375,0.38250732421875,-0.73394775390625
1667824483029205500,10.06620556640625,0.05035400390625,0.3665771484375,-0.71795654296875
1667824483039213600,10.076213623046876,0.0604400634765625,0.389251708984375,-0.7206268310546875
1667824483049221600,10.0862216796875,0.0689544677734375,0.4260101318359375,-0.7383270263671875
1667824483059228700,10.096228759765625,0.074676513671875,0.448516845703125,-0.757049560546875
1667824483069236700,10.10623681640625,0.068634033203125,0.4554290771484375,-0.765899658203125
1667824483079244500,10.11624462890625,0.06317138671875,0.44989013671875,-0.7844696044921875
1667824483089251800,10.126251953125,0.065521240234375,0.44354248046875,-0.7999114990234375
1667824483099259600,10.136259765625,0.0548858642578125,0.4322052001953125,-0.8141632080078125
1667824483109266700,10.1462666015625,0.045745849609375,0.4190216064453125,-0.827728271484375
1667824483119274500,10.1562744140625,0.0427398681640625,0.421539306640625,-0.845611572265625
1667824483129282800,10.16628271484375,0.046142578125,0.4452362060546875,-0.8665313720703125
1667824483139289600,10.17628955078125,0.04791259765625,0.4883270263671875,-0.8963775634765625
1667824483149297700,10.186297607421874,0.0537872314453125,0.5351715087890625,-0.930206298828125
1667824483159305500,10.196305419921876,0.062286376953125,0.5837860107421875,-0.9688568115234375
1667824483169312800,10.206312744140625,0.0674591064453125,0.6215667724609375,-1.005096435546875
1667824483179320600,10.216320556640625,0.071929931640625,0.645904541015625,-1.042510986328125
1667824483189328600,10.22632861328125,0.0737457275390625,0.6581878662109375,-1.0755157470703125
1667824483199335700,10.236335693359376,0.0646209716796875,0.6568603515625,-1.1091766357421875
1667824483209343700,10.24634375,0.054046630859375,0.647918701171875,-1.13134765625
1667824483219350500,10.2563505859375,0.0482330322265625,0.624908447265625,-1.1300201416015625
1667824483229358600,10.266358642578124,0.0448150634765625,0.5953216552734375,-1.1295623779296875
1667824483239366700,10.27636669921875,0.0430908203125,0.5784454345703125,-1.12884521484375
1667824483249373700,10.286373779296875,0.0476531982421875,0.582061767578125,-1.1264190673828125
1667824483259381500,10.296381591796875,0.0582427978515625,0.60693359375,-1.123077392578125
1667824483269389600,10.3063896484375,0.06573486328125,0.64630126953125,-1.1223297119140625
1667824483279396600,10.316396728515626,0.073883056640625,0.68646240234375,-1.119781494140625
1667824483289404700,10.32640478515625,0.0862274169921875,0.7171630859375,-1.11322021484375
1667824483299412700,10.336412841796875,0.0960845947265625,0.7391357421875,-1.098052978515625
1667824483309419500,10.34641943359375,0.1073150634765625,0.75201416015625,-1.0847320556640625
1667824483319427800,10.356427734375,0.10198974609375,0.7569580078125,-1.0713958740234375
1667824483329434600,10.3664345703125,0.098388671875,0.75311279296875,-1.0684814453125
1667824483339442700,10.376442626953125,0.1071929931640625,0.7474517822265625,-1.067047119140625
1667824483349450500,10.386450439453125,0.1023406982421875,0.7412109375,-1.0639190673828125
1667824483359457800,10.396457763671876,0.094696044921875,0.730926513671875,-1.0590057373046875
1667824483369465600,10.406465576171875,0.0912933349609375,0.704925537109375,-1.046600341796875
1667824483379473700,10.4164736328125,0.07861328125,0.652191162109375,-1.0258941650390625
1667824483389480700,10.426480712890625,0.0673065185546875,0.581756591796875,-0.9961395263671875
1667824483399488800,10.43648876953125,0.0600738525390625,0.50390625,-0.9620361328125
1667824483409496600,10.44649658203125,0.0517425537109375,0.420074462890625,-0.9290771484375
1667824483419503600,10.456503662109375,0.0283966064453125,0.341705322265625,-0.8942108154296875
1667824483429511400,10.466511474609375,0.028717041015625,0.27294921875,-0.8666534423828125
1667824483439518700,10.476518798828126,0.0230255126953125,0.217010498046875,-0.8438720703125
1667824483449526500,10.486526611328125,0.0214996337890625,0.1794586181640625,-0.8228607177734375
1667824483459534600,10.49653466796875,0.0201416015625,0.1526031494140625,-0.803558349609375
1667824483469541600,10.506541748046875,0.0123291015625,0.1277923583984375,-0.7937164306640625
1667824483479549700,10.5165498046875,0.009307861328125,0.106170654296875,-0.7825775146484375
1667824483489557800,10.526557861328126,0.007080078125,0.0885162353515625,-0.7725982666015625
1667824483499564500,10.536564453125,0.0013580322265625,0.07574462890625,-0.7623443603515625
1667824483509572900,10.54657275390625,-0.006805419921875,0.0619354248046875,-0.7468414306640625
1667824483519580700,10.55658056640625,-0.0139312744140625,0.041717529296875,-0.7322998046875
1667824483529587700,10.566587646484376,-0.020782470703125,0.020660400390625,-0.721221923828125
1667824483539595500,10.576595458984375,-0.0286712646484375,0.00323486328125,-0.7110748291015625
1667824483549602800,10.586602783203125,-0.03662109375,-0.00616455078125,-0.7012786865234375
1667824483559610600,10.596610595703124,-0.0510406494140625,-0.00701904296875,-0.6976470947265625
1667824483569618700,10.60661865234375,-0.0621185302734375,-0.005523681640625,-0.6988372802734375
1667824483579625700,10.616625732421875,-0.0690765380859375,-0.00750732421875,-0.7005615234375
1667824483589633800,10.6266337890625,-0.07537841796875,-0.017547607421875,-0.69451904296875
1667824483599641600,10.6366416015625,-0.077972412109375,-0.029510498046875,-0.6890106201171875
1667824483609648600,10.646648681640626,-0.0883331298828125,-0.0353851318359375,-0.7032012939453125
1667824483619656400,10.656656494140625,-0.1049652099609375,-0.0302581787109375,-0.7357330322265625
1667824483629664800,10.666664794921875,-0.1041259765625,-0.0206298828125,-0.7673187255859375
1667824483639671600,10.676671630859374,-0.11370849609375,-0.0115814208984375,-0.797515869140625
1667824483649679600,10.6866796875,-0.125579833984375,0.00091552734375,-0.8136444091796875
1667824483659686700,10.696686767578125,-0.134307861328125,0.0085906982421875,-0.819488525390625
1667824483669694700,10.70669482421875,-0.151275634765625,0.0128936767578125,-0.8284149169921875
1667824483679702800,10.716702880859375,-0.164703369140625,0.0198822021484375,-0.839385986328125
1667824483689709600,10.72670947265625,-0.18310546875,0.0325164794921875,-0.8516082763671875
1667824483699718000,10.7367177734375,-0.1983184814453125,0.0427398681640625,-0.86444091796875
1667824483709725700,10.7467255859375,-0.2162017822265625,0.05084228515625,-0.8789215087890625
1667824483719732500,10.756732421875,-0.2298583984375,0.067047119140625,-0.900421142578125
1667824483729740500,10.766740478515626,-0.2421875,0.092529296875,-0.9263763427734375
1667824483739748600,10.77674853515625,-0.2682342529296875,0.120025634765625,-0.948638916015625
1667824483749755600,10.786755615234375,-0.2979736328125,0.13568115234375,-0.9669342041015625
1667824483759763700,10.796763671875,-0.3222808837890625,0.14581298828125,-0.9868621826171875
1667824483769770500,10.8067705078125,-0.345855712890625,0.1617431640625,-1.0018310546875
1667824483779778800,10.81677880859375,-0.37237548828125,0.186370849609375,-1.01171875
1667824483789786600,10.82678662109375,-0.4010009765625,0.2136688232421875,-1.024169921875
1667824483799793700,10.836793701171874,-0.4222259521484375,0.2332916259765625,-1.043304443359375
1667824483809802200,10.84680224609375,-0.4383087158203125,0.244140625,-1.0523223876953125
1667824483819810300,10.856810302734376,-0.45281982421875,0.2508392333984375,-1.0555419921875
1667824483829817300,10.8668173828125,-0.4737396240234375,0.2541656494140625,-1.06207275390625
1667824483839825400,10.876825439453125,-0.4958648681640625,0.2574615478515625,-1.0623016357421875
1667824483849833200,10.886833251953124,-0.506622314453125,0.25775146484375,-1.057861328125
1667824483859840500,10.896840576171876,-0.5130767822265625,0.25726318359375,-1.0488433837890625
1667824483869848300,10.906848388671875,-0.5179290771484375,0.25823974609375,-1.038665771484375
1667824483879855400,10.91685546875,-0.5155029296875,0.2607879638671875,-1.0407562255859375
1667824483889863200,10.92686328125,-0.5093231201171875,0.2661285400390625,-1.0386199951171875
1667824483899871200,10.936871337890626,-0.5039215087890625,0.27545166015625,-1.033203125
1667824483909878300,10.946878173828125,-0.4922943115234375,0.28021240234375,-1.0445098876953125
1667824483919886300,10.95688623046875,-0.4710693359375,0.279083251953125,-1.0597991943359375
1667824483929894400,10.966894287109374,-0.4468536376953125,0.2716064453125,-1.06939697265625
1667824483939901400,10.9769013671875,-0.425689697265625,0.25994873046875,-1.0835113525390625
1667824483949909500,10.986909423828125,-0.400848388671875,0.244384765625,-1.092254638671875
1667824483959917300,10.996917236328125,-0.38031005859375,0.22332763671875,-1.10247802734375
1667824483969924400,11.00692431640625,-0.3650054931640625,0.2006683349609375,-1.1130828857421875
1667824483979932400,11.016932373046876,-0.361541748046875,0.1747894287109375,-1.11865234375
1667824483989940500,11.0269404296875,-0.3600006103515625,0.1519927978515625,-1.118194580078125
1667824483999947300,11.036947265625,-0.350738525390625,0.1389312744140625,-1.1167144775390625
1667824484009955300,11.046955322265624,-0.342041015625,0.1375732421875,-1.11114501953125
1667824484019962400,11.05696240234375,-0.338714599609375,0.1381683349609375,-1.09588623046875
1667824484029970400,11.066970458984375,-0.3380126953125,0.129486083984375,-1.0690155029296875
1667824484039978200,11.076978271484375,-0.3363037109375,0.1094970703125,-1.040863037109375
1667824484049985500,11.086985595703124,-0.32977294921875,0.0886688232421875,-1.01708984375
1667824484059993300,11.096993408203126,-0.332916259765625,0.078521728515625,-0.993682861328125
1667824484070001400,11.10700146484375,-0.3372650146484375,0.0829010009765625,-0.967132568359375
1667824484080008200,11.11700830078125,-0.331939697265625,0.0884857177734375,-0.951629638671875
1667824484090016300,11.127016357421875,-0.33563232421875,0.0923004150390625,-0.931488037109375
1667824484100024600,11.137024658203124,-0.3354949951171875,0.0903778076171875,-0.9106903076171875
1667824484110031400,11.14703125,-0.342041015625,0.082733154296875,-0.89398193359375
1667824484120039400,11.157039306640625,-0.3479156494140625,0.075927734375,-0.877166748046875
1667824484130046500,11.16704638671875,-0.3566741943359375,0.0733642578125,-0.8562774658203125
1667824484140054500,11.177054443359374,-0.357025146484375,0.074462890625,-0.8370819091796875
1667824484150062300,11.187062255859376,-0.3579254150390625,0.0777435302734375,-0.816619873046875
1667824484160069400,11.1970693359375,-0.354461669921875,0.0839385986328125,-0.79888916015625
1667824484170077400,11.207077392578125,-0.3540496826171875,0.091827392578125,-0.783172607421875
1667824484180085500,11.21708544921875,-0.355224609375,0.0970306396484375,-0.7687225341796875
1667824484190092300,11.22709228515625,-0.35333251953125,0.0984649658203125,-0.755889892578125
1667824484200100400,11.237100341796875,-0.3546600341796875,0.0976409912109375,-0.7425537109375
1667824484210108200,11.247108154296875,-0.3563690185546875,0.096649169921875,-0.7357940673828125
1667824484220115500,11.257115478515624,-0.3503570556640625,0.094757080078125,-0.73486328125
1667824484230123300,11.267123291015626,-0.3491973876953125,0.0944366455078125,-0.732696533203125
1667824484240131300,11.27713134765625,-0.3513946533203125,0.097564697265625,-0.7400360107421875
1667824484250138400,11.287138427734375,-0.3508453369140625,0.1049652099609375,-0.75189208984375
1667824484260146400,11.297146484375,-0.35028076171875,0.1151275634765625,-0.75543212890625
1667824484270153200,11.3071533203125,-0.3535614013671875,0.12127685546875,-0.75750732421875
1667824484280161300,11.317161376953125,-0.3573150634765625,0.1236114501953125,-0.7596893310546875
1667824484290169300,11.32716943359375,-0.3606414794921875,0.12274169921875,-0.7620391845703125
1667824484300176400,11.33717626953125,-0.368804931640625,0.12359619140625,-0.7715301513671875
1667824484310184200,11.34718408203125,-0.3755340576171875,0.13189697265625,-0.789581298828125
1667824484320192300,11.357192138671875,-0.3787384033203125,0.148834228515625,-0.810455322265625
1667824484330199300,11.36719921875,-0.3868408203125,0.1703033447265625,-0.8387603759765625
1667824484340207400,11.377207275390624,-0.405517578125,0.193115234375,-0.8665771484375
1667824484350215400,11.38721533203125,-0.4268798828125,0.2168731689453125,-0.89776611328125
1667824484360222500,11.397222412109375,-0.4481658935546875,0.24298095703125,-0.9223175048828125
1667824484370230500,11.40723046875,-0.469512939453125,0.2661285400390625,-0.93994140625
1667824484380238300,11.41723828125,-0.491119384765625,0.2813873291015625,-0.954559326171875
1667824484390245400,11.427245361328126,-0.5101318359375,0.291778564453125,-0.959930419921875
1667824484400253200,11.437253173828125,-0.525787353515625,0.30059814453125,-0.9624786376953125
1667824484410260500,11.447260498046875,-0.53662109375,0.305206298828125,-0.959320068359375
1667824484420268300,11.457268310546874,-0.5427398681640625,0.307342529296875,-0.9433135986328125
1667824484430276400,11.4672763671875,-0.539764404296875,0.3095550537109375,-0.9248046875
1667824484440283400,11.477283447265625,-0.5269775390625,0.3108367919921875,-0.91461181640625
1667824484450291500,11.48729150390625,-0.516693115234375,0.315338134765625,-0.902191162109375
1667824484460299300,11.49729931640625,-0.508148193359375,0.32257080078125,-0.8900146484375
1667824484470306300,11.507306396484376,-0.498809814453125,0.3333740234375,-0.8901214599609375
1667824484480314400,11.517314453125,-0.494598388671875,0.3480224609375,-0.8981475830078125
1667824484490322400,11.527322509765625,-0.491668701171875,0.360198974609375,-0.90185546875
1667824484500329200,11.5373291015625,-0.4936370849609375,0.366302490234375,-0.9069976806640625
1667824484510337300,11.547337158203124,-0.5012969970703125,0.36981201171875,-0.91729736328125
1667824484520344300,11.55734423828125,-0.50762939453125,0.369232177734375,-0.918243408203125
1667824484530352400,11.567352294921875,-0.516326904296875,0.3600006103515625,-0.9229888916015625
1667824484540360400,11.5773603515625,-0.526580810546875,0.3509063720703125,-0.9326934814453125
1667824484550367200,11.5873671875,-0.533355712890625,0.342742919921875,-0.93707275390625
1667824484560375600,11.59737548828125,-0.54541015625,0.3288421630859375,-0.9398040771484375
1667824484570383400,11.60738330078125,-0.5655364990234375,0.304595947265625,-0.931854248046875
1667824484580390400,11.617390380859375,-0.58831787109375,0.275665283203125,-0.924407958984375
1667824484590398200,11.627398193359374,-0.6137237548828125,0.2552642822265625,-0.9210357666015625
1667824484600406500,11.637406494140626,-0.6328125,0.2434539794921875,-0.915863037109375
1667824484610413300,11.647413330078125,-0.645233154296875,0.23077392578125,-0.9114532470703125
1667824484620421400,11.65742138671875,-0.6543121337890625,0.2138824462890625,-0.8979034423828125
1667824484630429200,11.66742919921875,-0.651123046875,0.193145751953125,-0.8780975341796875
1667824484640436500,11.6774365234375,-0.6388702392578125,0.168975830078125,-0.8416595458984375
1667824484650444300,11.6874443359375,-0.6231231689453125,0.1416473388671875,-0.7803802490234375
1667824484660452400,11.697452392578125,-0.6118011474609375,0.1089630126953125,-0.699981689453125
1667824484670459400,11.70745947265625,-0.6027069091796875,0.067291259765625,-0.652618408203125
1667824484680467500,11.717467529296876,-0.583526611328125,0.02642822265625,-0.6306915283203125
1667824484690474200,11.72747412109375,-0.582733154296875,0.0229034423828125,-0.592559814453125
1667824484700482300,11.737482421875,-0.602386474609375,0.03717041015625,-0.56170654296875
1667824484710490400,11.747490478515624,-0.6264495849609375,0.0974273681640625,-0.56005859375
1667824484720497400,11.757497314453126,-0.6652069091796875,0.1337127685546875,-0.5234375
1667824484730505500,11.76750537109375,-0.7488250732421875,0.029083251953125,-0.46966552734375
1667824484740513300,11.77751318359375,-0.814788818359375,-0.0247650146484375,-0.4435272216796875
1667824484750520600,11.7875205078125,-0.828277587890625,0.0357666015625,-0.44537353515625
1667824484760528400,11.7975283203125,-0.89569091796875,0.05517578125,-0.4710540771484375
1667824484770536400,11.807536376953125,-0.8206024169921875,-0.038604736328125,-0.476531982421875
1667824484780543200,11.817543212890625,-0.8012237548828125,-0.278564453125,-0.4528350830078125
1667824484790551600,11.827551513671875,-1.1601104736328125,-0.1367645263671875,-0.3481903076171875
1667824484800559400,11.837559326171874,-1.2430877685546875,0.0555572509765625,-0.310455322265625
1667824484810565000,11.847565185546875,-1.130584716796875,0.1657562255859375,-0.3485260009765625
1667824484820573000,11.857572998046875,-1.100982666015625,0.2764892578125,-0.3846588134765625
1667824484830580000,11.867580078125,-1.1036224365234375,0.3561859130859375,-0.3672027587890625
1667824484840587800,11.877587890625,-1.0994873046875,0.3644561767578125,-0.3328094482421875
1667824484850595800,11.887595947265625,-1.0937347412109375,0.3109893798828125,-0.3062744140625
1667824484860603000,11.897602783203125,-1.1103973388671875,0.2055511474609375,-0.2878875732421875
1667824484870611000,11.90761083984375,-1.141571044921875,0.0908966064453125,-0.2910614013671875
1667824484880618800,11.91761865234375,-1.1837310791015625,0.0088043212890625,-0.3474578857421875
1667824484890626000,11.9276259765625,-1.3685302734375,-0.0144500732421875,-0.441497802734375
1667824484900633900,11.9376337890625,-1.1985321044921875,0.0030059814453125,-0.446624755859375
1667824484910642000,11.947641845703124,-1.1688079833984375,-0.0144195556640625,-0.260162353515625
1667824484920648700,11.957648681640626,-1.305419921875,-0.0602569580078125,-0.181365966796875
1667824484930657000,11.967656982421875,-1.3036041259765625,-0.12713623046875,-0.1640472412109375
1667824484940665000,11.9776650390625,-1.3143768310546875,-0.1706390380859375,-0.1092071533203125
1667824484950672000,11.987671875,-1.357513427734375,-0.1600799560546875,-0.0658111572265625
1667824484960680000,11.997679931640626,-1.3642425537109375,-0.1320037841796875,-0.0330963134765625
1667824484970687700,12.007687744140625,-1.3681182861328125,-0.125640869140625,0.024658203125
1667824484980695000,12.017695068359375,-1.225677490234375,-0.059234619140625,0.0135650634765625
1667824484990702800,12.027702880859374,-1.1607208251953125,0.096649169921875,-0.0554656982421875
1667824485000710000,12.0377099609375,-1.165924072265625,0.1484375,-0.1203155517578125
1667824485010718000,12.047718017578125,-1.1044769287109375,0.086029052734375,-0.16375732421875
1667824485020726000,12.05772607421875,-1.05938720703125,-0.007171630859375,-0.1835479736328125
1667824485030732800,12.06773291015625,-1.0312652587890625,-0.0937957763671875,-0.1645965576171875
1667824485040740900,12.077740966796876,-1.03961181640625,-0.14178466796875,-0.1294708251953125
1667824485050749000,12.0877490234375,-1.0803070068359375,-0.16107177734375,-0.0939788818359375
1667824485060756000,12.097755859375,-1.0623321533203125,-0.1506805419921875,-0.027496337890625
1667824485070763800,12.107763671875,-0.9635467529296875,-0.1333465576171875,0.05419921875
1667824485080771800,12.117771728515624,-0.899871826171875,-0.136322021484375,0.1209259033203125
1667824485090779000,12.12777880859375,-0.8547210693359375,-0.16314697265625,0.14459228515625
1667824485100787000,12.137786865234375,-0.8029022216796875,-0.19903564453125,0.15252685546875
1667824485110794800,12.147794677734375,-0.75262451171875,-0.2285308837890625,0.12847900390625
1667824485120802000,12.157802001953126,-0.7635498046875,-0.279083251953125,0.069305419921875
1667824485130809900,12.167809814453125,-0.879608154296875,-0.356597900390625,0.0757293701171875
1667824485140817000,12.17781689453125,-0.91473388671875,-0.414886474609375,0.093994140625
1667824485150824700,12.18782470703125,-0.8666534423828125,-0.445037841796875,0.113372802734375
1667824485160832800,12.197832763671874,-0.855621337890625,-0.4580841064453125,0.1397705078125
1667824485170839800,12.20783984375,-0.8893890380859375,-0.4590606689453125,0.1571197509765625
1667824485180847900,12.217847900390625,-0.912933349609375,-0.450408935546875,0.1580352783203125
1667824485190856000,12.22785595703125,-0.89581298828125,-0.419158935546875,0.135498046875
1667824485200863000,12.237863037109374,-0.879791259765625,-0.3764495849609375,0.10595703125
1667824485210871000,12.24787109375,-0.89697265625,-0.34332275390625,0.0924835205078125
1667824485220878800,12.25787890625,-0.9391632080078125,-0.33575439453125,0.0810699462890625
1667824485230886000,12.267885986328125,-0.926513671875,-0.335418701171875,0.0561981201171875
1667824485240894000,12.27789404296875,-0.859222412109375,-0.3158111572265625,0.0425262451171875
1667824485250901000,12.28790087890625,-0.8205413818359375,-0.290130615234375,0.024566650390625
1667824485260908800,12.29790869140625,-0.854644775390625,-0.2860107421875,-0.0230560302734375
1667824485270916900,12.307916748046875,-0.8914947509765625,-0.3096923828125,-0.0709381103515625
1667824485280924000,12.317923828125,-0.88372802734375,-0.3363494873046875,-0.0921478271484375
1667824485290932000,12.327931884765626,-0.858306884765625,-0.3425445556640625,-0.0877227783203125
1667824485300939800,12.337939697265625,-0.8301239013671875,-0.333709716796875,-0.05999755859375
1667824485310946800,12.34794677734375,-0.8130645751953125,-0.3237457275390625,-0.0426483154296875
1667824485320955000,12.357954833984374,-0.7835235595703125,-0.3238067626953125,-0.03436279296875
1667824485330963000,12.367962890625,-0.7550201416015625,-0.3289337158203125,-0.03106689453125
1667824485340969700,12.3779697265625,-0.74444580078125,-0.33050537109375,-0.0415496826171875
1667824485350977800,12.387977783203125,-0.76123046875,-0.3167724609375,-0.0544586181640625
1667824485360986000,12.397986083984375,-0.8094482421875,-0.296295166015625,-0.05224609375
1667824485370993000,12.407992919921876,-0.8303985595703125,-0.299652099609375,-0.0482635498046875
1667824485381001000,12.4180009765625,-0.8083343505859375,-0.3322906494140625,-0.047027587890625
1667824485391008000,12.428008056640625,-0.79376220703125,-0.364837646484375,-0.0422515869140625
1667824485401016000,12.43801611328125,-0.8237457275390625,-0.3873138427734375,-0.0262298583984375
1667824485411024000,12.44802392578125,-0.8433990478515625,-0.4072418212890625,-0.0022125244140625
1667824485421031000,12.458031005859375,-0.8487396240234375,-0.43585205078125,0.01104736328125
1667824485431039000,12.4680390625,-0.8628387451171875,-0.46484375,0.016204833984375
1667824485441047000,12.478047119140625,-0.889404296875,-0.46484375,0.019805908203125
1667824485451053800,12.4880537109375,-0.90167236328125,-0.447723388671875,0.01202392578125
1667824485461062000,12.498061767578125,-0.8975982666015625,-0.430938720703125,0.0073089599609375
1667824485471069700,12.508069580078125,-0.8953857421875,-0.4277191162109375,0.0181732177734375
1667824485481077000,12.518076904296874,-0.898406982421875,-0.45025634765625,0.041656494140625
1667824485491084800,12.528084716796876,-0.907867431640625,-0.490264892578125,0.0634918212890625
1667824485501092900,12.5380927734375,-0.9167327880859375,-0.5171661376953125,0.074676513671875
1667824485511100000,12.548099853515625,-0.9312591552734375,-0.5234527587890625,0.083770751953125
1667824485521108000,12.55810791015625,-0.962188720703125,-0.525238037109375,0.10028076171875
1667824485531116000,12.568115966796874,-1.00091552734375,-0.516326904296875,0.11553955078125
1667824485541122800,12.578122802734375,-1.036468505859375,-0.4838409423828125,0.1130218505859375
1667824485551131100,12.588131103515625,-1.0359649658203125,-0.4401092529296875,0.0859527587890625
1667824485561138000,12.598137939453125,-1.0189056396484375,-0.3998565673828125,0.043731689453125
1667824485571145700,12.608145751953124,-1.002471923828125,-0.3644256591796875,0.012054443359375
1667824485581153800,12.61815380859375,-0.97198486328125,-0.333892822265625,-0.0084381103515625
1667824485591160800,12.628160888671875,-0.9258270263671875,-0.30841064453125,-0.0194244384765625
1667824485601169000,12.6381689453125,-0.89495849609375,-0.29205322265625,-0.0147552490234375
1667824485611177000,12.648177001953124,-0.887603759765625,-0.29083251953125,0.001861572265625
1667824485621184000,12.65818408203125,-0.8843231201171875,-0.3063812255859375,0.0207366943359375
1667824485631192000,12.668192138671875,-0.887969970703125,-0.329742431640625,0.0439453125
1667824485641199900,12.678199951171875,-0.8939208984375,-0.356842041015625,0.0677642822265625
1667824485651207000,12.68820703125,-0.88739013671875,-0.36834716796875,0.0789337158203125
1667824485661214700,12.698214599609376,-0.8588714599609375,-0.3614501953125,0.0814971923828125
1667824485671222000,12.708221923828125,-0.7957305908203125,-0.3423309326171875,0.09381103515625
1667824485681229800,12.718229736328125,-0.880889892578125,-0.343505859375,0.1213226318359375
1667824485691238000,12.72823779296875,-0.86322021484375,-0.3665008544921875,0.125518798828125
1667824485701245000,12.738244873046876,-0.84271240234375,-0.3775787353515625,0.125091552734375
1667824485711253000,12.7482529296875,-0.843475341796875,-0.38348388671875,0.116241455078125
1667824485721260800,12.7582607421875,-0.847137451171875,-0.389617919921875,0.1084442138671875
1667824485731267800,12.768267822265624,-0.854827880859375,-0.3923797607421875,0.097930908203125
1667824485741276000,12.77827587890625,-0.86358642578125,-0.384765625,0.0937652587890625
1667824485751284000,12.788283935546875,-0.863067626953125,-0.36810302734375,0.101104736328125
