time,seconds_elapsed,z,y,x
1667266581888222500,0.094222412109375,9.011369705200195,-4.543970108032227,-2.9255247116088867
1667266581890620200,0.0966201171875,8.858229637145996,-4.553541660308838,-2.95184588432312
1667266581893018000,0.09901806640625,8.697610855102539,-4.577469825744629,-3.004487991333008
1667266581895415800,0.101415771484375,8.496614456176758,-4.603790760040283,-3.0427730083465576
1667266581897813800,0.103813720703125,8.2788667678833,-4.656432628631592,-3.1028928756713867
1667266581900211500,0.10621142578125,8.082356452941895,-4.694717884063721,-3.1722846031188965
1667266581902609200,0.108609130859375,7.859824180603027,-4.706682205200195,-3.2177481651306152
1667266581905007000,0.111007080078125,7.632505893707275,-4.704289436340332,-3.232105255126953
1667266581907404800,0.11340478515625,7.354639530181885,-4.689932346343994,-3.1866414546966553
1667266581909802800,0.115802734375,7.067500591278076,-4.651647090911865,-3.1579277515411377
1667266581912200400,0.118200439453125,6.782455921173096,-4.603790760040283,-3.1411778926849365
1667266581914598100,0.12059814453125,6.543173313140869,-4.577469825744629,-3.122035264968872
1667266581916996000,0.12299609375,6.325127601623535,-4.53200626373291,-3.1172497272491455
1667266581919393800,0.125393798828125,6.112166404724121,-4.453042984008789,-3.10528564453125
1667266581921791700,0.127791748046875,5.9183478355407715,-4.398007869720459,-3.07627272605896
1667266581924189400,0.130189453125,5.731408596038818,-4.34536600112915,-3.0355947017669678
1667266581926587400,0.13258740234375,5.549553871154785,-4.292723655700684,-2.9925239086151123
1667266581928985000,0.134985107421875,5.396413326263428,-4.240081787109375,-2.942274570465088
1667266581931383000,0.137383056640625,5.262115955352783,-4.1608195304870605,-2.913560628890991
1667266581933780700,0.13978076171875,5.159224510192871,-4.108177185058594,-2.8896324634552
1667266581936178400,0.142178466796875,5.087440013885498,-4.031607151031494,-2.865704298019409
1667266581938576400,0.144576416015625,5.049154758453369,-3.9622151851654053,-2.8465616703033447
1667266581940974000,0.14697412109375,5.01086950302124,-3.9000017642974854,-2.863311290740967
1667266581943372000,0.1493720703125,4.986941337585449,-3.82582426071167,-2.8585257530212402
1667266581945769700,0.151769775390625,4.991727352142334,-3.7683966159820557,-2.8920252323150635
1667266581948167700,0.154167724609375,5.01086950302124,-3.7444684505462646,-2.9255247116088867
1667266581950565400,0.1565654296875,5.015655517578125,-3.691826343536377,-2.9709885120391846
1667266581952963300,0.15896337890625,5.041976451873779,-3.6798620223999023,-3.05234432220459
1667266581955361000,0.161361083984375,5.085047245025635,-3.675076484680176,-3.0810582637786865
1667266581957758700,0.1637587890625,5.111368179321289,-3.6966118812561035,-3.1483564376831055
1667266581960156700,0.16615673828125,5.149653434753418,-3.7133617401123047,-3.2297122478485107
1667266581962554400,0.168554443359375,5.192724227905273,-3.708575963973999,-3.279961585998535
1667266581964952300,0.170952392578125,5.290830135345459,-3.7277185916900635,-3.356531858444214
1667266581967350000,0.17335009765625,5.401198863983154,-3.7348971366882324,-3.4235310554504395
1667266581969748000,0.175748046875,5.520840167999268,-3.7540395259857178,-3.497708559036255
1667266581972145700,0.178145751953125,5.6548380851745605,-3.7995033264160156,-3.552743434906006
1667266581974543400,0.18054345703125,5.7792649269104,-3.835395574569702,-3.6221351623535156
1667266581976941300,0.18294140625,5.923133373260498,-3.8688950538635254,-3.6870405673980713
1667266581979339000,0.185339111328125,6.069095611572266,-3.9143588542938232,-3.715754508972168
1667266581981737000,0.187737060546875,6.210271835327148,-3.969393730163574,-3.739682674407959
1667266581984134700,0.190134765625,6.3825554847717285,-4.002892971038818,-3.7372899055480957
1667266581986532600,0.19253271484375,6.562315940856934,-4.017250061035156,-3.7420754432678223
1667266581988930300,0.194930419921875,6.748956203460693,-4.026821613311768,-3.7444684505462646
1667266581991328300,0.197328369140625,6.9236321449279785,-4.062713623046875,-3.7253258228302
1667266581993726000,0.199725830078125,7.115357398986816,-4.069892406463623,-3.7109687328338623
1667266581996123600,0.20212353515625,7.313961505889893,-4.0818562507629395,-3.6966118812561035
1667266581998521600,0.204521484375,7.488637447357178,-4.07467794418335,-3.684647798538208
1667266582000919300,0.206919189453125,7.630113124847412,-4.07467794418335,-3.6197423934936523
1667266582003317200,0.209317138671875,7.780860900878906,-4.091427803039551,-3.5647075176239014
1667266582005715000,0.21171484375,7.9005022048950195,-4.084249019622803,-3.5096726417541504
1667266582008113000,0.21411279296875,8.003393173217773,-4.108177185058594,-3.445066452026367
1667266582010510600,0.216510498046875,8.072785377502441,-4.1297125816345215,-3.373281717300415
1667266582012908500,0.218908447265625,8.130212783813477,-4.132105827331543,-3.2823543548583984
1667266582015306200,0.22130615234375,8.185546875,-4.1297125816345215,-3.222533941268921
1667266582017704000,0.223703857421875,8.252546310424805,-4.153641223907471,-3.145963668823242
1667266582020102000,0.226101806640625,8.319544792175293,-4.156033992767334,-3.0786654949188232
1667266582022499600,0.22849951171875,8.386544227600098,-4.1608195304870605,-3.0427730083465576
1667266582024897500,0.2308974609375,8.472685813903809,-4.165605068206787,-2.99013090133667
1667266582027295200,0.233295166015625,8.530113220214844,-4.163212299346924,-2.95902419090271
1667266582029693200,0.235693115234375,8.585148811340332,-4.189533233642578,-2.9398818016052246
1667266582032091000,0.2380908203125,8.633005142211914,-4.213760852813721,-2.9159533977508545
1667266582034488600,0.240488525390625,8.688039779663086,-4.254438877105713,-2.8992037773132324
1667266582036886500,0.242886474609375,8.73619556427002,-4.271188259124756,-2.8848466873168945
1667266582039284200,0.2452841796875,8.772088050842285,-4.304687976837158,-2.8465616703033447
1667266582041682200,0.24768212890625,8.827122688293457,-4.347758769989014,-2.8202404975891113
1667266582044079900,0.250079833984375,8.85344409942627,-4.3788652420043945,-2.810669183731079
1667266582046477800,0.252477783203125,8.894122123718262,-4.393222332000732,-2.7723841667175293
1667266582048875500,0.25487548828125,8.937192916870117,-4.42193603515625,-2.738884687423706
1667266582051273200,0.257273193359375,8.963513374328613,-4.450650215148926,-2.722134828567505
1667266582053671200,0.259671142578125,9.004191398620605,-4.46979284286499,-2.707777976989746
1667266582056068900,0.26206884765625,9.025727272033691,-4.47697114944458,-2.6551358699798584
1667266582058466800,0.264466796875,9.052047729492188,-4.479363918304443,-2.628814697265625
1667266582060864500,0.266864501953125,9.066405296325684,-4.474578380584717,-2.5929224491119385
1667266582063262500,0.269262451171875,9.059226989746094,-4.479363918304443,-2.5522444248199463
1667266582065660200,0.27166015625,9.042476654052734,-4.4650068283081055,-2.5088746547698975
1667266582068058000,0.27405810546875,9.016156196594238,-4.467400074005127,-2.496910333633423
1667266582070455800,0.276455810546875,8.997013092041016,-4.457828521728516,-2.4873390197753906
1667266582072853800,0.278853759765625,8.95394229888916,-4.431507587432861,-2.449054002761841
1667266582075251500,0.28125146484375,8.937192916870117,-4.438685894012451,-2.4394826889038086
1667266582077649200,0.283649169921875,8.913264274597168,-4.436293125152588,-2.420340061187744
1667266582080047000,0.286047119140625,8.898907661437988,-4.4482574462890625,-2.4083759784698486
1667266582082444800,0.28844482421875,8.863015174865723,-4.429114818572998,-2.42512583732605
1667266582084842800,0.2908427734375,8.855836868286133,-4.4243292808532715,-2.4394826889038086
1667266582087240400,0.293240478515625,8.82233715057373,-4.431507587432861,-2.4323041439056396
1667266582089638100,0.29563818359375,8.779266357421875,-4.433900356292725,-2.458625316619873
1667266582092036000,0.2980361328125,8.73619556427002,-4.419543266296387,-2.472982168197632
1667266582094433800,0.300433837890625,8.692825317382812,-4.4243292808532715,-2.482553482055664
1667266582096831700,0.302831787109375,8.656932830810547,-4.417150497436523,-2.5088746547698975
1667266582099229400,0.3052294921875,8.621041297912598,-4.450650215148926,-2.5283162593841553
1667266582101627400,0.30762744140625,8.56600570678711,-4.431507587432861,-2.542673110961914
1667266582104025000,0.310025146484375,8.525327682495117,-4.409972190856934,-2.5450658798217773
1667266582106422800,0.3124228515625,8.463114738464355,-4.4243292808532715,-2.557030200958252
1667266582108820700,0.31482080078125,8.41286563873291,-4.4243292808532715,-2.580958366394043
1667266582111218400,0.317218505859375,8.417651176452637,-4.41475772857666,-2.580958366394043
1667266582113616400,0.319616455078125,8.42722225189209,-4.388436794281006,-2.566601276397705
1667266582116014000,0.32201416015625,8.439186096191406,-4.3788652420043945,-2.5522444248199463
1667266582118412000,0.324412109375,8.436793327331543,-4.362115859985352,-2.557030200958252
1667266582120809700,0.326809814453125,8.405686378479004,-4.338187217712402,-2.5713870525360107
1667266582123207700,0.329207763671875,8.386544227600098,-4.335794448852539,-2.5953152179718018
1667266582125605400,0.33160546875,8.391329765319824,-4.316651821136475,-2.628814697265625
1667266582128003000,0.334003173828125,8.408080101013184,-4.287938117980957,-2.6479573249816895
1667266582130401000,0.336401123046875,8.398508071899414,-4.266402721405029,-2.6718854904174805
1667266582132798700,0.338798828125,8.384151458740234,-4.254438877105713,-2.7173492908477783
1667266582135196700,0.34119677734375,8.372187614440918,-4.252045631408691,-2.753241539001465
1667266582137594400,0.343594482421875,8.357830047607422,-4.254438877105713,-2.810669183731079
1667266582139992300,0.345992431640625,8.343473434448242,-4.252045631408691,-2.872882604598999
1667266582142390000,0.34839013671875,8.300402641296387,-4.280759811401367,-2.913560628890991
1667266582144788000,0.3507880859375,8.274081230163574,-4.297509670257568,-2.9614171981811523
1667266582147185700,0.353185546875,8.216653823852539,-4.292723655700684,-3.004487991333008
1667266582149583400,0.355583251953125,8.17836856842041,-4.311866283416748,-3.061915636062622
1667266582151981300,0.357981201171875,8.11824893951416,-4.335794448852539,-3.11246395111084
1667266582154379000,0.36037890625,8.053643226623535,-4.34536600112915,-3.16749906539917
1667266582156777000,0.36277685546875,7.984251022338867,-4.388436794281006,-3.215355396270752
1667266582159174700,0.365174560546875,7.912466049194336,-4.393222332000732,-3.246462106704712
1667266582161572600,0.367572509765625,7.874181270599365,-4.419543266296387,-3.277568817138672
1667266582163970300,0.36997021484375,7.800003528594971,-4.438685894012451,-3.318246841430664
1667266582166368000,0.372367919921875,7.7353973388671875,-4.436293125152588,-3.342175006866455
1667266582168766000,0.374765869140625,7.675576686859131,-4.443471431732178,-3.334996461868286
1667266582171163600,0.37716357421875,7.610970497131348,-4.4410786628723145,-3.3541390895843506
1667266582173561600,0.3795615234375,7.536494255065918,-4.4410786628723145,-3.325425386428833
1667266582175959300,0.381959228515625,7.4862446784973145,-4.412364959716797,-3.301496982574463
1667266582178357200,0.384357177734375,7.450352191925049,-4.405186653137207,-3.279961585998535
1667266582180755000,0.3867548828125,7.414460182189941,-4.412364959716797,-3.2440693378448486
1667266582183152600,0.389152587890625,7.378567695617676,-4.426722049713135,-3.2201411724090576
1667266582185550600,0.391550537109375,7.337889671325684,-4.402793884277344,-3.19860577583313
1667266582187948300,0.3939482421875,7.301997184753418,-4.390829563140869,-3.160320520401001
1667266582190346200,0.39634619140625,7.294818878173828,-4.393222332000732,-3.119642496109009
1667266582192744000,0.398743896484375,7.263712406158447,-4.398007869720459,-3.1244282722473145
1667266582195142000,0.401141845703125,7.246962547302246,-4.3788652420043945,-3.1172497272491455
1667266582197539600,0.40353955078125,7.223034381866455,-4.369294166564941,-3.129213809967041
1667266582199937500,0.4059375,7.2421770095825195,-4.350151538848877,-3.085843801498413
1667266582202335200,0.408335205078125,7.301997184753418,-4.335794448852539,-3.090928554534912
1667266582204733000,0.41073291015625,7.371389389038086,-4.304687976837158,-3.07627272605896
1667266582207131000,0.413130859375,7.464709281921387,-4.29033088684082,-3.0957143306732178
1667266582209528600,0.415528564453125,7.558029651641846,-4.278367042541504,-3.1172497272491455
1667266582211926500,0.417926513671875,7.63729190826416,-4.280759811401367,-3.153141975402832
1667266582214324200,0.42032421875,7.71386194229126,-4.287938117980957,-3.184248685836792
1667266582216722200,0.42272216796875,7.826324462890625,-4.3070807456970215,-3.2057840824127197
1667266582219119900,0.425119873046875,7.907680511474609,-4.316651821136475,-3.246462106704712
1667266582221517800,0.427517822265625,7.974679470062256,-4.316651821136475,-3.2751760482788086
1667266582223915500,0.42991552734375,8.027321815490723,-4.328616142272949,-3.3134610652923584
1667266582226313200,0.432313232421875,8.072785377502441,-4.333401679992676,-3.3230323791503906
1667266582228711200,0.434711181640625,8.11824893951416,-4.3310089111328125,-3.3541390895843506
1667266582231108900,0.43710888671875,8.161619186401367,-4.319045066833496,-3.356531858444214
1667266582233506800,0.4395068359375,8.211868286132812,-4.3310089111328125,-3.387638568878174
1667266582235904500,0.441904541015625,8.233403205871582,-4.357329845428467,-3.397209882736206
1667266582238302200,0.44430224609375,8.231010437011719,-4.376472473144531,-3.4067811965942383
1667266582240700200,0.4467001953125,8.245368003845215,-4.405186653137207,-3.4402806758880615
1667266582243097900,0.449097900390625,8.247760772705078,-4.445864677429199,-3.468994617462158
1667266582245495800,0.451495849609375,8.226224899291992,-4.488935470581055,-3.507279872894287
1667266582247893500,0.4538935546875,8.190332412719727,-4.5200419425964355,-3.5359935760498047
1667266582250291500,0.45629150390625,8.13260555267334,-4.555934429168701,-3.559921979904175
1667266582252689200,0.458689208984375,8.070392608642578,-4.570291042327881,-3.559921979904175
1667266582255086800,0.4610869140625,8.015357971191406,-4.572684288024902,-3.5479576587677
1667266582257484800,0.46348486328125,7.953144073486328,-4.587040901184082,-3.531208038330078
1667266582259882500,0.465882568359375,7.874181270599365,-4.5822553634643555,-3.521636724472046
1667266582262280400,0.468280517578125,7.811967849731445,-4.59421968460083,-3.4953157901763916
1667266582264678100,0.47067822265625,7.76889705657959,-4.591826438903809,-3.4713873863220215
1667266582267076000,0.473076171875,7.752147197723389,-4.570291042327881,-3.4259238243103027
1667266582269473800,0.475473876953125,7.7353973388671875,-4.567898273468018,-3.397209882736206
1667266582271871700,0.477871826171875,7.725826263427734,-4.54636287689209,-3.3589248657226562
1667266582274269400,0.48026953125,7.728219032287598,-4.522434711456299,-3.3469607830047607
1667266582276667400,0.48266748046875,7.744968891143799,-4.510470867156982,-3.325425386428833
1667266582279065000,0.485065185546875,7.766504287719727,-4.517649173736572,-3.2751760482788086
1667266582281462800,0.487462890625,7.780860900878906,-4.512863636016846,-3.270390272140503
1667266582283860700,0.48986083984375,7.800003528594971,-4.500899314880371,-3.2440693378448486
1667266582286258400,0.492258544921875,7.790432453155518,-4.522434711456299,-3.2297122478485107
1667266582288656400,0.494656494140625,7.780860900878906,-4.53200626373291,-3.2105698585510254
1667266582291054000,0.49705419921875,7.788039684295654,-4.5391845703125,-3.2177481651306152
1667266582293452000,0.4994521484375,7.802396297454834,-4.575077056884766,-3.232105255126953
1667266582295849700,0.501849609375,7.795217990875244,-4.610969066619873,-3.2440693378448486
1667266582298247400,0.504247314453125,7.771289825439453,-4.656432628631592,-3.277568817138672
1667266582300645400,0.506645263671875,7.740182876586914,-4.716253280639648,-3.303889751434326
1667266582303043000,0.50904296875,7.699504852294922,-4.77876615524292,-3.301496982574463
1667266582305441000,0.51144091796875,7.63729190826416,-4.809872627258301,-3.3062827587127686
1667266582307838700,0.513838623046875,7.5942206382751465,-4.833800792694092,-3.315854072570801
1667266582310236700,0.516236572265625,7.526922702789307,-4.852943420410156,-3.325425386428833
1667266582312634400,0.51863427734375,7.464709281921387,-4.864907741546631,-3.3278181552886963
1667266582315032000,0.521031982421875,7.409674644470215,-4.884049892425537,-3.3206396102905273
1667266582317430000,0.523429931640625,7.368996620178223,-4.862514495849609,-3.301496982574463
1667266582319827700,0.52582763671875,7.340282440185547,-4.845765113830566,-3.2919256687164307
1667266582322225700,0.5282255859375,7.333104133605957,-4.850550651550293,-3.253640651702881
1667266582324623400,0.530623291015625,7.395317554473877,-4.819443702697754,-3.224926710128784
1667266582327021300,0.533021240234375,7.505387306213379,-4.7931227684021,-3.193819999694824
1667266582329419000,0.5354189453125,7.642077445983887,-4.766502857208252,-3.1866414546966553
1667266582331816700,0.537816650390625,7.819146156311035,-4.7401814460754395,-3.1627132892608643
1667266582334214700,0.540214599609375,7.960322856903076,-4.728217601776123,-3.1483564376831055
1667266582336612400,0.5426123046875,8.077570915222168,-4.737788677215576,-3.1507492065429688
1667266582339010300,0.54501025390625,8.223832130432129,-4.735395908355713,-3.1579277515411377
1667266582341408000,0.547407958984375,8.355437278747559,-4.728217601776123,-3.160320520401001
1667266582343806000,0.549805908203125,8.489435195922852,-4.728217601776123,-3.1794631481170654
1667266582346203600,0.55220361328125,8.597112655639648,-4.709074974060059,-3.169891834259033
1667266582348601300,0.554601318359375,8.68325424194336,-4.694717884063721,-3.1435706615448
1667266582350999300,0.556999267578125,8.767302513122559,-4.692325115203857,-3.13639235496521
1667266582353397000,0.55939697265625,8.83669376373291,-4.701896667480469,-3.1339993476867676
1667266582355795000,0.561794921875,8.898907661437988,-4.692325115203857,-3.16749906539917
1667266582358192600,0.564192626953125,8.96112060546875,-4.692325115203857,-3.208176851272583
1667266582360590600,0.566590576171875,9.004191398620605,-4.716253280639648,-3.2177481651306152
1667266582362988300,0.56898828125,9.028120040893555,-4.730610370635986,-3.248854875564575
1667266582365386200,0.57138623046875,9.040083885192871,-4.730610370635986,-3.2919256687164307
1667266582367784000,0.573783935546875,9.040083885192871,-4.759324073791504,-3.339782238006592
1667266582370182000,0.576181884765625,9.018548965454102,-4.768895626068115,-3.3708889484405518
1667266582372579600,0.57857958984375,8.970691680908203,-4.788337230682373,-3.3924243450164795
1667266582374977300,0.580977294921875,8.944371223449707,-4.805087089538574,-3.428316593170166
1667266582377375200,0.583375244140625,8.896514892578125,-4.833800792694092,-3.442673683166504
1667266582379773000,0.58577294921875,8.82233715057373,-4.819443702697754,-3.4331023693084717
1667266582382171000,0.5881708984375,8.73619556427002,-4.812265396118164,-3.3996028900146484
1667266582384568600,0.590568603515625,8.633005142211914,-4.8074798583984375,-3.397209882736206
1667266582386966300,0.59296630859375,8.546863555908203,-4.819443702697754,-3.3948171138763428
1667266582389364200,0.5953642578125,8.458329200744629,-4.812265396118164,-3.380460262298584
1667266582391762000,0.597761962890625,8.353044509887695,-4.797908306121826,-3.3517463207244873
1667266582394159900,0.600159912109375,8.245368003845215,-4.768895626068115,-3.334996461868286
1667266582396557600,0.6025576171875,8.147261619567871,-4.761716842651367,-3.318246841430664
1667266582398955500,0.60495556640625,8.089534759521484,-4.742574691772461,-3.2895328998565674
1667266582401353200,0.607353271484375,8.034500122070312,-4.713860511779785,-3.246462106704712
1667266582403751000,0.6097509765625,8.003393173217773,-4.677968502044678,-3.2105698585510254
1667266582406148900,0.61214892578125,7.99382209777832,-4.6301116943359375,-3.1890344619750977
1667266582408546600,0.614546630859375,8.01057243347168,-4.589433670043945,-3.177070379257202
1667266582410944500,0.616944580078125,8.077570915222168,-4.553541660308838,-3.145963668823242
1667266582413342200,0.61934228515625,8.19511890411377,-4.48414945602417,-3.090928554534912
1667266582415740200,0.621740234375,8.329116821289062,-4.453042984008789,-3.0643084049224854
1667266582418137900,0.624137939453125,8.460721969604492,-4.395615100860596,-3.0236306190490723
1667266582420535600,0.62653564453125,8.570791244506836,-4.376472473144531,-3.006880760192871
1667266582422933500,0.62893359375,8.678468704223633,-4.371686935424805,-2.999702215194702
1667266582425331200,0.631331298828125,8.762516975402832,-4.3788652420043945,-3.037987470626831
1667266582427729200,0.633729248046875,8.831908226013184,-4.381258487701416,-3.0643084049224854
1667266582430126800,0.636126953125,8.86780071258545,-4.376472473144531,-3.0810582637786865
1667266582432524800,0.63852490234375,8.884550094604492,-4.383651256561279,-3.11246395111084
1667266582434922500,0.640922607421875,8.903693199157715,-4.400400638580322,-3.1268210411071777
1667266582437320400,0.643320556640625,8.894122123718262,-4.398007869720459,-3.169891834259033
1667266582439718100,0.64571826171875,8.884550094604492,-4.388436794281006,-3.2105698585510254
1667266582442116000,0.6481162109375,8.855836868286133,-4.400400638580322,-3.222533941268921
1667266582444513800,0.650513671875,8.834300994873047,-4.376472473144531,-3.239283561706543
1667266582446911500,0.652911376953125,8.817551612854004,-4.3549370765686035,-3.253640651702881
1667266582449309400,0.655309326171875,8.788837432861328,-4.340580463409424,-3.256033420562744
1667266582451707100,0.65770703125,8.752944946289062,-4.342973232269287,-3.2608189582824707
1667266582454105000,0.66010498046875,8.709874153137207,-4.292723655700684,-3.2727832794189453
1667266582456502800,0.662502685546875,8.63779067993164,-4.292723655700684,-3.279961585998535
1667266582458900700,0.664900634765625,8.609076499938965,-4.254438877105713,-3.2679975032806396
1667266582461298400,0.66729833984375,8.55882740020752,-4.2209391593933105,-3.2823543548583984
1667266582463696100,0.669696044921875,8.532505989074707,-4.184747695922852,-3.3062827587127686
1667266582466094000,0.672093994140625,8.52054214477539,-4.156033992767334,-3.311068296432495
1667266582468491800,0.67449169921875,8.530113220214844,-4.146462440490723,-3.2919256687164307
1667266582470889700,0.6768896484375,8.568398475646973,-4.120141506195068,-3.315854072570801
1667266582473287400,0.679287353515625,8.621041297912598,-4.1057844161987305,-3.349353551864624
1667266582475685400,0.681685302734375,8.664112091064453,-4.065106391906738,-3.373281717300415
1667266582478083000,0.6840830078125,8.695218086242676,-4.055535316467285,-3.3924243450164795
1667266582480480800,0.686480712890625,8.697610855102539,-4.041178226470947,-3.428316593170166
1667266582482878700,0.688878662109375,8.702695846557617,-4.038785457611084,-3.4378879070281982
1667266582485276400,0.6912763671875,8.702695846557617,-4.033999919891357,-3.4785659313201904
1667266582487674400,0.69367431640625,8.724231719970703,-4.069892406463623,-3.5096726417541504
1667266582490072000,0.696072021484375,8.745766639709473,-4.098606109619141,-3.552743434906006
1667266582492470000,0.698469970703125,8.776873588562012,-4.117748737335205,-3.5814573764801025
1667266582494867700,0.70086767578125,8.824729919433594,-4.144069671630859,-3.6197423934936523
1667266582497265400,0.703265380859375,8.882157325744629,-4.170390605926514,-3.6655051708221436
1667266582499663400,0.705663330078125,8.94676399230957,-4.218546390533447,-3.708575963973999
1667266582502061000,0.70806103515625,8.999405860900879,-4.264009952545166,-3.7755749225616455
1667266582504459000,0.710458984375,9.040083885192871,-4.319045066833496,-3.8210387229919434
1667266582506856700,0.712856689453125,9.075976371765137,-4.383651256561279,-3.840181350708008
1667266582509254700,0.715254638671875,9.133403778076172,-4.455435752868652,-3.8449668884277344
1667266582511652400,0.71765234375,9.207581520080566,-4.493721008300781,-3.8521454334259033
1667266582514050300,0.72005029296875,9.303593635559082,-4.517649173736572,-3.842574119567871
1667266582516448000,0.722447998046875,9.396913528442383,-4.551148891448975,-3.811467409133911
1667266582518845700,0.724845703125,9.50459098815918,-4.567898273468018,-3.7995033264160156
1667266582521243600,0.72724365234375,9.60508918762207,-4.59421968460083,-3.777967929840088
1667266582523641300,0.729641357421875,9.684052467346191,-4.603790760040283,-3.7540395259857178
1667266582526039300,0.732039306640625,9.76062297821045,-4.632504463195801,-3.73250412940979
1667266582528437000,0.73443701171875,9.839884757995605,-4.634897232055664,-3.7540395259857178
1667266582530835000,0.7368349609375,9.92124080657959,-4.649254322052002,-3.770789384841919
1667266582533232600,0.739232666015625,10.026525497436523,-4.67078971862793,-3.7923247814178467
1667266582535630300,0.74163037109375,10.143773078918457,-4.651647090911865,-3.8234314918518066
1667266582538028300,0.7440283203125,10.28734302520752,-4.6540398597717285,-3.849752426147461
1667266582540426000,0.746426025390625,10.450353622436523,-4.639683246612549,-3.864109516143799
1667266582542824000,0.748823974609375,10.584351539611816,-4.622933387756348,-3.9000017642974854
1667266582545221600,0.7512216796875,10.69681453704834,-4.634897232055664,-3.967000722885132
1667266582547619600,0.75361962890625,10.770992279052734,-4.656432628631592,-4.0435709953308105
1667266582550017300,0.756017333984375,10.861919403076172,-4.697110652923584,-4.141676902770996
1667266582552415000,0.7584150390625,10.943573951721191,-4.713860511779785,-4.237689018249512
1667266582554813000,0.76081298828125,10.979466438293457,-4.761716842651367,-4.333401679992676
1667266582557210600,0.763210693359375,10.993824005126953,-4.812265396118164,-4.4410786628723145
1667266582559608600,0.765608642578125,11.027322769165039,-4.886443138122559,-4.584648132324219
1667266582562006300,0.76800634765625,11.010573387145996,-4.955834865570068,-4.72582483291626
1667266582564404200,0.770404296875,10.97468090057373,-5.077868938446045,-4.862514495849609
1667266582566802000,0.772802001953125,10.926525115966797,-5.164010524749756,-4.991727352142334
1667266582569199600,0.77519970703125,10.881061553955078,-5.24536657333374,-5.152046203613281
1667266582571597600,0.77759765625,10.852348327636719,-5.343770980834961,-5.2645087242126465
1667266582573995300,0.779995361328125,10.840383529663086,-5.446662425994873,-5.358128070831299
1667266582576393200,0.782393310546875,10.857133865356445,-5.532804012298584,-5.439484119415283
1667266582578791000,0.784791015625,10.861919403076172,-5.5830535888671875,-5.523232936859131
1667266582581188900,0.78718896484375,10.878668785095215,-5.645267009735107,-5.587839126586914
1667266582583586600,0.789586669921875,10.919346809387207,-5.676373481750488,-5.633302688598633
1667266582585984500,0.791984619140625,10.969895362854004,-5.707480430603027,-5.700301647186279
1667266582588382200,0.79438232421875,11.024930000305176,-5.736194133758545,-5.729015827178955
1667266582590780200,0.7967802734375,11.11346435546875,-5.805585861206055,-5.776872158050537
1667266582593177900,0.799177734375,11.213963508605957,-5.872584819793701,-5.831906795501709
1667266582595575600,0.801575439453125,11.288141250610352,-5.951847076416016,-5.865406513214111
1667266582597973500,0.803973388671875,11.386246681213379,-6.045167446136475,-5.90877628326416
1667266582600371200,0.80637109375,11.47956657409668,-6.155237197875977,-5.935097694396973
1667266582602769200,0.80876904296875,11.570793151855469,-6.28205680847168,-5.944668769836426
1667266582605166800,0.811166748046875,11.673684120178223,-6.396912097930908,-5.939883232116699
1667266582607564800,0.813564697265625,11.7957181930542,-6.49770975112915,-5.911169052124023
1667266582609962500,0.81596240234375,11.917752265930176,-6.591030120849609,-5.870192050933838
1667266582612360200,0.818360107421875,12.049357414245605,-6.679564476013184,-5.824728488922119
1667266582614758100,0.820758056640625,12.193225860595703,-6.732206344604492,-5.752943992614746
1667266582617155800,0.82315576171875,12.30808162689209,-6.780063152313232,-5.635695457458496
1667266582619553800,0.8255537109375,12.420543670654297,-6.799205780029297,-5.511268615722656
1667266582621951500,0.827951416015625,12.54018497467041,-6.81595516204834,-5.379663467407227
1667266582624349400,0.830349365234375,12.633804321289062,-6.806384086608887,-5.223830699920654
1667266582626747100,0.8327470703125,12.767802238464355,-6.775277137756348,-5.051547527313232
1667266582629144800,0.835144775390625,12.887443542480469,-6.744170665740967,-4.924727916717529
1667266582631542800,0.837542724609375,13.040584564208984,-6.715456962585449,-4.809872627258301
1667266582633940500,0.8399404296875,13.167404174804688,-6.713063716888428,-4.718646049499512
1667266582636338400,0.84233837890625,13.301701545715332,-6.727420806884766,-4.649254322052002
1667266582638736100,0.844736083984375,13.430913925170898,-6.725028038024902,-4.570291042327881
1667266582641134000,0.847134033203125,13.552947044372559,-6.7345991134643555,-4.529613494873047
1667266582643531800,0.84953173828125,13.658231735229492,-6.725028038024902,-4.515256404876709
1667266582645929700,0.8519296875,13.77817153930664,-6.729813575744629,-4.500899314880371
1667266582648327400,0.854327392578125,13.893027305603027,-6.73938512802124,-4.510470867156982
1667266582650725000,0.85672509765625,14.048561096191406,-6.770491600036621,-4.524827480316162
1667266582653123000,0.859123046875,14.199308395385742,-6.794419765472412,-4.541577339172363
1667266582655520800,0.861520751953125,14.32882022857666,-6.818347930908203,-4.577469825744629
1667266582657918700,0.863918701171875,14.462818145751953,-6.854240417480469,-4.6301116943359375
1667266582660316400,0.86631640625,14.556138038635254,-6.880561351776123,-4.66361141204834
1667266582662714400,0.86871435546875,14.644672393798828,-6.930810928344727,-4.67078971862793
1667266582665112000,0.871112060546875,14.68535041809082,-6.957131862640381,-4.680361270904541
1667266582667509800,0.873509765625,14.71645736694336,-6.997809886932373,-4.687539577484131
1667266582669907700,0.87590771484375,14.70210075378418,-7.057929515838623,-4.673182487487793
1667266582672305400,0.878305419921875,14.68535041809082,-7.086643218994141,-4.642076015472412
1667266582674703400,0.880703369140625,14.632708549499512,-7.132106781005859,-4.632504463195801
1667266582677101000,0.88310107421875,14.55374526977539,-7.182356357574463,-4.613361835479736
1667266582679499000,0.8854990234375,14.465210914611816,-7.239784240722656,-4.591826438903809
1667266582681896700,0.887896728515625,14.355141639709473,-7.299604415893555,-4.543970108032227
1667266582684294400,0.89029443359375,14.218451499938965,-7.357032299041748,-4.493721008300781
1667266582686692400,0.8926923828125,14.105988502502441,-7.385746002197266,-4.460221290588379
1667266582689090000,0.895090087890625,13.986347198486328,-7.364210605621338,-4.393222332000732
1667266582691488000,0.897488037109375,13.871492385864258,-7.323532581329346,-4.350151538848877
1667266582693885700,0.8998857421875,13.746766090393066,-7.299604415893555,-4.278367042541504
1667266582696283600,0.90228369140625,13.63191032409668,-7.227819919586182,-4.1991047859191895
1667266582698681300,0.904681396484375,13.567304611206055,-7.156035423278809,-4.124927043914795
1667266582701079000,0.9070791015625,13.509876251220703,-7.081857681274414,-4.0196428298950195
1667266582703477000,0.90947705078125,13.466805458068848,-6.973881721496582,-3.945465326309204
1667266582705874700,0.911874755859375,13.442877769470215,-6.87099027633667,-3.8784663677215576
1667266582708272600,0.914272705078125,13.421341896057129,-6.763313293457031,-3.804288864135742
1667266582710670300,0.91667041015625,13.428520202636719,-6.686742782592773,-3.7899320125579834
1667266582713068300,0.919068359375,13.466805458068848,-6.6245293617248535,-3.780360698699951
1667266582715466000,0.921466064453125,13.49312686920166,-6.569494724273682,-3.7995033264160156
1667266582717864000,0.923864013671875,13.538590431213379,-6.504888534545898,-3.8473596572875977
1667266582720261600,0.92626171875,13.60319709777832,-6.461817741394043,-3.9311084747314453
1667266582722659600,0.92865966796875,13.706088066101074,-6.451947212219238,-4.029214382171631
1667266582725057300,0.931057373046875,13.81645679473877,-6.451947212219238,-4.120141506195068
1667266582727455000,0.933455078125,13.979168891906738,-6.461817741394043,-4.208974838256836
1667266582729853000,0.93585302734375,14.149059295654297,-6.464210510253906,-4.244867324829102
1667266582732250600,0.938250732421875,14.304593086242676,-6.485745906829834,-4.280759811401367
1667266582734648600,0.940648681640625,14.465210914611816,-6.507281303405762,-4.299902439117432
1667266582737046300,0.94304638671875,14.651851654052734,-6.547959327697754,-4.333401679992676
1667266582739444200,0.9454443359375,14.838491439819336,-6.591030120849609,-4.3788652420043945
1667266582741842000,0.947842041015625,15.00150203704834,-6.655636310577393,-4.429114818572998
1667266582744239600,0.950239501953125,15.166606903076172,-6.725028038024902,-4.47697114944458
1667266582746637600,0.952637451171875,15.298212051391602,-6.818347930908203,-4.488935470581055
1667266582749035300,0.95503515625,15.413067817687988,-6.916453838348389,-4.5391845703125
1667266582751433200,0.95743310546875,15.542579650878906,-7.007380962371826,-4.560719966888428
1667266582753831000,0.959830810546875,15.683755874633789,-7.096214771270752,-4.563112735748291
1667266582756228900,0.962228759765625,15.836896896362305,-7.196712970733643,-4.560719966888428
1667266582758626600,0.96462646484375,15.966109275817871,-7.249355316162109,-4.541577339172363
1667266582761024300,0.967024169921875,16.119548797607422,-7.323532581329346,-4.505684852600098
1667266582763422200,0.969422119140625,16.25354766845703,-7.378567695617676,-4.467400074005127
1667266582765820000,0.97181982421875,16.392330169677734,-7.426424026489258,-4.409972190856934
1667266582768217900,0.9742177734375,16.51436424255371,-7.46710205078125,-4.309473514556885
1667266582770615600,0.976615478515625,16.63430404663086,-7.502994537353516,-4.242474555969238
1667266582773013500,0.979013427734375,16.72044563293457,-7.5412797927856445,-4.194318771362305
1667266582775411200,0.9814111328125,16.785053253173828,-7.572386264801025,-4.148855209350586
1667266582777809200,0.98380908203125,16.811372756958008,-7.6253275871276855,-4.103391647338867
1667266582780206800,0.986206787109375,16.820945739746094,-7.677969455718994,-4.091427803039551
1667266582782604800,0.988604736328125,16.82333755493164,-7.725826263427734,-4.117748737335205
1667266582785002500,0.99100244140625,16.763517379760742,-7.780860900878906,-4.110570430755615
1667266582787400200,0.993400146484375,16.67498207092285,-7.840681552886963,-4.117748737335205
1667266582789798100,0.995798095703125,16.543079376220703,-7.8693952560424805,-4.1129631996154785
1667266582792195800,0.99819580078125,16.409080505371094,-7.888537883758545,-4.127319812774658
1667266582794593800,1.00059375,16.260725021362305,-7.910073280334473,-4.1368913650512695
1667266582796991500,1.002991455078125,16.119548797607422,-7.922037601470947,-4.134498596191406
1667266582799389400,1.005389404296875,15.985251426696777,-7.922037601470947,-4.148855209350586
1667266582801787100,1.007787109375,15.829718589782715,-7.9244303703308105,-4.177569389343262
1667266582804184800,1.010184814453125,15.659828186035156,-7.912466049194336,-4.218546390533447
1667266582806582800,1.012582763671875,15.492330551147461,-7.895716667175293,-4.244867324829102
1667266582808980500,1.01498046875,15.326926231384277,-7.8765740394592285,-4.297509670257568
1667266582811378400,1.01737841796875,15.161821365356445,-7.8382887840271,-4.326223373413086
1667266582813776100,1.019776123046875,14.958431243896484,-7.823931694030762,-4.328616142272949
1667266582816173800,1.022173828125,14.740386009216309,-7.788039684295654,-4.328616142272949
1667266582818571800,1.02457177734375,14.517852783203125,-7.742575645446777,-4.323830604553223
1667266582820969500,1.026969482421875,14.302200317382812,-7.70668363571167,-4.311866283416748
1667266582823367400,1.029367431640625,14.05813217163086,-7.668398380279541,-4.311866283416748
1667266582825765000,1.03176513671875,13.790136337280273,-7.64447021484375,-4.29033088684082
1667266582828163000,1.0341630859375,13.50748348236084,-7.6013994216918945,-4.240081787109375
1667266582830560800,1.036560791015625,13.23709487915039,-7.567600727081299,-4.194318771362305
1667266582832958700,1.038958740234375,12.96640682220459,-7.543672561645508,-4.163212299346924
1667266582835356400,1.0413564453125,12.686446189880371,-7.5101728439331055,-4.141676902770996
1667266582837754400,1.04375439453125,12.442079544067383,-7.4862446784973145,-4.098606109619141
1667266582840152000,1.046152099609375,12.257832527160645,-7.440781116485596,-4.0435709953308105
1667266582842549800,1.0485498046875,12.135798454284668,-7.345067977905273,-4.000500202178955
1667266582844947700,1.05094775390625,12.104691505432129,-7.175177574157715,-3.9335012435913086
1667266582847345400,1.053345458984375,12.181262016296387,-7.019644260406494,-3.8688950538635254
1667266582849743400,1.055743408203125,12.29372501373291,-6.880561351776123,-3.780360698699951
1667266582852141000,1.05814111328125,12.482757568359375,-6.7345991134643555,-3.6798620223999023
1667266582854539000,1.0605390625,12.676875114440918,-6.595815658569336,-3.576671600341797
1667266582856936700,1.062936767578125,12.880265235900879,-6.4666032791137695,-3.4474592208862305
1667266582859334400,1.06533447265625,13.095619201660156,-6.339484691619873,-3.3517463207244873
1667266582861732400,1.067732421875,13.301701545715332,-6.253343105316162,-3.2751760482788086
1667266582864130000,1.070130126953125,13.509876251220703,-6.181558132171631,-3.253640651702881
1667266582866528000,1.072528076171875,13.677373886108398,-6.15045166015625,-3.2297122478485107
1667266582868925700,1.07492578125,13.811671257019043,-6.15045166015625,-3.2416765689849854
1667266582871323600,1.07732373046875,13.8882417678833,-6.16480827331543,-3.2584261894226074
1667266582873721300,1.079721435546875,13.931312561035156,-6.167201042175293,-3.3134610652923584
1667266582876119000,1.082119140625,13.957633972167969,-6.195915222167969,-3.366103172302246
1667266582878517000,1.08451708984375,13.9480619430542,-6.2174506187438965,-3.4307093620300293
1667266582880914700,1.086914794921875,13.893027305603027,-6.250949859619141,-3.4857444763183594
1667266582883312600,1.089312744140625,13.785350799560547,-6.28205680847168,-3.555136203765869
1667266582885710300,1.09171044921875,13.627124786376953,-6.315556049346924,-3.6053855419158936
1667266582888108300,1.0941083984375,13.457234382629395,-6.329913139343262,-3.6364922523498535
1667266582890506000,1.096506103515625,13.239487648010254,-6.380162239074707,-3.653541088104248
1667266582892904000,1.098904052734375,13.038191795349121,-6.389733791351318,-3.6559338569641113
1667266582895301600,1.101301513671875,12.851551055908203,-6.377769470214844,-3.667897939682007
1667266582897699600,1.103699462890625,12.626626014709473,-6.339484691619873,-3.6511483192443848
1667266582900097300,1.10609716796875,12.384652137756348,-6.310770511627197,-3.631706476211548
1667266582902495000,1.108494873046875,12.128620147705078,-6.27487850189209,-3.617349624633789
1667266582904893000,1.110892822265625,11.869895935058594,-6.243771553039551,-3.583850145339966
1667266582907290600,1.11329052734375,11.601900100708008,-6.21266508102417,-3.5479576587677
1667266582909688600,1.1156884765625,11.328819274902344,-6.181558132171631,-3.524029493331909
1667266582912086300,1.118086181640625,11.058429718017578,-6.15045166015625,-3.5024940967559814
1667266582914484200,1.120484130859375,10.818848609924316,-6.090631008148193,-3.4642090797424316
1667266582916882000,1.1228818359375,10.591530799865723,-6.049952983856201,-3.428316593170166
1667266582919279600,1.125279541015625,10.392926216125488,-6.0140604972839355,-3.3924243450164795
1667266582921677600,1.127677490234375,10.222736358642578,-5.944668769836426,-3.4139597415924072
1667266582924075300,1.1300751953125,10.074381828308105,-5.927918910980225,-3.442673683166504
1667266582926473200,1.13247314453125,9.92124080657959,-5.8821563720703125,-3.445066452026367
1667266582928871000,1.134870849609375,9.803693771362305,-5.836692810058594,-3.4259238243103027
1667266582931268900,1.137268798828125,9.700801849365234,-5.7649078369140625,-3.397209882736206
1667266582933666600,1.13966650390625,9.595518112182617,-5.702694416046143,-3.3206396102905273
1667266582936064500,1.142064453125,9.502198219299316,-5.652445316314697,-3.2344980239868164
1667266582938462200,1.144462158203125,9.456734657287598,-5.542375564575195,-3.153141975402832
1667266582940860000,1.14685986328125,9.444769859313965,-5.4179487228393555,-3.0643084049224854
1667266582943257900,1.1492578125,9.49501895904541,-5.2645087242126465,-2.9877381324768066
1667266582945655600,1.151655517578125,9.550054550170898,-5.125725269317627,-2.9159533977508545
1667266582948053500,1.154053466796875,9.576375007629395,-4.970191955566406,-2.8202404975891113
1667266582950451200,1.156451171875,9.648159980773926,-4.843372344970703,-2.755634307861328
1667266582952849200,1.15884912109375,9.686445236206055,-4.711467742919922,-2.700599431991577
1667266582955246800,1.161246826171875,9.72951602935791,-4.615755081176758,-2.6551358699798584
1667266582957644800,1.163644775390625,9.758230209350586,-4.5391845703125,-2.6503500938415527
1667266582960042500,1.16604248046875,9.755837440490723,-4.584648132324219,-2.755634307861328
1667266582962440200,1.168440185546875,9.691230773925781,-4.567898273468018,-2.7963123321533203
1667266582964838100,1.170838134765625,9.585947036743164,-4.493721008300781,-2.7987051010131836
1667266582967235800,1.17323583984375,9.428020477294922,-4.4243292808532715,-2.808276414871216
1667266582969633800,1.1756337890625,9.260522842407227,-4.362115859985352,-2.839383125305176
1667266582972031500,1.178031494140625,9.078369140625,-4.297509670257568,-2.8680970668792725
1667266582974429400,1.180429443359375,8.910871505737305,-4.225724697113037,-2.9063823223114014
1667266582976827100,1.1828271484375,8.738588333129883,-4.1368913650512695,-2.966202735900879
1667266582979224800,1.185224853515625,8.604290962219238,-4.069892406463623,-3.054737091064453
1667266582981622800,1.187622802734375,8.429615020751953,-4.024428367614746,-3.1172497272491455
1667266582984020500,1.1900205078125,8.252546310424805,-3.952643871307373,-3.1244282722473145
1667266582986418400,1.19241845703125,8.099106788635254,-3.921537160873413,-3.1100711822509766
1667266582988816100,1.194816162109375,7.967501163482666,-3.9263229370117188,-3.239283561706543
1667266582991214000,1.197214111328125,7.8454670906066895,-3.9143588542938232,-3.4019956588745117
1667266582993611800,1.19961181640625,7.747361660003662,-3.9167516231536865,-3.538386583328247
1667266582996009500,1.202009521484375,7.656434059143066,-3.91914439201355,-3.675076484680176
1667266582998407400,1.204407470703125,7.58943510055542,-3.8928234577178955,-3.777967929840088
1667266583000805400,1.206805419921875,7.531708240509033,-3.897608995437622,-3.9000017642974854
1667266583003203000,1.209203125,7.445566654205322,-3.8712878227233887,-3.9933218955993652
1667266583005600800,1.211600830078125,7.340282440185547,-3.864109516143799,-4.086641788482666
1667266583007998700,1.213998779296875,7.246962547302246,-3.8545382022857666,-4.1608195304870605
1667266583010396400,1.216396484375,7.141678333282471,-3.840181350708008,-4.201497554779053
1667266583012794400,1.21879443359375,7.014858722686768,-3.8162529468536377,-4.218546390533447
1667266583015192000,1.221192138671875,6.8757758140563965,-3.79471755027771,-4.213760852813721
1667266583017589800,1.22358984375,6.727420806884766,-3.7420754432678223,-4.1608195304870605
1667266583019987700,1.22598779296875,6.593422889709473,-3.7277185916900635,-4.098606109619141
1667266583022385400,1.228385498046875,6.4594244956970215,-3.6942191123962402,-4.026821613311768
1667266583024783400,1.230783447265625,6.349055767059326,-3.6559338569641113,-3.9478583335876465
1667266583027181000,1.23318115234375,6.236593246459961,-3.631706476211548,-3.8784663677215576
1667266583029579000,1.2355791015625,6.121737480163574,-3.6053855419158936,-3.7731821537017822
1667266583031976700,1.237976806640625,6.071488380432129,-3.5431721210479736,-3.667897939682007
1667266583034374400,1.24037451171875,6.066702842712402,-3.5168511867523193,-3.5503506660461426
1667266583036772400,1.2427724609375,6.064310073852539,-3.497708559036255,-3.435495138168335
1667266583039170000,1.245170166015625,6.071488380432129,-3.466601848602295,-3.325425386428833
1667266583041568000,1.247568115234375,6.097809314727783,-3.4331023693084717,-3.208176851272583
1667266583043965700,1.249965576171875,6.1313090324401855,-3.3924243450164795,-3.0571300983428955
1667266583046363600,1.25236376953125,6.176772594451904,-3.3541390895843506,-2.8992037773132324
1667266583048761300,1.25476123046875,6.2653069496154785,-3.3062827587127686,-2.714956283569336
1667266583051159300,1.2571591796875,6.377769470214844,-3.301496982574463,-2.5953152179718018
1667266583053557000,1.259556884765625,6.485745906829834,-3.318246841430664,-2.434697151184082
1667266583055955000,1.261954833984375,6.605386734008789,-3.3206396102905273,-2.286342144012451
1667266583058352600,1.2643525390625,6.729813575744629,-3.3302109241485596,-2.1164517402648926
1667266583060750300,1.266750244140625,6.839883327484131,-3.366103172302246,-1.9680966138839722
1667266583063148300,1.269148193359375,6.8997039794921875,-3.387638568878174,-1.843370795249939
1667266583065546000,1.2715458984375,6.978667259216309,-3.3948171138763428,-1.7045869827270508
1667266583067944000,1.27394384765625,7.022037029266357,-3.397209882736206,-1.5825530290603638
1667266583070341600,1.276341552734375,7.072286605834961,-3.4067811965942383,-1.474876046180725
1667266583072739600,1.278739501953125,7.139285564422607,-3.4067811965942383,-1.3932210206985474
1667266583075137300,1.28113720703125,7.206284523010254,-3.4235310554504395,-1.3094722032546997
1667266583077535000,1.283534912109375,7.2421770095825195,-3.4785659313201904,-1.2544373273849487
1667266583079933000,1.285932861328125,7.244569778442383,-3.4857444763183594,-1.220937728881836
1667266583082330600,1.28833056640625,7.263712406158447,-3.5096726417541504,-1.2113664150238037
1667266583084728600,1.290728515625,7.268497943878174,-3.5336008071899414,-1.2472587823867798
1667266583087126300,1.293126220703125,7.2661051750183105,-3.5886356830596924,-1.2831511497497559
1667266583089524200,1.295524169921875,7.263712406158447,-3.631706476211548,-1.3381860256195068
1667266583091922000,1.297921875,7.261319637298584,-3.6798620223999023,-1.3860424757003784
1667266583094319900,1.30031982421875,7.230212688446045,-3.749253988265991,-1.4318052530288696
1667266583096717600,1.302717529296875,7.220641613006592,-3.7995033264160156,-1.4413765668869019
1667266583099115300,1.305115234375,7.2110700607299805,-3.8760735988616943,-1.450947880744934
1667266583101513200,1.30751318359375,7.189534664154053,-3.9335012435913086,-1.4413765668869019
1667266583103911000,1.309910888671875,7.1799635887146,-3.9813578128814697,-1.4365909099578857
1667266583106308900,1.312308837890625,7.191927433013916,-4.017250061035156,-1.438983678817749
1667266583108706600,1.31470654296875,7.2182488441467285,-4.007678985595703,-1.4605190753936768
1667266583111104500,1.3171044921875,7.215855598449707,-3.9933218955993652,-1.5035899877548218
1667266583113502200,1.319502197265625,7.203891754150391,-3.998107433319092,-1.529910922050476
1667266583115900200,1.321900146484375,7.163213729858398,-3.9622151851654053,-1.5490535497665405
1667266583118297900,1.3242978515625,7.115357398986816,-3.911965847015381,-1.568196177482605
1667266583120695600,1.326695556640625,7.050751209259033,-3.866502285003662,-1.592124342918396
1667266583123093500,1.329093505859375,6.976274490356445,-3.8377883434295654,-1.596909999847412
1667266583125491200,1.3314912109375,6.882954120635986,-3.79471755027771,-1.6375880241394043
1667266583127889200,1.33388916015625,6.80877685546875,-3.7516467571258545,-1.6710875034332275
1667266583130286800,1.336286865234375,6.751348972320557,-3.699004650115967,-1.690230131149292
1667266583132684800,1.338684814453125,6.689135551452637,-3.638885021209717,-1.7069798707962036
1667266583135082500,1.34108251953125,6.62931489944458,-3.5814573764801025,-1.7404793500900269
1667266583137480200,1.343480224609375,6.581458568572998,-3.5407793521881104,-1.7644076347351074
1667266583139878100,1.345878173828125,6.550352096557617,-3.4857444763183594,-1.7835501432418823
1667266583142275800,1.34827587890625,6.507281303405762,-3.4235310554504395,-1.77397882938385
1667266583144673800,1.350673828125,6.492924213409424,-3.3780672550201416,-1.7596219778060913
1667266583147071500,1.353071533203125,6.500102519989014,-3.3062827587127686,-1.7117655277252197
1667266583149469400,1.355469482421875,6.5288166999816895,-3.248854875564575,-1.6399807929992676
1667266583151867100,1.3578671875,6.5527448654174805,-3.16749906539917,-1.55623197555542
1667266583154265000,1.36026513671875,6.591030120849609,-3.0475587844848633,-1.470090389251709
1667266583156662800,1.362662841796875,6.631708145141602,-2.944667339324951,-1.3381860256195068
1667266583159060700,1.365060791015625,6.650850772857666,-2.8369903564453125,-1.220937728881836
1667266583161458400,1.36745849609375,6.68435001373291,-2.6958138942718506,-1.1012966632843018
1667266583163856100,1.369856201171875,6.696314334869385,-2.5761725902557373,-0.9529415965080261
1667266583166254000,1.372254150390625,6.713063716888428,-2.4562325477600098,-0.8428717851638794
1667266583168651800,1.37465185546875,6.732206344604492,-2.355733871459961,-0.7372884750366211
1667266583171049700,1.3770498046875,6.75374174118042,-2.2743778228759766,-0.6176473498344421
1667266583173447400,1.379447509765625,6.770491600036621,-2.1954147815704346,-0.5171487927436829
1667266583175845400,1.381845458984375,6.811169624328613,-2.1260228157043457,-0.4381856322288513
1667266583178243000,1.3842431640625,6.825526714324951,-2.0542383193969727,-0.37836506962776184
1667266583180640800,1.386640869140625,6.842276573181152,-1.9824535846710205,-0.35443684458732605
1667266583183038700,1.389038818359375,6.849454879760742,-1.922333836555481,-0.3209373354911804
1667266583185436400,1.3914365234375,6.847062110900879,-1.8625133037567139,-0.3496512174606323
1667266583187834400,1.39383447265625,6.849454879760742,-1.8194425106048584,-0.4046861231327057
1667266583190232000,1.396232177734375,6.823133945465088,-1.8194425106048584,-0.4692923426628113
1667266583192630000,1.398630126953125,6.763313293457031,-1.8290138244628906,-0.5362913608551025
1667266583195027700,1.40102783203125,6.701099872589111,-1.8768702745437622,-0.6415755748748779
1667266583197425400,1.40342529296875,6.674778938293457,-1.8936200141906738,-0.7157530784606934
1667266583199823400,1.4058232421875,6.631708145141602,-1.9319051504135132,-0.766002357006073
1667266583202221000,1.408220947265625,6.641279220581055,-1.953440546989441,-0.8186444640159607
1667266583204619000,1.410618896484375,6.674778938293457,-1.9558334350585938,-0.8955138921737671
1667266583207016700,1.4130166015625,6.725028038024902,-1.958226203918457,-0.9409775137901306
1667266583209414700,1.41541455078125,6.748956203460693,-1.9366908073425293,-0.97926265001297
1667266583211812400,1.417812255859375,6.806384086608887,-1.9079769849777222,-1.0295119285583496
1667266583214210300,1.420210205078125,6.856633186340332,-1.8816559314727783,-1.0606186389923096
1667266583216608000,1.42260791015625,6.897311210632324,-1.8768702745437622,-1.0965110063552856
1667266583219005700,1.425005615234375,6.926024913787842,-1.8888343572616577,-1.0869396924972534
1667266583221403600,1.427403564453125,6.942774772644043,-1.8768702745437622,-1.0534402132034302
1667266583223801300,1.42980126953125,6.964310169219971,-1.8529419898986816,-1.0390832424163818
1667266583226199300,1.43219921875,6.978667259216309,-1.8601205348968506,-0.9768698215484619
1667266583228597000,1.434596923828125,6.978667259216309,-1.8337994813919067,-0.9002995491027832
1667266583230995000,1.436994873046875,6.985845565795898,-1.8098711967468262,-0.8090731501579285
1667266583233392600,1.439392578125,6.985845565795898,-1.7668004035949707,-0.7157530784606934
1667266583235790300,1.441790283203125,6.957131862640381,-1.7189439535140991,-0.6272186636924744
1667266583238188300,1.444188232421875,6.911668300628662,-1.6639090776443481,-0.5554339289665222
1667266583240586000,1.4465859375,6.847062110900879,-1.5634105205535889,-0.49322056770324707
1667266583242984000,1.44898388671875,6.775277137756348,-1.477268934249878,-0.4812564551830292
1667266583245381600,1.451381591796875,6.7178497314453125,-1.3764712810516357,-0.47168517112731934
1667266583247779600,1.453779541015625,6.669992923736572,-1.280758261680603,-0.45254257321357727
1667266583250177300,1.45617724609375,6.631708145141602,-1.197009563446045,-0.4405784606933594
1667266583252575200,1.4585751953125,6.583851337432861,-1.1276177167892456,-0.4668995141983032
1667266583254973000,1.460972900390625,6.555137634277344,-1.072582721710205,-0.5027918815612793
1667266583257371000,1.463370849609375,6.4905314445495605,-1.0055837631225586,-0.579362154006958
1667266583259768600,1.4657685546875,6.413661956787109,-0.9888339638710022,-0.6559324860572815
1667266583262166300,1.468166259765625,6.353841304779053,-1.0079765319824219,-0.7109674215316772
1667266583264564200,1.470564208984375,6.270092487335205,-1.0199406147003174,-0.8018946647644043
1667266583266962000,1.4729619140625,6.176772594451904,-1.043868899345398,-0.893121063709259
1667266583269359900,1.47535986328125,6.078666687011719,-1.0582258701324463,-1.0055837631225586
1667266583271757600,1.477757568359375,5.992525100708008,-1.0821540355682373,-1.1012966632843018
1667266583274155500,1.480155517578125,5.8749775886535645,-1.0917253494262695,-1.1994023323059082
1667266583276553200,1.48255322265625,5.776872158050537,-1.1060823202133179,-1.2903295755386353
1667266583278951000,1.484950927734375,5.6859450340271,-1.1180464029312134,-1.4003994464874268
1667266583281348900,1.487348876953125,5.580660820007324,-1.1252248287200928,-1.4964114427566528
1667266583283746600,1.48974658203125,5.501697540283203,-1.1060823202133179,-1.5753746032714844
1667266583286144500,1.49214453125,5.403591632843018,-1.0773683786392212,-1.6639090776443481
1667266583288542200,1.494542236328125,5.31475830078125,-1.0295119285583496,-1.7309080362319946
1667266583290940200,1.496940185546875,5.238187789916992,-0.9433703422546387,-1.77397882938385
1667266583293337900,1.499337890625,5.166403293609619,-0.8476574420928955,-1.7835501432418823
1667266583295735800,1.50173583984375,5.137689113616943,-0.7277171611785889,-1.776371717453003
1667266583298133500,1.504133544921875,5.087440013885498,-0.6032904386520386,-1.750050663948059
1667266583300531200,1.50653125,5.030012130737305,-0.45254257321357727,-1.6974085569381714
1667266583302929200,1.50892919921875,4.9725847244262695,-0.31854450702667236,-1.6351951360702515
1667266583305326800,1.511326904296875,4.886443138122559,-0.17706887423992157,-1.5466607809066772
1667266583307724800,1.513724853515625,4.800301551818848,-0.04307080805301666,-1.446162223815918
1667266583310122500,1.51612255859375,4.730610370635986,0.10289137065410614,-1.3334003686904907
1667266583312520400,1.5185205078125,4.658825874328613,0.22013968229293823,-1.1922239065170288
1667266583314918100,1.520918212890625,4.572684288024902,0.3520440459251404,-1.0510473251342773
1667266583317316000,1.523316162109375,4.4961137771606445,0.46450668573379517,-0.893121063709259
1667266583319713800,1.5257138671875,4.419543266296387,0.5673980712890625,-0.7707880139350891
1667266583322111500,1.528111572265625,4.340580463409424,0.6511468887329102,-0.6822535395622253
1667266583324509400,1.530509521484375,4.264009952545166,0.7181459069252014,-0.5865406394004822
1667266583326907100,1.5329072265625,4.151247978210449,0.7444669604301453,-0.524327278137207
1667266583329305000,1.53530517578125,4.053142547607422,0.7923234105110168,-0.5003990530967712
1667266583331702800,1.537702880859375,3.9311084747314453,0.8138588070869446,-0.4980062246322632
1667266583334100700,1.540100830078125,3.8066816329956055,0.8138588070869446,-0.5362913608551025
1667266583336498400,1.54249853515625,3.6870405673980713,0.7803592681884766,-0.5721837282180786
1667266583338896100,1.544896240234375,3.552743434906006,0.732502818107605,-0.6343970894813538
1667266583341294000,1.547294189453125,3.4378879070281982,0.6918248534202576,-0.6966105103492737
1667266583343691800,1.54969189453125,3.303889751434326,0.6535396575927734,-0.7516453862190247
1667266583346089700,1.55208984375,3.169891834259033,0.6152545213699341,-0.8066803216934204
1667266583348487400,1.5544873046875,3.0643084049224854,0.6032904386520386,-0.8644071817398071
1667266583350885400,1.556885498046875,2.9949166774749756,0.5745765566825867,-0.9433703422546387
1667266583353283000,1.559282958984375,2.9015965461730957,0.5554339289665222,-1.0151549577713013
1667266583355681000,1.561680908203125,2.834597587585449,0.5530411601066589,-1.0773683786392212
1667266583358078700,1.56407861328125,2.793919563293457,0.5530411601066589,-1.1276177167892456
1667266583360476700,1.5664765625,2.7364916801452637,0.5769693851470947,-1.1754741668701172
1667266583362874400,1.568874267578125,2.7125635147094727,0.5889334678649902,-1.2233306169509888
1667266583365272000,1.57127197265625,2.693420886993408,0.6272186636924744,-1.2376874685287476
1667266583367670000,1.573669921875,2.6718854904174805,0.6631109714508057,-1.2472587823867798
1667266583370067700,1.576067626953125,2.6575286388397217,0.7037889361381531,-1.2137593030929565
1667266583372465700,1.578465576171875,2.645564556121826,0.7851449251174927,-1.1730812788009644
1667266583374863400,1.58086328125,2.6503500938415527,0.8524430394172668,-1.0965110063552856
1667266583377261300,1.58326123046875,2.6503500938415527,0.9409775137901306,-1.0342975854873657
1667266583379659000,1.585658935546875,2.667099952697754,1.0462616682052612,-0.9361918568611145
1667266583382056700,1.588056640625,2.691028118133545,1.1515458822250366,-0.8162516355514526
1667266583384454700,1.59045458984375,2.6862425804138184,1.2472587823867798,-0.6607181429862976
1667266583386852400,1.592852294921875,2.674278497695923,1.378864049911499,-0.490827739238739
1667266583389250300,1.595250244140625,2.6336004734039307,1.5131611824035645,-0.37118661403656006
1667266583391648000,1.59764794921875,2.5953152179718018,1.6016956567764282,-0.22492532432079315
1667266583394046000,1.6000458984375,2.5450658798217773,1.7069798707962036,-0.07417750358581543
1667266583396443600,1.602443603515625,2.496910333633423,1.7883358001708984,0.031106693670153618
1667266583398841300,1.60484130859375,2.4705893993377686,1.8577276468276978,0.12442677468061447
1667266583401239300,1.6072392578125,2.4370899200439453,1.8649061918258667,0.08374879509210587
1667266583403637000,1.609636962890625,2.4562325477600098,1.7117655277252197,-0.09092725813388824
1667266583406035000,1.612034912109375,2.5953152179718018,1.470090389251709,-0.3735794425010681
1667266583408432600,1.6144326171875,2.635993242263794,1.410269856452942,-0.46450668573379517
1667266583410830600,1.61683056640625,2.612065076828003,1.470090389251709,-0.40229329466819763
1667266583413228300,1.619228271484375,2.5618157386779785,1.5873386859893799,-0.3209373354911804
1667266583415626200,1.621626220703125,2.520838737487793,1.6878372430801392,-0.27038896083831787
1667266583418024000,1.62402392578125,2.504088878631592,1.7620147466659546,-0.17946170270442963
1667266583420422000,1.626421875,2.506481647491455,1.8912272453308105,-0.09810572862625122
1667266583422819600,1.628819580078125,2.535494804382324,2.0159530639648438,-0.04785645380616188
1667266583425217300,1.63121728515625,2.5761725902557373,2.1379871368408203,0.009571290574967861
1667266583427615200,1.633615234375,2.6168506145477295,2.2600209712982178,0.10049854964017868
1667266583430013000,1.636012939453125,2.676671266555786,2.389233350753784,0.17706887423992157
1667266583432411000,1.638410888671875,2.7508487701416016,2.480160713195801,0.24885354936122894
1667266583434808600,1.64080859375,2.8226335048675537,2.6072793006896973,0.3281157910823822
1667266583437206300,1.643206298828125,2.9255247116088867,2.731706142425537,0.39511483907699585
1667266583439604200,1.645604248046875,3.037987470626831,2.841775894165039,0.4573282301425934
1667266583442002000,1.648001953125,3.1483564376831055,2.9542386531829834,0.521934449672699
1667266583444399900,1.65039990234375,3.2177481651306152,3.0355947017669678,0.5889334678649902
1667266583446797600,1.652797607421875,3.2751760482788086,3.129213809967041,0.6391827464103699
1667266583449195500,1.655195556640625,3.318246841430664,3.1483564376831055,0.5817549824714661
1667266583451593200,1.65759326171875,3.2823543548583984,3.0571300983428955,0.44775694608688354
1667266583453991200,1.6599912109375,3.356531858444214,3.090928554534912,0.37118661403656006
1667266583456388900,1.662388916015625,3.507279872894287,3.2201411724090576,0.34247273206710815
1667266583458786800,1.664786865234375,3.6966118812561035,3.3589248657226562,0.2826521694660187
1667266583461184500,1.6671845703125,3.8856449127197266,3.5168511867523193,0.2225325107574463
1667266583463582200,1.669582275390625,4.069892406463623,3.677469253540039,0.1866401731967926
1667266583465980200,1.671980224609375,4.252045631408691,3.8688950538635254,0.17228323221206665
1667266583468377900,1.6743779296875,4.362115859985352,4.01246452331543,0.14117653667926788
1667266583470775800,1.67677587890625,4.431507587432861,4.1129631996154785,0.11964113265275955
1667266583473173500,1.679173583984375,4.479363918304443,4.2209391593933105,0.1052841991186142
1667266583475571500,1.681571533203125,4.543970108032227,4.292723655700684,0.11964113265275955
1667266583477969200,1.68396923828125,4.591826438903809,4.383651256561279,0.15074782073497772
1667266583480366800,1.686366943359375,4.639683246612549,4.450650215148926,0.1698904037475586
1667266583482764800,1.688764892578125,4.697110652923584,4.486542224884033,0.14117653667926788
1667266583485162500,1.69116259765625,4.781158924102783,4.491328239440918,0.035892341285943985
1667266583487560400,1.693560546875,4.907978534698486,4.443471431732178,-0.08614161610603333
1667266583489958100,1.695958251953125,5.041976451873779,4.383651256561279,-0.22492532432079315
1667266583492356000,1.698356201171875,5.1783671379089355,4.326223373413086,-0.3520440459251404
1667266583494753800,1.70075390625,5.362913608551025,4.256831645965576,-0.5075774788856506
1667266583497151500,1.7031513671875,5.551946640014648,4.179962158203125,-0.6726822853088379
1667266583499549400,1.705549560546875,5.72422981262207,4.108177185058594,-0.8234301209449768
1667266583501947100,1.707947021484375,5.923133373260498,4.0435709953308105,-0.9888339638710022
1667266583504345000,1.710344970703125,6.109773635864258,3.9622151851654053,-1.0941181182861328
1667266583506742800,1.71274267578125,6.322734832763672,3.9143588542938232,-1.225723385810852
1667266583509140700,1.715140625,6.509674072265625,3.864109516143799,-1.319043517112732
1667266583511538400,1.717538330078125,6.703492641448975,3.833002805709839,-1.3932210206985474
1667266583513936400,1.719936279296875,6.868597507476807,3.7995033264160156,-1.438983678817749
1667266583516334000,1.722333984375,7.031608581542969,3.7923247814178467,-1.4581263065338135
1667266583518732000,1.72473193359375,7.194320201873779,3.7923247814178467,-1.4581263065338135
1667266583521129700,1.727129638671875,7.340282440185547,3.79471755027771,-1.4270195960998535
1667266583523527400,1.72952734375,7.455138206481934,3.78753924369812,-1.3860424757003784
1667266583525925400,1.73192529296875,7.567600727081299,3.78753924369812,-1.319043517112732
1667266583528323000,1.734322998046875,7.670791149139404,3.7588253021240234,-1.2424731254577637
1667266583530721000,1.736720947265625,7.725826263427734,3.749253988265991,-1.1443674564361572
1667266583533118700,1.73911865234375,7.7593255043029785,3.7301113605499268,-1.036690354347229
1667266583535516700,1.7415166015625,7.77607536315918,3.708575963973999,-0.9361918568611145
1667266583537914400,1.743914306640625,7.761718273162842,3.691826343536377,-0.8210372924804688
1667266583540312000,1.74631201171875,7.749754428863525,3.7109687328338623,-0.7061817646026611
1667266583542710000,1.7487099609375,7.7353973388671875,3.7061831951141357,-0.6080760359764099
1667266583545107700,1.751107666015625,7.742575645446777,3.7109687328338623,-0.4860421121120453
1667266583547505700,1.753505615234375,7.752147197723389,3.6966118812561035,-0.39511483907699585
1667266583549903400,1.7559033203125,7.764111042022705,3.6870405673980713,-0.3161516785621643
1667266583552301300,1.75830126953125,7.804789066314697,3.6726837158203125,-0.2273181527853012
1667266583554699000,1.760698974609375,7.8454670906066895,3.675076484680176,-0.16031911969184875
1667266583557097000,1.763096923828125,7.898109436035156,3.660719633102417,-0.10289137065410614
1667266583559494700,1.76549462890625,7.984251022338867,3.6460635662078857,-0.035892341285943985
1667266583561892600,1.767892578125,8.051250457763672,3.6125640869140625,-0.01196411345154047
1667266583564290300,1.770290283203125,8.120641708374023,3.5718860626220703,0.014356935396790504
1667266583566688000,1.77268798828125,8.183154106140137,3.531208038330078,0.06699903309345245
1667266583569086000,1.7750859375,8.254939079284668,3.5024940967559814,0.10049854964017868
1667266583571483600,1.777483642578125,8.338687896728516,3.483351469039917,0.15074782073497772
1667266583573881600,1.779881591796875,8.443971633911133,3.4378879070281982,0.2273181527853012
1667266583576279300,1.782279296875,8.54447078704834,3.4378879070281982,0.33050861954689026
1667266583578677200,1.78467724609375,8.654540061950684,3.4331023693084717,0.39511483907699585
1667266583581075000,1.787074951171875,8.764909744262695,3.442673683166504,0.46450668573379517
1667266583583472600,1.78947265625,8.903693199157715,3.4713873863220215,0.5027918815612793
1667266583585870600,1.79187060546875,9.032905578613281,3.4809587001800537,0.5267201066017151
1667266583588268300,1.794268310546875,9.166903495788574,3.492922782897949,0.5386841893196106
1667266583590666200,1.796666259765625,9.26291561126709,3.5096726417541504,0.521934449672699
1667266583593064000,1.79906396484375,9.346664428710938,3.5168511867523193,0.5171487927436829
1667266583595462000,1.8014619140625,9.430413246154785,3.4953157901763916,0.5147559642791748
1667266583597859600,1.803859619140625,9.490233421325684,3.5192439556121826,0.5027918815612793
1667266583600257300,1.80625732421875,9.538089752197266,3.5192439556121826,0.4860421121120453
1667266583602655200,1.8086552734375,9.588339805603027,3.5024940967559814,0.4549354016780853
1667266583605053000,1.811052978515625,9.624231338500977,3.490530014038086,0.4166502356529236
1667266583607451000,1.813450927734375,9.655338287353516,3.466601848602295,0.3520440459251404
1667266583609848600,1.8158486328125,9.698409080505371,3.4642090797424316,0.2727817893028259
1667266583612246500,1.81824658203125,9.739087104797363,3.4785659313201904,0.18424734473228455
1667266583614644200,1.820644287109375,9.774979591369629,3.4785659313201904,0.08614161610603333
1667266583617042200,1.823042236328125,9.777372360229492,3.442673683166504,-0.007178467698395252
1667266583619439900,1.82543994140625,9.784550666809082,3.4163525104522705,-0.11246266216039658
1667266583621837800,1.827837890625,9.767801284790039,3.3852458000183105,-0.1986042857170105
1667266583624235500,1.830235595703125,9.76062297821045,3.3541390895843506,-0.2946162819862366
1667266583626633200,1.83263330078125,9.724730491638184,3.3134610652923584,-0.3448655605316162
1667266583629031200,1.83503125,9.7366943359375,3.2823543548583984,-0.39511483907699585
1667266583631428900,1.837428955078125,9.772586822509766,3.2656047344207764,-0.4166502356529236
1667266583633826800,1.839826904296875,9.798908233642578,3.253640651702881,-0.43579283356666565
1667266583636224500,1.842224609375,9.813264846801758,3.253640651702881,-0.4381856322288513
1667266583638622200,1.844622314453125,9.810872077941895,3.239283561706543,-0.4214358925819397
1667266583641020200,1.847020263671875,9.810872077941895,3.2584261894226074,-0.41904306411743164
1667266583643417900,1.84941796875,9.798908233642578,3.3062827587127686,-0.4142574071884155
1667266583645815800,1.85181591796875,9.806086540222168,3.339782238006592,-0.4214358925819397
1667266583648213500,1.854213623046875,9.803693771362305,3.339782238006592,-0.43579283356666565
1667266583650611500,1.856611572265625,9.755837440490723,3.3302109241485596,-0.5003990530967712
1667266583653009200,1.859009033203125,9.727123260498047,3.308675527572632,-0.5745765566825867
1667266583655407000,1.861406982421875,9.688838005065918,3.287140130996704,-0.6008976101875305
1667266583657804800,1.8638046875,9.667302131652832,3.270390272140503,-0.6367899179458618
1667266583660202500,1.866202392578125,9.62901782989502,3.253640651702881,-0.675075113773346
1667266583662600400,1.868600341796875,9.585947036743164,3.2273194789886475,-0.6870391964912415
1667266583664998100,1.870998046875,9.530911445617676,3.224926710128784,-0.7109674215316772
1667266583667396000,1.87339599609375,9.492626190185547,3.2129626274108887,-0.7229315638542175
1667266583669793800,1.875793701171875,9.442377090454102,3.200998544692993,-0.7205387353897095
1667266583672191700,1.878191650390625,9.404091835021973,3.1890344619750977,-0.6655037999153137
1667266583674589400,1.88058935546875,9.365806579589844,3.191427230834961,-0.6391827464103699
1667266583676987400,1.8829873046875,9.341878890991211,3.1746773719787598,-0.5937191247940063
1667266583679385000,1.885385009765625,9.339486122131348,3.1890344619750977,-0.5626124143600464
1667266583681782800,1.88778271484375,9.332307815551758,3.2297122478485107,-0.5147559642791748
1667266583684180700,1.8901806640625,9.315557479858398,3.277568817138672,-0.48364928364753723
1667266583686578400,1.892578369140625,9.279664993286133,3.3230323791503906,-0.46450668573379517
1667266583688976400,1.894976318359375,9.231510162353516,3.397209882736206,-0.42382872104644775
1667266583691374000,1.8973740234375,9.145368576049805,3.445066452026367,-0.42382872104644775
1667266583693772000,1.89977197265625,9.066405296325684,3.5024940967559814,-0.41904306411743164
1667266583696169700,1.902169677734375,8.987442016601562,3.5407793521881104,-0.44775694608688354
1667266583698567400,1.9045673828125,8.918049812316895,3.531208038330078,-0.48364928364753723
1667266583700965400,1.90696533203125,8.827122688293457,3.5336008071899414,-0.5315057039260864
1667266583703363000,1.909363037109375,8.767302513122559,3.5264222621917725,-0.5721837282180786
1667266583705761000,1.911760986328125,8.726624488830566,3.4857444763183594,-0.6415755748748779
1667266583708158700,1.91415869140625,8.69043254852295,3.4498519897460938,-0.7037889361381531
1667266583710556700,1.916556640625,8.64496898651123,3.4067811965942383,-0.7540382146835327
1667266583712954400,1.918954345703125,8.625826835632324,3.3469607830047607,-0.8042874932289124
1667266583715352300,1.921352294921875,8.618648529052734,3.311068296432495,-0.8330013751983643
1667266583717750000,1.92375,8.625826835632324,3.279961585998535,-0.8524430394172668
1667266583720147700,1.926147705078125,8.633005142211914,3.253640651702881,-0.8691928386688232
1667266583722545700,1.928545654296875,8.666504859924316,3.2368907928466797,-0.8644071817398071
1667266583724943400,1.930943359375,8.685647010803223,3.256033420562744,-0.8234301209449768
1667266583727341300,1.93334130859375,8.72901725769043,3.2679975032806396,-0.7899305820465088
1667266583729739000,1.935739013671875,8.760123252868652,3.2895328998565674,-0.7396813035011292
1667266583732137000,1.938136962890625,8.796015739440918,3.318246841430664,-0.6702894568443298
1667266583734534700,1.94053466796875,8.8438720703125,3.325425386428833,-0.6032904386520386
1667266583736932600,1.9429326171875,8.882157325744629,3.363710403442383,-0.5338985323905945
1667266583739330300,1.945330322265625,8.903693199157715,3.3852458000183105,-0.4621138870716095
1667266583741728000,1.94772802734375,8.941978454589844,3.3852458000183105,-0.38315072655677795
1667266583744126000,1.9501259765625,8.989834785461426,3.3948171138763428,-0.3233301639556885
1667266583746523600,1.952523681640625,9.047262191772461,3.4091739654541016,-0.2874378263950348
1667266583748921600,1.954921630859375,9.109476089477539,3.4139597415924072,-0.25363919138908386
1667266583751319300,1.9573193359375,9.166903495788574,3.4378879070281982,-0.2153540402650833
1667266583753717200,1.95971728515625,9.226723670959473,3.4378879070281982,-0.21296121180057526
1667266583756115000,1.962114990234375,9.303593635559082,3.428316593170166,-0.2105683982372284
1667266583758512600,1.9645126953125,9.38734245300293,3.4163525104522705,-0.2225325107574463
1667266583760910600,1.96691064453125,9.461520195007324,3.373281717300415,-0.2632105052471161
1667266583763308300,1.969308349609375,9.542876243591309,3.3278181552886963,-0.3400799036026001
1667266583765706200,1.971706298828125,9.626625061035156,3.2727832794189453,-0.3927220106124878
1667266583768104000,1.97410400390625,9.681659698486328,3.2273194789886475,-0.4692923426628113
1667266583770502000,1.976501953125,9.727123260498047,3.1651060581207275,-0.524327278137207
1667266583772899600,1.978899658203125,9.782157897949219,3.1076784133911133,-0.6032904386520386
1667266583775297500,1.981297607421875,9.825528144836426,3.0499515533447266,-0.6272186636924744
1667266583777695200,1.9836953125,9.868598937988281,3.0164520740509033,-0.6367899179458618
1667266583780093000,1.986093017578125,9.909276962280273,2.99013090133667,-0.6631109714508057
1667266583782491000,1.988490966796875,9.942776679992676,2.966202735900879,-0.675075113773346
1667266583784888600,1.990888671875,9.961918830871582,2.9398818016052246,-0.6655037999153137
1667266583787286500,1.99328662109375,9.966704368591309,2.92073917388916,-0.6678966283798218
1667266583789684200,1.995684326171875,9.969097137451172,2.927917718887329,-0.6415755748748779
1667266583792082200,1.998082275390625,9.949954986572266,2.9255247116088867,-0.5985047817230225
1667266583794479900,2.00047998046875,9.930811882019043,2.9159533977508545,-0.5650052428245544
1667266583796877800,2.0028779296875,9.923633575439453,2.8920252323150635,-0.4956133961677551
1667266583799275500,2.005275634765625,9.904491424560547,2.8824539184570312,-0.45254257321357727
1667266583801673200,2.007673095703125,9.90688419342041,2.8585257530212402,-0.38315072655677795
1667266583804071200,2.0100712890625,9.904491424560547,2.8513472080230713,-0.34725838899612427
1667266583806468900,2.01246875,9.878170013427734,2.832204818725586,-0.3113660514354706
1667266583808866800,2.01486669921875,9.878170013427734,2.8226335048675537,-0.2799602448940277
1667266583811264500,2.017264404296875,9.887741088867188,2.7987051010131836,-0.2560320198535919
1667266583813662200,2.019662109375,9.887741088867188,2.793919563293457,-0.23688943684101105
1667266583816060200,2.02206005859375,9.880562782287598,2.762812852859497,-0.2273181527853012
1667266583818457900,2.024457763671875,9.863813400268555,2.7484560012817383,-0.22013968229293823
1667266583820855800,2.026855712890625,9.823135375976562,2.6958138942718506,-0.2273181527853012
1667266583823253500,2.02925341796875,9.796515464782715,2.674278497695923,-0.23688943684101105
1667266583825651500,2.0316513671875,9.777372360229492,2.645564556121826,-0.20578274130821228
1667266583828049200,2.034049072265625,9.75105094909668,2.604886531829834,-0.1818545162677765
1667266583830447000,2.036447021484375,9.717552185058594,2.597707986831665,-0.17706887423992157
1667266583832844800,2.0388447265625,9.696016311645508,2.5785655975341797,-0.18903298676013947
1667266583835242800,2.04124267578125,9.667302131652832,2.590529680252075,-0.1986042857170105
1667266583837640400,2.043640380859375,9.6433744430542,2.590529680252075,-0.2105683982372284
1667266583840038100,2.0460380859375,9.645767211914062,2.614457845687866,-0.2512463629245758
1667266583842436000,2.04843603515625,9.617053031921387,2.6072793006896973,-0.2632105052471161
1667266583844833800,2.050833740234375,9.600303649902344,2.6336004734039307,-0.2799602448940277
1667266583847231700,2.053231689453125,9.583553314208984,2.645564556121826,-0.2799602448940277
1667266583849629400,2.05562939453125,9.581160545349121,2.645564556121826,-0.2799602448940277
1667266583852027400,2.05802734375,9.59073257446289,2.6647071838378906,-0.2584248483181
1667266583854425000,2.060425048828125,9.609874725341797,2.669492721557617,-0.2512463629245758
1667266583856822800,2.06282275390625,9.62901782989502,2.691028118133545,-0.22492532432079315
1667266583859220700,2.065220703125,9.631410598754883,2.729313373565674,-0.23210379481315613
1667266583861618400,2.067618408203125,9.614660263061523,2.755634307861328,-0.2273181527853012
1667266583864016400,2.070016357421875,9.593125343322754,2.7915267944335938,-0.19142581522464752
1667266583866414000,2.0724140625,9.550054550170898,2.8058836460113525,-0.17946170270442963
1667266583868812000,2.07481201171875,9.547661781311035,2.810669183731079,-0.17946170270442963
1667266583871209700,2.077209716796875,9.533304214477539,2.8202404975891113,-0.1746760457754135
1667266583873607400,2.079607421875,9.545269012451172,2.8034908771514893,-0.17706887423992157
1667266583876005400,2.08200537109375,9.559625625610352,2.784348249435425,-0.1818545162677765
1667266583878403000,2.084403076171875,9.593125343322754,2.7795627117156982,-0.17946170270442963
1667266583880801000,2.086801025390625,9.61944580078125,2.760420083999634,-0.1698904037475586
1667266583883198700,2.08919873046875,9.633803367614746,2.7436702251434326,-0.15553347766399384
1667266583885596700,2.0915966796875,9.650552749633789,2.7580273151397705,-0.17946170270442963
1667266583887994400,2.093994384765625,9.674481391906738,2.7580273151397705,-0.17228323221206665
1667266583890392000,2.09639208984375,9.700801849365234,2.755634307861328,-0.16510476171970367
1667266583892790000,2.0987900390625,9.71515941619873,2.762812852859497,-0.17228323221206665
