time,seconds_elapsed,z,y,x
1667824402322957800,0.011957763671875,0.5322412848472595,-0.038844067603349686,0.6493050456047058
1667824402332965600,0.021965576171875,0.5492058396339417,-0.013039369136095047,0.6723935604095459
1667824402342973700,0.0319736328125,0.5581128001213074,-0.0068174260668456554,0.6814709305763245
1667824402352981500,0.0419814453125,0.5462963581085205,-0.06317870318889618,0.6658323407173157
1667824402362989600,0.051989501953125,0.5147690773010254,-0.183523491024971,0.6283795237541199
1667824402372996600,0.06199658203125,0.4691675007343292,-0.376385360956192,0.5729487538337708
1667824402383004700,0.072004638671875,0.419574111700058,-0.6497598886489868,0.5209500193595886
1667824402393012700,0.0820126953125,0.3552473187446594,-0.9169191718101501,0.4957045614719391
1667824402403020500,0.0920205078125,0.2853547930717468,-1.099158763885498,0.5038604736328125
1667824402413028600,0.102028564453125,0.22511035203933716,-1.2234442234039307,0.5468699932098389
1667824402423035600,0.11203564453125,0.17295606434345245,-1.299504041671753,0.625680685043335
1667824402433043700,0.122043701171875,0.1151348426938057,-1.288673758506775,0.7207890748977661
1667824402443051500,0.132051513671875,0.04170750081539154,-1.1830264329910278,0.8085088133811951
1667824402453059600,0.1420595703125,-0.05416709929704666,-1.0469239950180054,0.8652831315994263
1667824402463067600,0.152067626953125,-0.16389518976211548,-0.8896380066871643,0.8921038508415222
1667824402473075700,0.16207568359375,-0.27110952138900757,-0.7145625948905945,0.880165159702301
1667824402483082800,0.172082763671875,-0.3480903208255768,-0.5208831429481506,0.8511092662811279
1667824402493090600,0.182090576171875,-0.38919222354888916,-0.29727908968925476,0.8072890639305115
1667824402503098600,0.1920986328125,-0.3942650258541107,-0.10110983997583389,0.7606978416442871
1667824402513106700,0.202106689453125,-0.385688841342926,0.039615318179130554,0.725210428237915
1667824402523114800,0.21211474609375,-0.3866150975227356,0.09353261440992355,0.6914655566215515
1667824402533122800,0.222122802734375,-0.4072948098182678,0.07675576210021973,0.6704910397529602
1667824402543129600,0.232129638671875,-0.4477021396160126,0.013032178394496441,0.6555725336074829
1667824402553137700,0.2421376953125,-0.4945223927497864,-0.0836711972951889,0.6391458511352539
1667824402563145700,0.252145751953125,-0.5507238507270813,-0.21786680817604065,0.6375594139099121
1667824402573153800,0.26215380859375,-0.6107965111732483,-0.36611407995224,0.657066822052002
1667824402583161600,0.27216162109375,-0.6686286926269531,-0.5108723044395447,0.7025600075721741
1667824402593168600,0.282168701171875,-0.7322766184806824,-0.6094369888305664,0.7868556976318359
1667824402603176700,0.2921767578125,-0.7839635014533997,-0.6964619159698486,0.8845798969268799
1667824402613184800,0.302184814453125,-0.7900949120521545,-0.7814130187034607,0.9599979519844055
1667824402623192800,0.31219287109375,-0.7290019989013672,-0.8399279713630676,0.9899531602859497
1667824402633200600,0.32220068359375,-0.6248492002487183,-0.8995697498321533,0.9710407257080078
1667824402643208700,0.332208740234375,-0.5027129054069519,-0.9094886779785156,0.8560680747032166
1667824402653215700,0.3422158203125,-0.43524840474128723,-0.8864589929580688,0.6242521405220032
1667824402663223800,0.352223876953125,-0.3711490333080292,-0.6889866590499878,0.3825167417526245
1667824402673231600,0.362231689453125,-0.24981090426445007,-0.3849460780620575,0.16832216084003448
1667824402683239700,0.37223974609375,-0.09519974887371063,-0.18216180801391602,0.01071256585419178
1667824402693247700,0.382247802734375,-0.003497795667499304,-0.0906745120882988,-0.09252434223890305
1667824402703255600,0.392255615234375,-0.01943335309624672,-0.05909261479973793,-0.16451437771320343
1667824402713262800,0.402262939453125,-0.07905327528715134,-0.10741940140724182,-0.24075588583946228
1667824402723270700,0.412270751953125,-0.10380016267299652,-0.2620089650154114,-0.32566359639167786
1667824402733279000,0.422279052734375,-0.05047569051384926,-0.4407329261302948,-0.3893030285835266
1667824402743287000,0.432287109375,0.06892580538988113,-0.6092242002487183,-0.418527215719223
1667824402753294800,0.442294921875,0.22216010093688965,-0.7717707753181458,-0.41968196630477905
1667824402763302100,0.45230224609375,0.35099104046821594,-0.9596133828163147,-0.39423173666000366
1667824402773310000,0.46231005859375,0.43591365218162537,-1.1491090059280396,-0.3365444540977478
1667824402783318000,0.472318115234375,0.46474531292915344,-1.2675530910491943,-0.25068095326423645
1667824402793325800,0.482325927734375,0.45727860927581787,-0.5193875432014465,-0.29228565096855164
1667824402803334000,0.492333984375,0.4384937286376953,-0.6300594210624695,-0.2861422896385193
1667824402813342000,0.502342041015625,0.34191471338272095,-0.48247823119163513,-0.14458142220973969
1667824402823349000,0.512348876953125,0.21014444530010223,-0.489359050989151,-0.09674039483070374
1667824402833356800,0.522356689453125,0.11023702472448349,-0.3625832498073578,-0.07233065366744995
1667824402843364900,0.53236474609375,0.06511055678129196,-0.18744951486587524,-0.10722658783197403
1667824402853373000,0.542373046875,0.09301009774208069,-0.04597228392958641,-0.23289848864078522
1667824402863381000,0.552381103515625,0.16259263455867767,0.12381675094366074,-0.42432543635368347
1667824402873388000,0.562387939453125,0.25652632117271423,0.2568341791629791,-0.6278671026229858
1667824402883395800,0.572395751953125,0.3550012409687042,0.28401413559913635,-0.8133192658424377
1667824402893404000,0.58240380859375,0.41839778423309326,0.28964272141456604,-0.9335665702819824
1667824402903412000,0.592411865234375,0.44514229893684387,0.3121325969696045,-0.9773292541503906
1667824402913420000,0.602419921875,0.43088454008102417,0.3436710834503174,-0.9757225513458252
1667824402923428000,0.612427978515625,0.42514410614967346,0.3570294976234436,-0.9535296559333801
1667824402933435000,0.622434814453125,0.4018726050853729,0.43286699056625366,-0.9018733501434326
1667824402943443000,0.63244287109375,0.3625883162021637,0.5005522966384888,-0.8228065371513367
1667824402953451000,0.642450927734375,0.33081573247909546,0.4801596999168396,-0.7432714700698853
1667824402963459000,0.652458984375,0.3022477328777313,0.43674084544181824,-0.6559693217277527
1667824402973467000,0.662466796875,0.2766827344894409,0.39293238520622253,-0.5636463165283203
1667824402983474000,0.672473876953125,0.2526290714740753,0.3205079734325409,-0.48065608739852905
1667824402993482000,0.68248193359375,0.22615404427051544,0.2246653288602829,-0.4064961075782776
1667824403003490000,0.692489990234375,0.19623076915740967,0.1418154537677765,-0.32654696702957153
1667824403013498000,0.702498046875,0.16423234343528748,0.11166101694107056,-0.23630228638648987
1667824403023506000,0.712505859375,0.13576075434684753,0.14579342305660248,-0.13972008228302002
1667824403033514000,0.722513916015625,0.10700155049562454,0.21545451879501343,-0.05338120087981224
1667824403043521000,0.73252099609375,0.07537437975406647,0.311682790517807,0.03861743211746216
1667824403053529000,0.742529052734375,0.04789162427186966,0.4144704341888428,0.13145336508750916
1667824403063537000,0.752536865234375,0.021939387544989586,0.49085813760757446,0.2244674563407898
1667824403073545000,0.762544921875,0.009756756946444511,0.5421096086502075,0.3166711628437042
1667824403083553000,0.772552978515625,0.017707889899611473,0.5547002553939819,0.40580955147743225
1667824403093560000,0.78256005859375,0.026940271258354187,0.509051501750946,0.4685395061969757
1667824403103568100,0.792568115234375,0.03653164580464363,0.41082295775413513,0.5143746733665466
1667824403113576000,0.802575927734375,0.041847314685583115,0.2658705711364746,0.54229336977005
1667824403123584000,0.812583984375,0.04327663406729698,0.11491699516773224,0.559562623500824
1667824403133591800,0.822591796875,0.03813114017248154,-0.03207990527153015,0.5702546834945679
1667824403143599900,0.832599853515625,0.007355917245149612,-0.1635923981666565,0.5520336031913757
1667824403153607000,0.84260693359375,-0.03406982123851776,-0.24546729028224945,0.5232920050621033
1667824403163615000,0.852614990234375,-0.07154688984155655,-0.2520863115787506,0.48472273349761963
1667824403173623000,0.862623046875,-0.0973137691617012,-0.14701128005981445,0.42819157242774963
1667824403183630800,0.872630859375,-0.09443515539169312,0.02803509682416916,0.34338584542274475
1667824403193639000,0.882638916015625,-0.06928347051143646,0.20055226981639862,0.21021369099617004
1667824403203646000,0.89264599609375,-0.036918602883815765,0.34950685501098633,0.03425837308168411
1667824403213654000,0.902654052734375,-0.0006351639167405665,0.4330797791481018,-0.17612868547439575
1667824403223661800,0.912661865234375,0.02659139782190323,0.473373681306839,-0.4039565324783325
1667824403233670000,0.922669921875,0.040157005190849304,0.492424875497818,-0.6184869408607483
1667824403243678000,0.932677978515625,0.020799022167921066,0.49836745858192444,-0.8116998076438904
1667824403253685000,0.94268505859375,-0.030844731256365776,0.5412288904190063,-0.9582847356796265
1667824403263692800,0.95269287109375,-0.09916812926530838,0.694878101348877,-1.0350353717803955
1667824403273700900,0.962700927734375,-0.16841164231300354,0.9039682149887085,-1.060836672782898
1667824403283709000,0.972708984375,-0.2348785549402237,1.0736640691757202,-1.0530365705490112
1667824403293717000,0.982717041015625,-0.2994418442249298,1.1831936836242676,-1.018828272819519
1667824403303725000,0.99272509765625,-0.36746323108673096,1.2268296480178833,-0.9606402516365051
1667824403313731800,1.00273193359375,-0.4344305396080017,1.117703914642334,-0.9063570499420166
1667824403323740000,1.012739990234375,-0.5084201097488403,0.8933621644973755,-0.8581919074058533
1667824403333748000,1.022748046875,-0.5668314695358276,0.6387863755226135,-0.81180739402771
1667824403343756000,1.032756103515625,-0.6047567129135132,0.34251606464385986,-0.790127158164978
1667824403353764000,1.04276416015625,-0.6228864789009094,-0.0004519384237937629,-0.7807362675666809
1667824403363771000,1.05277099609375,-0.6331484317779541,-0.3762330114841461,-0.7968199253082275
1667824403373779000,1.062779052734375,-0.633893609046936,-0.7351965308189392,-0.834373414516449
1667824403383787000,1.072787109375,-0.6330693364143372,-1.0017727613449097,-0.8877769708633423
1667824403393795000,1.082795166015625,-0.6309515833854675,-1.1169319152832031,-0.9522351026535034
1667824403403803000,1.092802978515625,-0.6162280440330505,-1.1434780359268188,-1.008532166481018
1667824403413810000,1.102809814453125,-0.5870805382728577,-1.0840165615081787,-1.0479607582092285
1667824403423818000,1.11281787109375,-0.5353707671165466,-0.9558876156806946,-1.0619860887527466
1667824403433826000,1.122825927734375,-0.4625511169433594,-0.7646145820617676,-1.043951153755188
1667824403443834000,1.132834228515625,-0.36349937319755554,-0.4942062497138977,-0.9964597821235657
1667824403453842000,1.142842041015625,-0.23950526118278503,-0.2031874656677246,-0.9562825560569763
1667824403463850000,1.15285009765625,-0.09107425063848495,0.012199408374726772,-0.949735164642334
1667824403473857000,1.16285693359375,0.06401919573545456,0.12210620194673538,-0.9823375940322876
1667824403483865000,1.172864990234375,0.211878702044487,0.08501635491847992,-1.0844026803970337
1667824403493873000,1.182872802734375,0.3388049602508545,-0.1509501039981842,-1.249855875968933
1667824403503881000,1.192880859375,0.4857861399650574,-0.38462331891059875,-1.3894137144088745
1667824403513889000,1.202888916015625,0.702863872051239,-0.49606409668922424,-1.4571120738983154
1667824403523896000,1.21289599609375,0.9474629759788513,-0.5423913598060608,-1.4340320825576782
1667824403533904100,1.222904052734375,1.1616226434707642,-0.47882863879203796,-1.2916208505630493
1667824403543912000,1.232911865234375,1.3017432689666748,-0.31483277678489685,-1.0448089838027954
1667824403553920000,1.242919921875,1.378456950187683,-0.1206076443195343,-0.7692053318023682
1667824403563927800,1.252927734375,1.4077013731002808,0.11872825026512146,-0.4815080463886261
1667824403573935900,1.262935791015625,1.403496265411377,0.39440375566482544,-0.1954624354839325
1667824403583943000,1.27294287109375,1.3858288526535034,0.6538915038108826,0.0692448541522026
1667824403593951000,1.282950927734375,1.3588627576828003,0.8435842394828796,0.2874767780303955
1667824403603959000,1.292958984375,1.3354487419128418,0.9567826986312866,0.444231241941452
1667824403613966800,1.302966796875,1.325181245803833,0.9830430746078491,0.5442355871200562
1667824403623975000,1.312974853515625,1.316312313079834,0.9405390024185181,0.5893301367759705
1667824403633982000,1.32298193359375,1.2830731868743896,0.8577027320861816,0.6013612151145935
1667824403643990000,1.332989990234375,1.2074899673461914,0.7457168102264404,0.5963521003723145
1667824403653997800,1.342997802734375,1.0900357961654663,0.5989145636558533,0.5801786780357361
1667824403664006000,1.353005859375,0.9373847842216492,0.4391094446182251,0.5348937511444092
1667824403674014000,1.363013916015625,0.7663354873657227,0.2778955399990082,0.48460742831230164
1667824403684021000,1.37302099609375,0.5843377709388733,0.12641918659210205,0.4432852864265442
1667824403694028800,1.38302880859375,0.39369696378707886,-0.0037175065372139215,0.41165411472320557
1667824403704036900,1.393036865234375,0.2091612070798874,-0.09681282937526703,0.3822038173675537
1667824403714045000,1.403044921875,0.054489340633153915,-0.13270024955272675,0.3501465618610382
1667824403724053000,1.413052978515625,-0.057188719511032104,-0.0808892548084259,0.32404011487960815
1667824403734060500,1.423060546875,-0.1278088241815567,0.04993080720305443,0.30591917037963867
1667824403744068600,1.433068603515625,-0.16169409453868866,0.2439175844192505,0.28792232275009155
1667824403754076400,1.443076416015625,-0.18288806080818176,0.4672819674015045,0.274848610162735
1667824403764084500,1.45308447265625,-0.19677084684371948,0.6962248682975769,0.27911660075187683
1667824403774092500,1.463092529296875,-0.19892588257789612,0.9227701425552368,0.29142120480537415
1667824403784100600,1.4731005859375,-0.18370245397090912,1.135258436203003,0.3229101300239563
1667824403794107400,1.483107421875,-0.15912094712257385,1.284601092338562,0.35530218482017517
1667824403804115500,1.493115478515625,-0.13675305247306824,1.350131869316101,0.37983226776123047
1667824403814123500,1.50312353515625,-0.09302394837141037,1.328403115272522,0.39593082666397095
1667824403824131600,1.513131591796875,-0.026083532720804214,1.2733087539672852,0.41271325945854187
1667824403834139600,1.5231396484375,0.05686061829328537,1.1905139684677124,0.443339079618454
1667824403844146400,1.533146484375,0.1278889924287796,1.0745601654052734,0.4680926501750946
1667824403854154500,1.543154541015625,0.1818654090166092,0.9494238495826721,0.49382489919662476
1667824403864162600,1.55316259765625,0.22470447421073914,0.8450961112976074,0.514573335647583
1667824403874170600,1.563170654296875,0.2628156542778015,0.7607144117355347,0.5345334410667419
1667824403884178700,1.5731787109375,0.29165422916412354,0.6842893958091736,0.5350223779678345
1667824403894185500,1.583185546875,0.2989342510700226,0.5586475729942322,0.5049251914024353
1667824403904193500,1.593193603515625,0.26049309968948364,0.36058109998703003,0.4348079264163971
1667824403914201600,1.60320166015625,0.19114093482494354,0.13243207335472107,0.34123456478118896
1667824403924209700,1.613209716796875,0.12101190537214279,-0.08501742035150528,0.23837395012378693
1667824403934217500,1.623217529296875,0.07275143265724182,-0.26643407344818115,0.13752244412899017
1667824403944225500,1.6332255859375,0.05263657867908478,-0.3988163471221924,0.03245408087968826
1667824403954232600,1.643232666015625,0.06004682555794716,-0.4608818590641022,-0.067768394947052
1667824403964240600,1.65324072265625,0.09354459494352341,-0.4405970871448517,-0.15572142601013184
1667824403974248700,1.663248779296875,0.16309304535388947,-0.36590448021888733,-0.2149120420217514
1667824403984256500,1.673256591796875,0.2450752705335617,-0.2839432954788208,-0.2666069269180298
1667824403994264600,1.6832646484375,0.3223381042480469,-0.21906337141990662,-0.3108319044113159
1667824404004271600,1.693271728515625,0.3625688850879669,-0.16621853411197662,-0.33212894201278687
1667824404014279700,1.70327978515625,0.34492063522338867,-0.10141556710004807,-0.32838720083236694
1667824404024287500,1.71328759765625,0.26394030451774597,-0.03718838095664978,-0.3068739175796509
1667824404034295600,1.723295654296875,0.13945962488651276,0.04780187830328941,-0.2643775939941406
1667824404044303600,1.7333037109375,0.00697987899184227,0.15512433648109436,-0.1978539526462555
1667824404054310700,1.743310546875,-0.1215357556939125,0.27101072669029236,-0.09613531827926636
1667824404064318700,1.753318603515625,-0.2185075730085373,0.3572593331336975,0.013626595959067345
1667824404074326500,1.763326416015625,-0.2525675296783447,0.4023466408252716,0.13719940185546875
1667824404084334600,1.77333447265625,-0.22747284173965454,0.3703460991382599,0.26312562823295593
1667824404094342400,1.78334228515625,-0.15628866851329803,0.28242743015289307,0.38242512941360474
1667824404104349700,1.793349609375,-0.059364523738622665,0.1743028312921524,0.5055595636367798
1667824404114357500,1.803357421875,0.028320588171482086,0.07883062958717346,0.6273999810218811
1667824404124365600,1.813365478515625,0.08412846177816391,-0.007574828807264566,0.7335253953933716
1667824404134373600,1.82337353515625,0.08690640330314636,-0.08611757308244705,0.8052658438682556
1667824404144381400,1.83338134765625,0.03245248273015022,-0.14100292325019836,0.829667329788208
1667824404154389500,1.843389404296875,-0.06840888410806656,-0.17622056603431702,0.7997427582740784
1667824404164396500,1.853396484375,-0.21462415158748627,-0.21050770580768585,0.7136227488517761
1667824404174404600,1.863404541015625,-0.40381884574890137,-0.2845909893512726,0.5392722487449646
1667824404184412400,1.873412353515625,-0.6089836955070496,-0.38011857867240906,0.29946526885032654
1667824404194420500,1.88342041015625,-0.8103495836257935,-0.48382312059402466,-0.011638812720775604
1667824404204428500,1.893428466796875,-1.0131621360778809,-0.6149686574935913,-0.376539021730423
1667824404214435600,1.903435546875,-1.2032723426818848,-0.7389022707939148,-0.7667661309242249
1667824404224443400,1.913443359375,-1.3383066654205322,-0.8103573322296143,-1.119270920753479
1667824404234451500,1.923451416015625,-1.4027791023254395,-0.830936074256897,-1.390131950378418
1667824404244459500,1.93345947265625,-1.4194425344467163,-0.7967075109481812,-1.5447311401367188
1667824404254467600,1.943467529296875,-1.4077669382095337,-0.6604799032211304,-1.5645394325256348
1667824404264474600,1.953474609375,-1.3721826076507568,-0.4848010540008545,-1.4467848539352417
1667824404274482400,1.963482421875,-1.3070083856582642,-0.2874429523944855,-1.23589289188385
1667824404284490500,1.973490478515625,-1.2251417636871338,-0.07767482101917267,-0.9719131588935852
1667824404294498600,1.98349853515625,-1.1189836263656616,0.09345191717147827,-0.7084532976150513
1667824404304506600,1.993506591796875,-0.9923118948936462,0.17616331577301025,-0.4985858201980591
1667824404314513400,2.003513427734375,-0.8444830775260925,0.15313921868801117,-0.3376675248146057
1667824404324521500,2.013521484375,-0.6691879034042358,0.022466959431767464,-0.22763635218143463
1667824404334529500,2.023529541015625,-0.48901283740997314,-0.1862225979566574,-0.16244669258594513
1667824404344537600,2.03353759765625,-0.31548258662223816,-0.4201570749282837,-0.12059725075960159
1667824404354545700,2.043545654296875,-0.1647878885269165,-0.6284114718437195,-0.08527494966983795
1667824404364552400,2.053552490234375,-0.03886217623949051,-0.7883020639419556,-0.04492646083235741
1667824404374560500,2.063560546875,0.05576020106673241,-0.8912034034729004,0.006963100749999285
1667824404384568600,2.073568603515625,0.1321583092212677,-0.9140765070915222,0.05817382410168648
1667824404394576600,2.08357666015625,0.19432739913463593,-0.8805952668190002,0.11789681017398834
1667824404404584700,2.093584716796875,0.24243846535682678,-0.8268129825592041,0.1677975207567215
1667824404414592500,2.103592529296875,0.2741505801677704,-0.781394898891449,0.21270693838596344
1667824404424599600,2.113599609375,0.3051583170890808,-0.7324001789093018,0.250302255153656
1667824404434607600,2.123607666015625,0.33545470237731934,-0.6821026802062988,0.29726895689964294
1667824404444615700,2.13361572265625,0.3472176194190979,-0.6341231465339661,0.3556782007217407
1667824404454623500,2.14362353515625,0.3318173587322235,-0.5972594022750854,0.40550729632377625
1667824404464631600,2.153631591796875,0.2841867208480835,-0.5590603351593018,0.45944589376449585
1667824404474638300,2.163638427734375,0.20768395066261292,-0.49642014503479004,0.5136001706123352
1667824404484646700,2.173646728515625,0.11335079371929169,-0.41971445083618164,0.558654248714447
1667824404494654700,2.18365478515625,-0.003096457337960601,-0.34065452218055725,0.6036299467086792
1667824404504662500,2.19366259765625,-0.1331023871898651,-0.26679280400276184,0.6418747901916504
1667824404514670600,2.203670654296875,-0.2718581557273865,-0.16488854587078094,0.673874020576477
1667824404524677600,2.213677734375,-0.41102081537246704,-0.05609096586704254,0.6901177167892456
1667824404534685700,2.223685791015625,-0.5672357082366943,0.02985217049717903,0.6791905164718628
1667824404544693500,2.233693603515625,-0.7068095803260803,0.09998732060194016,0.6522467732429504
1667824404554701600,2.24370166015625,-0.8053244352340698,0.14945873618125916,0.6111637949943542
1667824404564709600,2.253709716796875,-0.8663289546966553,0.19666539132595062,0.5562539100646973
1667824404574716700,2.263716552734375,-0.9140394926071167,0.24064163863658905,0.5046713948249817
1667824404584724700,2.273724853515625,-0.9635306000709534,0.2715257704257965,0.4540465772151947
1667824404594732500,2.283732666015625,-1.02346932888031,0.2882765233516693,0.4008326530456543
1667824404604740600,2.29374072265625,-1.0847121477127075,0.2903207838535309,0.33229273557662964
1667824404614748400,2.30374853515625,-1.1322346925735474,0.31313395500183105,0.2663552463054657
1667824404624755700,2.313755615234375,-1.1657047271728516,0.340340256690979,0.2087090015411377
1667824404634763500,2.323763427734375,-1.2059712409973145,0.3618772625923157,0.1545134037733078
1667824404644771600,2.333771484375,-1.2500603199005127,0.3755400776863098,0.10168508440256119
1667824404654779400,2.343779296875,-1.297326683998108,0.3899211287498474,0.052261605858802795
1667824404664787500,2.353787353515625,-1.3429136276245117,0.39150357246398926,-0.003955060616135597
1667824404674795500,2.36379541015625,-1.3780039548873901,0.3845497965812683,-0.06863126158714294
1667824404684802600,2.373802490234375,-1.4055016040802002,0.369928240776062,-0.14503096044063568
1667824404694810600,2.383810546875,-1.4152772426605225,0.35497114062309265,-0.23502317070960999
1667824404704818400,2.393818359375,-1.4081627130508423,0.32890093326568604,-0.3311566114425659
1667824404714826500,2.403826416015625,-1.3802210092544556,0.31508496403694153,-0.4092769920825958
1667824404724834600,2.41383447265625,-1.3390562534332275,0.2931285500526428,-0.4638656675815582
1667824404734844700,2.4238447265625,-1.2956897020339966,0.2661339342594147,-0.5061715841293335
1667824404744852700,2.433852783203125,-1.2491199970245361,0.24771685898303986,-0.5516282916069031
1667824404754860800,2.44386083984375,-1.188308835029602,0.23314030468463898,-0.5900587439537048
1667824404764868900,2.453868896484375,-1.1143704652786255,0.2002047300338745,-0.6367397308349609
1667824404774877000,2.463876953125,-1.0308809280395508,0.15221109986305237,-0.6927915215492249
1667824404784883700,2.4738837890625,-0.9317479133605957,0.08614446967840195,-0.7617519497871399
1667824404794891800,2.483891845703125,-0.8113333582878113,0.011717376299202442,-0.8467624187469482
1667824404804899600,2.493899658203125,-0.6760200262069702,-0.06411640346050262,-0.9377301931381226
1667824404814908000,2.503907958984375,-0.5209513306617737,-0.14769598841667175,-1.027220606803894
1667824404824916000,2.513916015625,-0.35238173604011536,-0.2663842737674713,-1.1125134229660034
1667824404834922800,2.5239228515625,-0.16527843475341797,-0.41501930356025696,-1.1902713775634766
1667824404844930800,2.533930908203125,0.046182408928871155,-0.5918143391609192,-1.2525626420974731
1667824404854938600,2.543938720703125,0.27212074398994446,-0.7575867772102356,-1.2771401405334473
1667824404864947000,2.553947021484375,0.48742160201072693,-0.8987430930137634,-1.2631679773330688
1667824404874954800,2.563954833984375,0.6684395670890808,-1.0003416538238525,-1.2038174867630005
1667824404884962800,2.573962890625,0.8124388456344604,-1.040893316268921,-1.0951591730117798
1667824404894969600,2.583969482421875,0.9426535367965698,-0.9809269309043884,-0.9542843699455261
1667824404904978000,2.59397802734375,1.0811086893081665,-0.8506093621253967,-0.7825693488121033
1667824404914986000,2.603986083984375,1.2078533172607422,-0.6808323264122009,-0.5926412343978882
1667824404924993800,2.613993896484375,1.3366482257843018,-0.5252224802970886,-0.39698198437690735
1667824404935000800,2.624000732421875,1.4668731689453125,-0.39144206047058105,-0.2137349247932434
1667824404945008600,2.634008544921875,1.5762763023376465,-0.26976969838142395,-0.04952387511730194
1667824404955017000,2.644016845703125,1.669329285621643,-0.19201017916202545,0.07153623551130295
1667824404965024800,2.654024658203125,1.7286903858184814,-0.16063521802425385,0.14590421319007874
1667824404975032800,2.66403271484375,1.730594277381897,-0.17581284046173096,0.18718241155147552
1667824404985041000,2.674041015625,1.6524972915649414,-0.23383326828479767,0.20199677348136902
1667824404995047700,2.684047607421875,1.507799744606018,-0.340488076210022,0.20645250380039215
1667824405005056000,2.694055908203125,1.3194948434829712,-0.45251208543777466,0.21378472447395325
1667824405015063800,2.704063720703125,1.1189422607421875,-0.5500593781471252,0.24360492825508118
1667824405025071900,2.71407177734375,0.9281201362609863,-0.6243085861206055,0.302450954914093
1667824405035079700,2.72407958984375,0.7703137397766113,-0.6489212512969971,0.39950212836265564
1667824405045087000,2.7340869140625,0.6649777293205261,-0.6330435276031494,0.5108571648597717
1667824405055094800,2.7440947265625,0.6099104881286621,-0.6086308360099792,0.6160040497779846
1667824405065102800,2.754102783203125,0.5830053687095642,-0.5928391218185425,0.6928900480270386
1667824405075111000,2.76411083984375,0.5869007706642151,-0.5645225048065186,0.7554932832717896
1667824405085118700,2.77411865234375,0.6089608073234558,-0.5107399821281433,0.7980106472969055
1667824405095126000,2.7841259765625,0.6296240091323853,-0.4380130171775818,0.8099570274353027
1667824405105133800,2.7941337890625,0.6438090801239014,-0.3629070818424225,0.7758004069328308
1667824405115142000,2.804141845703125,0.6362917423248291,-0.2616952657699585,0.7077747583389282
1667824405125149700,2.814149658203125,0.6368765830993652,-0.13462358713150024,0.6242084503173828
1667824405135157800,2.82415771484375,0.6354765892028809,-0.004789162427186966,0.5344530344009399
1667824405145164800,2.834164794921875,0.6236920952796936,0.09259092062711716,0.4320683181285858
1667824405155172900,2.8441728515625,0.6103818416595459,0.1332206428050995,0.3361351490020752
1667824405165181000,2.854180908203125,0.5987960696220398,0.11715804785490036,0.25200721621513367
1667824405175188700,2.864188720703125,0.5963773727416992,0.10522308945655823,0.19081415235996246
1667824405185196800,2.87419677734375,0.6073224544525146,0.10522095859050751,0.16939115524291992
1667824405195203800,2.884203857421875,0.6136218905448914,0.07985994219779968,0.1626719981431961
1667824405205212000,2.8942119140625,0.6067658066749573,0.030247118324041367,0.14623364806175232
1667824405215219700,2.9042197265625,0.6005233526229858,-0.020051738247275352,0.12197277694940567
1667824405225227800,2.914227783203125,0.5993958115577698,-0.07141639292240143,0.07740557193756104
1667824405235235600,2.924235595703125,0.5854253768920898,-0.11102665215730667,0.015731025487184525
1667824405245244000,2.934243896484375,0.5501866936683655,-0.0963643491268158,-0.044313669204711914
1667824405255250700,2.944250732421875,0.5010231733322144,0.0036045885644853115,-0.07145340740680695
1667824405265258800,2.9542587890625,0.4592168629169464,0.19991391897201538,-0.05260568857192993
1667824405275266800,2.964266845703125,0.4448277950286865,0.4606426954269409,0.021458420902490616
1667824405285274600,2.974274658203125,0.47052809596061707,0.7345834374427795,0.12107822299003601
1667824405295283000,2.984282958984375,0.5299509167671204,0.9435736536979675,0.23030510544776917
1667824405305289700,2.994289794921875,0.6249483227729797,1.0710784196853638,0.34577685594558716
1667824405315297800,3.0042978515625,0.7402716875076294,1.1047202348709106,0.4600459039211273
1667824405325305600,3.0143056640625,0.8493398427963257,1.0475072860717773,0.5638409852981567
1667824405335314000,3.02431396484375,0.9288586378097534,0.9489660263061523,0.6597803235054016
1667824405345322000,3.034322021484375,0.9661192297935486,0.8476170301437378,0.7389782071113586
1667824405355328800,3.044328857421875,0.9603947401046753,0.7742701172828674,0.7959088683128357
1667824405365336800,3.0543369140625,0.9147571921348572,0.7230628728866577,0.8296545743942261
1667824405375344600,3.0643447265625,0.8316484689712524,0.6772176027297974,0.8316625952720642
1667824405385353000,3.07435302734375,0.7218532562255859,0.6401674747467041,0.8191225528717041
1667824405395360800,3.08436083984375,0.590421736240387,0.6090622544288635,0.7825677394866943
1667824405405367800,3.094367919921875,0.4604719877243042,0.5864770412445068,0.7315239906311035
1667824405415375600,3.104375732421875,0.3303089439868927,0.5861250162124634,0.6644206047058105
1667824405425383700,3.1143837890625,0.20564770698547363,0.5988810062408447,0.5933206081390381
1667824405435392000,3.12439208984375,0.0824112519621849,0.61612868309021,0.5171802639961243
1667824405445399800,3.13439990234375,-0.02556741237640381,0.6455108523368835,0.4610334038734436
1667824405455406800,3.14440673828125,-0.0941840261220932,0.6635494828224182,0.4209757149219513
1667824405465414700,3.15441455078125,-0.12279116362333298,0.6732425689697266,0.4168206453323364
1667824405475423000,3.164423095703125,-0.12206252664327621,0.666174054145813,0.4328470230102539
1667824405485430800,3.1744306640625,-0.10287631303071976,0.6473777294158936,0.4820433259010315
1667824405495438800,3.18443896484375,-0.0780564546585083,0.5812037587165833,0.5416595339775085
1667824405505445600,3.194445556640625,-0.04461114481091499,0.4721675515174866,0.5932556390762329
1667824405515453700,3.20445361328125,-0.0005691175465472043,0.3432742655277252,0.635172426700592
1667824405525462000,3.2144619140625,0.05226773023605347,0.19157955050468445,0.6497665643692017
1667824405535469800,3.2244697265625,0.09145987778902054,0.028924059122800827,0.6366904377937317
1667824405545478000,3.234477783203125,0.10820236802101135,-0.10742925107479095,0.5978618264198303
1667824405555484700,3.244484619140625,0.09122578054666519,-0.24202728271484375,0.5165832042694092
1667824405565493000,3.254492919921875,0.03116164728999138,-0.37919846177101135,0.3893403112888336
1667824405575500800,3.264500732421875,-0.05565261095762253,-0.5530741214752197,0.1936003565788269
1667824405585508900,3.2745087890625,-0.18405133485794067,-0.7972210049629211,-0.10152582824230194
1667824405595517000,3.284516845703125,-0.3509364426136017,-1.0700181722640991,-0.5045297145843506
1667824405605523700,3.294523681640625,-0.5247822999954224,-1.2975834608078003,-0.9863288402557373
1667824405615532000,3.304531982421875,-0.6721165776252747,-1.416787028312683,-1.48606276512146
1667824405625539800,3.314539794921875,-0.7824226021766663,-1.405744194984436,-1.9203168153762817
1667824405635548000,3.3245478515625,-0.848947286605835,-1.2108380794525146,-2.219911575317383
1667824405645555700,3.3345556640625,-0.8512977957725525,-0.893317461013794,-2.3408021926879883
1667824405655562800,3.344562744140625,-0.7881231307983398,-0.5338000059127808,-2.264186143875122
1667824405665570800,3.35457080078125,-0.6817172765731812,-0.19218222796916962,-2.020784854888916
1667824405675579000,3.364578857421875,-0.5275165438652039,0.04701438173651695,-1.671343445777893
1667824405685586700,3.374586669921875,-0.3334307074546814,0.1078668087720871,-1.2943170070648193
1667824405695594800,3.3845947265625,-0.13789688050746918,-0.0003374225052539259,-0.9404186606407166
1667824405705601800,3.394601806640625,0.039861395955085754,-0.20548897981643677,-0.6217296123504639
1667824405715609900,3.40460986328125,0.16954828798770905,-0.46465715765953064,-0.3435909152030945
1667824405725618000,3.414617919921875,0.2445434331893921,-0.7035251259803772,-0.11377529799938202
1667824405735622700,3.42462255859375,0.2822766900062561,-0.8881024122238159,0.052683185786008835
1667824405745630500,3.43463037109375,0.29525214433670044,-0.9970012307167053,0.15854543447494507
1667824405755637800,3.4446376953125,0.28888213634490967,-1.0387678146362305,0.200223907828331
1667824405765645600,3.4546455078125,0.262778639793396,-1.025817632675171,0.190008282661438
1667824405775653600,3.464653564453125,0.2286214530467987,-0.9554612040519714,0.15078391134738922
1667824405785661400,3.474661376953125,0.20550495386123657,-0.8486527800559998,0.09695930033922195
1667824405795669500,3.48466943359375,0.19102801382541656,-0.7291990518569946,0.04923918470740318
1667824405805676500,3.494676513671875,0.1820792555809021,-0.6247480511665344,0.00603472301736474
1667824405815684600,3.5046845703125,0.1624770611524582,-0.5405170321464539,-0.017541443929076195
1667824405825692700,3.514692626953125,0.12469692528247833,-0.4650731384754181,-0.014369351789355278
1667824405835700500,3.524700439453125,0.05883215740323067,-0.41791868209838867,0.0015784555580466986
1667824405845708500,3.53470849609375,-0.04733822122216225,-0.3579653203487396,0.039018504321575165
1667824405855715600,3.544715576171875,-0.17370574176311493,-0.2907892167568207,0.08311592787504196
1667824405865723600,3.5547236328125,-0.3020639717578888,-0.24369122087955475,0.13760340213775635
1667824405875731500,3.5647314453125,-0.41656339168548584,-0.20623785257339478,0.20009580254554749
1667824405885739500,3.574739501953125,-0.5240789651870728,-0.2034255564212799,0.2695145606994629
1667824405895747600,3.58474755859375,-0.6304764747619629,-0.24276843667030334,0.3438950479030609
1667824405905754600,3.594754638671875,-0.7268800139427185,-0.2956241965293884,0.41626885533332825
1667824405915762700,3.6047626953125,-0.8107096552848816,-0.31329506635665894,0.46613892912864685
1667824405925770500,3.6147705078125,-0.8757333755493164,-0.30254361033439636,0.47837990522384644
1667824405935778600,3.624778564453125,-0.9327945113182068,-0.277237206697464,0.45750176906585693
1667824405945786400,3.634786376953125,-0.9756245613098145,-0.22691278159618378,0.3965907692909241
1667824405955794700,3.644794677734375,-1.0152044296264648,-0.1501879096031189,0.2924499809741974
1667824405965801500,3.654801513671875,-1.0549566745758057,-0.0634482130408287,0.1552116870880127
1667824405975809500,3.6648095703125,-1.0938187837600708,0.03214515373110771,0.0011323761427775025
1667824405985817600,3.674817626953125,-1.1279234886169434,0.13669180870056152,-0.14005857706069946
1667824405995825400,3.684825439453125,-1.1619675159454346,0.22533538937568665,-0.25175660848617554
1667824406005832700,3.694832763671875,-1.1843684911727905,0.2853499948978424,-0.3304503560066223
1667824406015840500,3.704840576171875,-1.2013533115386963,0.3140045404434204,-0.36227700114250183
1667824406025848600,3.7148486328125,-1.2064452171325684,0.3170163035392761,-0.3551937937736511
1667824406035856400,3.7248564453125,-1.2009741067886353,0.29463908076286316,-0.32386675477027893
1667824406045864700,3.73486474609375,-1.187400460243225,0.25728559494018555,-0.2863025963306427
1667824406055872500,3.74487255859375,-1.1624964475631714,0.22443950176239014,-0.2531273365020752
1667824406065879600,3.754879638671875,-1.1241432428359985,0.19976185262203217,-0.21735228598117828
1667824406075887400,3.764887451171875,-1.081773042678833,0.17845842242240906,-0.20496885478496552
1667824406085895400,3.7748955078125,-1.0350468158721924,0.1845828890800476,-0.2212809920310974
1667824406095903700,3.78490380859375,-0.9772102236747742,0.22355718910694122,-0.2649536430835724
1667824406105911600,3.79491162109375,-0.9091461896896362,0.2746150493621826,-0.3390568792819977
1667824406115918600,3.804918701171875,-0.8470865488052368,0.3169723451137543,-0.43898242712020874
1667824406125926400,3.814926513671875,-0.7957813143730164,0.35836082696914673,-0.5556387305259705
1667824406135934500,3.8249345703125,-0.7399126887321472,0.39243781566619873,-0.6818259358406067
1667824406145942500,3.834942626953125,-0.692931592464447,0.4242285192012787,-0.7955573201179504
1667824406155950600,3.84495068359375,-0.6390910148620605,0.4427657127380371,-0.8891456127166748
1667824406165957400,3.854957275390625,-0.5798276662826538,0.43323904275894165,-0.9638890624046326
1667824406175965400,3.86496533203125,-0.5160588026046753,0.4153655171394348,-1.011380672454834
1667824406185973800,3.874973876953125,-0.44047990441322327,0.3639198839664459,-1.0261399745941162
1667824406195981600,3.884981689453125,-0.34752386808395386,0.27902790904045105,-1.0134166479110718
1667824406205988600,3.894988525390625,-0.2289721965789795,0.15883944928646088,-0.964308500289917
1667824406215996400,3.904996337890625,-0.08247170597314835,0.007540207821875811,-0.8995436429977417
1667824406226004500,3.91500439453125,0.091744564473629,-0.19641424715518951,-0.841241180896759
1667824406236012500,3.925012451171875,0.2789938151836395,-0.4621545970439911,-0.8047904968261719
1667824406246020600,3.9350205078125,0.4654505252838135,-0.7412557005882263,-0.8109455704689026
1667824406256028700,3.945028564453125,0.6513069272041321,-0.9886913299560547,-0.8406867384910583
1667824406266035500,3.955035400390625,0.8332239985466003,-1.1446162462234497,-0.8699114322662354
1667824406276043800,3.965043701171875,1.0068272352218628,-1.1801636219024658,-0.8834632039070129
1667824406286051600,3.975051513671875,1.1423866748809814,-1.0735969543457031,-0.8510690331459045
1667824406296059600,3.9850595703125,1.235547423362732,-0.8564683198928833,-0.7576658725738525
1667824406306067500,3.9950673828125,1.2820073366165161,-0.6173401474952698,-0.6248332262039185
1667824406316074500,4.005074462890625,1.3058801889419556,-0.43195486068725586,-0.4599561393260956
1667824406326082600,4.01508251953125,1.319869041442871,-0.3166642189025879,-0.29493921995162964
1667824406336090600,4.025090576171875,1.3213825225830078,-0.2711087167263031,-0.155149906873703
1667824406346098700,4.0350986328125,1.319052815437317,-0.2830471396446228,-0.04987834393978119
1667824406356106500,4.0451064453125,1.3123767375946045,-0.32810917496681213,0.021952703595161438
1667824406366113500,4.055113525390625,1.2873398065567017,-0.3816951513290405,0.09278719127178192
1667824406376121600,4.06512158203125,1.2268352508544922,-0.4263180196285248,0.16671441495418549
1667824406386129700,4.075129638671875,1.1231544017791748,-0.452820748090744,0.26181164383888245
1667824406396137500,4.085137451171875,0.9932070374488831,-0.4776374101638794,0.3735469579696655
1667824406406145500,4.0951455078125,0.8402867317199707,-0.4907526671886444,0.4880194664001465
1667824406416152600,4.105152587890625,0.6927396059036255,-0.4932880103588104,0.5893303751945496
1667824406426160600,4.11516064453125,0.5667177438735962,-0.48129045963287354,0.6637880802154541
1667824406436168700,4.125168701171875,0.476176381111145,-0.4605090320110321,0.694340169429779
1667824406446176500,4.135176513671875,0.4193304181098938,-0.41157981753349304,0.6837282776832581
1667824406456184600,4.1451845703125,0.38474875688552856,-0.32101237773895264,0.6397605538368225
1667824406466191600,4.155191650390625,0.3692941665649414,-0.18955501914024353,0.5959842801094055
1667824406476199700,4.16519970703125,0.3634738028049469,-0.06932554394006729,0.5517358779907227
1667824406486207500,4.17520751953125,0.3587437868118286,0.032584842294454575,0.5193286538124084
1667824406496215600,4.185215576171875,0.3532371520996094,0.12709137797355652,0.5050746202468872
1667824406506223400,4.195223388671875,0.3531780242919922,0.2121809720993042,0.4943029284477234
1667824406516230700,4.205230712890625,0.3612902760505676,0.28791379928588867,0.4922986328601837
1667824406526238500,4.215238525390625,0.38085120916366577,0.3566499948501587,0.5180671215057373
1667824406536246500,4.22524658203125,0.4143412709236145,0.4263308048248291,0.5628007650375366
1667824406546254600,4.235254638671875,0.45601439476013184,0.48010188341140747,0.6231266856193542
1667824406556262400,4.245262451171875,0.5130656957626343,0.4995594918727875,0.684261679649353
1667824406566269700,4.255269775390625,0.5774289965629578,0.4720359742641449,0.7244154810905457
1667824406576277500,4.265277587890625,0.6499050259590149,0.40194183588027954,0.7305338382720947
1667824406586285600,4.27528564453125,0.706519603729248,0.3131621778011322,0.6947332620620728
1667824406596293400,4.28529345703125,0.7502697110176086,0.2388586550951004,0.6260652542114258
1667824406606301400,4.295301513671875,0.7721588015556335,0.19421155750751495,0.5462297797203064
1667824406616308500,4.30530859375,0.7762749791145325,0.18054740130901337,0.4631447494029999
1667824406626316500,4.315316650390625,0.7557563781738281,0.2088102102279663,0.3776985704898834
1667824406636324600,4.32532470703125,0.7140147686004639,0.2807203531265259,0.29878777265548706
1667824406646332400,4.33533251953125,0.6709288358688354,0.37913745641708374,0.2415444552898407
1667824406656340500,4.345340576171875,0.6357476711273193,0.48891961574554443,0.21653737127780914
1667824406666347500,4.355347412109375,0.6314070224761963,0.589974582195282,0.23321540653705597
1667824406676355600,4.36535546875,0.6522281169891357,0.6533474326133728,0.2917836606502533
1667824406686363400,4.37536328125,0.6949678659439087,0.6733248829841614,0.38506191968917847
1667824406696371500,4.385371337890625,0.7307964563369751,0.6687056422233582,0.4981706440448761
1667824406706379800,4.3953798828125,0.7495855689048767,0.6444498300552368,0.6280439496040344
1667824406716386600,4.405386474609375,0.7430009245872498,0.6081922054290771,0.7589942216873169
1667824406726394600,4.41539453125,0.6931803226470947,0.5639254450798035,0.8708531260490417
1667824406736402400,4.42540234375,0.6023266315460205,0.49612265825271606,0.9448610544204712
1667824406746410200,4.43541015625,0.4824441373348236,0.41720494627952576,0.9840918183326721
1667824406756418000,4.44541796875,0.34607458114624023,0.3410577178001404,0.9726812243461609
1667824406766425000,4.455425048828125,0.2069379985332489,0.28492414951324463,0.9304749369621277
1667824406776433000,4.465432861328125,0.07903090119361877,0.27172738313674927,0.8546627163887024
1667824406786441000,4.47544091796875,-0.03364957123994827,0.30532076954841614,0.7621644735336304
1667824406796449000,4.485448974609375,-0.12317013740539551,0.3835705518722534,0.665813684463501
1667824406806456000,4.4954560546875,-0.17376886308193207,0.4849994480609894,0.5926425457000732
1667824406816464000,4.5054638671875,-0.192284494638443,0.5844575762748718,0.5616068840026855
1667824406826472000,4.515471923828125,-0.17896868288516998,0.6442421078681946,0.5744454264640808
1667824406836480300,4.525480224609375,-0.15484923124313354,0.6492520570755005,0.6208795309066772
1667824406846488000,4.535488037109375,-0.12824878096580505,0.5969760417938232,0.6886300444602966
1667824406856496000,4.54549609375,-0.1024312973022461,0.48872894048690796,0.7682825326919556
1667824406866503000,4.5555029296875,-0.07101159542798996,0.34003692865371704,0.8517886400222778
1667824406876511000,4.565510986328125,-0.033363018184900284,0.17934446036815643,0.9375994205474854
1667824406886519000,4.57551904296875,-0.004508997779339552,0.024751951918005943,1.0081223249435425
1667824406896527000,4.585527099609375,0.015155251137912273,-0.14207085967063904,1.0452784299850464
1667824406906534000,4.595533935546875,0.000910268456209451,-0.33701664209365845,1.0199867486953735
1667824406916542000,4.6055419921875,-0.06659367680549622,-0.5591261386871338,0.9300234913825989
1667824406926550300,4.61555029296875,-0.2052096128463745,-0.8420779705047607,0.7461157441139221
1667824406936558000,4.62555810546875,-0.4331221282482147,-1.161548376083374,0.4431188404560089
1667824406946566100,4.635566162109375,-0.7151298522949219,-1.4721230268478394,0.03033287264406681
1667824406956573000,4.645572998046875,-1.0124601125717163,-1.6620521545410156,-0.45952603220939636
1667824406966581000,4.6555810546875,-1.2894418239593506,-1.6573690176010132,-0.9665407538414001
1667824406976589000,4.665589111328125,-1.5500720739364624,-1.4712207317352295,-1.4380496740341187
1667824406986597000,4.67559716796875,-1.786030888557434,-1.0792350769042969,-1.7977373600006104
1667824406996605200,4.685605224609375,-1.9363967180252075,-0.5636370182037354,-1.987558364868164
1667824407006612000,4.695612060546875,-1.978502869606018,-0.05667819455265999,-2.025819778442383
1667824407016620000,4.7056201171875,-1.944212794303894,0.38266536593437195,-1.937625765800476
1667824407026628000,4.715628173828125,-1.8330398797988892,0.719905436038971,-1.741072416305542
1667824407036636200,4.72563623046875,-1.6539705991744995,0.9033690094947815,-1.4599177837371826
1667824407046644000,4.73564404296875,-1.4589102268218994,0.9301782250404358,-1.1391807794570923
1667824407056651000,4.745651123046875,-1.2690812349319458,0.7899976968765259,-0.8159344792366028
1667824407066659000,4.7556591796875,-1.1153193712234497,0.5212951302528381,-0.516440749168396
1667824407076667100,4.765667236328125,-0.9839538335800171,0.1959359496831894,-0.2529369294643402
1667824407086675200,4.77567529296875,-0.8696906566619873,-0.14068840444087982,-0.031674306839704514
1667824407096683000,4.78568310546875,-0.7688308954238892,-0.4526521563529968,0.14238138496875763
1667824407106690000,4.79568994140625,-0.6897464394569397,-0.7191384434700012,0.2569204866886139
1667824407116698000,4.805697998046875,-0.634655773639679,-0.9376907348632812,0.29963332414627075
1667824407126706200,4.8157060546875,-0.5945781469345093,-1.1034700870513916,0.27876558899879456
1667824407136714000,4.8257138671875,-0.5607554316520691,-1.212138056755066,0.18829667568206787
1667824407146722000,4.83572216796875,-0.5345627665519714,-1.2614318132400513,0.064900703728199
1667824407156729000,4.84572900390625,-0.5099689960479736,-1.254893183708191,-0.08233615010976791
1667824407166737200,4.855737060546875,-0.4908248484134674,-1.1888915300369263,-0.22483684122562408
1667824407176745000,4.865744873046875,-0.4883861839771271,-1.0883324146270752,-0.3613414168357849
1667824407186753000,4.8757529296875,-0.4942121207714081,-0.9597020745277405,-0.47520914673805237
1667824407196761000,4.885760986328125,-0.5056224465370178,-0.8113165497779846,-0.5510005950927734
1667824407206768000,4.89576806640625,-0.517492413520813,-0.6400715708732605,-0.5705308318138123
1667824407216776200,4.905776123046875,-0.5163475275039673,-0.4489727318286896,-0.5300263166427612
1667824407226784000,4.915783935546875,-0.5075838565826416,-0.25736042857170105,-0.42539843916893005
1667824407236792000,4.9257919921875,-0.49518150091171265,-0.08493086695671082,-0.27315405011177063
1667824407246800000,4.9357998046875,-0.47927072644233704,0.02154443971812725,-0.11291376501321793
1667824407256807200,4.94580712890625,-0.4710197150707245,0.07184196263551712,0.04408650100231171
1667824407266815000,4.95581494140625,-0.47358861565589905,0.0598665289580822,0.19120751321315765
1667824407276823000,4.965822998046875,-0.5032956600189209,-0.02279745787382126,0.29395171999931335
1667824407286831000,4.9758310546875,-0.5691601037979126,-0.1605934053659439,0.35174044966697693
1667824407296838100,4.985838134765625,-0.6764362454414368,-0.3165305554866791,0.3678922653198242
1667824407306846200,4.99584619140625,-0.8028911352157593,-0.4377877414226532,0.35012713074684143
1667824407316854000,5.00585400390625,-0.9289710521697998,-0.48118022084236145,0.30106663703918457
1667824407326862000,5.015862060546875,-1.0521198511123657,-0.44567814469337463,0.21715416014194489
1667824407336870000,5.025869873046875,-1.1503108739852905,-0.35357698798179626,0.10759703069925308
1667824407346877200,5.035877197265625,-1.2308752536773682,-0.2215544879436493,-0.035645611584186554
1667824407356885000,5.045885009765625,-1.3039436340332031,-0.07068189233541489,-0.1803189069032669
1667824407366893000,5.05589306640625,-1.360666275024414,0.09965948015451431,-0.29925593733787537
1667824407376901000,5.065901123046875,-1.3942856788635254,0.25415265560150146,-0.3894777297973633
1667824407386909000,5.075908935546875,-1.4003270864486694,0.3777451515197754,-0.45485779643058777
1667824407396916200,5.085916259765625,-1.3638393878936768,0.4547765552997589,-0.5126665234565735
1667824407406924000,5.095924072265625,-1.2995905876159668,0.4891670346260071,-0.5695865154266357
1667824407416932000,5.10593212890625,-1.2014260292053223,0.48494645953178406,-0.6262186169624329
1667824407426940000,5.11593994140625,-1.0796167850494385,0.45975932478904724,-0.6733477711677551
1667824407436948000,5.125947998046875,-0.950934112071991,0.4403150677680969,-0.7113292813301086
1667824407446955000,5.135955078125,-0.8222278356552124,0.4436013996601105,-0.7229768633842468
1667824407456963000,5.145963134765625,-0.7019588947296143,0.4756014049053192,-0.7005138993263245
1667824407466971100,5.15597119140625,-0.5935770273208618,0.5225721001625061,-0.638839066028595
1667824407476979000,5.16597900390625,-0.493805468082428,0.5677449107170105,-0.5526578426361084
1667824407486987000,5.175987060546875,-0.38468509912490845,0.6003161668777466,-0.47089508175849915
1667824407496994000,5.185994140625,-0.2522293031215668,0.5828921794891357,-0.41019925475120544
1667824407507002000,5.196002197265625,-0.09334086626768112,0.49175748229026794,-0.3882686495780945
1667824407517010000,5.206010009765625,0.07921253144741058,0.3050709664821625,-0.41010257601737976
1667824407527018000,5.21601806640625,0.2656354010105133,0.06316911429166794,-0.4807061553001404
1667824407537026000,5.226026123046875,0.46085256338119507,-0.18184569478034973,-0.5869588255882263
1667824407547033000,5.236033203125,0.6429049372673035,-0.39184847474098206,-0.7142126560211182
1667824407557041200,5.246041259765625,0.7981565594673157,-0.5488165020942688,-0.8492162823677063
1667824407567049000,5.256049072265625,0.9242215752601624,-0.6123393177986145,-0.9637607336044312
1667824407577057000,5.26605712890625,1.0207762718200684,-0.5682069659233093,-1.0410964488983154
1667824407587064000,5.27606396484375,1.0841494798660278,-0.4173080325126648,-1.0547508001327515
1667824407597072100,5.286072021484375,1.1237146854400635,-0.16329704225063324,-0.9901276230812073
1667824407607080000,5.296079833984375,1.178601622581482,0.12327665835618973,-0.8347966074943542
1667824407617088000,5.306087890625,1.2610565423965454,0.3445855975151062,-0.6192275881767273
1667824407627096000,5.316095947265625,1.3800811767578125,0.4477740526199341,-0.3898255228996277
1667824407637103000,5.32610302734375,1.5220553874969482,0.4135074317455292,-0.17720992863178253
1667824407647111000,5.33611083984375,1.6584590673446655,0.2754020094871521,-0.004436826333403587
1667824407657119000,5.346118896484375,1.751530647277832,0.08311539143323898,0.11806724965572357
1667824407667127000,5.356126953125,1.7809847593307495,-0.10027334094047546,0.1967942863702774
1667824407677135000,5.366135009765625,1.7597129344940186,-0.21944554150104523,0.2600667476654053
1667824407687142100,5.37614208984375,1.6854315996170044,-0.2616473138332367,0.3185252547264099
1667824407697150000,5.38614990234375,1.5483977794647217,-0.24304726719856262,0.3862510323524475
1667824407707158000,5.396157958984375,1.3592302799224854,-0.17104259133338928,0.47896578907966614
1667824407717165800,5.406165771484375,1.1352368593215942,-0.06513959169387817,0.6077783703804016
1667824407727174100,5.416174072265625,0.8942855000495911,0.04372217878699303,0.7790614366531372
1667824407737181000,5.426180908203125,0.6488983631134033,0.14301814138889313,0.9688729047775269
1667824407747188700,5.436188720703125,0.43964555859565735,0.18453815579414368,1.1492480039596558
1667824407757196800,5.44619677734375,0.28775909543037415,0.1706143468618393,1.2849581241607666
1667824407767204900,5.456204833984375,0.18705590069293976,0.11567120254039764,1.3744126558303833
1667824407777213000,5.466212890625,0.1326344758272171,0.038175348192453384,1.4087104797363281
1667824407787219700,5.4762197265625,0.1000288650393486,-0.033008284866809845,1.4044768810272217
1667824407797227800,5.486227783203125,0.07483775913715363,-0.10750355571508408,1.3656038045883179
1667824407807235800,5.49623583984375,0.04914943501353264,-0.183057963848114,1.313083529472351
1667824407817244000,5.506243896484375,0.0169153343886137,-0.25732794404029846,1.25068998336792
1667824407827252000,5.516251953125,-0.018026404082775116,-0.3142729699611664,1.181140422821045
1667824407837258800,5.5262587890625,-0.04597015306353569,-0.34162577986717224,1.1025617122650146
1667824407847266800,5.536266845703125,-0.05367521196603775,-0.3416611850261688,1.010332465171814
1667824407857275000,5.54627490234375,-0.04089843109250069,-0.294867604970932,0.9023756384849548
1667824407867283000,5.556282958984375,-0.014434332959353924,-0.19755089282989502,0.7698327898979187
1667824407877289700,5.566289794921875,0.021262677386403084,-0.05700176581740379,0.6233863234519958
1667824407887297800,5.5762978515625,0.06049210578203201,0.08308849483728409,0.4737454652786255
1667824407897305600,5.5863056640625,0.09304179251194,0.1879291534423828,0.3224760591983795
1667824407907314000,5.59631396484375,0.1287800818681717,0.2626670300960541,0.20490947365760803
1667824407917322000,5.606322021484375,0.17390388250350952,0.2846253514289856,0.11744646728038788
1667824407927328800,5.616328857421875,0.21787799894809723,0.2563084661960602,0.07492057979106903
1667824407937336800,5.6263369140625,0.26456934213638306,0.18760158121585846,0.06684587895870209
1667824407947345000,5.636344970703125,0.3110702633857727,0.0849098339676857,0.08373644202947617
1667824407957353000,5.64635302734375,0.3364480435848236,-0.030458839610219002,0.09705278277397156
1667824407967360800,5.65636083984375,0.3384968340396881,-0.1420855075120926,0.07773420959711075
1667824407977367800,5.666367919921875,0.32333943247795105,-0.22405201196670532,0.016878848895430565
1667824407987375600,5.676375732421875,0.30336254835128784,-0.26264122128486633,-0.07307181507349014
1667824407997384000,5.686384033203125,0.275741308927536,-0.2447998970746994,-0.18423934280872345
1667824408007391700,5.696391845703125,0.2315775603055954,-0.189202681183815,-0.3007931113243103
1667824408017399800,5.70639990234375,0.18180255591869354,-0.07810891419649124,-0.3978283405303955
1667824408027406600,5.716406494140625,0.13720792531967163,0.07514002174139023,-0.457347571849823
1667824408037415000,5.726414794921875,0.10542576014995575,0.2549856901168823,-0.45771563053131104
1667824408047423000,5.736423095703125,0.08947715163230896,0.42490893602371216,-0.3985021114349365
1667824408057430800,5.7464306640625,0.09547591954469681,0.542366087436676,-0.2909199893474579
1667824408067437800,5.756437744140625,0.12427321821451187,0.6184272766113281,-0.13395673036575317
1667824408077445600,5.766445556640625,0.18004938960075378,0.6632506847381592,0.0564478300511837
1667824408087454000,5.776453857421875,0.24685505032539368,0.6670323610305786,0.2584552466869354
1667824408097461800,5.786461669921875,0.31519976258277893,0.6363477110862732,0.4544048011302948
1667824408107469800,5.7964697265625,0.3841031789779663,0.5865916013717651,0.6388742327690125
1667824408117476600,5.8064765625,0.4475303590297699,0.5320106148719788,0.7869755625724792
1667824408127484700,5.816484619140625,0.49678659439086914,0.45190727710723877,0.890110194683075
1667824408137493000,5.826492919921875,0.527431070804596,0.32932329177856445,0.9370079040527344
1667824408147500800,5.836500732421875,0.5301626920700073,0.17866268754005432,0.9197168350219727
1667824408157508900,5.8465087890625,0.5039792656898499,0.0014452975010499358,0.8393316864967346
1667824408167515600,5.856515625,0.44040533900260925,-0.1873917281627655,0.6894758939743042
1667824408177524000,5.86652392578125,0.3286071717739105,-0.3605954647064209,0.48703891038894653
1667824408187531800,5.87653173828125,0.16719138622283936,-0.5077905058860779,0.24098332226276398
1667824408197539800,5.886539794921875,-0.02617621049284935,-0.6396646499633789,-0.04860428720712662
1667824408207548000,5.8965478515625,-0.2313956767320633,-0.754206120967865,-0.4008805751800537
1667824408217554700,5.9065546875,-0.43685027956962585,-0.8524762392044067,-0.8077226281166077
1667824408227563000,5.91656298828125,-0.6108524799346924,-0.8846189975738525,-1.2423126697540283
1667824408237570800,5.92657080078125,-0.7363517880439758,-0.8693335652351379,-1.651267170906067
1667824408247579000,5.936578857421875,-0.7996132969856262,-0.7806593179702759,-1.9730433225631714
1667824408257585700,5.946585693359375,-0.8089242577552795,-0.611486554145813,-2.162776470184326
1667824408267594000,5.956593994140625,-0.7676923871040344,-0.3543892502784729,-2.172753095626831
1667824408277601800,5.966601806640625,-0.683590292930603,-0.09156240522861481,-2.015686273574829
1667824408287609900,5.97660986328125,-0.5382541418075562,0.14241041243076324,-1.7187130451202393
1667824408297618000,5.986617919921875,-0.3124646842479706,0.31449827551841736,-1.3158931732177734
1667824408307624700,5.996624755859375,-0.04362790286540985,0.3826163411140442,-0.8695588111877441
1667824408317633000,6.006633056640625,0.23054133355617523,0.35623109340667725,-0.40892359614372253
1667824408327640800,6.016640869140625,0.44984251260757446,0.25698307156562805,0.039862461388111115
1667824408337649000,6.02664892578125,0.5931695699691772,0.11446452885866165,0.44258782267570496
1667824408347656700,6.03665673828125,0.6741312742233276,-0.026993533596396446,0.7763593792915344
1667824408357663700,6.046663818359375,0.7106813192367554,-0.156048983335495,1.031395673751831
1667824408367671800,6.056671875,0.7091007232666016,-0.2729625701904297,1.1945006847381592
1667824408377680000,6.066679931640625,0.6544481515884399,-0.3797614276409149,1.2878732681274414
1667824408387688000,6.07668798828125,0.570316731929779,-0.47736096382141113,1.3098325729370117
1667824408397694700,6.08669482421875,0.4591132700443268,-0.5587413311004639,1.2530410289764404
1667824408407702800,6.096702880859375,0.3260481357574463,-0.6131108403205872,1.1379189491271973
1667824408417710800,6.1067109375,0.1899542212486267,-0.6291808485984802,0.973267138004303
1667824408427719000,6.116718994140625,0.06075602397322655,-0.609470546245575,0.7745561599731445
1667824408437726700,6.126726806640625,-0.07767508924007416,-0.5644772052764893,0.547752320766449
1667824408447733800,6.136733642578125,-0.21903914213180542,-0.4814702272415161,0.32625800371170044
1667824408457741800,6.146741943359375,-0.35584598779678345,-0.35253915190696716,0.13885802030563354
1667824408467750000,6.15675,-0.47520914673805237,-0.21371974050998688,0.002491120947524905
1667824408477757700,6.1667578125,-0.5975720882415771,-0.09674358367919922,-0.08090204000473022
1667824408487765800,6.176765869140625,-0.7179232239723206,-0.014701448380947113,-0.11205755919218063
1667824408497772800,6.186772705078125,-0.8406041264533997,0.01894812472164631,-0.10747931897640228
1667824408507780900,6.19678076171875,-0.940923810005188,-0.0019321233266964555,-0.08366480469703674
1667824408517789000,6.206788818359375,-1.010266900062561,-0.043236419558525085,-0.04406572878360748
1667824408527796700,6.216796630859375,-1.0555728673934937,-0.055216383188962936,-0.002724946476519108
1667824408537803800,6.2268037109375,-1.0891820192337036,-0.023123161867260933,0.03856177255511284
1667824408547811800,6.236811767578125,-1.111871600151062,0.04809455946087837,0.08508959412574768
1667824408557820000,6.24681982421875,-1.1338136196136475,0.14032942056655884,0.12442980706691742
1667824408567827700,6.25682763671875,-1.156240701675415,0.2512543201446533,0.16560760140419006
1667824408577835800,6.266835693359375,-1.1887032985687256,0.34503915905952454,0.19532369077205658
1667824408587842800,6.2768427734375,-1.2311513423919678,0.4165290296077728,0.19693011045455933
1667824408597851000,6.286850830078125,-1.2739084959030151,0.47942066192626953,0.18097910284996033
1667824408607859000,6.29685888671875,-1.3024812936782837,0.5223883390426636,0.13799382746219635
1667824408617866800,6.30686669921875,-1.3124276399612427,0.5499297380447388,0.07505107671022415
1667824408627874800,6.316874755859375,-1.3078179359436035,0.5634137988090515,0.001725728390738368
1667824408637881900,6.3268818359375,-1.299193024635315,0.5646846890449524,-0.08030389249324799
1667824408647890000,6.336889892578125,-1.2844407558441162,0.5574904084205627,-0.16776902973651886
1667824408657897700,6.346897705078125,-1.2550716400146484,0.5385116934776306,-0.25517237186431885
1667824408667905800,6.35690576171875,-1.207136869430542,0.5006292462348938,-0.33954745531082153
1667824408677912800,6.366912841796875,-1.160502314567566,0.4397241175174713,-0.4212590754032135
1667824408687921000,6.3769208984375,-1.1213958263397217,0.38538017868995667,-0.500536322593689
1667824408697929000,6.386928955078125,-1.0847965478897095,0.36355504393577576,-0.5809733867645264
1667824408707936800,6.396936767578125,-1.051067590713501,0.35983726382255554,-0.6591771245002747
1667824408717944800,6.40694482421875,-1.0089950561523438,0.36951014399528503,-0.7192620038986206
1667824408727952000,6.416951904296875,-0.9585121273994446,0.38689178228378296,-0.7541062831878662
1667824408737960000,6.4269599609375,-0.8866451382637024,0.3789611756801605,-0.7581449747085571
1667824408747968500,6.436968505859375,-0.7837637662887573,0.3594764173030853,-0.7299969792366028
1667824408757976600,6.4469765625,-0.6471510529518127,0.3286324739456177,-0.6650994420051575
1667824408767984600,6.456984619140625,-0.48016661405563354,0.2789999544620514,-0.575474202632904
1667824408777991400,6.466991455078125,-0.3044946491718292,0.20577792823314667,-0.4795170724391937
1667824408787999700,6.476999755859375,-0.1131337434053421,0.11571008712053299,-0.38197532296180725
1667824408798007600,6.487007568359375,0.09562133252620697,0.033483657985925674,-0.29363375902175903
1667824408808015600,6.497015625,0.326178640127182,-0.06649327278137207,-0.22973333299160004
1667824408818022400,6.5070224609375,0.5703537464141846,-0.16779965162277222,-0.18357941508293152
1667824408828030500,6.517030517578125,0.8052024841308594,-0.26881441473960876,-0.15671318769454956
1667824408838038500,6.52703857421875,1.0091495513916016,-0.3757571280002594,-0.14191213250160217
1667824408848046600,6.537046630859375,1.1766247749328613,-0.4888961911201477,-0.14063194394111633
1667824408858054700,6.5470546875,1.2997658252716064,-0.6118428707122803,-0.16854533553123474
1667824408868061400,6.5570615234375,1.363579511642456,-0.7257137894630432,-0.24880875647068024
1667824408878069800,6.56706982421875,1.373740553855896,-0.8107503652572632,-0.3768460750579834
1667824408888077600,6.57707763671875,1.335873007774353,-0.8130966424942017,-0.5282981991767883
1667824408898085600,6.587085693359375,1.2678321599960327,-0.7119910717010498,-0.6535418629646301
1667824408908093400,6.597093505859375,1.16522216796875,-0.5236560106277466,-0.7225736379623413
1667824408918100500,6.6071005859375,1.0561449527740479,-0.2698458731174469,-0.6943566799163818
1667824408928108500,6.617108642578125,0.979628324508667,0.01296320278197527,-0.5451099276542664
1667824408938116600,6.62711669921875,0.9613707661628723,0.21420682966709137,-0.30062639713287354
1667824408948124700,6.637124755859375,0.9864124655723572,0.32805830240249634,0.004202201962471008
1667824408958131500,6.64713134765625,1.0345430374145508,0.3290114402770996,0.3157494366168976
1667824408968139800,6.657139892578125,1.078184723854065,0.25033873319625854,0.5900321006774902
1667824408978147600,6.667147705078125,1.1034938097000122,0.12119779735803604,0.7987291216850281
1667824408988155600,6.67715576171875,1.1002641916275024,-0.026757843792438507,0.9281880855560303
1667824408998163500,6.68716357421875,1.049616813659668,-0.1836976557970047,0.9720234274864197
1667824409008170500,6.69717041015625,0.9531463980674744,-0.3026685118675232,0.9525623917579651
1667824409018178600,6.707178466796875,0.8243021368980408,-0.3514765501022339,0.8889591693878174
1667824409028186600,6.7171865234375,0.6875786781311035,-0.32704949378967285,0.7900800108909607
1667824409038194700,6.727194580078125,0.5718704462051392,-0.23392461240291595,0.6811202168464661
1667824409048202500,6.737202392578125,0.4889443814754486,-0.11699505895376205,0.5686948895454407
1667824409058209500,6.74720947265625,0.4249664843082428,-0.008798818103969097,0.4645833969116211
1667824409068217600,6.757217529296875,0.3695516884326935,0.08020962029695511,0.37730202078819275
1667824409078225700,6.7672255859375,0.33077844977378845,0.1340978890657425,0.30373111367225647
1667824409088233500,6.7772333984375,0.3148841857910156,0.17228202521800995,0.23794998228549957
1667824409098240500,6.787240478515625,0.3245983123779297,0.18416903913021088,0.18397462368011475
1667824409108248600,6.79724853515625,0.3465736508369446,0.18043555319309235,0.13149571418762207
1667824409118256600,6.807256591796875,0.38650083541870117,0.16567951440811157,0.09620802849531174
1667824409128264700,6.8172646484375,0.4442083537578583,0.1537131369113922,0.09503091126680374
1667824409138272500,6.8272724609375,0.5180208086967468,0.14400669932365417,0.14060239493846893
1667824409148279600,6.837279541015625,0.5912795662879944,0.12875531613826752,0.2125178575515747
1667824409158287600,6.84728759765625,0.6465547680854797,0.07503988593816757,0.2998117506504059
1667824409168295700,6.857295654296875,0.6929070949554443,-0.0013781858142465353,0.35950252413749695
1667824409178303500,6.867303466796875,0.7473370432853699,-0.07939548790454865,0.41211166977882385
1667824409188310500,6.877310546875,0.7938246726989746,-0.18485213816165924,0.42314913868904114
1667824409198318600,6.887318603515625,0.821294367313385,-0.3067231774330139,0.3968093991279602
1667824409208326700,6.89732666015625,0.8298724293708801,-0.4030798077583313,0.34032827615737915
1667824409218334500,6.90733447265625,0.8275389671325684,-0.4644315838813782,0.2699132263660431
1667824409228342500,6.917342529296875,0.8099181652069092,-0.4624861478805542,0.20441599190235138
1667824409238349300,6.927349365234375,0.7794781923294067,-0.39132142066955566,0.1545136719942093
1667824409248357600,6.937357666015625,0.7406938076019287,-0.26024436950683594,0.13848331570625305
1667824409258365700,6.94736572265625,0.6947031617164612,-0.09479735046625137,0.15131202340126038
1667824409268373500,6.95737353515625,0.650044322013855,0.0642588809132576,0.19174866378307343
1667824409278381600,6.967381591796875,0.6276087760925293,0.185243621468544,0.25827282667160034
1667824409288388600,6.977388671875,0.6149433255195618,0.2352873533964157,0.33766910433769226
1667824409298396700,6.987396728515625,0.6009753346443176,0.23343059420585632,0.4193975329399109
1667824409308404500,6.997404541015625,0.5621070265769958,0.1876726895570755,0.48440104722976685
1667824409318412500,7.00741259765625,0.4961940348148346,0.10624228417873383,0.506881594657898
1667824409328420600,7.017420654296875,0.4079906940460205,0.025012409314513206,0.48673927783966064
1667824409338427600,7.027427734375,0.3086521029472351,-0.04978220537304878,0.42581096291542053
1667824409348435700,7.037435791015625,0.1983780711889267,-0.07336901873350143,0.3514570891857147
1667824409358443500,7.047443603515625,0.09843682497739792,-0.011601794511079788,0.2956279218196869
1667824409368451600,7.05745166015625,0.023930100724101067,0.12816037237644196,0.2714139223098755
1667824409378458600,7.067458740234375,-0.014297978952527046,0.3091256320476532,0.28120851516723633
1667824409388466700,7.077466796875,-0.02556474879384041,0.49092525243759155,0.3344011604785919
1667824409398474500,7.087474609375,-0.022419022396206856,0.6022805571556091,0.4163932204246521
1667824409408482600,7.097482666015625,-0.005515672732144594,0.6378968358039856,0.5153278112411499
1667824409418490600,7.10749072265625,0.020304739475250244,0.5838490724563599,0.618436872959137
1667824409428497700,7.11749755859375,0.04109497368335724,0.4717608690261841,0.6942336559295654
1667824409438505700,7.127505615234375,0.04429316148161888,0.33624377846717834,0.7427497506141663
1667824409448513500,7.137513427734375,0.021393438801169395,0.20160901546478271,0.7471261620521545
1667824409458521600,7.147521484375,-0.027790352702140808,0.07918722927570343,0.7079870104789734
1667824409468528400,7.1575283203125,-0.09408282488584518,-0.015907593071460724,0.6258585453033447
1667824409478536700,7.16753662109375,-0.15897047519683838,-0.09050486236810684,0.5032759308815002
1667824409488544500,7.17754443359375,-0.22273027896881104,-0.1759505271911621,0.3257208466529846
1667824409498552600,7.187552490234375,-0.279999703168869,-0.26683729887008667,0.0789872258901596
1667824409508560600,7.197560546875,-0.31832417845726013,-0.3559652864933014,-0.2112741619348526
1667824409518567700,7.207567626953125,-0.34282419085502625,-0.43805909156799316,-0.5352823138237
1667824409528575700,7.21757568359375,-0.3785129487514496,-0.5134726166725159,-0.875158429145813
1667824409538583600,7.22758349609375,-0.42035308480262756,-0.5579407811164856,-1.1922791004180908
1667824409548591600,7.237591552734375,-0.4614059627056122,-0.5428004264831543,-1.4370145797729492
1667824409558599400,7.247599365234375,-0.47669756412506104,-0.4668971300125122,-1.5763428211212158
1667824409568606700,7.257606689453125,-0.4681815803050995,-0.3408486545085907,-1.591712474822998
1667824409578614500,7.267614501953125,-0.42654865980148315,-0.19605712592601776,-1.4927071332931519
1667824409588622600,7.27762255859375,-0.36066845059394836,-0.05788353830575943,-1.3021398782730103
1667824409598630700,7.287630615234375,-0.2725819945335388,0.017015468329191208,-1.0444401502609253
1667824409608637700,7.2976376953125,-0.1886918842792511,0.00896899402141571,-0.7551944255828857
1667824409618645800,7.307645751953125,-0.11684965342283249,-0.07125740498304367,-0.4630691111087799
1667824409628653600,7.317653564453125,-0.07087071239948273,-0.19347891211509705,-0.18092398345470428
1667824409638661600,7.32766162109375,-0.06487593799829483,-0.32921916246414185,0.058035340160131454
1667824409648669400,7.33766943359375,-0.06920170783996582,-0.45381730794906616,0.2383020520210266
1667824409658676700,7.3476767578125,-0.07938883453607559,-0.5525585412979126,0.3510461747646332
1667824409668684500,7.3576845703125,-0.09764400124549866,-0.618511438369751,0.3919629752635956
1667824409678692600,7.367692626953125,-0.1270066797733307,-0.6504363417625427,0.38175082206726074
1667824409688700400,7.377700439453125,-0.1610828936100006,-0.6286535263061523,0.32968148589134216
1667824409698707500,7.38770751953125,-0.1876990646123886,-0.556415855884552,0.2541550397872925
1667824409708715500,7.397715576171875,-0.22578784823417664,-0.43987536430358887,0.1597321331501007
1667824409718723600,7.4077236328125,-0.2813328802585602,-0.30492928624153137,0.0601312480866909
1667824409728731600,7.417731689453125,-0.3629566431045532,-0.18055060505867004,-0.021690914407372475
1667824409738739500,7.427739501953125,-0.46898025274276733,-0.09438269585371017,-0.08523393422365189
1667824409748746200,7.437746337890625,-0.5821462273597717,-0.05098621919751167,-0.13077186048030853
1667824409758754300,7.44775439453125,-0.6951526999473572,-0.025774072855710983,-0.1517367959022522
1667824409768762000,7.45776220703125,-0.7859816551208496,0.004914597608149052,-0.12397067993879318
1667824409778770200,7.467770263671875,-0.8453722596168518,0.045828208327293396,-0.040822532027959824
1667824409788778000,7.477778076171875,-0.8882275819778442,0.06870263069868088,0.07560794055461884
1667824409798785300,7.487785400390625,-0.9263331890106201,0.0667545273900032,0.19546324014663696
1667824409808793000,7.49779296875,-0.970352292060852,0.049853842705488205,0.3030072748661041
1667824409818801200,7.50780126953125,-1.004136085510254,0.021672537550330162,0.38025280833244324
1667824409828809200,7.517809326171875,-1.0254671573638916,-0.011355185881257057,0.41955411434173584
1667824409838816300,7.527816162109375,-1.038554310798645,-0.04258314520120621,0.4083819091320038
1667824409848824300,7.53782421875,-1.0437476634979248,-0.052502356469631195,0.35245606303215027
1667824409858832100,7.54783203125,-1.0424389839172363,-0.03501790389418602,0.26109418272972107
1667824409868840200,7.557840087890625,-1.0447516441345215,0.00606455048546195,0.14013713598251343
1667824409878848000,7.567847900390625,-1.043584942817688,0.07655283063650131,0.015894277021288872
1667824409888855300,7.577855224609375,-1.026846170425415,0.15394429862499237,-0.0875098779797554
1667824409898863000,7.587863037109375,-1.0248973369598389,0.2148585021495819,-0.16908329725265503
1667824409908871200,7.59787109375,-1.0328258275985718,0.24762390553951263,-0.22365093231201172
1667824409918879200,7.607879150390625,-1.0484082698822021,0.23354484140872955,-0.2777751684188843
1667824409928886300,7.61788623046875,-1.069072961807251,0.1709997057914734,-0.357147753238678
1667824409938894300,7.627894287109375,-1.0979773998260498,0.10762393474578857,-0.44187700748443604
1667824409948902100,7.637902099609375,-1.1274691820144653,0.07169868797063828,-0.529376208782196
1667824409958910200,7.64791015625,-1.150046467781067,0.05753093585371971,-0.6150211095809937
1667824409968918000,7.65791796875,-1.154457926750183,0.06956496089696884,-0.7139601707458496
1667824409978925300,7.66792529296875,-1.1402961015701294,0.07567771524190903,-0.8247892260551453
1667824409988933000,7.67793310546875,-1.0977890491485596,0.07742954045534134,-0.935387909412384
1667824409998941200,7.687941162109375,-1.0569756031036377,0.09846345335245132,-1.026564121246338
1667824410008949200,7.69794921875,-1.0437713861465454,0.16673438251018524,-1.0885252952575684
1667824410018956300,7.707956298828125,-1.0458641052246094,0.28414517641067505,-1.1251575946807861
1667824410028964400,7.71796435546875,-1.0327602624893188,0.41033080220222473,-1.1430045366287231
1667824410038972200,7.72797216796875,-0.9946017265319824,0.49121740460395813,-1.1599379777908325
1667824410048980200,7.737980224609375,-0.9289302825927734,0.49926599860191345,-1.180555820465088
1667824410058988000,7.747988037109375,-0.8368403315544128,0.4404069483280182,-1.2002520561218262
1667824410068995300,7.757995361328125,-0.7056173086166382,0.32446250319480896,-1.1862870454788208
1667824410079003100,7.768003173828125,-0.5103098750114441,0.19102241098880768,-1.0922163724899292
1667824410089011200,7.77801123046875,-0.23866504430770874,0.04674140736460686,-0.9229352474212646
1667824410099019300,7.788019287109375,0.08098379522562027,-0.1720423400402069,-0.706228494644165
1667824410109026300,7.7980263671875,0.4154145121574402,-0.4813660979270935,-0.5009326338768005
1667824410119034400,7.808034423828125,0.7173024415969849,-0.8900697231292725,-0.36070626974105835
1667824410129042200,7.818042236328125,0.9540420174598694,-1.3059574365615845,-0.34671828150749207
1667824410139050200,7.82805029296875,1.1393530368804932,-1.639052391052246,-0.47922998666763306
1667824410149058000,7.83805810546875,1.2844923734664917,-1.8159937858581543,-0.7259412407875061
1667824410159065300,7.8480654296875,1.3611747026443481,-1.7687557935714722,-1.0605686902999878
1667824410169073200,7.8580732421875,1.3709490299224854,-1.4886984825134277,-1.4010618925094604
1667824410179081200,7.868081298828125,1.3130382299423218,-0.9741408824920654,-1.6696085929870605
1667824410189089000,7.878089111328125,1.2338532209396362,-0.3505103588104248,-1.8279229402542114
1667824410199097000,7.88809716796875,1.1961082220077515,0.2255721390247345,-1.8588448762893677
1667824410209104100,7.898104248046875,1.2239453792572021,0.6261259317398071,-1.761842131614685
1667824410219112200,7.9081123046875,1.3078714609146118,0.8253034949302673,-1.5471067428588867
1667824410229120300,7.918120361328125,1.4065206050872803,0.8453363180160522,-1.226129174232483
1667824410239128000,7.928128173828125,1.5334793329238892,0.7218447327613831,-0.8338852524757385
1667824410249135400,7.93813525390625,1.6388165950775146,0.4925321936607361,-0.3951166868209839
1667824410259143200,7.94814306640625,1.695258617401123,0.2289801836013794,0.060450293123722076
1667824410269151200,7.958151123046875,1.6807446479797363,-0.024163926020264626,0.49698367714881897
1667824410279159000,7.968158935546875,1.5977461338043213,-0.24678874015808105,0.8713380694389343
1667824410289167000,7.9781669921875,1.4565688371658325,-0.42073604464530945,1.1530147790908813
1667824410299174100,7.988174072265625,1.2849211692810059,-0.5476647019386292,1.3414973020553589
1667824410309182200,7.99818212890625,1.0788500308990479,-0.6312352418899536,1.441305160522461
1667824410319190300,8.008190185546875,0.8634681701660156,-0.6331905126571655,1.4805502891540527
1667824410329198000,8.018197998046874,0.6642451286315918,-0.5397037267684937,1.4598671197891235
1667824410339205400,8.028205322265626,0.492609441280365,-0.4067493975162506,1.38316810131073
1667824410349213200,8.038213134765625,0.35828810930252075,-0.26971563696861267,1.272124171257019
1667824410359221200,8.04822119140625,0.251386433839798,-0.16174788773059845,1.1641439199447632
1667824410369229000,8.05822900390625,0.1564042568206787,-0.06662829220294952,1.0951595306396484
1667824410379237000,8.068237060546876,0.06328203529119492,0.0037987329997122288,1.0418169498443604
1667824410389244200,8.078244140625,-0.0006165218073874712,0.06365194916725159,1.0235798358917236
1667824410399252200,8.088252197265625,-0.017724668607115746,0.12288730591535568,1.0343406200408936
1667824410409260300,8.09826025390625,0.002086054068058729,0.18168377876281738,1.0795725584030151
1667824410419268000,8.10826806640625,0.04639706015586853,0.23644103109836578,1.1436718702316284
1667824410429276200,8.118276123046876,0.09758461266756058,0.2922683358192444,1.2092828750610352
1667824410439283200,8.128283203125,0.15498346090316772,0.3405831456184387,1.2541033029556274
1667824410449291300,8.138291259765625,0.21658849716186523,0.3885056674480438,1.25728178024292
1667824410459299000,8.148299072265624,0.29540181159973145,0.4398311674594879,1.2128349542617798
1667824410469307100,8.15830712890625,0.3922854959964752,0.49046584963798523,1.1291835308074951
1667824410479314200,8.168314208984375,0.48824504017829895,0.5098102688789368,0.9954632520675659
1667824410489322200,8.178322265625,0.5746443867683411,0.5137759447097778,0.8193870186805725
1667824410499330300,8.188330322265625,0.6449046730995178,0.5063217878341675,0.6006187200546265
1667824410509338000,8.198338134765624,0.7107284665107727,0.4935756325721741,0.3624759316444397
1667824410519346200,8.20834619140625,0.7640768885612488,0.469673752784729,0.12262791395187378
1667824410529353200,8.218353271484375,0.7854647636413574,0.40437811613082886,-0.1058041900396347
1667824410539361300,8.228361328125,0.7743055820465088,0.33212095499038696,-0.2888139486312866
1667824410549369000,8.238369140625,0.7283329963684082,0.27155694365501404,-0.41241925954818726
1667824410559377200,8.248377197265626,0.6669623255729675,0.23025503754615784,-0.47409141063690186
1667824410569384200,8.25838427734375,0.6054933667182922,0.24109916388988495,-0.4657546579837799
1667824410579392300,8.268392333984375,0.559408962726593,0.3074222505092621,-0.38180994987487793
1667824410589400300,8.278400390625,0.5297480225563049,0.40694645047187805,-0.23728898167610168
1667824410599408000,8.288408203125,0.5218001008033752,0.528634786605835,-0.04162361100316048
1667824410609416200,8.298416259765625,0.5307837128639221,0.5890920162200928,0.17854976654052734
1667824410619423200,8.30842333984375,0.5590994954109192,0.5907250642776489,0.4073174297809601
1667824410629431300,8.318431396484375,0.6005854606628418,0.5625821352005005,0.6341348886489868
1667824410639439000,8.328439208984374,0.6320762634277344,0.5197001695632935,0.8211817145347595
1667824410649447200,8.338447265625,0.6502973437309265,0.4948619306087494,0.9505583643913269
1667824410659454200,8.3484541015625,0.6388502717018127,0.4986819624900818,1.0335043668746948
1667824410669462300,8.358462158203125,0.5954654812812805,0.5319414138793945,1.0825246572494507
1667824410679470000,8.368469970703124,0.5257327556610107,0.5775155425071716,1.1120198965072632
1667824410689478100,8.37847802734375,0.43726468086242676,0.5796287655830383,1.1109299659729004
1667824410699486200,8.388486328125,0.3319590389728546,0.5128955245018005,1.065549612045288
1667824410709493200,8.3984931640625,0.22367116808891296,0.39189186692237854,0.9855895638465881
1667824410719501300,8.408501220703124,0.12327000498771667,0.24598845839500427,0.8689764142036438
1667824410729509000,8.418509033203126,0.02942846156656742,0.10369470715522766,0.7215715050697327
1667824410739517200,8.42851708984375,-0.07201267778873444,-0.026733078062534332,0.5574302673339844
1667824410749527600,8.438527587890626,-0.19811521470546722,-0.11495667695999146,0.3872808814048767
1667824410759535600,8.44853564453125,-0.34093227982521057,-0.13816054165363312,0.23999927937984467
1667824410769543700,8.458543701171875,-0.48494964838027954,-0.12079432606697083,0.12816809117794037
1667824410779551500,8.468551513671875,-0.6104937195777893,-0.102690689265728,0.06657449901103973
1667824410789559600,8.4785595703125,-0.6990180015563965,-0.0775989219546318,0.06790794432163239
1667824410799566600,8.488566650390625,-0.7528420686721802,-0.0652405247092247,0.13748756051063538
1667824410809574700,8.49857470703125,-0.7528700232505798,-0.08297237753868103,0.2496766746044159
1667824410819582500,8.50858251953125,-0.6979902982711792,-0.11953438818454742,0.3816847801208496
1667824410829590500,8.518590576171874,-0.5856115221977234,-0.17727412283420563,0.5080376267433167
1667824410839597600,8.52859765625,-0.4218098223209381,-0.2362908273935318,0.6236502528190613
1667824410849605600,8.538605712890625,-0.2345549762248993,-0.2904414236545563,0.6941326856613159
1667824410859613700,8.54861376953125,-0.05507257208228111,-0.34578484296798706,0.7062889337539673
1667824410869621500,8.55862158203125,0.11008042842149734,-0.40989696979522705,0.6656928062438965
1667824410879629600,8.568629638671876,0.2435186505317688,-0.4944496750831604,0.5978847146034241
1667824410889636600,8.57863671875,0.31886425614356995,-0.608341634273529,0.5060719847679138
1667824410899644700,8.588644775390625,0.3364669680595398,-0.7516884207725525,0.39952823519706726
1667824410909652500,8.598652587890625,0.29692062735557556,-0.888983964920044,0.262334406375885
1667824410919660500,8.60866064453125,0.20247693359851837,-1.0348681211471558,0.06425169110298157
1667824410929667600,8.61866748046875,0.054666440933942795,-1.234189510345459,-0.22276729345321655
1667824410939675600,8.628675537109375,-0.17331239581108093,-1.4562116861343384,-0.6116383671760559
1667824410949683700,8.63868359375,-0.4557901620864868,-1.6292628049850464,-1.0552341938018799
1667824410959691500,8.64869140625,-0.75091153383255,-1.6769741773605347,-1.4510365724563599
1667824410969699600,8.658699462890626,-1.0447725057601929,-1.4851865768432617,-1.72126042842865
1667824410979706600,8.66870654296875,-1.2872629165649414,-1.0445895195007324,-1.7886607646942139
1667824410989714700,8.678714599609375,-1.4224462509155273,-0.4899899363517761,-1.6749104261398315
1667824410999722500,8.688722412109374,-1.4326262474060059,0.031863655894994736,-1.4028682708740234
1667824411009730600,8.69873046875,-1.32257080078125,0.42550042271614075,-1.0447956323623657
1667824411019737600,8.708737548828125,-1.1290364265441895,0.6235620975494385,-0.6610868573188782
1667824411029745700,8.71874560546875,-0.8917080760002136,0.6572117209434509,-0.31647780537605286
1667824411039753500,8.72875341796875,-0.639726996421814,0.5621932744979858,-0.045643385499715805
1667824411049761500,8.738761474609374,-0.37677711248397827,0.3881823718547821,0.1468251347541809
1667824411059769600,8.74876953125,-0.1319495141506195,0.19909313321113586,0.2687190771102905
1667824411069776600,8.758776611328125,0.06607302278280258,0.015481221489608288,0.33319100737571716
1667824411079784700,8.76878466796875,0.20177413523197174,-0.16031377017498016,0.35361212491989136
1667824411089792500,8.77879248046875,0.273580938577652,-0.2999555468559265,0.3431887924671173
1667824411099800600,8.788800537109376,0.3031228482723236,-0.405190646648407,0.3083184063434601
1667824411109807600,8.7988076171875,0.3017377555370331,-0.48363804817199707,0.24310186505317688
1667824411119815700,8.808815673828125,0.27111804485321045,-0.5324841141700745,0.16596660017967224
1667824411129823500,8.818823486328125,0.2160971462726593,-0.5548741221427917,0.0811861976981163
1667824411139831600,8.82883154296875,0.1477963775396347,-0.546334445476532,-0.0008412926108576357
1667824411149839600,8.838839599609376,0.07650942355394363,-0.5100997686386108,-0.08426561206579208
1667824411159846700,8.8488466796875,0.011640677228569984,-0.44801345467567444,-0.14556385576725006
1667824411169854700,8.858854736328125,-0.05176492780447006,-0.3559836745262146,-0.17741872370243073
1667824411179862500,8.868862548828124,-0.1225203201174736,-0.24828064441680908,-0.17363889515399933
1667824411189870600,8.87887060546875,-0.21470963954925537,-0.15737338364124298,-0.14657266438007355
1667824411199877400,8.88887744140625,-0.3226590156555176,-0.09859608113765717,-0.11303015053272247
1667824411209885700,8.8988857421875,-0.42109450697898865,-0.056168198585510254,-0.06818704307079315
1667824411219893500,8.9088935546875,-0.4959666132926941,-0.018322547897696495,-0.002132925670593977
1667824411229901600,8.918901611328126,-0.538181722164154,0.026668895035982132,0.07936806231737137
1667824411239909600,8.92890966796875,-0.5576302409172058,0.09965602308511734,0.18772010505199432
1667824411249916700,8.938916748046875,-0.5593485236167908,0.16942977905273438,0.30146875977516174
1667824411259924700,8.9489248046875,-0.5461671948432922,0.21968042850494385,0.4032081663608551
1667824411269932500,8.9589326171875,-0.5210086107254028,0.2357480823993683,0.4695994555950165
1667824411279940600,8.968940673828126,-0.4914291203022003,0.21467448770999908,0.4881846010684967
1667824411289947400,8.978947509765625,-0.4538838863372803,0.18196500837802887,0.4658510386943817
1667824411299955700,8.988955810546875,-0.4137130081653595,0.15308009088039398,0.40873610973358154
1667824411309963500,8.998963623046874,-0.3921065330505371,0.14387141168117523,0.32147178053855896
1667824411319971600,9.0089716796875,-0.39066335558891296,0.1567499339580536,0.21607211232185364
1667824411329979600,9.018979736328125,-0.427047461271286,0.17506422102451324,0.1049778163433075
1667824411339986700,9.028986572265625,-0.4647357165813446,0.2045840322971344,0.00818229652941227
1667824411349994800,9.038994873046875,-0.49477139115333557,0.23117223381996155,-0.07536958903074265
1667824411360002600,9.04900244140625,-0.5202407836914062,0.24761539697647095,-0.14135020971298218
1667824411370010600,9.0590107421875,-0.5405498147010803,0.23942351341247559,-0.20043349266052246
1667824411380017400,9.069017333984375,-0.5509539842605591,0.2157011330127716,-0.25628769397735596
1667824411390025700,9.079025634765625,-0.5556650757789612,0.18259404599666595,-0.31935936212539673
1667824411400033500,9.089033447265624,-0.5523853898048401,0.16130873560905457,-0.39559340476989746
1667824411410041600,9.09904150390625,-0.5415996313095093,0.184141606092453,-0.4800856411457062
1667824411420049700,9.109049560546875,-0.5324596166610718,0.25706401467323303,-0.5471118092536926
1667824411430056400,9.119056396484375,-0.5225300192832947,0.3802892863750458,-0.5940479040145874
1667824411440064800,9.129064697265624,-0.5002534985542297,0.5224368572235107,-0.6073669195175171
1667824411450072600,9.139072509765626,-0.4678175449371338,0.62105792760849,-0.6017841100692749
1667824411460080600,9.14908056640625,-0.4297889173030853,0.6870662569999695,-0.5668982863426208
1667824411470087400,9.15908740234375,-0.38289758563041687,0.7172843217849731,-0.5347830057144165
1667824411480095700,9.169095703125,-0.32100972533226013,0.7047904133796692,-0.5202013850212097
1667824411490103600,9.179103515625,-0.24979518353939056,0.6768567562103271,-0.5451592206954956
1667824411500111600,9.189111572265626,-0.17738090455532074,0.6459513306617737,-0.6068366765975952
1667824411510119400,9.199119384765625,-0.094331294298172,0.6370038986206055,-0.6881389617919922
1667824411520126500,9.20912646484375,0.00694871973246336,0.6506257057189941,-0.760164201259613
1667824411530134500,9.219134521484374,0.13288401067256927,0.6363047957420349,-0.8052895665168762
1667824411540142600,9.229142578125,0.30040669441223145,0.5772782564163208,-0.8196213841438293
1667824411550150700,9.239150634765625,0.5171003937721252,0.4520726501941681,-0.7989051938056946
1667824411560157400,9.249157470703125,0.7760483026504517,0.23755156993865967,-0.764590322971344
1667824411570165800,9.259165771484374,1.0448260307312012,-0.05469067394733429,-0.7363302111625671
1667824411580173600,9.269173583984376,1.2748781442642212,-0.3627089560031891,-0.7192577719688416
1667824411590181600,9.279181640625,1.4326772689819336,-0.6499263644218445,-0.7565233707427979
1667824411600189400,9.289189453125,1.4989887475967407,-0.8918827772140503,-0.8704126477241516
1667824411610196500,9.299196533203125,1.511908769607544,-1.0205800533294678,-1.0359126329421997
1667824411620204500,9.30920458984375,1.4672616720199585,-0.9860880970954895,-1.2245914936065674
1667824411630212600,9.319212646484376,1.3930702209472656,-0.7802470922470093,-1.3914259672164917
1667824411640220700,9.329220703125,1.3046437501907349,-0.40837204456329346,-1.4728769063949585
1667824411650227500,9.3392275390625,1.204072117805481,0.024466460570693016,-1.44288170337677
1667824411660235500,9.349235595703124,1.1348525285720825,0.3361782729625702,-1.2954113483428955
1667824411670243600,9.35924365234375,1.1306090354919434,0.4843464493751526,-1.038651704788208
1667824411680251600,9.369251708984375,1.158268690109253,0.46266457438468933,-0.7271034121513367
1667824411690259500,9.379259521484375,1.203034520149231,0.30190712213516235,-0.4110157787799835
1667824411700266500,9.3892666015625,1.257416009902954,0.04649000242352486,-0.12265854328870773
1667824411710274600,9.399274658203124,1.2751893997192383,-0.23841363191604614,0.12063959985971451
1667824411720282600,9.40928271484375,1.2388601303100586,-0.4541565775871277,0.3044072985649109
1667824411730290700,9.419290771484375,1.1688499450683594,-0.565906286239624,0.4291638731956482
1667824411740297500,9.42929736328125,1.0763546228408813,-0.5860400199890137,0.49793654680252075
1667824411750301700,9.4393017578125,0.9519285559654236,-0.514131486415863,0.5361912846565247
1667824411760309800,9.449309814453125,0.8135589361190796,-0.3965156674385071,0.565760612487793
1667824411770317800,9.45931787109375,0.6635883450508118,-0.24834056198596954,0.5952902436256409
1667824411780324600,9.46932470703125,0.5229955911636353,-0.10906576365232468,0.6267006397247314
1667824411790332700,9.479332763671875,0.4033128321170807,-0.014791995286941528,0.6375107169151306
1667824411800340700,9.4893408203125,0.3086142838001251,0.048521462827920914,0.6335548162460327
1667824411810348800,9.499348876953125,0.24958719313144684,0.08675166964530945,0.6193247437477112
1667824411820356600,9.509356689453124,0.20590202510356903,0.11671489477157593,0.5921565294265747
1667824411830363600,9.51936376953125,0.18263931572437286,0.12451928853988647,0.5693542957305908
1667824411840371700,9.529371826171875,0.17022205889225006,0.12351740896701813,0.5572240948677063
1667824411850379800,9.5393798828125,0.17615185678005219,0.11818602681159973,0.5874832272529602
1667824411860387600,9.5493876953125,0.1750543713569641,0.111785389482975,0.6622360348701477
1667824411870395600,9.559395751953126,0.1771335005760193,0.09950128942728043,0.7725244164466858
1667824411880402700,9.569402587890625,0.18581487238407135,0.09399760514497757,0.9000470042228699
1667824411890410800,9.57941064453125,0.21907483041286469,0.0955297201871872,1.0339922904968262
1667824411900418800,9.589418701171875,0.275704026222229,0.09948690980672836,1.1416987180709839
1667824411910426600,9.599426513671874,0.36000025272369385,0.09118983149528503,1.2144802808761597
1667824411920433700,9.60943359375,0.4564695358276367,0.09041751176118851,1.23148775100708
1667824411930441700,9.619441650390625,0.5596875548362732,0.10394983738660812,1.1973282098770142
1667824411940449800,9.62944970703125,0.6577422022819519,0.1314815878868103,1.1184825897216797
1667824411950457600,9.63945751953125,0.7396117448806763,0.17902381718158722,1.0113471746444702
1667824411960464600,9.649464599609376,0.8042381405830383,0.22768749296665192,0.8923749327659607
1667824411970472400,9.659472412109375,0.8493489027023315,0.2447330504655838,0.7680018544197083
1667824411980480800,9.669480712890625,0.8685737252235413,0.23089420795440674,0.6458042860031128
1667824411990488800,9.67948876953125,0.8658788800239563,0.16899381577968597,0.5343883037567139
1667824412000496600,9.68949658203125,0.8271805047988892,0.07428594678640366,0.43884631991386414
1667824412010503700,9.699503662109375,0.7641509175300598,-0.02087358944118023,0.35655704140663147
1667824412020511700,9.70951171875,0.6803135275840759,-0.09738301485776901,0.2946673333644867
1667824412030519800,9.719519775390625,0.5672839283943176,-0.1434144228696823,0.24342571198940277
1667824412040527600,9.729527587890624,0.45484447479248047,-0.15598560869693756,0.20135840773582458
1667824412050534700,9.73953466796875,0.35516980290412903,-0.14939428865909576,0.17050676047801971
1667824412060542500,9.74954248046875,0.2811698913574219,-0.1354619562625885,0.14952370524406433
1667824412070550800,9.75955078125,0.22963212430477142,-0.1347825825214386,0.12443087249994278
1667824412080558800,9.769558837890624,0.18883197009563446,-0.1389903724193573,0.0972122997045517
1667824412090566700,9.779566650390626,0.15700559318065643,-0.11869016289710999,0.07931852340698242
1667824412100573700,9.78957373046875,0.1298120617866516,-0.0706573948264122,0.07539355754852295
1667824412110581800,9.799581787109375,0.10793525725603104,-0.0030192257836461067,0.09129688888788223
1667824412120589800,9.80958984375,0.07112530618906021,0.08530397713184357,0.12173256278038025
1667824412130597600,9.81959765625,0.018798189237713814,0.1969418227672577,0.17729222774505615
1667824412140604700,9.829604736328125,-0.02666197158396244,0.3074089586734772,0.2534186840057373
1667824412150612500,9.839612548828125,-0.059180766344070435,0.41436097025871277,0.35144031047821045
1667824412160620800,9.849620849609375,-0.08203281462192535,0.5012375116348267,0.4581387937068939
1667824412170628900,9.85962890625,-0.10569313913583755,0.5572683215141296,0.5719007849693298
1667824412180636700,9.86963671875,-0.12511157989501953,0.5965800285339355,0.6943271160125732
1667824412190643700,9.879643798828125,-0.12981684505939484,0.6204869747161865,0.8213415145874023
1667824412200651500,9.889651611328125,-0.13426806032657623,0.6126487255096436,0.9403049349784851
1667824412210659800,9.899659912109374,-0.14230281114578247,0.5494897365570068,1.0484169721603394
1667824412220667600,9.909667724609376,-0.17328043282032013,0.4197533428668976,1.1177326440811157
1667824412230674700,9.9196748046875,-0.23249688744544983,0.24418896436691284,1.1404441595077515
1667824412240682500,9.9296826171875,-0.2988540828227997,0.05619988963007927,1.1086512804031372
1667824412250690800,9.93969091796875,-0.37264734506607056,-0.12582583725452423,1.0217912197113037
1667824412260699000,9.949698974609374,-0.4599883556365967,-0.2932167053222656,0.8714321255683899
1667824412270706700,9.959706787109376,-0.562027096748352,-0.4607252776622772,0.6530872583389282
1667824412280713700,9.969713623046875,-0.6819828152656555,-0.6313769221305847,0.3611070513725281
1667824412290721500,9.979721435546875,-0.8122183084487915,-0.7746264934539795,0.00908537395298481
1667824412300729900,9.989729736328124,-0.9546814560890198,-0.9177053570747375,-0.40599945187568665
1667824412310737700,9.999737548828126,-1.1025828123092651,-1.0447567701339722,-0.8712776303291321
1667824412320744700,10.00974462890625,-1.2542122602462769,-1.130565881729126,-1.361276626586914
1667824412330752500,10.01975244140625,-1.4021623134613037,-1.16349458694458,-1.8201366662979126
1667824412340760800,10.0297607421875,-1.5187709331512451,-1.0944350957870483,-2.188375473022461
1667824412350768600,10.0397685546875,-1.589996099472046,-0.9008935689926147,-2.391988754272461
1667824412360776700,10.049776611328125,-1.6104826927185059,-0.6211804747581482,-2.406726837158203
1667824412370783500,10.059783447265625,-1.5932773351669312,-0.34430330991744995,-2.2508037090301514
1667824412380791600,10.06979150390625,-1.5345275402069092,-0.09262021631002426,-1.9591318368911743
1667824412390800000,10.0797998046875,-1.414251685142517,0.0783560574054718,-1.5888924598693848
1667824412400807700,10.0898076171875,-1.2189773321151733,0.1579643338918686,-1.2008249759674072
1667824412410814700,10.099814697265625,-0.9740602374076843,0.16786596179008484,-0.8413088321685791
1667824412420822500,10.109822509765625,-0.7041211724281311,0.10280413925647736,-0.5395646691322327
1667824412430830600,10.11983056640625,-0.4415174722671509,0.002430400811135769,-0.2990756630897522
1667824412440838700,10.129838623046876,-0.2328612059354782,-0.10878879576921463,-0.09745705127716064
1667824412450846700,10.1398466796875,-0.09991328418254852,-0.19137528538703918,0.06405062228441238
1667824412460853500,10.149853515625,-0.01444232277572155,-0.24400360882282257,0.1876915991306305
1667824412470861600,10.159861572265624,0.024330373853445053,-0.27920767664909363,0.27197185158729553
1667824412480870000,10.169869873046874,0.029158949851989746,-0.3255842328071594,0.3192645311355591
1667824412490877700,10.179877685546876,0.005404619034379721,-0.3938106894493103,0.32750996947288513
1667824412500884700,10.189884765625,-0.037151630967855453,-0.47157952189445496,0.30129751563072205
1667824412510892500,10.199892578125,-0.0968509092926979,-0.5393636226654053,0.24776320159435272
1667824412520900600,10.209900634765624,-0.16014572978019714,-0.5785933136940002,0.18146592378616333
1667824412530908700,10.21990869140625,-0.22132998704910278,-0.5787115693092346,0.11354360729455948
1667824412540916700,10.229916748046875,-0.2895553708076477,-0.5483595132827759,0.058764513581991196
1667824412550923500,10.239923583984375,-0.36963051557540894,-0.5035334229469299,0.014055631123483181
1667824412560931600,10.249931640625,-0.4673653244972229,-0.46660393476486206,-0.014162956736981869
1667824412570940000,10.25993994140625,-0.5506572723388672,-0.44925716519355774,-0.01125185564160347
1667824412580947700,10.26994775390625,-0.6056891083717346,-0.43947163224220276,0.032582975924015045
1667824412590954800,10.279954833984375,-0.6386010050773621,-0.4606917202472687,0.09570788592100143
1667824412600962600,10.289962646484375,-0.6575520634651184,-0.48924586176872253,0.14562271535396576
1667824412610970600,10.299970703125,-0.6716601252555847,-0.5218770503997803,0.17103619873523712
1667824412620978700,10.309978759765626,-0.7019147276878357,-0.5465312600135803,0.14686907827854156
1667824412630986800,10.31998681640625,-0.7421806454658508,-0.5405727028846741,0.0871008113026619
1667824412640993500,10.32999365234375,-0.7951791286468506,-0.4888879358768463,0.008625445887446404
1667824412651001600,10.340001708984374,-0.849763035774231,-0.39260587096214294,-0.07619836181402206
1667824412661009700,10.350009765625,-0.8976208567619324,-0.25392869114875793,-0.15718775987625122
1667824412671017700,10.360017822265625,-0.9417832493782043,-0.1086583063006401,-0.2271559238433838
1667824412681024800,10.370024658203125,-0.9726253151893616,0.047271374613046646,-0.27721163630485535
1667824412691032600,10.380032470703124,-0.9779306054115295,0.18533363938331604,-0.30027514696121216
1667824412701040600,10.39004052734375,-0.9564157128334045,0.28012698888778687,-0.30681321024894714
1667824412711048700,10.400048583984375,-0.9238143563270569,0.34656834602355957,-0.2902408838272095
1667824412721056800,10.410056884765625,-0.8751946091651917,0.38044479489326477,-0.24892646074295044
1667824412731063600,10.4200634765625,-0.817108690738678,0.39877641201019287,-0.18949243426322937
1667824412741071600,10.430071533203124,-0.7555878162384033,0.40242040157318115,-0.11070308089256287
1667824412751081000,10.4400810546875,-0.6994691491127014,0.3889525532722473,-0.03705229237675667
1667824412761088800,10.4500888671875,-0.6575185060501099,0.34299010038375854,0.013361877761781216
1667824412771096000,10.460095947265625,-0.6213399767875671,0.28672710061073303,0.024059530347585678
1667824412781103900,10.470103759765625,-0.5833028554916382,0.21942822635173798,-0.00824008695781231
1667824412791112000,10.48011181640625,-0.5518075227737427,0.1516057699918747,-0.08239766955375671
1667824412801120000,10.4901201171875,-0.5164239406585693,0.09941580146551132,-0.1707317978143692
1667824412811127800,10.5001279296875,-0.48399117588996887,0.06402398645877838,-0.26342523097991943
1667824412821135000,10.510135009765625,-0.44982174038887024,0.06309108436107635,-0.33562833070755005
1667824412831143000,10.520142822265624,-0.3948221504688263,0.06888984888792038,-0.3842390179634094
1667824412841151000,10.53015087890625,-0.324198842048645,0.058149322867393494,-0.40837550163269043
1667824412851158800,10.54015869140625,-0.23325829207897186,0.04543698951601982,-0.4115758240222931
1667824412861166000,10.550166015625,-0.11913810670375824,0.011305385269224644,-0.41437456011772156
1667824412871174000,10.560173828125,-0.007978564128279686,-0.006882407236844301,-0.3913120925426483
1667824412881182000,10.570181884765624,0.09389480203390121,-0.00028868665685877204,-0.33994585275650024
1667824412891189800,10.580189697265626,0.18730570375919342,-0.0007171892793849111,-0.260649174451828
1667824412901197800,10.59019775390625,0.2796798348426819,-0.0232296884059906,-0.16824041306972504
1667824412911204900,10.600204833984375,0.3820032775402069,-0.06498432904481888,-0.06076028570532799
1667824412921213000,10.610212890625,0.4961461126804352,-0.14964061975479126,0.031856998801231384
1667824412931221000,10.620220947265626,0.6074215173721313,-0.30758604407310486,0.08405522257089615
1667824412941228800,10.630228759765625,0.7050518989562988,-0.5163373947143555,0.0891309380531311
1667824412951236000,10.640236083984375,0.7760432958602905,-0.725426435470581,0.02786092646420002
1667824412961244000,10.650243896484374,0.8204141855239868,-0.883009135723114,-0.09814867377281189
1667824412971252000,10.660251953125,0.8372336626052856,-0.956454336643219,-0.2605533003807068
1667824412981259800,10.670259765625,0.8312963843345642,-0.8854137063026428,-0.4158315658569336
1667824412991267000,10.68026708984375,0.8242928385734558,-0.6833961606025696,-0.5330260992050171
1667824413001275000,10.69027490234375,0.8193382620811462,-0.3747831881046295,-0.5940502882003784
1667824413011283000,10.700282958984374,0.8390624523162842,-0.04900402948260307,-0.5823060274124146
1667824413021291000,10.710291015625,0.8919219374656677,0.23730416595935822,-0.48613181710243225
1667824413031298800,10.720298828125,0.9817003011703491,0.4189873933792114,-0.3355300724506378
1667824413041306000,10.73030615234375,1.0944817066192627,0.44167593121528625,-0.15362977981567383
1667824413051314000,10.74031396484375,1.209226131439209,0.35482946038246155,0.030529946088790894
1667824413061322000,10.750322021484376,1.3124593496322632,0.22070734202861786,0.2020588219165802
1667824413071329800,10.760329833984375,1.3697212934494019,0.07101958245038986,0.3360922634601593
1667824413081337900,10.770337890625,1.376967191696167,-0.027287812903523445,0.433288037776947
1667824413091345000,10.780344970703124,1.339828372001648,-0.055388156324625015,0.4976228177547455
1667824413101353000,10.79035302734375,1.2607204914093018,-0.024466726928949356,0.5463565587997437
1667824413111361000,10.800361083984376,1.1502938270568848,0.045285724103450775,0.5979757905006409
1667824413121368800,10.810368896484375,1.0179551839828491,0.13101021945476532,0.6508840322494507
1667824413131376000,10.820376220703125,0.8768159747123718,0.19889499247074127,0.6950743794441223
1667824413141384000,10.830384033203124,0.7541896104812622,0.21420016884803772,0.7114933133125305
1667824413151392000,10.84039208984375,0.6565845012664795,0.1930679976940155,0.7002779245376587
1667824413161399800,10.85039990234375,0.5822969675064087,0.1509450376033783,0.6620591878890991
1667824413171407000,10.860406982421875,0.5160625576972961,0.09600748866796494,0.5824090838432312
1667824413181415000,10.870414794921874,0.455289751291275,0.0653286725282669,0.4791325032711029
1667824413191423000,10.880423095703126,0.3969667851924896,0.06247776001691818,0.36958444118499756
1667824413201431000,10.89043115234375,0.3477441072463989,0.08183281123638153,0.2663073241710663
1667824413211438800,10.90043896484375,0.3072419762611389,0.11759401112794876,0.17402799427509308
1667824413221446100,10.910446044921875,0.2891883850097656,0.1689314991235733,0.12519866228103638
1667824413231454000,10.920453857421874,0.28963208198547363,0.22457611560821533,0.12447508424520493
1667824413241462000,10.9304619140625,0.30621930956840515,0.26767590641975403,0.1597830057144165
1667824413251469800,10.9404697265625,0.3313419818878174,0.28716281056404114,0.2162042111158371
1667824413261477000,10.95047705078125,0.36020585894584656,0.26724475622177124,0.2666146457195282
1667824413271485000,10.96048486328125,0.3947012424468994,0.2145748883485794,0.2980165183544159
1667824413281493000,10.970492919921876,0.43656718730926514,0.12973003089427948,0.30366775393486023
1667824413291501000,10.9805009765625,0.47979670763015747,0.044616736471652985,0.289009690284729
1667824413301508900,10.9905087890625,0.5123346447944641,-0.01255014631897211,0.26640450954437256
1667824413311516200,11.00051611328125,0.5349611639976501,-0.03424825146794319,0.2364085465669632
1667824413321524000,11.01052392578125,0.5390229821205139,-0.009827863425016403,0.20817317068576813
1667824413331532000,11.020531982421875,0.550962507724762,0.08379902690649033,0.2067212164402008
1667824413341539800,11.030539794921875,0.5760790109634399,0.20894841849803925,0.2563420236110687
1667824413351547000,11.040546875,0.6053319573402405,0.3072909712791443,0.3375388979911804
1667824413361555000,11.050554931640624,0.6222185492515564,0.3097149729728699,0.42533132433891296
1667824413371563000,11.06056298828125,0.6245371103286743,0.2201150506734848,0.49995362758636475
1667824413381570800,11.07057080078125,0.6287528872489929,0.07826923578977585,0.5681731700897217
1667824413391577900,11.080577880859375,0.6278436779975891,-0.0680440291762352,0.6038485765457153
1667824413401586000,11.0905859375,0.5927810668945312,-0.19595804810523987,0.5992634296417236
1667824413411594000,11.100593994140626,0.4914664030075073,-0.29857099056243896,0.5643062591552734
1667824413421602000,11.11060205078125,0.33307409286499023,-0.36391857266426086,0.4940933585166931
1667824413431609900,11.12060986328125,0.14408287405967712,-0.3679969310760498,0.41703370213508606
1667824413441617000,11.130616943359374,-0.03459446132183075,-0.292479008436203,0.33580702543258667
1667824413451625000,11.140625,-0.16362221539020538,-0.13074550032615662,0.2849174737930298
1667824413461633000,11.150633056640626,-0.223221093416214,0.08972243219614029,0.2890017032623291
1667824413471640800,11.160640869140625,-0.2234719693660736,0.33872318267822266,0.3594644367694855
1667824413481647900,11.17064794921875,-0.1854606717824936,0.5429772734642029,0.47500860691070557
1667824413491656000,11.180656005859374,-0.12839525938034058,0.6442769765853882,0.6114546060562134
1667824413501664000,11.1906640625,-0.06835269182920456,0.631808340549469,0.7603077292442322
1667824413511672000,11.200672119140625,-0.023319970816373825,0.5052351951599121,0.8959299921989441
1667824413521680000,11.210679931640625,-0.01600373350083828,0.286767840385437,1.0029659271240234
1667824413531687000,11.22068701171875,-0.04056926444172859,0.039864324033260345,1.0708999633789062
1667824413541695000,11.230695068359376,-0.09794200956821442,-0.19350342452526093,1.1036161184310913
1667824413551703000,11.240703125,-0.1807205080986023,-0.39337843656539917,1.0784753561019897
1667824413561710800,11.2507109375,-0.2857811450958252,-0.5580025315284729,0.9985471963882446
1667824413571718000,11.2607177734375,-0.4170486330986023,-0.6771228313446045,0.8509840965270996
1667824413581726000,11.270725830078124,-0.5849758386611938,-0.7702005505561829,0.620072603225708
1667824413591734000,11.280734130859376,-0.7690356969833374,-0.8504408001899719,0.3072904348373413
1667824413601742000,11.2907421875,-0.9327407479286194,-0.9461886286735535,-0.059911005198955536
1667824413611750000,11.30075,-1.0742193460464478,-0.9927811622619629,-0.43642738461494446
1667824413621757000,11.3107568359375,-1.1874552965164185,-1.009149193763733,-0.7906608581542969
1667824413631765000,11.320764892578126,-1.276001214981079,-1.0129812955856323,-1.0992937088012695
1667824413641773000,11.33077294921875,-1.3096342086791992,-0.9167431592941284,-1.2996045351028442
1667824413651780900,11.34078076171875,-1.286110758781433,-0.7253625392913818,-1.3683953285217285
1667824413661788000,11.350787841796874,-1.226711392402649,-0.48381754755973816,-1.299185872077942
1667824413671796000,11.3607958984375,-1.152504801750183,-0.24175377190113068,-1.1127054691314697
1667824413681804000,11.370803955078125,-1.0541284084320068,-0.06820142269134521,-0.8239900469779968
1667824413691812000,11.38081201171875,-0.9514257311820984,0.06425062566995621,-0.48102307319641113
1667824413701819000,11.39081884765625,-0.8082584738731384,0.14017069339752197,-0.1155705377459526
1667824413711827000,11.400826904296874,-0.6503700613975525,0.16938424110412598,0.2027248740196228
1667824413721835000,11.4108349609375,-0.4865078628063202,0.17733696103096008,0.4288160800933838
1667824413731843000,11.420843017578125,-0.30368104577064514,0.17571856081485748,0.5466383099555969
1667824413741851000,11.430850830078125,-0.11923238635063171,0.14698971807956696,0.5713596343994141
1667824413751857200,11.440857177734374,0.03171132504940033,0.09014081209897995,0.5123661160469055
1667824413761865200,11.450865234375,0.13842472434043884,0.04031839594244957,0.4190630316734314
1667824413771873000,11.460873046875,0.1960158497095108,0.012628177180886269,0.3177627921104431
1667824413781881000,11.470881103515625,0.21659062802791595,0.008019843138754368,0.2513890862464905
1667824413791888000,11.480887939453124,0.1898072212934494,0.02532639540731907,0.2322513461112976
1667824413801896200,11.490896240234376,0.11276037245988846,0.04527373984456062,0.2455519735813141
1667824413811904000,11.500904052734375,-0.004210990387946367,0.07319511473178864,0.27559882402420044
1667824413821912000,11.510912109375,-0.1300211101770401,0.10728331655263901,0.3212485909461975
1667824413831920000,11.520920166015625,-0.2476084679365158,0.14079786837100983,0.3644205629825592
1667824413841927200,11.53092724609375,-0.34056156873703003,0.17756865918636322,0.39994847774505615
1667824413851935200,11.540935302734376,-0.4129590690135956,0.19918900728225708,0.4090633988380432
1667824413861943000,11.550943115234375,-0.45212140679359436,0.21377860009670258,0.40980270504951477
1667824413871951000,11.560951171875,-0.4771077036857605,0.2563803791999817,0.41433247923851013
1667824413881958000,11.5709580078125,-0.48008084297180176,0.3110753297805786,0.42246177792549133
1667824413891966200,11.58096630859375,-0.4774877429008484,0.3742425739765167,0.45418721437454224
1667824413901974000,11.59097412109375,-0.4624592661857605,0.4342859387397766,0.49223631620407104
1667824413911982000,11.600982177734375,-0.43640899658203125,0.4999150037765503,0.5447930097579956
1667824413921988900,11.61098876953125,-0.4051799774169922,0.5389913320541382,0.6023987531661987
1667824413931997200,11.6209970703125,-0.3684408664703369,0.5540294051170349,0.652351438999176
1667824413942005200,11.631005126953125,-0.3486570417881012,0.5706413984298706,0.7019165754318237
1667824413952013000,11.641012939453125,-0.3366866707801819,0.586605429649353,0.7461844682693481
1667824413962020000,11.65102001953125,-0.33043596148490906,0.5652607083320618,0.7638505101203918
1667824413972028000,11.66102783203125,-0.33255237340927124,0.5064626336097717,0.7407765984535217
1667824413982036200,11.6710361328125,-0.33001917600631714,0.4379512369632721,0.6849203109741211
1667824413992044000,11.6810439453125,-0.3012658357620239,0.35983806848526,0.6029351353645325
1667824414002052000,11.691052001953125,-0.2696860730648041,0.274919718503952,0.48731425404548645
1667824414012059000,11.701058837890624,-0.24548059701919556,0.20046572387218475,0.35644733905792236
1667824414022067000,11.71106689453125,-0.22253426909446716,0.1469910442829132,0.2155732959508896
1667824414032075300,11.7210751953125,-0.2051539570093155,0.11417317390441895,0.07221720367670059
1667824414042083000,11.7310830078125,-0.1952083706855774,0.10331626981496811,-0.07326622307300568
1667824414052090000,11.741090087890624,-0.1900346577167511,0.11012037843465805,-0.19830483198165894
1667824414062098000,11.751097900390626,-0.17985790967941284,0.14495399594306946,-0.3025745153427124
1667824414072106200,11.761106201171875,-0.1540534794330597,0.16258731484413147,-0.366413414478302
1667824414082114000,11.771114013671875,-0.11397770047187805,0.14819000661373138,-0.3887948989868164
1667824414092121000,11.78112109375,-0.06364768743515015,0.08298969268798828,-0.37244173884391785
1667824414102129000,11.79112890625,0.0025387913919985294,-0.008358331397175789,-0.29689478874206543
1667824414112137000,11.801136962890626,0.07557918131351471,-0.11420540511608124,-0.19995252788066864
1667824414122145000,11.81114501953125,0.15943600237369537,-0.21779464185237885,-0.08816128224134445
1667824414132153000,11.821153076171875,0.2561638653278351,-0.3109546899795532,0.011297661811113358
1667824414142160000,11.831159912109374,0.36814233660697937,-0.39919692277908325,0.06956123560667038
1667824414152168000,11.84116796875,0.49763402342796326,-0.4788520634174347,0.078182153403759
1667824414162176300,11.85117626953125,0.6399469375610352,-0.5587674379348755,0.040699493139982224
1667824414172184000,11.86118408203125,0.7606382369995117,-0.6225082874298096,-0.03157949820160866
1667824414182191000,11.871191162109374,0.8502194881439209,-0.6823886632919312,-0.11939404159784317
1667824414192199000,11.881198974609376,0.8992751836776733,-0.7251510620117188,-0.22380059957504272
1667824414202207000,11.89120703125,0.9324510097503662,-0.7315858006477356,-0.3256089985370636
1667824414212215000,11.901215087890625,0.9693315029144287,-0.7176646590232849,-0.41691866517066956
1667824414222222000,11.91122216796875,0.996359646320343,-0.7141817808151245,-0.5193955302238464
1667824414232230000,11.92122998046875,1.0028539896011353,-0.7298172116279602,-0.6283518075942993
1667824414242238000,11.931238037109376,0.9903289079666138,-0.7306347489356995,-0.7330049872398376
1667824414252246000,11.94124609375,0.9597089886665344,-0.6847812533378601,-0.7980843782424927
1667824414262253000,11.951253173828125,0.9099675416946411,-0.5719324946403503,-0.8141488432884216
1667824414272261000,11.96126123046875,0.8385306000709534,-0.4156661927700043,-0.7894411087036133
1667824414282269000,11.97126904296875,0.7563893795013428,-0.21697545051574707,-0.7296406030654907
1667824414292277000,11.981277099609375,0.6722063422203064,-0.010452108457684517,-0.6380225419998169
1667824414302285000,11.99128515625,0.5918624997138977,0.156979501247406,-0.526237428188324
1667824414312292000,12.0012919921875,0.5242373943328857,0.2646162211894989,-0.4038132429122925
1667824414322300000,12.0112998046875,0.4725070893764496,0.32578155398368835,-0.2722264528274536
1667824414332308000,12.021307861328125,0.436647891998291,0.3773789703845978,-0.1198883205652237
1667824414342316000,12.03131591796875,0.4120136499404907,0.4133361876010895,0.059908874332904816
1667824414352323000,12.041322998046875,0.38230741024017334,0.4539507031440735,0.25153982639312744
1667824414362331100,12.0513310546875,0.3478200137615204,0.5100131630897522,0.4536082446575165
1667824414372339000,12.0613388671875,0.3080768585205078,0.5544919967651367,0.6386467814445496
1667824414382347000,12.071346923828125,0.2827067971229553,0.5766137838363647,0.8022631406784058
1667824414392354000,12.08135400390625,0.28817692399024963,0.5502191781997681,0.919402003288269
1667824414402362000,12.091362060546874,0.317992627620697,0.4979091286659241,0.9910951256752014
1667824414412370000,12.101369873046876,0.35581856966018677,0.4283769130706787,1.0162804126739502
1667824414422378000,12.1113779296875,0.3951968550682068,0.351286917924881,0.9958906769752502
1667824414432386000,12.121385986328125,0.4229762852191925,0.2801104784011841,0.9411073327064514
1667824414442393000,12.13139306640625,0.4332464933395386,0.2232021987438202,0.8615128993988037
1667824414452401200,12.141401123046874,0.42621123790740967,0.2028718888759613,0.7665549516677856
1667824414462409000,12.151408935546876,0.4034624993801117,0.2267756164073944,0.6758865714073181
1667824414472417000,12.1614169921875,0.3851167857646942,0.26970523595809937,0.6050300002098083
1667824414482424000,12.171424072265625,0.37545377016067505,0.3394710123538971,0.5661613941192627
1667824414492432100,12.18143212890625,0.36889493465423584,0.4028257429599762,0.554095447063446
1667824414502440000,12.19143994140625,0.36870425939559937,0.44840389490127563,0.5510801672935486
1667824414512448000,12.201447998046875,0.3501870334148407,0.4609071612358093,0.5234419107437134
1667824414522455000,12.211455078125,0.3011648952960968,0.45929062366485596,0.44210365414619446
1667824414532463000,12.221463134765624,0.24107812345027924,0.4325884282588959,0.3030802607536316
1667824414542471200,12.23147119140625,0.1984206736087799,0.4764602780342102,0.13611282408237457
1667824414552479000,12.24147900390625,0.1840561181306839,0.516673743724823,-0.044371191412210464
1667824414562487000,12.251487060546875,0.16210182011127472,0.4374401867389679,-0.19892242550849915
1667824414572494000,12.261494140625,0.09670843183994293,0.36738014221191406,-0.26955318450927734
1667824414582502100,12.271502197265624,0.009826797991991043,0.39917242527008057,-0.20482903718948364
1667824414592510000,12.281510009765626,-0.06604266911745071,0.5093322396278381,0.005741775035858154
1667824414602518000,12.29151806640625,-0.1440277397632599,0.6533432006835938,0.29947325587272644
1667824414612525000,12.301525146484375,-0.23034106194972992,0.7255124449729919,0.6189114451408386
1667824414622533000,12.311533203125,-0.31727781891822815,0.680596113204956,0.8998323082923889
1667824414632541000,12.321541015625,-0.4130099415779114,0.4572138786315918,1.0972410440444946
1667824414642549000,12.331549072265625,-0.5149685144424438,0.1238979771733284,1.1896438598632812
1667824414652556000,12.34155615234375,-0.6093120574951172,-0.2430829554796219,1.2058324813842773
1667824414662564000,12.351564208984374,-0.7073166966438293,-0.5454009771347046,1.1831220388412476
1667824414672572200,12.361572265625,-0.7919162511825562,-0.6030619144439697,1.1656986474990845
1667824414682580000,12.371580078125,-0.8155488967895508,-0.7092868685722351,1.1660195589065552
1667824414692587300,12.381587158203125,-0.7809088826179504,-0.8116151094436646,1.199679970741272
1667824414702595000,12.391594970703125,-0.7218183875083923,-0.7954350709915161,1.2648465633392334
1667824414712603100,12.40160302734375,-0.7084088325500488,-0.6942977905273438,1.3265948295593262
1667824414722611000,12.41161083984375,-0.7496774196624756,-0.5356162786483765,1.3571971654891968
1667824414732619000,12.421618896484375,-0.8104305267333984,-0.3758878707885742,1.382109522819519
