time,seconds_elapsed,z,y,x
1667266590533190400,0.0851904296875,0.11361759155988693,0.5259394645690918,0.5583143830299377
1667266590535588000,0.087588134765625,0.11239589750766754,0.5057815313339233,0.5790832042694092
1667266590537985800,0.08998583984375,0.11117420345544815,0.4825693368911743,0.5961869359016418
1667266590540383700,0.0923837890625,0.11422843486070633,0.4581354558467865,0.6065713167190552
1667266590542781400,0.094781494140625,0.1185043677687645,0.4355340898036957,0.6187883019447327
1667266590545179400,0.097179443359375,0.11972606182098389,0.4178195297718048,0.624896764755249
1667266590547577000,0.0995771484375,0.12216944992542267,0.40071579813957214,0.6340594291687012
1667266590549975000,0.10197509765625,0.12400199472904205,0.38666632771492004,0.6401679515838623
1667266590552372700,0.104372802734375,0.12522368133068085,0.37322768568992615,0.6438329815864563
1667266590554770700,0.106770751953125,0.12888877093791962,0.36223241686820984,0.6444438695907593
1667266590557168400,0.10916845703125,0.1313321590423584,0.34940463304519653,0.6456655263900757
1667266590559566000,0.111566162109375,0.13499724864959717,0.337798535823822,0.6426113247871399
1667266590561964000,0.113964111328125,0.13744063675403595,0.3255815804004669,0.6383354067802429
1667266590564361700,0.11636181640625,0.1429382562637329,0.3151971995830536,0.6322268843650818
1667266590566759700,0.118759765625,0.14660334587097168,0.30481278896331787,0.6200099587440491
1667266590569157400,0.121157470703125,0.15210096538066864,0.29626092314720154,0.6090146899223328
1667266590571555300,0.123555419921875,0.1569877415895462,0.2895416021347046,0.5913001298904419
1667266590573953000,0.125953125,0.16248537600040436,0.27976804971694946,0.5723638534545898
1667266590576351000,0.12835107421875,0.16492876410484314,0.27060532569885254,0.5540384650230408
1667266590578748700,0.130748779296875,0.1692046970129013,0.265718549489975,0.5308262705802917
1667266590581146600,0.133146728515625,0.17470231652259827,0.2608317732810974,0.5070032477378845
1667266590583544300,0.13554443359375,0.17653486132621765,0.2608317732810974,0.47951510548591614
1667266590585942000,0.13794189453125,0.17714570462703705,0.2602209448814392,0.45019441843032837
1667266590588340000,0.140340087890625,0.17958909273147583,0.2620534598827362,0.4202629029750824
1667266590590737700,0.142737548828125,0.18081079423427582,0.26694026589393616,0.38849884271621704
1667266590593135600,0.145135498046875,0.183865025639534,0.26877278089523315,0.3549022674560547
1667266590595533300,0.147533203125,0.1844758689403534,0.27121618390083313,0.32252734899520874
1667266590597931300,0.14993115234375,0.18569757044315338,0.2742704153060913,0.2877090573310852
1667266590600329000,0.152328857421875,0.1850867122411728,0.2773246467113495,0.2486148327589035
1667266590602727000,0.154726806640625,0.18569757044315338,0.2748812735080719,0.21318569779396057
1667266590605124600,0.15712451171875,0.18630841374397278,0.2724378705024719,0.17897824943065643
1667266590607522600,0.1595224609375,0.1844758689403534,0.2638860046863556,0.1423274129629135
1667266590609920300,0.161920166015625,0.183865025639534,0.25289076566696167,0.10262233763933182
1667266590612318000,0.16431787109375,0.182643324136734,0.24311721324920654,0.06413896381855011
1667266590614716000,0.1667158203125,0.182643324136734,0.22906772792339325,0.024433890357613564
1667266590617113600,0.169113525390625,0.18019993603229523,0.21318569779396057,-0.016492875292897224
1667266590619511600,0.171511474609375,0.17714570462703705,0.19302773475646973,-0.05497625470161438
1667266590621909200,0.1739091796875,0.17470231652259827,0.17409147322177887,-0.09529217332601547
1667266590624307200,0.17630712890625,0.16737215220928192,0.15271180868148804,-0.13316470384597778
1667266590626705000,0.178704833984375,0.16187451779842377,0.12827792763710022,-0.16676130890846252
1667266590629102800,0.181102783203125,0.15393351018428802,0.1050657257437706,-0.20280128717422485
1667266590631500500,0.18350048828125,0.14171656966209412,0.08246438205242157,-0.2363978922367096
1667266590633898500,0.1858984375,0.13316470384597778,0.06047387793660164,-0.2651077210903168
1667266590636296200,0.188296142578125,0.12033691257238388,0.037261683493852615,-0.29565006494522095
1667266590638694000,0.19069384765625,0.10811996459960938,0.016492875292897224,-0.32313820719718933
1667266590641091800,0.193091796875,0.0916270911693573,-0.006108472589403391,-0.34696123003959656
1667266590643489500,0.195489501953125,0.07757759839296341,-0.02626643143594265,-0.3701734244823456
1667266590645887500,0.197887451171875,0.06291726976633072,-0.04703523963689804,-0.3939964771270752
1667266590648285200,0.20028515625,0.047646086663007736,-0.0653606578707695,-0.41171106696128845
1667266590650683100,0.20268310546875,0.03542914241552353,-0.08674030750989914,-0.4312581717967987
1667266590653080800,0.205080810546875,0.023212196305394173,-0.10750912129878998,-0.448361873626709
1667266590655478800,0.207478759765625,0.011606098152697086,-0.13499724864959717,-0.46424391865730286
1667266590657876500,0.20987646484375,0.0030542362947016954,-0.16309621930122375,-0.48073679208755493
1667266590660274400,0.2122744140625,-0.006719320081174374,-0.1960819661617279,-0.49112120270729065
1667266590662672100,0.214672119140625,-0.012216945178806782,-0.23151111602783203,-0.5045598149299622
1667266590665069800,0.21706982421875,-0.016492875292897224,-0.26877278089523315,-0.5161659121513367
1667266590667467800,0.2194677734375,-0.021990500390529633,-0.30481278896331787,-0.527161180973053
1667266590669865500,0.221865478515625,-0.02626643143594265,-0.3402419090270996,-0.5387672781944275
1667266590672263400,0.224263427734375,-0.02993151545524597,-0.3787252902984619,-0.5497625470161438
1667266590674661000,0.2266611328125,-0.03298575058579445,-0.41293275356292725,-0.5613686442375183
1667266590677059000,0.22905908203125,-0.03298575058579445,-0.4459185004234314,-0.5723638534545898
1667266590679456800,0.231456787109375,-0.03787253051996231,-0.47829338908195496,-0.5858024954795837
1667266590681854500,0.2338544921875,-0.04092676565051079,-0.5057815313339233,-0.5992411375045776
1667266590684252400,0.23625244140625,-0.04581354558467865,-0.5296045541763306,-0.6145123243331909
1667266590686650000,0.238650146484375,-0.05131116881966591,-0.5515950918197632,-0.6273401379585266
1667266590689048000,0.241048095703125,-0.055587101727724075,-0.5656445622444153,-0.6432221531867981
1667266590691445800,0.24344580078125,-0.062306419014930725,-0.5809157490730286,-0.6603258848190308
1667266590693843700,0.24584375,-0.06902574002742767,-0.5876350402832031,-0.6780404448509216
1667266590696241400,0.248241455078125,-0.07635590434074402,-0.5937435626983643,-0.6975875496864319
1667266590698639400,0.250639404296875,-0.08612946420907974,-0.5992411375045776,-0.7195780873298645
1667266590701037000,0.253037109375,-0.09468132257461548,-0.6022953987121582,-0.7409577369689941
1667266590703435000,0.25543505859375,-0.10811996459960938,-0.6035171151161194,-0.7641699314117432
1667266590705832700,0.257832763671875,-0.12033691257238388,-0.6053496599197388,-0.7898254990577698
1667266590708230400,0.26023046875,-0.13377554714679718,-0.6084038615226746,-0.8154810667037964
1667266590710628400,0.26262841796875,-0.14782503247261047,-0.6084038615226746,-0.8448017835617065
1667266590713026000,0.265026123046875,-0.16187451779842377,-0.6084038615226746,-0.8729007244110107
1667266590715424000,0.267424072265625,-0.17836740612983704,-0.6096255779266357,-0.9052756428718567
1667266590717821700,0.26982177734375,-0.19302773475646973,-0.605960488319397,-0.939483106136322
1667266590720219600,0.2722197265625,-0.20768806338310242,-0.6053496599197388,-0.971247136592865
1667266590722617300,0.274617431640625,-0.22479179501533508,-0.6016845703125,-1.0042328834533691
1667266590725015300,0.277015380859375,-0.24128466844558716,-0.5992411375045776,-1.0396620035171509
1667266590727413000,0.2794130859375,-0.25655585527420044,-0.5967977643013,-1.0720369815826416
1667266590729811000,0.28181103515625,-0.2718270421028137,-0.5937435626983643,-1.1038010120391846
1667266590732208600,0.284208740234375,-0.2852656841278076,-0.5919110178947449,-1.1392301321029663
1667266590734606300,0.2866064453125,-0.2993151545524597,-0.5906893014907837,-1.1709941625595093
1667266590737004300,0.28900439453125,-0.3115321099758148,-0.5882459282875061,-1.1972606182098389
1667266590739402000,0.291402099609375,-0.32374903559684753,-0.5870242118835449,-1.226581335067749
1667266590741800000,0.293800048828125,-0.33596599102020264,-0.5882459282875061,-1.254069447517395
1667266590744197600,0.29619775390625,-0.34879377484321594,-0.5888567566871643,-1.276059865951538
1667266590746595600,0.298595703125,-0.36101073026657104,-0.5876350402832031,-1.2931636571884155
1667266590748993300,0.3009931640625,-0.37322768568992615,-0.5882459282875061,-1.309045672416687
1667266590751391200,0.30339111328125,-0.3830012381076813,-0.5876350402832031,-1.3230952024459839
1667266590753789000,0.305788818359375,-0.3921639323234558,-0.5870242118835449,-1.3328686952590942
1667266590756187000,0.308186767578125,-0.40010493993759155,-0.5845808386802673,-1.3421077728271484
1667266590758584600,0.31058447265625,-0.4056025743484497,-0.5796940326690674,-1.3476054668426514
1667266590760982300,0.312982177734375,-0.41293275356292725,-0.5717530250549316,-1.3518813848495483
1667266590763380200,0.315380126953125,-0.4196520745754242,-0.5644228458404541,-1.353713870048523
1667266590765778000,0.31777783203125,-0.4227063059806824,-0.5509842038154602,-1.3573789596557617
1667266590768175900,0.32017578125,-0.42759308218955994,-0.5326588153839111,-1.355546474456787
1667266590770573600,0.322573486328125,-0.4300364851951599,-0.5131117105484009,-1.353713870048523
1667266590772971500,0.324971435546875,-0.4324798583984375,-0.49173203110694885,-1.3506596088409424
1667266590775369200,0.327369140625,-0.4349232614040375,-0.46363306045532227,-1.3445512056350708
1667266590777767200,0.32976708984375,-0.4367557764053345,-0.43614494800567627,-1.3402752876281738
1667266590780164900,0.332164794921875,-0.44042086601257324,-0.40193748474121094,-1.332257866859436
1667266590782562800,0.334562744140625,-0.43858832120895386,-0.3658975064754486,-1.3224843740463257
1667266590784960500,0.33696044921875,-0.43981003761291504,-0.3249707520008087,-1.3120999336242676
1667266590787358200,0.339358154296875,-0.44042086601257324,-0.28160059452056885,-1.3017154932022095
1667266590789756200,0.341756103515625,-0.44042086601257324,-0.23884128034114838,-1.2907202243804932
1667266590792153900,0.34415380859375,-0.4428642690181732,-0.19241689145565033,-1.2827792167663574
1667266590794551800,0.3465517578125,-0.4416425824165344,-0.1429382562637329,-1.2742273807525635
1667266590796949500,0.348949462890625,-0.44103172421455383,-0.09590301662683487,-1.2662863731384277
1667266590799347500,0.351347412109375,-0.4422534108161926,-0.05131116881966591,-1.2601778507232666
1667266590801745200,0.3537451171875,-0.444085955619812,-0.006108472589403391,-1.254069447517395
1667266590804142800,0.356142822265625,-0.446529358625412,0.034818295389413834,-1.2467392683029175
1667266590806540800,0.358540771484375,-0.45080527663230896,0.07452336698770523,-1.2424633502960205
1667266590808938500,0.3609384765625,-0.4569137394428253,0.11911521852016449,-1.23940908908844
1667266590811336400,0.36333642578125,-0.46424391865730286,0.1588202863931656,-1.2363548278808594
1667266590813734100,0.365734130859375,-0.4746283292770386,0.20096874237060547,-1.2357439994812012
1667266590816132000,0.368132080078125,-0.4856235682964325,0.24128466844558716,-1.23940908908844
1667266590818529800,0.37052978515625,-0.5002838969230652,0.2864873707294464,-1.2461284399032593
1667266590820927700,0.372927734375,-0.5125008225440979,0.33291175961494446,-1.252847671508789
1667266590823325400,0.375325439453125,-0.527161180973053,0.3793361485004425,-1.2613996267318726
1667266590825723400,0.377723388671875,-0.550373375415802,0.4294256269931793,-1.2723948955535889
1667266590828121000,0.38012109375,-0.5717530250549316,0.4813476502895355,-1.2882769107818604
1667266590830518800,0.382518798828125,-0.5931326746940613,0.5332696437835693,-1.30476975440979
1667266590832916700,0.384916748046875,-0.6187883019447327,0.5876350402832031,-1.3224843740463257
1667266590835314400,0.387314453125,-0.6474980711936951,0.6420004963874817,-1.3359229564666748
1667266590837712400,0.38971240234375,-0.6786513328552246,0.6920899152755737,-1.3506596088409424
1667266590840110000,0.392110107421875,-0.7085828185081482,0.7446228265762329,-1.3653199672698975
1667266590842508000,0.394508056640625,-0.7434011101722717,0.7941014170646667,-1.3781477212905884
1667266590844905700,0.39690576171875,-0.7776085734367371,0.8405258059501648,-1.3879213333129883
1667266590847303700,0.3993037109375,-0.8148702383041382,0.8863393664360046,-1.3928080797195435
1667266590849701400,0.401701416015625,-0.8545753359794617,0.9303203821182251,-1.3946406841278076
1667266590852099300,0.404099365234375,-0.897334635257721,0.9724688529968262,-1.3928080797195435
1667266590854497000,0.4064970703125,-0.9358180165290833,1.0164498090744019,-1.389753818511963
1667266590856894700,0.408894775390625,-0.975523054599762,1.0555440187454224,-1.381201982498169
1667266590859292700,0.411292724609375,-1.0176715850830078,1.0958600044250488,-1.3714284896850586
1667266590861690400,0.4136904296875,-1.0555440187454224,1.138619303703308,-1.359822392463684
1667266590864088300,0.41608837890625,-1.0928057432174683,1.1777135133743286,-1.3439403772354126
1667266590866486000,0.418486083984375,-1.1300674676895142,1.2168077230453491,-1.3249276876449585
1667266590868884000,0.420884033203125,-1.1648857593536377,1.2565127611160278,-1.309045672416687
1667266590871281700,0.42328173828125,-1.1948171854019165,1.3011046648025513,-1.2913310527801514
1667266590873679600,0.4256796875,-1.2186403274536133,1.345162034034729,-1.26872980594635
1667266590876077300,0.428077392578125,-1.2381874322891235,1.3860887289047241,-1.2449066638946533
1667266590878475300,0.430475341796875,-1.2552911043167114,1.4294589757919312,-1.2198619842529297
1667266590880873000,0.432873046875,-1.2644537687301636,1.4703856706619263,-1.1954281330108643
1667266590883270700,0.435270751953125,-1.26872980594635,1.5045931339263916,-1.1648857593536377
1667266590885668600,0.437668701171875,-1.2675080299377441,1.5375789403915405,-1.1361758708953857
1667266590888066300,0.44006640625,-1.262621283531189,1.5638453960418701,-1.1019684076309204
1667266590890464300,0.44246435546875,-1.2516260147094727,1.5815598964691162,-1.063485026359558
1667266590892862000,0.444862060546875,-1.235133171081543,1.5943876504898071,-1.0219475030899048
1667266590895260000,0.447260009765625,-1.2155860662460327,1.595609426498413,-0.9797990322113037
1667266590897657600,0.44965771484375,-1.1911520957946777,1.5858358144760132,-0.9327637553215027
1667266590900055600,0.4520556640625,-1.1630531549453735,1.5626236200332642,-0.8832851648330688
1667266590902453200,0.454453369140625,-1.1312891244888306,1.5265836715698242,-0.8319739699363708
1667266590904851200,0.456851318359375,-1.0897514820098877,1.4758833646774292,-0.7788302302360535
1667266590907249000,0.459248779296875,-1.0463813543319702,1.4080792665481567,-0.7207997441291809
1667266590909646600,0.461646484375,-0.9981244206428528,1.3285927772521973,-0.6646018028259277
1667266590912044500,0.46404443359375,-0.9425373077392578,1.2381874322891235,-0.6077930331230164
1667266590914442200,0.466442138671875,-0.8869501948356628,1.1355650424957275,-0.550373375415802
1667266590916840200,0.468840087890625,-0.8264763355255127,1.0219475030899048,-0.49417543411254883
1667266590919238000,0.47123779296875,-0.763559103012085,0.9052756428718567,-0.43797749280929565
1667266590921635800,0.4736357421875,-0.6963658928871155,0.7800519466400146,-0.38544461131095886
1667266590924033500,0.476033447265625,-0.624896764755249,0.6584933400154114,-0.33718767762184143
1667266590926431500,0.478431396484375,-0.5528167486190796,0.5332696437835693,-0.2895416021347046
1667266590928829200,0.4808291015625,-0.47707170248031616,0.4080459773540497,-0.24372805655002594
1667266590931227100,0.48322705078125,-0.39888325333595276,0.288930743932724,-0.20585553348064423
1667266590933624800,0.485624755859375,-0.31947311758995056,0.17897824943065643,-0.17225892841815948
1667266590936022500,0.4880224609375,-0.23884128034114838,0.0787992998957634,-0.1429382562637329
1667266590938420500,0.49042041015625,-0.15271180868148804,-0.006719320081174374,-0.11972606182098389
1667266590940818200,0.492818115234375,-0.06169557198882103,-0.08185353130102158,-0.10201149433851242
1667266590943216000,0.495216064453125,0.03176405653357506,-0.1423274129629135,-0.08857285231351852
1667266590945613800,0.49761376953125,0.12888877093791962,-0.18753011524677277,-0.08124268800020218
1667266590948011800,0.50001171875,0.23212195932865143,-0.22479179501533508,-0.08002099394798279
1667266590950409500,0.502409423828125,0.3384093940258026,-0.2504473626613617,-0.08246438205242157
1667266590952807200,0.50480712890625,0.4446968138217926,-0.26938363909721375,-0.0916270911693573
1667266590955205000,0.507205078125,0.5558710098266602,-0.2858765125274658,-0.10384403169155121
1667266590957602800,0.509602783203125,0.6682668924331665,-0.29687178134918213,-0.12216944992542267
1667266590960000800,0.512000732421875,0.7782194018363953,-0.30481278896331787,-0.14171656966209412
1667266590962398500,0.5143984375,0.888171911239624,-0.3133646547794342,-0.16798299551010132
1667266590964796400,0.51679638671875,0.9962918758392334,-0.32313820719718933,-0.1973036676645279
1667266590967194000,0.519194091796875,1.0983033180236816,-0.33230090141296387,-0.22906772792339325
1667266590969592000,0.521592041015625,1.1954281330108643,-0.34451785683631897,-0.258999228477478
1667266590971989800,0.52398974609375,1.2870551347732544,-0.35795649886131287,-0.2901524603366852
1667266590974387700,0.5263876953125,1.3689850568771362,-0.37383851408958435,-0.32130566239356995
1667266590976785400,0.528785400390625,1.4404542446136475,-0.3921639323234558,-0.34940463304519653
1667266590979183000,0.53118310546875,1.502760648727417,-0.41476529836654663,-0.37139514088630676
1667266590981581000,0.5335810546875,1.5540717840194702,-0.4428642690181732,-0.3946073353290558
1667266590983978800,0.535978759765625,1.5913335084915161,-0.4752391576766968,-0.416597843170166
1667266590986376700,0.538376708984375,1.6200432777404785,-0.5112791657447815,-0.4343124032020569
1667266590988774400,0.5407744140625,1.6353144645690918,-0.550373375415802,-0.45019441843032837
1667266590991172400,0.54317236328125,1.6395903825759888,-0.5900784730911255,-0.46241137385368347
1667266590993570000,0.545570068359375,1.6334819793701172,-0.6255075931549072,-0.474017471075058
1667266590995968000,0.547968017578125,1.6194324493408203,-0.6591041684150696,-0.4819584786891937
1667266590998365700,0.55036572265625,1.5949985980987549,-0.6927008032798767,-0.4868452548980713
1667266591000763600,0.552763671875,1.5638453960418701,-0.7226322889328003,-0.4874561131000519
1667266591003161300,0.555161376953125,1.5192534923553467,-0.7513421177864075,-0.48073679208755493
1667266591005559000,0.55755908203125,1.4691640138626099,-0.7769976854324341,-0.4715740978717804
1667266591007957000,0.55995703125,1.4117443561553955,-0.8038749694824219,-0.45508119463920593
1667266591010354700,0.562354736328125,1.345162034034729,-0.8264763355255127,-0.4330907166004181
1667266591012752600,0.564752685546875,1.2748382091522217,-0.8484668135643005,-0.4074351191520691
1667266591015150300,0.567150390625,1.1966497898101807,-0.8674030900001526,-0.3695625960826874
1667266591017548300,0.56954833984375,1.115407109260559,-0.883895993232727,-0.32374903559684753
1667266591019946000,0.571946044921875,1.0256125926971436,-0.897334635257721,-0.2767138183116913
1667266591022344000,0.574343994140625,0.9315420985221863,-0.8997780084609985,-0.2223484069108963
1667266591024741600,0.57674169921875,0.8289197087287903,-0.9009997248649597,-0.16248537600040436
1667266591027139600,0.5791396484375,0.7262973785400391,-0.8900044560432434,-0.09590301662683487
1667266591029537300,0.581537353515625,0.6193991303443909,-0.8716790676116943,-0.023212196305394173
1667266591031935000,0.58393505859375,0.5094466209411621,-0.8466343283653259,0.05375456064939499
1667266591034333000,0.5863330078125,0.393385648727417,-0.8124268651008606,0.13744063675403595
1667266591036730600,0.588730712890625,0.28221142292022705,-0.7739434838294983,0.22540263831615448
1667266591039128600,0.591128662109375,0.17225892841815948,-0.7275190949440002,0.3164188861846924
1667266591041526300,0.5935263671875,0.06291726976633072,-0.6786513328552246,0.416597843170166
1667266591043924200,0.59592431640625,-0.04214845970273018,-0.6273401379585266,0.518609344959259
1667266591046322000,0.598322021484375,-0.1423274129629135,-0.5741963982582092,0.6255075931549072
1667266591048720000,0.600719970703125,-0.2357870489358902,-0.5222744345664978,0.7336275577545166
1667266591051117600,0.60311767578125,-0.32008397579193115,-0.46607646346092224,0.8466343283653259
1667266591053515500,0.605515625,-0.3927747905254364,-0.41171106696128845,0.9596410393714905
1667266591055913200,0.607913330078125,-0.4587462842464447,-0.3542914092540741,1.073258638381958
1667266591058311000,0.610310791015625,-0.5100574493408203,-0.2919849753379822,1.1893196105957031
1667266591060708900,0.612708984375,-0.5509842038154602,-0.22906772792339325,1.3023263216018677
1667266591063106600,0.6151064453125,-0.5796940326690674,-0.16187451779842377,1.4135769605636597
1667266591065504500,0.61750439453125,-0.5998520255088806,-0.0922379344701767,1.525972843170166
1667266591067902200,0.619902099609375,-0.6071822047233582,-0.018936265259981155,1.6322602033615112
1667266591070300200,0.622300048828125,-0.605960488319397,0.05864133685827255,1.7324391603469849
1667266591072697900,0.62469775390625,-0.5986303091049194,0.13744063675403595,1.825287938117981
1667266591075095800,0.627095703125,-0.5839699506759644,0.21440738439559937,1.9126391410827637
1667266591077493500,0.629493408203125,-0.5638120174407959,0.2883199155330658,1.9877732992172241
1667266591079891500,0.631891357421875,-0.5418215394020081,0.36101073026657104,2.0574100017547607
1667266591082289200,0.6342890625,-0.5149442553520203,0.42759308218955994,2.110553741455078
1667266591084686800,0.636686767578125,-0.4862344264984131,0.49234288930892944,2.156367063522339
1667266591087084800,0.639084716796875,-0.4587462842464447,0.5442649126052856,2.188742160797119
1667266591089482500,0.641482421875,-0.4300364851951599,0.5864133834838867,2.2095108032226562
1667266591091880400,0.64388037109375,-0.4031592011451721,0.6187883019447327,2.220506191253662
1667266591094278100,0.646278076171875,-0.3793361485004425,0.6383354067802429,2.2223386764526367
1667266591096676000,0.648676025390625,-0.3555130958557129,0.6474980711936951,2.2156193256378174
1667266591099073800,0.65107373046875,-0.33596599102020264,0.6438329815864563,2.200348138809204
1667266591101471700,0.6534716796875,-0.32008397579193115,0.6316160559654236,2.176525115966797
1667266591103869400,0.655869384765625,-0.30969956517219543,0.605960488319397,2.150258779525757
1667266591106267400,0.658267333984375,-0.3017585575580597,0.5705313682556152,2.1178839206695557
1667266591108665000,0.6606650390625,-0.3023693859577179,0.5277720093727112,2.084897994995117
1667266591111062800,0.663062744140625,-0.3029802441596985,0.47951510548591614,2.0476362705230713
1667266591113460700,0.665460693359375,-0.30847787857055664,0.4214846193790436,2.0109856128692627
1667266591115858400,0.6678583984375,-0.31825143098831177,0.36162158846855164,1.9725021123886108
1667266591118256400,0.67025634765625,-0.3298575282096863,0.29626092314720154,1.937072992324829
1667266591120654000,0.672654052734375,-0.34451785683631897,0.22723518311977386,1.9065306186676025
1667266591123052000,0.675052001953125,-0.3658975064754486,0.14843589067459106,1.8741557598114014
1667266591125449700,0.67744970703125,-0.38727715611457825,0.06902574002742767,1.84850013256073
1667266591127847700,0.67984765625,-0.40987852215766907,-0.015271181240677834,1.8277313709259033
1667266591130245400,0.682245361328125,-0.4355340898036957,-0.10262233763933182,1.8087950944900513
1667266591132643300,0.684643310546875,-0.4611896872520447,-0.18753011524677277,1.7953563928604126
1667266591135041000,0.687041015625,-0.4862344264984131,-0.2724378705024719,1.7843612432479858
1667266591137438700,0.689438720703125,-0.5106683373451233,-0.3512371778488159,1.7776418924331665
1667266591139836700,0.691836669921875,-0.5338805317878723,-0.4282039403915405,1.7672574520111084
1667266591142234400,0.694234375,-0.5558710098266602,-0.4966188073158264,1.7642031908035278
1667266591144632300,0.69663232421875,-0.5760289430618286,-0.5577035546302795,1.7648141384124756
1667266591147030000,0.699030029296875,-0.5925218462944031,-0.6114581227302551,1.766035795211792
1667266591149428000,0.701427978515625,-0.6041279435157776,-0.6591041684150696,1.7684792280197144
1667266591151825700,0.70382568359375,-0.6151232123374939,-0.6914790868759155,1.7733659744262695
1667266591154223600,0.7062236328125,-0.624285876750946,-0.7207997441291809,1.780696153640747
1667266591156621300,0.708621337890625,-0.6255075931549072,-0.739736020565033,1.7910804748535156
1667266591159019300,0.711019287109375,-0.624285876750946,-0.7476770281791687,1.8008540868759155
1667266591161417000,0.7134169921875,-0.6200099587440491,-0.7488987445831299,1.8149036169052124
1667266591163814700,0.715814697265625,-0.6126797795295715,-0.7440119385719299,1.8332289457321167
1667266591166212600,0.718212646484375,-0.6035171151161194,-0.7299624681472778,1.8503327369689941
1667266591168610300,0.7206103515625,-0.5900784730911255,-0.7091936469078064,1.8686580657958984
1667266591171008300,0.72300830078125,-0.5711421966552734,-0.6865923404693604,1.8882052898406982
1667266591173406000,0.725406005859375,-0.5485408306121826,-0.6591041684150696,1.9071414470672607
1667266591175804000,0.727803955078125,-0.5247178077697754,-0.6303943991661072,1.927910327911377
1667266591178201600,0.73020166015625,-0.4990622103214264,-0.5998520255088806,1.945624828338623
1667266591180599600,0.732599609375,-0.46546560525894165,-0.5656445622444153,1.9621177911758423
1667266591182997200,0.734997314453125,-0.4300364851951599,-0.5344913601875305,1.9761672019958496
1667266591185395200,0.737395263671875,-0.3903313875198364,-0.5033381581306458,1.992049217224121
1667266591187793000,0.73979296875,-0.3518480062484741,-0.4727957844734192,2.003655433654785
1667266591190190600,0.742190673828125,-0.31031039357185364,-0.444085955619812,2.017704963684082
1667266591192588500,0.744588623046875,-0.2644968628883362,-0.4196520745754242,2.028700113296509
1667266591194986200,0.746986328125,-0.21807247400283813,-0.39643988013267517,2.0415279865264893
1667266591197384200,0.74938427734375,-0.1704263836145401,-0.3793361485004425,2.055577278137207
1667266591199782000,0.751781982421875,-0.12155860662460327,-0.36284327507019043,2.0690159797668457
1667266591202179800,0.754179931640625,-0.07391251623630524,-0.34940463304519653,2.084287166595459
1667266591204577500,0.75657763671875,-0.024433890357613564,-0.3396310806274414,2.1007800102233887
1667266591206975500,0.7589755859375,0.023212196305394173,-0.3298575282096863,2.1178839206695557
1667266591209373200,0.761373291015625,0.07207997888326645,-0.32008397579193115,2.1349875926971436
1667266591211771100,0.763771240234375,0.12155860662460327,-0.3151971995830536,2.1514804363250732
1667266591214168800,0.7661689453125,0.17225892841815948,-0.30603447556495667,2.1643083095550537
1667266591216566800,0.76856689453125,0.2211267054080963,-0.3017585575580597,2.1759142875671387
1667266591218964500,0.770964599609375,0.26999449729919434,-0.2987042963504791,2.185687780380249
1667266591221362200,0.773362060546875,0.32130566239356995,-0.29748260974884033,2.1936287879943848
1667266591223760100,0.775760009765625,0.37200596928596497,-0.3035911023616791,2.194239616394043
1667266591226157800,0.77815771484375,0.42392799258232117,-0.312142938375473,2.1930179595947266
1667266591228555800,0.7805556640625,0.4727957844734192,-0.3274141252040863,2.188131332397461
1667266591230953500,0.782953369140625,0.5216635465621948,-0.3518480062484741,2.1814119815826416
1667266591233351400,0.785351318359375,0.5674771070480347,-0.3823903799057007,2.1704165935516357
1667266591235749000,0.7877490234375,0.6126797795295715,-0.4172086715698242,2.156978130340576
1667266591238147000,0.79014697265625,0.6536065936088562,-0.4593571424484253,2.139263391494751
1667266591240544800,0.792544677734375,0.6914790868759155,-0.5033381581306458,2.1203272342681885
1667266591242942700,0.794942626953125,0.7250757217407227,-0.5479300022125244,2.0971150398254395
1667266591245340400,0.79734033203125,0.7568397521972656,-0.5943543910980225,2.0732920169830322
1667266591247738000,0.799738037109375,0.786160409450531,-0.6365028619766235,2.046414613723755
1667266591250136000,0.802135986328125,0.809983491897583,-0.6780404448509216,2.0164830684661865
1667266591252533800,0.80453369140625,0.8344173431396484,-0.7128587365150452,1.9816648960113525
1667266591254931700,0.806931640625,0.8551861643791199,-0.7342383861541748,1.9395164251327515
1667266591257329400,0.809329345703125,0.873511552810669,-0.7562289237976074,1.8955353498458862
1667266591259727400,0.811727294921875,0.8851176500320435,-0.791047215461731,1.8515543937683105
1667266591262125000,0.814125,0.8942803740501404,-0.8307522535324097,1.8087950944900513
1667266591264523000,0.81652294921875,0.8991671800613403,-0.8759549856185913,1.7690900564193726
1667266591266920700,0.818920654296875,0.896723747253418,-0.9242119193077087,1.7293848991394043
1667266591269318700,0.821318603515625,0.8961129188537598,-0.9749122262001038,1.6896798610687256
1667266591271716400,0.82371630859375,0.8887827396392822,-1.0280559062957764,1.6524181365966797
1667266591274114000,0.826114013671875,0.8790091872215271,-1.0793671607971191,1.6157673597335815
1667266591276512000,0.828511962890625,0.8686248064041138,-1.1270132064819336,1.5772839784622192
1667266591278909700,0.83090966796875,0.8570187091827393,-1.1673290729522705,1.538800597190857
1667266591281307600,0.8333076171875,0.8435800671577454,-1.2039799690246582,1.497262954711914
1667266591283705300,0.835705322265625,0.8276980519294739,-1.235133171081543,1.4581687450408936
1667266591286103300,0.838103271484375,0.813648521900177,-1.2559019327163696,1.419074535369873
1667266591288501000,0.8405009765625,0.8008207678794861,-1.26872980594635,1.3805911540985107
1667266591290899000,0.84289892578125,0.7849387526512146,-1.2717839479446411,1.340886116027832
1667266591293296600,0.845296630859375,0.762948215007782,-1.2693406343460083,1.3011046648025513
1667266591295694600,0.847694580078125,0.7446228265762329,-1.2559019327163696,1.2644537687301636
1667266591298092300,0.85009228515625,0.7232431769371033,-1.2381874322891235,1.2284138202667236
1667266591300490000,0.852489990234375,0.6981984376907349,-1.2174185514450073,1.1948171854019165
1667266591302888000,0.854887939453125,0.6762079000473022,-1.192984700202942,1.1636639833450317
1667266591305285600,0.85728564453125,0.6548282504081726,-1.1630531549453735,1.1361758708953857
1667266591307683600,0.85968359375,0.629172682762146,-1.129456639289856,1.1117420196533203
1667266591310081300,0.862081298828125,0.6077930331230164,-1.0928057432174683,1.09219491481781
1667266591312479200,0.864479248046875,0.5845808386802673,-1.054322361946106,1.0738694667816162
1667266591314877000,0.866876953125,0.5613686442375183,-1.0158389806747437,1.0567657947540283
1667266591317275000,0.86927490234375,0.5412106513977051,-0.9785773158073425,1.0439379215240479
1667266591319672600,0.871672607421875,0.5216635465621948,-0.9382613897323608,1.0366077423095703
1667266591322070500,0.874070556640625,0.503948986530304,-0.9009997248649597,1.0292776823043823
1667266591324468200,0.87646826171875,0.4874561131000519,-0.8600729703903198,1.0262234210968018
1667266591326866200,0.8788662109375,0.4734066128730774,-0.8228112459182739,1.0237799882888794
1667266591329263900,0.881263916015625,0.46363306045532227,-0.7879929542541504,1.0256125926971436
1667266591331661600,0.88366162109375,0.4575245976448059,-0.7574505805969238,1.0274450778961182
1667266591334059500,0.8860595703125,0.45385950803756714,-0.7287407517433167,1.0280559062957764
1667266591336457200,0.888457275390625,0.45202696323394775,-0.7043069005012512,1.0317209959030151
1667266591338855200,0.890855224609375,0.45324867963790894,-0.6823163628578186,1.035386085510254
1667266591341252900,0.8932529296875,0.45508119463920593,-0.6627692580223083,1.0408837795257568
1667266591343650800,0.89565087890625,0.4605788290500641,-0.6456655263900757,1.0463813543319702
1667266591346048500,0.898048583984375,0.46546560525894165,-0.6273401379585266,1.0537115335464478
1667266591348446500,0.900446533203125,0.4727957844734192,-0.6108472347259521,1.060430884361267
1667266591350844200,0.90284423828125,0.47890424728393555,-0.5937435626983643,1.0659284591674805
1667266591353242000,0.9052421875,0.4868452548980713,-0.5796940326690674,1.0720369815826416
1667266591355639800,0.907639892578125,0.4953971207141876,-0.5662553906440735,1.0781453847885132
1667266591358037800,0.910037841796875,0.5021164417266846,-0.5497625470161438,1.086086392402649
1667266591360435500,0.912435546875,0.5106683373451233,-0.5381564497947693,1.0946383476257324
1667266591362833200,0.914833251953125,0.518609344959259,-0.5265503525733948,1.0976924896240234
1667266591365231000,0.917231201171875,0.527161180973053,-0.517998456954956,1.1025793552398682
1667266591367628800,0.91962890625,0.5357130169868469,-0.5082249045372009,1.106244444847107
1667266591370026800,0.92202685546875,0.5430431962013245,-0.499673068523407,1.1099094152450562
1667266591372424400,0.924424560546875,0.5509842038154602,-0.49051034450531006,1.1074661016464233
1667266591374822400,0.926822509765625,0.555260181427002,-0.4825693368911743,1.1074661016464233
1667266591377220000,0.92922021484375,0.5607577562332153,-0.4734066128730774,1.105022668838501
1667266591379618000,0.9316181640625,0.5662553906440735,-0.46241137385368347,1.1013575792312622
1667266591382015700,0.934015625,0.5699204802513123,-0.448361873626709,1.0983033180236816
1667266591384413700,0.93641357421875,0.573585569858551,-0.4324798583984375,1.0940274000167847
1667266591386811400,0.938811279296875,0.5766398310661316,-0.4178195297718048,1.090362310409546
1667266591389209000,0.941208984375,0.577861487865448,-0.39888325333595276,1.0830321311950684
1667266591391607000,0.94360693359375,0.5790832042694092,-0.3799470067024231,1.0787562131881714
1667266591394004700,0.946004638671875,0.578472375869751,-0.3549022674560547,1.073258638381958
1667266591396402700,0.948402587890625,0.5741963982582092,-0.3255815804004669,1.0671501159667969
1667266591398800400,0.95080029296875,0.5680879354476929,-0.29503923654556274,1.063485026359558
1667266591401198300,0.9531982421875,0.5601469278335571,-0.2608317732810974,1.0573766231536865
1667266591403596000,0.955595947265625,0.5509842038154602,-0.2211267054080963,1.050046443939209
1667266591405994000,0.957993896484375,0.5393781065940857,-0.17897824943065643,1.0469921827316284
1667266591408391700,0.9603916015625,0.5222744345664978,-0.13377554714679718,1.0445488691329956
1667266591410789600,0.96278955078125,0.5033381581306458,-0.08612946420907974,1.0421054363250732
1667266591413187300,0.965187255859375,0.4825693368911743,-0.034818295389413834,1.0421054363250732
1667266591415585000,0.9675849609375,0.4587462842464447,0.017714571207761765,1.0427162647247314
1667266591417983000,0.96998291015625,0.4337015450000763,0.07391251623630524,1.0451596975326538
1667266591420380700,0.972380615234375,0.4074351191520691,0.12888877093791962,1.0506572723388672
1667266591422778600,0.974778564453125,0.3799470067024231,0.1844758689403534,1.054322361946106
1667266591425176300,0.97717626953125,0.3512371778488159,0.24494975805282593,1.060430884361267
1667266591427574300,0.97957421875,0.3243598937988281,0.2999260127544403,1.0665392875671387
1667266591429972000,0.981971923828125,0.29503923654556274,0.3536805510520935,1.0744802951812744
1667266591432370000,0.984369873046875,0.26816195249557495,0.4062134325504303,1.0836430788040161
1667266591434767600,0.986767578125,0.24311721324920654,0.4587462842464447,1.0940274000167847
1667266591437165600,0.98916552734375,0.2229592502117157,0.5033381581306458,1.1031901836395264
1667266591439563300,0.991563232421875,0.20341213047504425,0.5430431962013245,1.1141854524612427
1667266591441961000,0.9939609375,0.18814095854759216,0.5815265774726868,1.1227372884750366
1667266591444359000,0.99635888671875,0.18142163753509521,0.6114581227302551,1.1331216096878052
1667266591446756600,0.998756591796875,0.17286977171897888,0.6383354067802429,1.1435060501098633
1667266591449154600,1.001154541015625,0.17286977171897888,0.6572716236114502,1.151447057723999
1667266591451552500,1.003552490234375,0.17897824943065643,0.6682668924331665,1.155722975730896
1667266591453950200,1.0059501953125,0.18875180184841156,0.6719319820404053,1.161220669746399
1667266591456348000,1.008347900390625,0.20402298867702484,0.6713211536407471,1.1648857593536377
1667266591458745900,1.010745849609375,0.2241809368133545,0.6700994372367859,1.1642749309539795
1667266591461143600,1.0131435546875,0.24678228795528412,0.6646018028259277,1.166107416152954
1667266591463541500,1.01554150390625,0.2742704153060913,0.6505523324012756,1.1636639833450317
1667266591465939200,1.017939208984375,0.3011476993560791,0.6365028619766235,1.1642749309539795
1667266591468337200,1.020337158203125,0.33352261781692505,0.6200099587440491,1.159998893737793
1667266591470734800,1.02273486328125,0.3683409094810486,0.601073682308197,1.1575555801391602
1667266591473132800,1.0251328125,0.40254834294319153,0.5821374654769897,1.1551121473312378
1667266591475530500,1.027530517578125,0.43614494800567627,0.5619794726371765,1.1508362293243408
1667266591477928400,1.029928466796875,0.4721849262714386,0.5442649126052856,1.147171139717102
1667266591480326100,1.032326171875,0.5057815313339233,0.5234960913658142,1.1410627365112305
1667266591482723800,1.034723876953125,0.5387672781944275,0.5082249045372009,1.1361758708953857
1667266591485121800,1.037121826171875,0.5699204802513123,0.49234288930892944,1.1276240348815918
1667266591487519500,1.03951953125,0.601073682308197,0.47890424728393555,1.119683027267456
1667266591489917400,1.04191748046875,0.6279509663581848,0.46729815006256104,1.1147962808609009
1667266591492315100,1.044315185546875,0.6542174220085144,0.4556920528411865,1.1068552732467651
1667266591494713000,1.046713134765625,0.6762079000473022,0.4453076422214508,1.0970816612243652
1667266591497110800,1.04911083984375,0.6957550048828125,0.4343124032020569,1.0873081684112549
1667266591499508700,1.0515087890625,0.7140804529190063,0.42453885078430176,1.077534556388855
1667266591501906400,1.053906494140625,0.7324058413505554,0.4196520745754242,1.0665392875671387
1667266591504304400,1.056304443359375,0.7458444833755493,0.41415444016456604,1.0555440187454224
1667266591506702000,1.0587021484375,0.758672297000885,0.4086568057537079,1.045770525932312
1667266591509099800,1.061099853515625,0.7684458494186401,0.4056025743484497,1.0335536003112793
1667266591511497700,1.063497802734375,0.781884491443634,0.4068242609500885,1.0219475030899048
1667266591513895400,1.0658955078125,0.790436327457428,0.40987852215766907,1.0121738910675049
1667266591516293400,1.06829345703125,0.7953231334686279,0.4068242609500885,0.999346137046814
1667266591518691000,1.070691162109375,0.8002098798751831,0.40254834294319153,0.9914051294326782
1667266591521089000,1.073089111328125,0.8050966858863831,0.4031592011451721,0.9822424054145813
1667266591523486700,1.07548681640625,0.8105943202972412,0.4074351191520691,0.9767447710037231
1667266591525884700,1.077884765625,0.8118160367012024,0.41415444016456604,0.9681929349899292
1667266591528282400,1.080282470703125,0.8112051486968994,0.42453885078430176,0.9620844125747681
1667266591530680300,1.082680419921875,0.8130376935005188,0.4349232614040375,0.9553651213645935
1667266591533078000,1.085078125,0.813648521900177,0.444085955619812,0.9498674869537354
1667266591535476000,1.08747607421875,0.8130376935005188,0.44958359003067017,0.9462023973464966
