time,seconds_elapsed,z,y,x
1667824281099520800,0.007520751953125,-0.859619140625,-0.4470062255859375,0.0029449462890625
1667824281109528600,0.017528564453125,-0.865478515625,-0.461669921875,-0.001861572265625
1667824281119536600,0.02753662109375,-0.86346435546875,-0.4759979248046875,-0.0014801025390625
1667824281129544400,0.03754443359375,-0.8692169189453125,-0.48419189453125,-0.0037841796875
1667824281139552500,0.047552490234375,-0.88153076171875,-0.4886932373046875,-0.0118560791015625
1667824281149560600,0.057560546875,-0.884796142578125,-0.479766845703125,-0.024993896484375
1667824281159568600,0.067568603515625,-0.883697509765625,-0.4583740234375,-0.03826904296875
1667824281169576700,0.07757666015625,-0.8906402587890625,-0.4347076416015625,-0.0512542724609375
1667824281179584500,0.08758447265625,-0.912017822265625,-0.417083740234375,-0.061553955078125
1667824281189592600,0.097592529296875,-0.9286041259765625,-0.3962860107421875,-0.069854736328125
1667824281199599600,0.107599609375,-0.9360504150390625,-0.3728485107421875,-0.0769500732421875
1667824281209607700,0.117607666015625,-0.9389801025390625,-0.3600921630859375,-0.0803070068359375
1667824281219615700,0.12761572265625,-0.93939208984375,-0.3573455810546875,-0.0857086181640625
1667824281229623600,0.13762353515625,-0.9400482177734375,-0.3565216064453125,-0.0966644287109375
1667824281239631600,0.147631591796875,-0.9402008056640625,-0.3487396240234375,-0.111328125
1667824281249639400,0.157639404296875,-0.938385009765625,-0.3351287841796875,-0.1260986328125
1667824281259647500,0.1676474609375,-0.9380950927734375,-0.336822509765625,-0.1312255859375
1667824281269655800,0.17765576171875,-0.9371185302734375,-0.3600006103515625,-0.132293701171875
1667824281279663600,0.18766357421875,-0.9365081787109375,-0.380523681640625,-0.13104248046875
1667824281289671700,0.197671630859375,-0.942596435546875,-0.3885650634765625,-0.126800537109375
1667824281299678500,0.207678466796875,-0.949615478515625,-0.3993377685546875,-0.120025634765625
1667824281309686800,0.217686767578125,-0.9475860595703125,-0.419281005859375,-0.1076507568359375
1667824281319694600,0.227694580078125,-0.9352264404296875,-0.433258056640625,-0.1001434326171875
1667824281329702700,0.23770263671875,-0.916015625,-0.4326019287109375,-0.09893798828125
1667824281339710700,0.247710693359375,-0.899505615234375,-0.4257659912109375,-0.094818115234375
1667824281349718500,0.257718505859375,-0.8865966796875,-0.4212646484375,-0.087738037109375
1667824281359726600,0.2677265625,-0.8790435791015625,-0.420379638671875,-0.0774688720703125
1667824281369734400,0.277734375,-0.8759307861328125,-0.4265289306640625,-0.071075439453125
1667824281379742700,0.28774267578125,-0.8712310791015625,-0.431976318359375,-0.0654296875
1667824281389750800,0.297750732421875,-0.863067626953125,-0.434814453125,-0.059478759765625
1667824281399757600,0.307757568359375,-0.85052490234375,-0.4349517822265625,-0.05615234375
1667824281409765600,0.317765625,-0.8459014892578125,-0.4371795654296875,-0.05242919921875
1667824281419773700,0.327773681640625,-0.8465576171875,-0.4395904541015625,-0.04339599609375
1667824281429781800,0.33778173828125,-0.8451690673828125,-0.436370849609375,-0.0363311767578125
1667824281439789600,0.34778955078125,-0.8350372314453125,-0.4281463623046875,-0.0337677001953125
1667824281449797600,0.357797607421875,-0.8313140869140625,-0.4192047119140625,-0.0281829833984375
1667824281459805700,0.3678056640625,-0.8359527587890625,-0.4122467041015625,-0.02545166015625
1667824281469813500,0.3778134765625,-0.834197998046875,-0.4008026123046875,-0.018341064453125
1667824281479821600,0.387821533203125,-0.833038330078125,-0.3951263427734375,-0.010467529296875
1667824281489829600,0.39782958984375,-0.83917236328125,-0.3895416259765625,-0.012603759765625
1667824281499836700,0.407836669921875,-0.8411712646484375,-0.3763885498046875,-0.0118255615234375
1667824281509844500,0.417844482421875,-0.837860107421875,-0.368408203125,-0.0117340087890625
1667824281519852500,0.4278525390625,-0.8316650390625,-0.3670806884765625,-0.019012451171875
1667824281529860600,0.437860595703125,-0.8335418701171875,-0.366851806640625,-0.0260162353515625
1667824281539868700,0.44786865234375,-0.8510894775390625,-0.3715362548828125,-0.031341552734375
1667824281549876700,0.457876708984375,-0.8653717041015625,-0.3851470947265625,-0.0315093994140625
1667824281559884500,0.467884521484375,-0.869964599609375,-0.400238037109375,-0.0323333740234375
1667824281569892600,0.477892578125,-0.8696746826171875,-0.4059295654296875,-0.0417938232421875
1667824281579900400,0.487900390625,-0.8712310791015625,-0.4029998779296875,-0.0491485595703125
1667824281589908500,0.497908447265625,-0.873748779296875,-0.39996337890625,-0.055755615234375
1667824281599915500,0.50791552734375,-0.8883056640625,-0.4026336669921875,-0.06170654296875
1667824281609923600,0.517923583984375,-0.916015625,-0.4055633544921875,-0.0684356689453125
1667824281619932000,0.527931884765625,-0.9556427001953125,-0.400604248046875,-0.072662353515625
1667824281629939700,0.537939697265625,-1.0062255859375,-0.3904266357421875,-0.0757293701171875
1667824281639947800,0.54794775390625,-1.0447998046875,-0.386383056640625,-0.0758819580078125
1667824281649955800,0.557955810546875,-1.0655517578125,-0.3900604248046875,-0.0798187255859375
1667824281659964000,0.5679638671875,-1.07586669921875,-0.3866424560546875,-0.0904083251953125
1667824281669972000,0.577971923828125,-1.069305419921875,-0.3796844482421875,-0.0939483642578125
1667824281679979800,0.587979736328125,-1.0538787841796875,-0.377349853515625,-0.1119384765625
1667824281689987800,0.59798779296875,-1.0311431884765625,-0.363372802734375,-0.1363525390625
1667824281699995000,0.607994873046875,-0.99072265625,-0.3397674560546875,-0.1610565185546875
1667824281710003000,0.6180029296875,-0.9208221435546875,-0.34185791015625,-0.11627197265625
1667824281720010800,0.6280107421875,-0.894073486328125,-0.3831634521484375,-0.11669921875
1667824281730018800,0.638018798828125,-0.909576416015625,-0.404693603515625,-0.1273040771484375
1667824281740027000,0.64802685546875,-0.9185791015625,-0.413909912109375,-0.1138763427734375
1667824281750034700,0.65803466796875,-0.923553466796875,-0.4322967529296875,-0.0974578857421875
1667824281760043000,0.66804296875,-0.91973876953125,-0.450836181640625,-0.0906219482421875
1667824281770050800,0.67805078125,-0.900482177734375,-0.4516143798828125,-0.0995025634765625
1667824281780059000,0.688058837890625,-0.87371826171875,-0.44207763671875,-0.11187744140625
1667824281790065700,0.698065673828125,-0.8538360595703125,-0.4392547607421875,-0.121002197265625
1667824281800074000,0.708073974609375,-0.8382110595703125,-0.438140869140625,-0.1228485107421875
1667824281810082000,0.71808203125,-0.816314697265625,-0.439788818359375,-0.1254119873046875
1667824281820089900,0.72808984375,-0.7978973388671875,-0.4471893310546875,-0.12445068359375
1667824281830098000,0.738097900390625,-0.7738800048828125,-0.4600067138671875,-0.108642578125
1667824281840105700,0.748105712890625,-0.8292236328125,-0.5040435791015625,-0.148406982421875
1667824281850113800,0.75811376953125,-0.831024169921875,-0.496337890625,-0.094085693359375
1667824281860121900,0.768121826171875,-0.81341552734375,-0.4778900146484375,-0.0283203125
1667824281870130000,0.7781298828125,-0.86328125,-0.495086669921875,-0.0230560302734375
1667824281880138000,0.788137939453125,-0.8706207275390625,-0.4969024658203125,0.001556396484375
1667824281890144800,0.798144775390625,-0.87139892578125,-0.4878997802734375,0.034027099609375
1667824281900152800,0.80815283203125,-0.860382080078125,-0.4675140380859375,0.023468017578125
1667824281910161000,0.818160888671875,-0.839691162109375,-0.4366455078125,0.017669677734375
1667824281920169000,0.8281689453125,-0.8359527587890625,-0.4260406494140625,0.045440673828125
1667824281930177000,0.838177001953125,-0.8426513671875,-0.438995361328125,0.0797576904296875
1667824281940184800,0.848184814453125,-0.85174560546875,-0.469635009765625,0.112579345703125
1667824281950193000,0.85819287109375,-0.8572235107421875,-0.50555419921875,0.1405792236328125
1667824281960200700,0.86820068359375,-0.85809326171875,-0.527252197265625,0.150787353515625
1667824281970208800,0.878208740234375,-0.8593902587890625,-0.5312652587890625,0.1527557373046875
1667824281980216800,0.888216796875,-0.86065673828125,-0.5357513427734375,0.1605072021484375
1667824281990224000,0.898223876953125,-0.871307373046875,-0.5305633544921875,0.159820556640625
1667824282000231700,0.908231689453125,-0.889251708984375,-0.50860595703125,0.1476287841796875
1667824282010239700,0.91823974609375,-0.916290283203125,-0.4759521484375,0.1281280517578125
1667824282020248000,0.928248046875,-0.9488525390625,-0.4387969970703125,0.1094818115234375
1667824282030255900,0.938255859375,-0.9736175537109375,-0.4043121337890625,0.1054840087890625
1667824282040264000,0.948263916015625,-0.99566650390625,-0.38055419921875,0.1087646484375
1667824282050271700,0.958271728515625,-0.9982757568359375,-0.3661651611328125,0.1124725341796875
1667824282060279800,0.96827978515625,-0.9912567138671875,-0.35516357421875,0.1088104248046875
1667824282070288000,0.978287841796875,-0.9851837158203125,-0.34722900390625,0.104034423828125
1667824282080295700,0.988295654296875,-0.977935791015625,-0.3473358154296875,0.105438232421875
1667824282090303000,0.998302978515625,-0.9720611572265625,-0.3509521484375,0.1015167236328125
1667824282100310800,1.008310791015625,-0.9565887451171875,-0.350799560546875,0.09246826171875
1667824282110318800,1.01831884765625,-0.9346923828125,-0.3567657470703125,0.0915374755859375
1667824282120326700,1.02832666015625,-0.9224853515625,-0.366912841796875,0.0905609130859375
1667824282130335000,1.0383349609375,-0.915740966796875,-0.370849609375,0.08367919921875
1667824282140343000,1.048343017578125,-0.905029296875,-0.3560333251953125,0.0688629150390625
1667824282150350800,1.058350830078125,-0.89678955078125,-0.3386993408203125,0.055419921875
1667824282160359000,1.06835888671875,-0.89337158203125,-0.3290252685546875,0.039947509765625
1667824282170366700,1.07836669921875,-0.87994384765625,-0.3156890869140625,0.0233154296875
1667824282180374000,1.0883740234375,-0.8647003173828125,-0.299835205078125,0.0137176513671875
1667824282190381800,1.0983818359375,-0.85345458984375,-0.29461669921875,0.010498046875
1667824282200390000,1.108389892578125,-0.841064453125,-0.2993621826171875,0.01611328125
1667824282210398000,1.11839794921875,-0.8286285400390625,-0.30291748046875,0.022735595703125
1667824282220405800,1.12840576171875,-0.81658935546875,-0.3055572509765625,0.0199737548828125
1667824282230413800,1.138413818359375,-0.8083648681640625,-0.3053131103515625,0.0158233642578125
1667824282240422000,1.148421875,-0.8043365478515625,-0.31048583984375,0.01885986328125
1667824282250430000,1.158429931640625,-0.8059844970703125,-0.319854736328125,0.0182952880859375
1667824282260438000,1.16843798828125,-0.8121337890625,-0.3251495361328125,0.017608642578125
1667824282270445800,1.17844580078125,-0.8236236572265625,-0.3360137939453125,0.0208587646484375
1667824282280452900,1.188452880859375,-0.842132568359375,-0.3569793701171875,0.015655517578125
1667824282290461000,1.1984609375,-0.8525543212890625,-0.36328125,-0.004364013671875
1667824282300469000,1.208468994140625,-0.8441009521484375,-0.3515777587890625,-0.025848388671875
1667824282310476800,1.218476806640625,-0.8487091064453125,-0.3452301025390625,-0.03961181640625
1667824282320484900,1.22848486328125,-0.8513946533203125,-0.3502197265625,-0.04888916015625
1667824282330493000,1.238492919921875,-0.8503875732421875,-0.360015869140625,-0.0495758056640625
1667824282340500700,1.248500732421875,-0.8512115478515625,-0.3735504150390625,-0.04351806640625
1667824282350509000,1.258509033203125,-0.855377197265625,-0.3815460205078125,-0.0364990234375
1667824282360516900,1.268516845703125,-0.8468170166015625,-0.38427734375,-0.0219573974609375
1667824282370525000,1.27852490234375,-0.8322296142578125,-0.388885498046875,-0.00848388671875
1667824282380531700,1.28853173828125,-0.81805419921875,-0.39385986328125,-0.004180908203125
1667824282390539800,1.298539794921875,-0.806976318359375,-0.392303466796875,-0.0104827880859375
1667824282400547800,1.3085478515625,-0.7932281494140625,-0.3839874267578125,-0.007659912109375
1667824282410556000,1.318555908203125,-0.7765655517578125,-0.37689208984375,0.005462646484375
1667824282420564000,1.32856396484375,-0.76397705078125,-0.3750762939453125,0.0113677978515625
1667824282430571800,1.33857177734375,-0.7440185546875,-0.3733367919921875,0.0203399658203125
1667824282440579800,1.348579833984375,-0.72344970703125,-0.37542724609375,0.0358734130859375
1667824282450587600,1.358587646484375,-0.71807861328125,-0.38433837890625,0.059417724609375
1667824282460596000,1.368595947265625,-0.72528076171875,-0.3931884765625,0.0854339599609375
1667824282470602800,1.378602783203125,-0.7299652099609375,-0.4053955078125,0.11212158203125
1667824282480610800,1.38861083984375,-0.7430267333984375,-0.422027587890625,0.1266937255859375
1667824282490619000,1.398618896484375,-0.7527923583984375,-0.4353790283203125,0.1317138671875
1667824282500626700,1.408626708984375,-0.763153076171875,-0.447021484375,0.13800048828125
1667824282510635000,1.418635009765625,-0.787841796875,-0.4661407470703125,0.144256591796875
1667824282520642800,1.428642822265625,-0.8251953125,-0.4898681640625,0.145782470703125
1667824282530651000,1.43865087890625,-0.8661956787109375,-0.5088348388671875,0.14349365234375
1667824282540659000,1.448658935546875,-0.907257080078125,-0.5168914794921875,0.131500244140625
1667824282550666800,1.458666748046875,-0.94573974609375,-0.5152435302734375,0.1182708740234375
1667824282560674800,1.4686748046875,-0.9930877685546875,-0.50555419921875,0.0977630615234375
1667824282570681900,1.478681884765625,-1.04803466796875,-0.492218017578125,0.079437255859375
1667824282580690000,1.48868994140625,-1.0948944091796875,-0.4775390625,0.0625
1667824282590697700,1.49869775390625,-1.1268157958984375,-0.4593048095703125,0.0382537841796875
1667824282600705800,1.508705810546875,-1.1405029296875,-0.430084228515625,0.0167999267578125
1667824282610713900,1.5187138671875,-1.153076171875,-0.395172119140625,0.0083770751953125
1667824282620722000,1.528721923828125,-1.1611480712890625,-0.369964599609375,0.0049285888671875
1667824282630729700,1.538729736328125,-1.1453094482421875,-0.3485107421875,0.003173828125
1667824282640737800,1.54873779296875,-1.1206817626953125,-0.329925537109375,0.0068817138671875
1667824282650745900,1.558745849609375,-1.100860595703125,-0.31695556640625,0.01373291015625
1667824282660753000,1.5687529296875,-1.0793914794921875,-0.3141021728515625,0.0242462158203125
1667824282670761000,1.578760986328125,-1.064208984375,-0.3171234130859375,0.0341033935546875
1667824282680768800,1.588768798828125,-1.0614471435546875,-0.32562255859375,0.0341949462890625
1667824282690776800,1.59877685546875,-1.066375732421875,-0.337860107421875,0.02581787109375
1667824282700784600,1.60878466796875,-1.069305419921875,-0.3593902587890625,0.0043487548828125
1667824282710792700,1.618792724609375,-1.081634521484375,-0.3802642822265625,-0.03759765625
1667824282720800800,1.62880078125,-1.1122894287109375,-0.3924407958984375,-0.076751708984375
1667824282730808800,1.638808837890625,-1.1469879150390625,-0.3993377685546875,-0.11328125
1667824282740817000,1.64881689453125,-1.167755126953125,-0.3947601318359375,-0.1599578857421875
1667824282750824700,1.65882470703125,-1.1690673828125,-0.38134765625,-0.20587158203125
1667824282760831700,1.668831787109375,-1.174835205078125,-0.372039794921875,-0.2367706298828125
1667824282770839800,1.67883984375,-1.1748809814453125,-0.3604888916015625,-0.24884033203125
1667824282780847900,1.688847900390625,-1.1545257568359375,-0.3436737060546875,-0.2531890869140625
1667824282790856000,1.69885595703125,-1.1161041259765625,-0.3356170654296875,-0.25604248046875
1667824282800863700,1.70886376953125,-1.0795135498046875,-0.3359527587890625,-0.255584716796875
1667824282810871800,1.718871826171875,-1.0464630126953125,-0.3310546875,-0.241241455078125
1667824282820879600,1.728879638671875,-1.01043701171875,-0.3279571533203125,-0.2132720947265625
1667824282830887700,1.7388876953125,-0.9786529541015625,-0.3302154541015625,-0.1904754638671875
1667824282840896000,1.74889599609375,-0.944793701171875,-0.328887939453125,-0.1673583984375
1667824282850903800,1.75890380859375,-0.9047698974609375,-0.32952880859375,-0.144012451171875
1667824282860910800,1.768910888671875,-0.866546630859375,-0.3353424072265625,-0.133819580078125
1667824282870918700,1.778918701171875,-0.8366851806640625,-0.341094970703125,-0.127197265625
1667824282880926700,1.7889267578125,-0.8140716552734375,-0.343292236328125,-0.1204681396484375
1667824282890934800,1.798934814453125,-0.7969818115234375,-0.3354644775390625,-0.12255859375
1667824282900942800,1.80894287109375,-0.783599853515625,-0.3311004638671875,-0.1163330078125
1667824282910950700,1.81895068359375,-0.78375244140625,-0.3366851806640625,-0.107513427734375
1667824282920958700,1.828958740234375,-0.78680419921875,-0.3438568115234375,-0.104217529296875
1667824282930966800,1.838966796875,-0.7811431884765625,-0.341552734375,-0.1077117919921875
1667824282940974600,1.848974609375,-0.7850341796875,-0.3268280029296875,-0.109771728515625
1667824282950982000,1.85898193359375,-0.79876708984375,-0.3147430419921875,-0.1021881103515625
1667824282960989700,1.86898974609375,-0.812896728515625,-0.31097412109375,-0.0905914306640625
1667824282970997800,1.878997802734375,-0.819915771484375,-0.3083343505859375,-0.084930419921875
1667824282981005600,1.889005615234375,-0.8239593505859375,-0.2959136962890625,-0.0816192626953125
1667824282991014000,1.899013916015625,-0.838043212890625,-0.2779998779296875,-0.076507568359375
1667824283001022000,1.90902197265625,-0.8573760986328125,-0.269744873046875,-0.0699462890625
1667824283011029800,1.91902978515625,-0.8708648681640625,-0.2760467529296875,-0.06414794921875
1667824283021037800,1.929037841796875,-0.8787689208984375,-0.286224365234375,-0.0679931640625
1667824283031045600,1.939045654296875,-0.8848114013671875,-0.289947509765625,-0.078155517578125
1667824283041053700,1.9490537109375,-0.892425537109375,-0.2918243408203125,-0.086517333984375
1667824283051060700,1.959060791015625,-0.9014129638671875,-0.290496826171875,-0.106597900390625
1667824283061068800,1.96906884765625,-0.9098358154296875,-0.2850494384765625,-0.1183929443359375
1667824283071076900,1.979076904296875,-0.9191131591796875,-0.2818145751953125,-0.11932373046875
1667824283081084700,1.989084716796875,-0.917144775390625,-0.2854156494140625,-0.1207733154296875
1667824283091092700,1.9990927734375,-0.908447265625,-0.289337158203125,-0.121795654296875
1667824283101100800,2.009100830078125,-0.901397705078125,-0.2898406982421875,-0.1200408935546875
1667824283111108900,2.01910888671875,-0.892974853515625,-0.28912353515625,-0.1139068603515625
1667824283121117000,2.029116943359375,-0.882232666015625,-0.2931976318359375,-0.1118927001953125
1667824283131124700,2.039124755859375,-0.8722381591796875,-0.2997894287109375,-0.112060546875
1667824283141131800,2.0491318359375,-0.8670501708984375,-0.3091583251953125,-0.1162872314453125
1667824283151139800,2.059139892578125,-0.87164306640625,-0.3200836181640625,-0.125396728515625
1667824283161148000,2.06914794921875,-0.882080078125,-0.3297271728515625,-0.1337738037109375
1667824283171155700,2.07915576171875,-0.8862152099609375,-0.33465576171875,-0.1496124267578125
1667824283181163800,2.089163818359375,-0.8892364501953125,-0.3343353271484375,-0.1656341552734375
1667824283191171800,2.099171875,-0.8934326171875,-0.333221435546875,-0.1778717041015625
1667824283201179600,2.1091796875,-0.8913116455078125,-0.336456298828125,-0.187530517578125
1667824283211187700,2.119187744140625,-0.8871307373046875,-0.341156005859375,-0.1861572265625
1667824283221195800,2.12919580078125,-0.8864593505859375,-0.3499603271484375,-0.17987060546875
1667824283231203800,2.139203857421875,-0.8917694091796875,-0.3583831787109375,-0.169677734375
1667824283241210600,2.149210693359375,-0.8894500732421875,-0.368438720703125,-0.1537628173828125
1667824283251218700,2.15921875,-0.8839874267578125,-0.380340576171875,-0.1406707763671875
1667824283261227000,2.16922705078125,-0.884368896484375,-0.388519287109375,-0.12744140625
1667824283271234800,2.17923486328125,-0.894439697265625,-0.3869781494140625,-0.1053619384765625
1667824283281243000,2.189242919921875,-0.90350341796875,-0.386505126953125,-0.094390869140625
1667824283291250700,2.199250732421875,-0.90966796875,-0.385955810546875,-0.0951995849609375
1667824283301258800,2.2092587890625,-0.921783447265625,-0.3780670166015625,-0.096282958984375
1667824283311266600,2.2192666015625,-0.930389404296875,-0.366973876953125,-0.096282958984375
1667824283321275000,2.22927490234375,-0.942901611328125,-0.3507843017578125,-0.0921173095703125
1667824283331283000,2.239282958984375,-0.951385498046875,-0.335723876953125,-0.0937652587890625
1667824283341289700,2.249289794921875,-0.947235107421875,-0.3155364990234375,-0.0999603271484375
1667824283351297800,2.2592978515625,-0.944427490234375,-0.2898101806640625,-0.099334716796875
1667824283361305600,2.2693056640625,-0.951385498046875,-0.27252197265625,-0.0895233154296875
1667824283371314000,2.27931396484375,-0.95599365234375,-0.265228271484375,-0.078338623046875
1667824283381321700,2.28932177734375,-0.951324462890625,-0.262420654296875,-0.0775299072265625
1667824283391329800,2.299329833984375,-0.9425048828125,-0.26226806640625,-0.0747833251953125
1667824283401337900,2.309337890625,-0.943328857421875,-0.2648468017578125,-0.0713043212890625
1667824283411345700,2.319345703125,-0.9444580078125,-0.2673187255859375,-0.06982421875
1667824283421353700,2.329353759765625,-0.944793701171875,-0.270843505859375,-0.0699005126953125
1667824283431360800,2.33936083984375,-0.954376220703125,-0.2725830078125,-0.07763671875
1667824283441368800,2.349368896484375,-0.94842529296875,-0.271728515625,-0.085418701171875
1667824283451376600,2.359376708984375,-0.94744873046875,-0.272857666015625,-0.0876007080078125
1667824283461384700,2.369384765625,-0.957916259765625,-0.275177001953125,-0.08404541015625
1667824283471392800,2.379392822265625,-0.95849609375,-0.2847747802734375,-0.0708160400390625
1667824283481400800,2.38940087890625,-0.9713592529296875,-0.2924346923828125,-0.05560302734375
1667824283491409000,2.399408935546875,-0.9853668212890625,-0.2939453125,-0.0411376953125
1667824283501416700,2.409416748046875,-0.989410400390625,-0.2952728271484375,-0.03607177734375
1667824283511424800,2.4194248046875,-1.0029449462890625,-0.2950286865234375,-0.0352783203125
1667824283521432800,2.429432861328125,-1.0185394287109375,-0.2947235107421875,-0.0322723388671875
1667824283531439900,2.43943994140625,-1.030487060546875,-0.290313720703125,-0.027099609375
1667824283541448000,2.449447998046875,-1.045440673828125,-0.2781524658203125,-0.0242919921875
1667824283551455700,2.459455810546875,-1.041107177734375,-0.2593231201171875,-0.0243682861328125
1667824283561463800,2.4694638671875,-1.0222625732421875,-0.23541259765625,-0.03167724609375
1667824283571471600,2.4794716796875,-1.0052337646484375,-0.21044921875,-0.0286712646484375
1667824283581479700,2.489479736328125,-0.9833831787109375,-0.187286376953125,-0.018798828125
1667824283591488000,2.499488037109375,-0.96185302734375,-0.175140380859375,-0.0071563720703125
1667824283601495800,2.509495849609375,-0.943450927734375,-0.1738433837890625,0.0081939697265625
1667824283611503900,2.51950390625,-0.9239501953125,-0.180389404296875,0.0297698974609375
1667824283621512000,2.529511962890625,-0.90289306640625,-0.1968231201171875,0.0493011474609375
1667824283631518700,2.539518798828125,-0.8836212158203125,-0.2172088623046875,0.0563507080078125
1667824283641527000,2.549527099609375,-0.869110107421875,-0.23675537109375,0.0568084716796875
1667824283651534800,2.559534912109375,-0.859771728515625,-0.254791259765625,0.05169677734375
1667824283661543000,2.56954296875,-0.854766845703125,-0.2735443115234375,0.044891357421875
1667824283671551000,2.579551025390625,-0.8459930419921875,-0.2938079833984375,0.038787841796875
1667824283681558800,2.589558837890625,-0.8448486328125,-0.309173583984375,0.0334930419921875
1667824283691566800,2.59956689453125,-0.853759765625,-0.3238677978515625,0.0280303955078125
1667824283701575000,2.609574951171875,-0.8628692626953125,-0.340484619140625,0.0216217041015625
1667824283711583000,2.6195830078125,-0.8734283447265625,-0.3507537841796875,0.01708984375
1667824283721589800,2.62958984375,-0.8843536376953125,-0.3584747314453125,0.0177764892578125
1667824283731597800,2.639597900390625,-0.892242431640625,-0.3660125732421875,0.0115966796875
1667824283741606000,2.64960595703125,-0.8964385986328125,-0.3675079345703125,0.004547119140625
1667824283751614000,2.659614013671875,-0.9029083251953125,-0.366180419921875,0.002655029296875
1667824283761622000,2.6696220703125,-0.9064788818359375,-0.3621368408203125,-0.0004425048828125
1667824283771629800,2.6796298828125,-0.9138946533203125,-0.35076904296875,-0.004150390625
1667824283781638000,2.689637939453125,-0.921234130859375,-0.3425140380859375,-0.0012664794921875
1667824283791646000,2.69964599609375,-0.91583251953125,-0.3475799560546875,0.0020294189453125
1667824283801653800,2.70965380859375,-0.9139404296875,-0.35791015625,0.0040130615234375
1667824283811662000,2.719662109375,-0.9131622314453125,-0.362945556640625,0.0049591064453125
1667824283821668900,2.7296689453125,-0.9097442626953125,-0.3614654541015625,0.003662109375
1667824283831677000,2.739677001953125,-0.9088897705078125,-0.3593292236328125,0.003082275390625
1667824283841684700,2.749684814453125,-0.912567138671875,-0.3570556640625,0.0015869140625
1667824283851692800,2.75969287109375,-0.91802978515625,-0.354644775390625,0.001190185546875
1667824283861701000,2.769701171875,-0.921142578125,-0.3515777587890625,0.0050811767578125
1667824283871709000,2.779708984375,-0.9308624267578125,-0.3508758544921875,0.0098419189453125
1667824283881717000,2.789717041015625,-0.936859130859375,-0.35040283203125,0.0117645263671875
1667824283891724800,2.799724853515625,-0.941070556640625,-0.34161376953125,0.01275634765625
1667824283901732900,2.80973291015625,-0.949127197265625,-0.329498291015625,0.0113677978515625
1667824283911740000,2.819739990234375,-0.949371337890625,-0.3223419189453125,0.01263427734375
1667824283921748000,2.829748046875,-0.9488067626953125,-0.321685791015625,0.014556884765625
1667824283931756000,2.839756103515625,-0.95416259765625,-0.323150634765625,0.0195770263671875
1667824283941763800,2.849763916015625,-0.9647064208984375,-0.318603515625,0.0341949462890625
1667824283951772000,2.85977197265625,-0.9692840576171875,-0.3186187744140625,0.0341339111328125
1667824283961779700,2.86977978515625,-0.9709625244140625,-0.3212738037109375,0.0300445556640625
1667824283971788000,2.8797880859375,-0.97894287109375,-0.321533203125,0.0327911376953125
1667824283981795800,2.8897958984375,-0.9921112060546875,-0.324859619140625,0.0305938720703125
1667824283991804000,2.899803955078125,-1.00921630859375,-0.328643798828125,0.0262451171875
1667824284001812000,2.90981201171875,-1.035064697265625,-0.3263397216796875,0.014373779296875
1667824284011819000,2.919819091796875,-1.0602264404296875,-0.3170318603515625,-0.00421142578125
1667824284021827000,2.9298271484375,-1.0789642333984375,-0.3123779296875,-0.0208282470703125
1667824284031835000,2.9398349609375,-1.0909881591796875,-0.3065643310546875,-0.035430908203125
1667824284041843000,2.949843017578125,-1.1004180908203125,-0.294586181640625,-0.0443115234375
1667824284051850800,2.959850830078125,-1.1115264892578125,-0.276336669921875,-0.04473876953125
1667824284061858800,2.96985888671875,-1.117919921875,-0.266082763671875,-0.0436553955078125
1667824284071867000,2.979866943359375,-1.1196136474609375,-0.2564697265625,-0.044769287109375
1667824284081875000,2.989875,-1.1184234619140625,-0.24200439453125,-0.040985107421875
1667824284091883000,2.999883056640625,-1.1192779541015625,-0.2293243408203125,-0.0342254638671875
1667824284101889800,3.009889892578125,-1.1220703125,-0.2298431396484375,-0.0234375
1667824284111897900,3.01989794921875,-1.1227874755859375,-0.2414398193359375,-0.017608642578125
1667824284121906000,3.029906005859375,-1.12274169921875,-0.2468109130859375,-0.014862060546875
1667824284131914000,3.0399140625,-1.125213623046875,-0.2462005615234375,-0.023345947265625
1667824284141922000,3.049922119140625,-1.13433837890625,-0.2477264404296875,-0.0445556640625
1667824284151929900,3.059929931640625,-1.1306915283203125,-0.250701904296875,-0.0642547607421875
1667824284161938000,3.06993798828125,-1.1216888427734375,-0.25518798828125,-0.0906829833984375
1667824284171945700,3.07994580078125,-1.1234588623046875,-0.2641754150390625,-0.1115264892578125
1667824284181953800,3.089953857421875,-1.1150665283203125,-0.2731475830078125,-0.1234283447265625
1667824284191962000,3.099962158203125,-1.10321044921875,-0.2782440185546875,-0.1347198486328125
1667824284201969000,3.109968994140625,-1.086944580078125,-0.278350830078125,-0.1425933837890625
1667824284211977000,3.11997705078125,-1.0588836669921875,-0.2733001708984375,-0.146453857421875
1667824284221984800,3.12998486328125,-1.025665283203125,-0.27923583984375,-0.14764404296875
1667824284231992800,3.139992919921875,-0.9915008544921875,-0.2905120849609375,-0.1446533203125
1667824284242001000,3.1500009765625,-0.9488677978515625,-0.3032684326171875,-0.131072998046875
1667824284252009000,3.160009033203125,-0.905029296875,-0.3204345703125,-0.1055145263671875
1667824284262017000,3.17001708984375,-0.8665771484375,-0.340179443359375,-0.07965087890625
1667824284272024800,3.18002490234375,-0.8394012451171875,-0.350006103515625,-0.0604400634765625
1667824284282033000,3.190032958984375,-0.816131591796875,-0.3476104736328125,-0.0485687255859375
1667824284292040700,3.200040771484375,-0.7982330322265625,-0.3438720703125,-0.0389556884765625
1667824284302048000,3.210048095703125,-0.7872467041015625,-0.3469696044921875,-0.0334930419921875
1667824284312055800,3.220055908203125,-0.781494140625,-0.3528900146484375,-0.0294952392578125
1667824284322064000,3.23006396484375,-0.78253173828125,-0.3553314208984375,-0.0315399169921875
1667824284332072000,3.240072021484375,-0.785888671875,-0.3527679443359375,-0.043182373046875
1667824284342080000,3.250080078125,-0.787109375,-0.3441009521484375,-0.059844970703125
1667824284352088000,3.260088134765625,-0.7905731201171875,-0.3343658447265625,-0.07427978515625
1667824284362095900,3.270095947265625,-0.79815673828125,-0.3308258056640625,-0.0816802978515625
1667824284372104000,3.28010400390625,-0.809417724609375,-0.3299102783203125,-0.0814666748046875
1667824284382111700,3.29011181640625,-0.82196044921875,-0.3271484375,-0.0748291015625
1667824284392119000,3.300119140625,-0.8270416259765625,-0.3221435546875,-0.07470703125
1667824284402126800,3.310126953125,-0.8344879150390625,-0.3116302490234375,-0.0743255615234375
1667824284412135000,3.320135009765625,-0.8470916748046875,-0.301727294921875,-0.0593109130859375
1667824284422143000,3.33014306640625,-0.8562774658203125,-0.2989044189453125,-0.04638671875
1667824284432150800,3.34015087890625,-0.85223388671875,-0.2999114990234375,-0.035919189453125
1667824284442158800,3.350158935546875,-0.8486480712890625,-0.3007354736328125,-0.0260772705078125
1667824284452167000,3.3601669921875,-0.850860595703125,-0.3001251220703125,-0.01800537109375
1667824284462175000,3.370175048828125,-0.8548431396484375,-0.298919677734375,-0.01171875
1667824284472183000,3.38018310546875,-0.8646392822265625,-0.3005828857421875,-0.006195068359375
1667824284482190800,3.39019091796875,-0.860809326171875,-0.30841064453125,-0.0086669921875
1667824284492198000,3.400197998046875,-0.86181640625,-0.3143768310546875,-0.0133209228515625
1667824284502206000,3.4102060546875,-0.8788909912109375,-0.3153228759765625,-0.027618408203125
1667824284512214000,3.420214111328125,-0.896331787109375,-0.3150787353515625,-0.047271728515625
1667824284522221800,3.430221923828125,-0.91741943359375,-0.3153076171875,-0.07037353515625
1667824284532230000,3.44022998046875,-0.9476470947265625,-0.3144989013671875,-0.0894012451171875
1667824284542238000,3.450238037109375,-0.971343994140625,-0.3175506591796875,-0.1035919189453125
1667824284552245800,3.460245849609375,-0.9903106689453125,-0.324981689453125,-0.117401123046875
1667824284562254000,3.470254150390625,-1.0048065185546875,-0.329864501953125,-0.12939453125
1667824284572262000,3.480261962890625,-1.0179443359375,-0.3258056640625,-0.141693115234375
1667824284582269000,3.49026904296875,-1.034088134765625,-0.3167572021484375,-0.15069580078125
1667824284592276700,3.50027685546875,-1.037933349609375,-0.308563232421875,-0.165008544921875
1667824284602284800,3.510284912109375,-1.0253143310546875,-0.29833984375,-0.1825714111328125
1667824284612293000,3.520293212890625,-1.0116729736328125,-0.2886505126953125,-0.1879425048828125
1667824284622301200,3.53030126953125,-0.992462158203125,-0.286041259765625,-0.1852569580078125
1667824284632309000,3.54030908203125,-0.9653167724609375,-0.2904052734375,-0.17578125
1667824284642317000,3.550317138671875,-0.949737548828125,-0.297821044921875,-0.1610260009765625
1667824284652324900,3.560324951171875,-0.9334716796875,-0.3116302490234375,-0.1428070068359375
1667824284662333000,3.5703330078125,-0.9161834716796875,-0.330108642578125,-0.126617431640625
1667824284672340000,3.580340087890625,-0.906402587890625,-0.344085693359375,-0.112823486328125
1667824284682348000,3.59034814453125,-0.9027557373046875,-0.3580322265625,-0.09625244140625
1667824284692355800,3.60035595703125,-0.903778076171875,-0.3648529052734375,-0.0897064208984375
1667824284702364000,3.610364013671875,-0.907012939453125,-0.3560791015625,-0.093353271484375
1667824284712372000,3.6203720703125,-0.909088134765625,-0.3383941650390625,-0.102386474609375
1667824284722380000,3.630380126953125,-0.910430908203125,-0.3169708251953125,-0.113494873046875
1667824284732388000,3.64038818359375,-0.9076080322265625,-0.292816162109375,-0.1262054443359375
1667824284742396000,3.65039599609375,-0.9022674560546875,-0.2701568603515625,-0.131317138671875
1667824284752404000,3.660404052734375,-0.8954010009765625,-0.255767822265625,-0.1282806396484375
1667824284762412000,3.670412109375,-0.8846588134765625,-0.2543792724609375,-0.1074066162109375
1667824284772419000,3.680419189453125,-0.8778839111328125,-0.2581939697265625,-0.0826263427734375
1667824284782427100,3.69042724609375,-0.870361328125,-0.251983642578125,-0.0698699951171875
1667824284792435000,3.70043505859375,-0.8539886474609375,-0.24554443359375,-0.062286376953125
1667824284802443000,3.710443115234375,-0.8379058837890625,-0.2545166015625,-0.054351806640625
1667824284812450800,3.720450927734375,-0.840606689453125,-0.2743682861328125,-0.0351104736328125
1667824284822459000,3.730458984375,-0.8451385498046875,-0.2991180419921875,-0.015350341796875
1667824284832467200,3.74046728515625,-0.848876953125,-0.319549560546875,-0.01165771484375
1667824284842475000,3.75047509765625,-0.8650360107421875,-0.325042724609375,-0.0181121826171875
1667824284852483000,3.760483154296875,-0.88983154296875,-0.3238983154296875,-0.027984619140625
1667824284862489900,3.77048974609375,-0.9230804443359375,-0.3282470703125,-0.0377960205078125
1667824284872498000,3.780497802734375,-0.964019775390625,-0.33935546875,-0.0417633056640625
1667824284882506000,3.790506103515625,-1.0039215087890625,-0.3481292724609375,-0.0437469482421875
1667824284892514000,3.80051416015625,-1.040283203125,-0.3520050048828125,-0.0484619140625
1667824284902522000,3.810522216796875,-1.0588226318359375,-0.345916748046875,-0.063323974609375
1667824284912530000,3.820530029296875,-1.0610504150390625,-0.3282012939453125,-0.073516845703125
1667824284922538000,3.8305380859375,-1.0526275634765625,-0.3133087158203125,-0.074249267578125
1667824284932545800,3.8405458984375,-1.045928955078125,-0.30029296875,-0.0664825439453125
1667824284942554000,3.85055419921875,-1.0396728515625,-0.2835845947265625,-0.047393798828125
1667824284952561000,3.860560791015625,-1.0305023193359375,-0.2730865478515625,-0.0254669189453125
1667824284962569000,3.87056884765625,-1.0119171142578125,-0.2715911865234375,-0.0043182373046875
1667824284972577000,3.880576904296875,-0.9950103759765625,-0.2773590087890625,0.011016845703125
1667824284982584800,3.890584716796875,-0.9822540283203125,-0.2821807861328125,0.0260162353515625
1667824284992593200,3.90059326171875,-0.968994140625,-0.2852783203125,0.040679931640625
1667824285002601000,3.91060107421875,-0.9619903564453125,-0.28765869140625,0.0452728271484375
1667824285012609000,3.920609130859375,-0.95220947265625,-0.288055419921875,0.0443115234375
1667824285022617000,3.9306171875,-0.946624755859375,-0.291717529296875,0.0390777587890625
1667824285032625000,3.940625,-0.9512939453125,-0.3009796142578125,0.0357513427734375
1667824285042633000,3.950633056640625,-0.9546051025390625,-0.310577392578125,0.0327606201171875
1667824285052640000,3.960639892578125,-0.9595947265625,-0.3178253173828125,0.0255279541015625
1667824285062648000,3.97064794921875,-0.9703369140625,-0.3202056884765625,0.01483154296875
1667824285072656000,3.98065576171875,-0.98175048828125,-0.3176727294921875,0.00579833984375
1667824285082664000,3.990663818359375,-0.997222900390625,-0.3191986083984375,-0.00079345703125
1667824285092671700,4.000671630859375,-1.01348876953125,-0.3244476318359375,-0.0032958984375
1667824285102680000,4.01068017578125,-1.031005859375,-0.3238067626953125,-0.0110015869140625
1667824285112688000,4.020688232421875,-1.0415802001953125,-0.3150634765625,-0.0255126953125
1667824285122696000,4.030696044921875,-1.0410003662109375,-0.306793212890625,-0.0438690185546875
1667824285132704000,4.0407041015625,-1.0392303466796875,-0.301116943359375,-0.05438232421875
1667824285142711000,4.0507109375,-1.0223236083984375,-0.2985992431640625,-0.0609130859375
1667824285152719000,4.060718994140625,-1.0030670166015625,-0.3001251220703125,-0.070770263671875
1667824285162727000,4.070726806640625,-0.982421875,-0.30047607421875,-0.084747314453125
1667824285172735000,4.08073486328125,-0.9673919677734375,-0.3024444580078125,-0.092376708984375
1667824285182743000,4.090742919921875,-0.954254150390625,-0.3133087158203125,-0.0941314697265625
1667824285192750800,4.100750732421875,-0.930816650390625,-0.332611083984375,-0.0932464599609375
1667824285202759000,4.110759033203125,-0.905059814453125,-0.3500213623046875,-0.09136962890625
1667824285212767000,4.12076708984375,-0.88458251953125,-0.35540771484375,-0.086639404296875
1667824285222775000,4.130775146484375,-0.8664398193359375,-0.358001708984375,-0.0826873779296875
1667824285232783000,4.140783203125,-0.8406524658203125,-0.362213134765625,-0.0790252685546875
1667824285242790000,4.150789794921875,-0.814605712890625,-0.3642578125,-0.070770263671875
1667824285252798200,4.160798095703125,-0.8042755126953125,-0.3667449951171875,-0.0525360107421875
1667824285262806000,4.170805908203125,-0.798583984375,-0.3717193603515625,-0.0353240966796875
1667824285272814000,4.18081396484375,-0.794097900390625,-0.38018798828125,-0.0244598388671875
1667824285282822000,4.19082177734375,-0.7872772216796875,-0.3920440673828125,-0.0115203857421875
1667824285292830000,4.200829833984375,-0.7774505615234375,-0.4027557373046875,0.0051727294921875
1667824285302838000,4.210838134765625,-0.7664031982421875,-0.4145355224609375,0.0238189697265625
1667824285312845800,4.220845703125,-0.7669677734375,-0.425262451171875,0.0349273681640625
1667824285322854100,4.230854248046875,-0.7677764892578125,-0.43084716796875,0.04425048828125
1667824285332861000,4.24086083984375,-0.764892578125,-0.4378662109375,0.0568695068359375
1667824285342869000,4.250868896484375,-0.7784576416015625,-0.4494476318359375,0.07196044921875
1667824285352876800,4.260876708984375,-0.790618896484375,-0.4625396728515625,0.0928955078125
1667824285362885000,4.270885009765625,-0.7908935546875,-0.47576904296875,0.1075286865234375
1667824285372893200,4.28089306640625,-0.800994873046875,-0.47735595703125,0.1144256591796875
1667824285382901000,4.29090087890625,-0.813507080078125,-0.475555419921875,0.1251678466796875
1667824285392909000,4.300908935546875,-0.8245849609375,-0.4792633056640625,0.14593505859375
1667824285402916900,4.310916748046875,-0.8311767578125,-0.4848175048828125,0.1713104248046875
1667824285412925000,4.320925048828125,-0.843170166015625,-0.4839324951171875,0.192169189453125
1667824285422932000,4.330931884765625,-0.85809326171875,-0.473663330078125,0.202117919921875
1667824285432940000,4.34093994140625,-0.848968505859375,-0.47125244140625,0.2042083740234375
1667824285442948000,4.350947998046875,-0.8321685791015625,-0.47265625,0.2021484375
1667824285452956000,4.360955810546875,-0.8266143798828125,-0.4849853515625,0.2187957763671875
1667824285462964000,4.3709638671875,-0.83612060546875,-0.5018310546875,0.2388153076171875
1667824285472972000,4.380971923828125,-0.85296630859375,-0.512939453125,0.2440643310546875
1667824285482980000,4.39097998046875,-0.872802734375,-0.51007080078125,0.251068115234375
1667824285492988000,4.40098779296875,-0.902008056640625,-0.52178955078125,0.2471923828125
1667824285502996000,4.410995849609375,-0.95208740234375,-0.5155181884765625,0.2128753662109375
1667824285513002800,4.421002685546875,-1.001861572265625,-0.48736572265625,0.1611328125
1667824285523011000,4.431010986328125,-1.0476531982421875,-0.45599365234375,0.0980072021484375
1667824285533019100,4.44101904296875,-1.084228515625,-0.441253662109375,0.039276123046875
1667824285543027000,4.45102685546875,-1.110565185546875,-0.4441070556640625,-0.0059356689453125
1667824285553035000,4.461034912109375,-1.13836669921875,-0.4502716064453125,-0.04412841796875
1667824285563042800,4.471042724609375,-1.1513671875,-0.4545135498046875,-0.0902099609375
1667824285573051000,4.48105078125,-1.1605377197265625,-0.46466064453125,-0.128326416015625
1667824285583059200,4.49105908203125,-1.1755828857421875,-0.4701080322265625,-0.1669921875
1667824285593067000,4.50106689453125,-1.1745147705078125,-0.4687347412109375,-0.1992034912109375
1667824285603074000,4.511073974609375,-1.1656341552734375,-0.472137451171875,-0.2286834716796875
1667824285613081900,4.521081787109375,-1.1573028564453125,-0.4787445068359375,-0.2565460205078125
1667824285623089700,4.531089599609375,-1.1384124755859375,-0.47821044921875,-0.2715911865234375
1667824285633098000,4.541097900390625,-1.11309814453125,-0.470947265625,-0.282745361328125
1667824285643105800,4.551105712890625,-1.0794219970703125,-0.4636993408203125,-0.2821197509765625
1667824285653113900,4.56111376953125,-1.0367889404296875,-0.461944580078125,-0.2669219970703125
1667824285663122000,4.571121826171875,-1.006134033203125,-0.4647369384765625,-0.249176025390625
1667824285673129700,4.581129638671875,-0.959869384765625,-0.45037841796875,-0.227752685546875
1667824285683137800,4.5911376953125,-0.90374755859375,-0.4202423095703125,-0.2115325927734375
1667824285693144800,4.601144775390625,-0.860076904296875,-0.3976898193359375,-0.1946258544921875
1667824285703153000,4.61115283203125,-0.818145751953125,-0.3915863037109375,-0.1763916015625
1667824285713160700,4.62116064453125,-0.775787353515625,-0.401031494140625,-0.159759521484375
1667824285723168800,4.631168701171875,-0.7414398193359375,-0.41845703125,-0.1439666748046875
1667824285733176800,4.6411767578125,-0.71527099609375,-0.4317779541015625,-0.125518798828125
1667824285743185000,4.651184814453125,-0.700408935546875,-0.43975830078125,-0.1129913330078125
1667824285753193000,4.66119287109375,-0.6999664306640625,-0.4532318115234375,-0.1027679443359375
1667824285763200800,4.67120068359375,-0.6993865966796875,-0.4642486572265625,-0.1027679443359375
1667824285773208800,4.681208740234375,-0.691314697265625,-0.4657135009765625,-0.1113128662109375
1667824285783215900,4.6912158203125,-0.6886444091796875,-0.4646759033203125,-0.1220245361328125
1667824285793224000,4.701223876953125,-0.6932830810546875,-0.4561767578125,-0.1302337646484375
1667824285803232000,4.71123193359375,-0.712432861328125,-0.4506988525390625,-0.1444244384765625
1667824285813239800,4.72123974609375,-0.728118896484375,-0.4506378173828125,-0.1514739990234375
1667824285823248000,4.731247802734375,-0.7328643798828125,-0.4532928466796875,-0.1397247314453125
1667824285833255700,4.741255615234375,-0.749237060546875,-0.46246337890625,-0.1306915283203125
1667824285843263700,4.751263671875,-0.766693115234375,-0.46832275390625,-0.12457275390625
1667824285853272000,4.76127197265625,-0.76837158203125,-0.4661712646484375,-0.1219482421875
1667824285863279900,4.77127978515625,-0.769195556640625,-0.46551513671875,-0.1242218017578125
1667824285873287000,4.781286865234375,-0.772705078125,-0.4676055908203125,-0.12164306640625
1667824285883294700,4.791294677734375,-0.778533935546875,-0.4701385498046875,-0.1111297607421875
1667824285893303000,4.801302978515625,-0.7813568115234375,-0.4702911376953125,-0.1063995361328125
1667824285903310800,4.811310791015625,-0.7848968505859375,-0.4599151611328125,-0.1057891845703125
1667824285913319000,4.82131884765625,-0.791259765625,-0.44891357421875,-0.1043243408203125
1667824285923327000,4.831326904296875,-0.7889251708984375,-0.446136474609375,-0.1114959716796875
1667824285933334800,4.841334716796875,-0.793060302734375,-0.443939208984375,-0.1173248291015625
1667824285943342800,4.8513427734375,-0.816253662109375,-0.446929931640625,-0.1213226318359375
1667824285953350700,4.8613505859375,-0.8392333984375,-0.4548492431640625,-0.1297454833984375
1667824285963358000,4.87135791015625,-0.848663330078125,-0.4600067138671875,-0.15081787109375
1667824285973365800,4.88136572265625,-0.8606109619140625,-0.459747314453125,-0.1739959716796875
1667824285983373800,4.891373779296875,-0.87701416015625,-0.462646484375,-0.1878662109375
1667824285993382000,4.9013818359375,-0.8889923095703125,-0.4729156494140625,-0.1947479248046875
1667824286003390000,4.911389892578125,-0.8899993896484375,-0.483551025390625,-0.2020721435546875
1667824286013398000,4.92139794921875,-0.8836822509765625,-0.4889068603515625,-0.2151947021484375
1667824286023405800,4.93140576171875,-0.8838348388671875,-0.4854583740234375,-0.2229156494140625
1667824286033414000,4.941413818359375,-0.8826751708984375,-0.4828948974609375,-0.219024658203125
1667824286043421700,4.951421630859375,-0.8774566650390625,-0.4942779541015625,-0.203704833984375
1667824286053429000,4.961428955078125,-0.8702392578125,-0.51348876953125,-0.1842193603515625
1667824286063436800,4.971436767578125,-0.8683929443359375,-0.523773193359375,-0.168975830078125
1667824286073444900,4.98144482421875,-0.86724853515625,-0.5236968994140625,-0.160614013671875
1667824286083453000,4.991452880859375,-0.8701324462890625,-0.5214080810546875,-0.1540679931640625
1667824286093460700,5.001460693359375,-0.876617431640625,-0.5202484130859375,-0.149139404296875
1667824286103468800,5.01146875,-0.8858642578125,-0.5143890380859375,-0.1484527587890625
1667824286113476900,5.021476806640625,-0.897003173828125,-0.5016326904296875,-0.153533935546875
1667824286123485000,5.03148486328125,-0.905181884765625,-0.4849395751953125,-0.1536102294921875
1667824286133493000,5.041492919921875,-0.908782958984375,-0.471923828125,-0.152191162109375
1667824286143500800,5.051500732421875,-0.9064483642578125,-0.4530487060546875,-0.1514129638671875
1667824286153507800,5.0615078125,-0.8980712890625,-0.423248291015625,-0.1508636474609375
1667824286163516000,5.071515869140625,-0.8870086669921875,-0.391845703125,-0.142486572265625
1667824286173524000,5.08152392578125,-0.88397216796875,-0.3722076416015625,-0.1192626953125
1667824286183531800,5.09153173828125,-0.87249755859375,-0.371612548828125,-0.0907440185546875
1667824286193539800,5.101539794921875,-0.85479736328125,-0.3748779296875,-0.0742340087890625
1667824286203548000,5.1115478515625,-0.8481597900390625,-0.3739013671875,-0.058013916015625
1667824286213555700,5.1215556640625,-0.8498992919921875,-0.375396728515625,-0.03839111328125
1667824286223564000,5.13156396484375,-0.8484649658203125,-0.38140869140625,-0.026611328125
1667824286233570800,5.14157080078125,-0.8511505126953125,-0.3850860595703125,-0.0217742919921875
1667824286243579000,5.151578857421875,-0.85223388671875,-0.3880615234375,-0.0187835693359375
1667824286253586700,5.161586669921875,-0.8577423095703125,-0.39666748046875,-0.0188140869140625
1667824286263594800,5.1715947265625,-0.868927001953125,-0.4081878662109375,-0.0212860107421875
1667824286273603000,5.18160302734375,-0.87677001953125,-0.4196624755859375,-0.0228271484375
1667824286283611000,5.19161083984375,-0.8931121826171875,-0.4266357421875,-0.03033447265625
1667824286293619000,5.201618896484375,-0.91778564453125,-0.4211273193359375,-0.044677734375
1667824286303626800,5.211626708984375,-0.9532012939453125,-0.4115142822265625,-0.0606536865234375
1667824286313634800,5.221634765625,-0.990020751953125,-0.4039154052734375,-0.072265625
1667824286323641900,5.231641845703125,-1.0130157470703125,-0.4003753662109375,-0.0810089111328125
1667824286333650000,5.24164990234375,-1.0268096923828125,-0.390960693359375,-0.0852813720703125
1667824286343658000,5.251657958984375,-1.0353851318359375,-0.3709869384765625,-0.0872344970703125
1667824286353665800,5.261665771484375,-1.0281524658203125,-0.348297119140625,-0.0872344970703125
1667824286363673900,5.271673828125,-1.0065460205078125,-0.328582763671875,-0.086395263671875
1667824286373681700,5.281681640625,-0.980682373046875,-0.312652587890625,-0.082672119140625
1667824286383690000,5.29168994140625,-0.9470672607421875,-0.3001251220703125,-0.0761566162109375
1667824286393698000,5.301697998046875,-0.9187164306640625,-0.2981719970703125,-0.07568359375
1667824286403705900,5.311705810546875,-0.895172119140625,-0.30621337890625,-0.056549072265625
1667824286413712600,5.321712646484375,-0.872314453125,-0.3277740478515625,-0.0310821533203125
1667824286423721000,5.331720947265625,-0.8585662841796875,-0.3490753173828125,-0.0124969482421875
1667824286433729000,5.34172900390625,-0.8554840087890625,-0.36700439453125,0.0071868896484375
1667824286443736800,5.35173681640625,-0.847412109375,-0.385345458984375,0.0165252685546875
1667824286453745000,5.361744873046875,-0.83856201171875,-0.3988494873046875,0.0145263671875
1667824286463752700,5.371752685546875,-0.8410186767578125,-0.4065399169921875,0.0038604736328125
1667824286473760800,5.3817607421875,-0.8557586669921875,-0.408843994140625,-0.0056304931640625
1667824286483768800,5.391768798828125,-0.8628082275390625,-0.4135894775390625,-0.01397705078125
1667824286493777000,5.40177685546875,-0.864288330078125,-0.4200897216796875,-0.0277557373046875
1667824286503784000,5.411783935546875,-0.8743743896484375,-0.4225006103515625,-0.036041259765625
1667824286513791700,5.421791748046875,-0.8852081298828125,-0.4245147705078125,-0.040740966796875
1667824286523799800,5.4317998046875,-0.895751953125,-0.425537109375,-0.0461273193359375
1667824286533807900,5.441807861328125,-0.905242919921875,-0.4207916259765625,-0.0494384765625
1667824286543816000,5.45181591796875,-0.9105377197265625,-0.411834716796875,-0.056854248046875
1667824286553824000,5.461823974609375,-0.918792724609375,-0.4004364013671875,-0.062652587890625
1667824286563831800,5.471831787109375,-0.9281768798828125,-0.3894195556640625,-0.0698699951171875
1667824286573840000,5.48183984375,-0.9344940185546875,-0.380218505859375,-0.075714111328125
1667824286583847700,5.49184765625,-0.93634033203125,-0.369842529296875,-0.083160400390625
1667824286593855000,5.50185498046875,-0.9350738525390625,-0.3621826171875,-0.089385986328125
1667824286603862800,5.51186279296875,-0.93377685546875,-0.3597869873046875,-0.093109130859375
1667824286613870800,5.521870849609375,-0.91839599609375,-0.36358642578125,-0.0969696044921875
1667824286623878400,5.53187841796875,-0.903106689453125,-0.3649444580078125,-0.0980377197265625
1667824286633886500,5.541886474609375,-0.8865509033203125,-0.367462158203125,-0.0922088623046875
1667824286643894500,5.55189453125,-0.8676605224609375,-0.3725433349609375,-0.08258056640625
1667824286653902600,5.561902587890625,-0.848907470703125,-0.37774658203125,-0.0789642333984375
1667824286663910700,5.57191064453125,-0.8333282470703125,-0.3818206787109375,-0.07366943359375
1667824286673917400,5.58191748046875,-0.820556640625,-0.3863677978515625,-0.0649261474609375
1667824286683925500,5.591925537109375,-0.8153228759765625,-0.393218994140625,-0.0479278564453125
1667824286693933600,5.60193359375,-0.8109130859375,-0.406524658203125,-0.03253173828125
1667824286703941600,5.611941650390625,-0.80645751953125,-0.4145965576171875,-0.0213165283203125
1667824286713949400,5.621949462890625,-0.809112548828125,-0.41485595703125,-0.012176513671875
1667824286723957500,5.63195751953125,-0.8155670166015625,-0.41046142578125,-0.0039825439453125
1667824286733965600,5.641965576171875,-0.82147216796875,-0.4091796875,0.001953125
1667824286743973400,5.651973388671875,-0.8329010009765625,-0.4096832275390625,0.0122833251953125
1667824286753981700,5.661981689453125,-0.8442840576171875,-0.41339111328125,0.0268096923828125
1667824286763988500,5.671988525390625,-0.8580169677734375,-0.419647216796875,0.0400543212890625
1667824286773996500,5.68199658203125,-0.8688201904296875,-0.4286956787109375,0.044525146484375
1667824286784004400,5.69200439453125,-0.8869476318359375,-0.4322052001953125,0.0429229736328125
1667824286794012700,5.7020126953125,-0.9054412841796875,-0.4309844970703125,0.03814697265625
1667824286804020700,5.712020751953125,-0.9267120361328125,-0.4315338134765625,0.030029296875
1667824286814028500,5.722028564453125,-0.9501495361328125,-0.431732177734375,0.01495361328125
1667824286824036600,5.73203662109375,-0.9732513427734375,-0.4325103759765625,0.0071258544921875
1667824286834044400,5.74204443359375,-1.0066070556640625,-0.43792724609375,0.004364013671875
1667824286844052500,5.752052490234375,-1.0359649658203125,-0.439239501953125,-0.0042572021484375
1667824286854059500,5.7620595703125,-1.0622711181640625,-0.4296875,-0.0126190185546875
1667824286864067600,5.772067626953125,-1.0905303955078125,-0.4216461181640625,-0.0157928466796875
1667824286874075400,5.782075439453125,-1.1128997802734375,-0.41802978515625,-0.0210723876953125
1667824286884083500,5.79208349609375,-1.1309661865234375,-0.4102630615234375,-0.027191162109375
1667824286894091500,5.802091552734375,-1.149688720703125,-0.3979949951171875,-0.0400238037109375
1667824286904099600,5.812099609375,-1.1689300537109375,-0.3814239501953125,-0.0559539794921875
1667824286914107600,5.822107666015625,-1.1871490478515625,-0.365692138671875,-0.0715484619140625
1667824286924115500,5.832115478515625,-1.194793701171875,-0.352142333984375,-0.0860137939453125
1667824286934122500,5.84212255859375,-1.19525146484375,-0.3397674560546875,-0.107147216796875
1667824286944130300,5.85213037109375,-1.1850433349609375,-0.328948974609375,-0.1294403076171875
1667824286954138600,5.862138671875,-1.1678619384765625,-0.325286865234375,-0.1444244384765625
1667824286964146700,5.872146728515625,-1.14117431640625,-0.326690673828125,-0.1520843505859375
1667824286974154500,5.882154541015625,-1.1057281494140625,-0.329010009765625,-0.1614227294921875
1667824286984162600,5.89216259765625,-1.066986083984375,-0.3280029296875,-0.169677734375
1667824286994170400,5.90217041015625,-1.03466796875,-0.3313751220703125,-0.1757049560546875
1667824287004178400,5.912178466796875,-1.0026702880859375,-0.3452606201171875,-0.176361083984375
1667824287014186500,5.9221865234375,-0.9724578857421875,-0.36602783203125,-0.17718505859375
1667824287024193500,5.932193603515625,-0.9409637451171875,-0.3847503662109375,-0.1840667724609375
1667824287034201600,5.94220166015625,-0.914093017578125,-0.397491455078125,-0.1871185302734375
1667824287044209400,5.95220947265625,-0.887664794921875,-0.407867431640625,-0.188995361328125
1667824287054217500,5.962217529296875,-0.8626861572265625,-0.4149932861328125,-0.1925811767578125
1667824287064225500,5.9722255859375,-0.8447723388671875,-0.41864013671875,-0.1952362060546875
1667824287074233600,5.982233642578125,-0.8336181640625,-0.4211883544921875,-0.1982421875
1667824287084241700,5.99224169921875,-0.8186492919921875,-0.4174957275390625,-0.2089691162109375
1667824287094249500,6.00224951171875,-0.7979583740234375,-0.4031982421875,-0.2202606201171875
1667824287104257500,6.012257568359375,-0.7822418212890625,-0.3846893310546875,-0.229583740234375
1667824287114264600,6.0222646484375,-0.7711181640625,-0.36907958984375,-0.234039306640625
1667824287124272600,6.032272705078125,-0.7580108642578125,-0.3609619140625,-0.227447509765625
1667824287134280400,6.042280517578125,-0.74822998046875,-0.3618621826171875,-0.220306396484375
1667824287144288500,6.05228857421875,-0.7424468994140625,-0.3638916015625,-0.2118988037109375
1667824287154296600,6.062296630859375,-0.73944091796875,-0.3641204833984375,-0.2030029296875
1667824287164304400,6.072304443359375,-0.7456512451171875,-0.3644561767578125,-0.198883056640625
1667824287174312700,6.082312744140625,-0.754669189453125,-0.36822509765625,-0.1944580078125
1667824287184320500,6.092320556640625,-0.758636474609375,-0.3715972900390625,-0.1983642578125
1667824287194327600,6.10232763671875,-0.7607269287109375,-0.367767333984375,-0.20574951171875
1667824287204335400,6.11233544921875,-0.7667083740234375,-0.363616943359375,-0.21173095703125
1667824287214343400,6.122343505859375,-0.777069091796875,-0.3667144775390625,-0.2142486572265625
1667824287224351700,6.132351806640625,-0.7858428955078125,-0.37158203125,-0.21466064453125
1667824287234359600,6.142359619140625,-0.793365478515625,-0.3755340576171875,-0.2180328369140625
1667824287244367600,6.15236767578125,-0.7974700927734375,-0.3773193359375,-0.2243804931640625
1667824287254375400,6.16237548828125,-0.798675537109375,-0.37884521484375,-0.228118896484375
1667824287264383500,6.172383544921875,-0.7934417724609375,-0.383087158203125,-0.231353759765625
1667824287274391300,6.182391357421875,-0.7846527099609375,-0.386505126953125,-0.2353668212890625
1667824287284398600,6.192398681640625,-0.7809600830078125,-0.3881683349609375,-0.236846923828125
1667824287294406400,6.202406494140625,-0.7853851318359375,-0.3885345458984375,-0.2365264892578125
1667824287304414500,6.21241455078125,-0.7874908447265625,-0.39385986328125,-0.2300262451171875
1667824287314422500,6.222422607421875,-0.7852325439453125,-0.405792236328125,-0.2250518798828125
1667824287324430600,6.2324306640625,-0.7970428466796875,-0.4157257080078125,-0.2160491943359375
1667824287334438700,6.242438720703125,-0.813690185546875,-0.422882080078125,-0.2088623046875
1667824287344446500,6.252446533203125,-0.8299102783203125,-0.4264678955078125,-0.206939697265625
1667824287354454500,6.26245458984375,-0.849273681640625,-0.4189910888671875,-0.209625244140625
1667824287364461300,6.27246142578125,-0.864105224609375,-0.4053802490234375,-0.2151031494140625
1667824287374469600,6.2824697265625,-0.873077392578125,-0.393280029296875,-0.218048095703125
1667824287384477700,6.292477783203125,-0.88323974609375,-0.3874969482421875,-0.2129974365234375
1667824287394485500,6.302485595703125,-0.8910369873046875,-0.395050048828125,-0.2015228271484375
1667824287404493600,6.31249365234375,-0.8954010009765625,-0.4092559814453125,-0.1925048828125
1667824287414501400,6.32250146484375,-0.8994140625,-0.41680908203125,-0.186431884765625
1667824287424509400,6.332509521484375,-0.9033660888671875,-0.4234466552734375,-0.1791534423828125
1667824287434517500,6.342517578125,-0.9028167724609375,-0.4340972900390625,-0.17218017578125
1667824287444525600,6.352525634765625,-0.902618408203125,-0.443695068359375,-0.169189453125
1667824287454532600,6.36253271484375,-0.9106597900390625,-0.445526123046875,-0.1591644287109375
1667824287464540400,6.37254052734375,-0.916839599609375,-0.4470977783203125,-0.149017333984375
1667824287474548500,6.382548583984375,-0.924224853515625,-0.44580078125,-0.142333984375
1667824287484556500,6.392556640625,-0.9412078857421875,-0.4373016357421875,-0.139404296875
1667824287494564600,6.402564697265625,-0.95892333984375,-0.4263916015625,-0.1360321044921875
1667824287504572700,6.41257275390625,-0.972412109375,-0.420379638671875,-0.1386260986328125
1667824287514580500,6.42258056640625,-0.989990234375,-0.413330078125,-0.1486663818359375
1667824287524588500,6.432588623046875,-1.008819580078125,-0.4008941650390625,-0.16241455078125
1667824287534595600,6.442595703125,-1.016510009765625,-0.38934326171875,-0.175048828125
1667824287544603600,6.452603759765625,-1.01708984375,-0.378814697265625,-0.1888275146484375
1667824287554611500,6.462611572265625,-1.007965087890625,-0.3676605224609375,-0.1933746337890625
1667824287564619500,6.47261962890625,-0.9878692626953125,-0.356964111328125,-0.1970367431640625
1667824287574627600,6.482627685546875,-0.9651947021484375,-0.3433990478515625,-0.19195556640625
1667824287584635400,6.492635498046875,-0.9484405517578125,-0.3325042724609375,-0.178924560546875
1667824287594643700,6.502643798828125,-0.9346466064453125,-0.3271331787109375,-0.155792236328125
1667824287604651500,6.512651611328125,-0.9185943603515625,-0.335479736328125,-0.1253509521484375
1667824287614659600,6.52265966796875,-0.9044952392578125,-0.353851318359375,-0.097991943359375
1667824287624667000,6.5326669921875,-0.8979644775390625,-0.3722076416015625,-0.0633087158203125
1667824287634675000,6.542675048828125,-0.894989013671875,-0.391693115234375,-0.0360107421875
1667824287644683000,6.55268310546875,-0.8974761962890625,-0.411956787109375,-0.0200958251953125
1667824287654691000,6.562691162109375,-0.907440185546875,-0.433074951171875,-0.0041656494140625
1667824287664699100,6.57269921875,-0.9271240234375,-0.4524383544921875,0.009002685546875
1667824287674707000,6.58270703125,-0.960418701171875,-0.4635162353515625,0.0052032470703125
1667824287684715000,6.592715087890625,-1.0127716064453125,-0.4553070068359375,-0.0086822509765625
1667824287694723000,6.60272314453125,-1.06219482421875,-0.4399566650390625,-0.029937744140625
1667824287704730000,6.612730224609375,-1.0933685302734375,-0.4286041259765625,-0.0613555908203125
1667824287714738200,6.62273828125,-1.1113128662109375,-0.408203125,-0.09063720703125
1667824287724746000,6.63274609375,-1.1131134033203125,-0.3707733154296875,-0.1127166748046875
1667824287734754000,6.642754150390625,-1.1040496826171875,-0.328033447265625,-0.1330108642578125
1667824287744761900,6.652761962890625,-1.0800933837890625,-0.2929534912109375,-0.1423187255859375
1667824287754770000,6.66277001953125,-1.056976318359375,-0.268218994140625,-0.1322174072265625
1667824287764778200,6.6727783203125,-1.0279083251953125,-0.2528533935546875,-0.1123809814453125
1667824287774786000,6.6827861328125,-1.000579833984375,-0.2545928955078125,-0.095672607421875
1667824287784794000,6.692794189453125,-0.971160888671875,-0.2672271728515625,-0.0749359130859375
1667824287794801000,6.70280078125,-0.9436798095703125,-0.283935546875,-0.0484466552734375
1667824287804809200,6.712809326171875,-0.9185028076171875,-0.3051605224609375,-0.0205078125
1667824287814817000,6.722817138671875,-0.8879852294921875,-0.32452392578125,-0.0031890869140625
1667824287824825000,6.7328251953125,-0.8648834228515625,-0.332366943359375,0.0028076171875
1667824287834833000,6.7428330078125,-0.8521270751953125,-0.3358612060546875,0.00238037109375
1667824287844841000,6.752841064453125,-0.8434600830078125,-0.3413238525390625,0.0013580322265625
1667824287854849000,6.76284912109375,-0.8384857177734375,-0.350555419921875,-0.004150390625
1667824287864856800,6.77285693359375,-0.8420562744140625,-0.356658935546875,-0.00848388671875
1667824287874864000,6.782864013671875,-0.8499908447265625,-0.35870361328125,-0.0108642578125
1667824287884872000,6.792871826171875,-0.85626220703125,-0.361907958984375,-0.01727294921875
1667824287894880000,6.8028798828125,-0.86334228515625,-0.3632659912109375,-0.0219573974609375
1667824287904887800,6.8128876953125,-0.8683929443359375,-0.3635101318359375,-0.0272674560546875
1667824287914896100,6.822896240234375,-0.8718719482421875,-0.3590240478515625,-0.036224365234375
1667824287924904200,6.832904296875,-0.8741455078125,-0.3485565185546875,-0.0412445068359375
1667824287934912000,6.842912109375,-0.8741912841796875,-0.3414459228515625,-0.0450897216796875
1667824287944920000,6.852920166015625,-0.8756103515625,-0.3386077880859375,-0.0505218505859375
1667824287954926800,6.8629267578125,-0.8798675537109375,-0.3330841064453125,-0.0537109375
1667824287964935200,6.87293505859375,-0.8800048828125,-0.330780029296875,-0.0499725341796875
1667824287974943000,6.88294287109375,-0.8772125244140625,-0.33203125,-0.053192138671875
1667824287984951000,6.892950927734375,-0.877105712890625,-0.3300323486328125,-0.0561370849609375
1667824287994959000,6.902958984375,-0.8736572265625,-0.3308868408203125,-0.052978515625
1667824288004967000,6.912966796875,-0.8719635009765625,-0.3395538330078125,-0.05078125
1667824288014975000,6.92297509765625,-0.86761474609375,-0.34796142578125,-0.046630859375
1667824288024983000,6.932983154296875,-0.8583526611328125,-0.35302734375,-0.0423126220703125
1667824288034990000,6.942989990234375,-0.8597259521484375,-0.3545074462890625,-0.0431976318359375
1667824288044998000,6.952997802734375,-0.857147216796875,-0.356719970703125,-0.037109375
1667824288055006000,6.963005859375,-0.8507843017578125,-0.3660430908203125,-0.0308074951171875
1667824288065014000,6.973013916015625,-0.850677490234375,-0.3730316162109375,-0.0239105224609375
1667824288075022000,6.98302197265625,-0.84417724609375,-0.37860107421875,-0.0120086669921875
1667824288085030100,6.993030029296875,-0.8375244140625,-0.387847900390625,0.0008544921875
1667824288095038000,7.003037841796875,-0.83270263671875,-0.39813232421875,0.0117950439453125
1667824288105046000,7.0130458984375,-0.8306732177734375,-0.404449462890625,0.0251312255859375
1667824288115054000,7.02305419921875,-0.83154296875,-0.4127960205078125,0.0391387939453125
1667824288125061000,7.03306103515625,-0.832000732421875,-0.4201202392578125,0.047088623046875
1667824288135069200,7.043069091796875,-0.8342437744140625,-0.4233856201171875,0.0557098388671875
1667824288145077000,7.053076904296875,-0.838104248046875,-0.424774169921875,0.0686798095703125
1667824288155085000,7.0630849609375,-0.8416748046875,-0.430450439453125,0.07989501953125
1667824288165092900,7.0730927734375,-0.848114013671875,-0.4318084716796875,0.0869140625
1667824288175101000,7.083100830078125,-0.85308837890625,-0.425689697265625,0.09381103515625
1667824288185109200,7.093109130859375,-0.8621826171875,-0.425445556640625,0.0998992919921875
1667824288195117000,7.103116943359375,-0.874542236328125,-0.433868408203125,0.1020355224609375
1667824288205124000,7.1131240234375,-0.8791351318359375,-0.439666748046875,0.100555419921875
1667824288215132000,7.1231318359375,-0.88250732421875,-0.440673828125,0.104705810546875
1667824288225140000,7.133139892578125,-0.883453369140625,-0.44384765625,0.1080780029296875
1667824288235148000,7.14314794921875,-0.88836669921875,-0.4497528076171875,0.1064605712890625
1667824288245156000,7.153156005859375,-0.8888702392578125,-0.458526611328125,0.1035614013671875
1667824288255164000,7.163163818359375,-0.8917999267578125,-0.4654693603515625,0.098358154296875
1667824288265172000,7.173171875,-0.9021148681640625,-0.469085693359375,0.0928955078125
1667824288275180000,7.183179931640625,-0.910400390625,-0.469085693359375,0.08355712890625
1667824288285187000,7.19318701171875,-0.9188079833984375,-0.4758148193359375,0.074981689453125
1667824288295195100,7.203195068359375,-0.9317169189453125,-0.488372802734375,0.0717926025390625
1667824288305203000,7.213202880859375,-0.939544677734375,-0.5013275146484375,0.0651702880859375
1667824288315211000,7.2232109375,-0.949493408203125,-0.5036163330078125,0.0486602783203125
1667824288325218800,7.23321875,-0.955230712890625,-0.49749755859375,0.03302001953125
1667824288335227100,7.24322705078125,-0.95867919921875,-0.4873809814453125,0.016143798828125
1667824288345235200,7.253235107421875,-0.960235595703125,-0.476531982421875,0.0030975341796875
1667824288355243000,7.263242919921875,-0.9541168212890625,-0.467010498046875,-0.0009918212890625
1667824288365250000,7.27325,-0.9542083740234375,-0.4594879150390625,-0.0016632080078125
1667824288375257900,7.2832578125,-0.95745849609375,-0.45050048828125,0.002716064453125
1667824288385266200,7.29326611328125,-0.9488525390625,-0.44708251953125,0.0068359375
1667824288395274000,7.30327392578125,-0.9492034912109375,-0.4502716064453125,0.0067596435546875
1667824288405282000,7.313281982421875,-0.9596710205078125,-0.4606475830078125,0.0146026611328125
1667824288415290000,7.3232900390625,-0.96990966796875,-0.477203369140625,0.0245513916015625
1667824288425298000,7.3332978515625,-0.9823150634765625,-0.4871673583984375,0.018096923828125
1667824288435306000,7.343305908203125,-1.0020599365234375,-0.4817047119140625,0.002899169921875
1667824288445313000,7.35331298828125,-1.0267181396484375,-0.474761962890625,-0.019561767578125
1667824288455321000,7.363321044921875,-1.0550079345703125,-0.468109130859375,-0.039154052734375
1667824288465329000,7.373328857421875,-1.076568603515625,-0.4668121337890625,-0.0601654052734375
1667824288475337000,7.3833369140625,-1.0977325439453125,-0.4609527587890625,-0.079254150390625
1667824288485345000,7.393344970703125,-1.0987701416015625,-0.44732666015625,-0.092742919921875
1667824288495353000,7.40335302734375,-1.0897216796875,-0.4259490966796875,-0.1082305908203125
1667824288505361200,7.413361083984375,-1.0820159912109375,-0.3997650146484375,-0.1281890869140625
1667824288515369000,7.423368896484375,-1.067962646484375,-0.3736724853515625,-0.1521148681640625
1667824288525377000,7.433376953125,-1.0500640869140625,-0.354339599609375,-0.1686859130859375
1667824288535384000,7.443384033203125,-1.0298919677734375,-0.3416595458984375,-0.1760406494140625
1667824288545392000,7.45339208984375,-1.007232666015625,-0.3343658447265625,-0.170684814453125
1667824288555400200,7.463400146484375,-0.97314453125,-0.3386688232421875,-0.1506195068359375
1667824288565408000,7.473407958984375,-0.9388427734375,-0.346588134765625,-0.1375885009765625
1667824288575416000,7.483416015625,-0.9074554443359375,-0.33685302734375,-0.1203460693359375
1667824288585424000,7.493423828125,-0.8791656494140625,-0.3192596435546875,-0.10540771484375
1667824288595432000,7.503431884765625,-0.8575439453125,-0.30926513671875,-0.0894012451171875
1667824288605439000,7.51343896484375,-0.831146240234375,-0.3085174560546875,-0.0737457275390625
1667824288615447000,7.523447021484375,-0.8123626708984375,-0.3116455078125,-0.0590057373046875
1667824288625454300,7.533454345703125,-0.801239013671875,-0.3191680908203125,-0.043853759765625
1667824288635462400,7.54346240234375,-0.7894287109375,-0.333526611328125,-0.03411865234375
1667824288645470500,7.553470458984375,-0.7830963134765625,-0.3454742431640625,-0.0331878662109375
1667824288655478500,7.563478515625,-0.7878875732421875,-0.3533782958984375,-0.032501220703125
1667824288665486300,7.573486328125,-0.7954254150390625,-0.3638916015625,-0.0325164794921875
1667824288675494400,7.583494384765625,-0.80303955078125,-0.3748626708984375,-0.0385589599609375
1667824288685501400,7.59350146484375,-0.80303955078125,-0.3787689208984375,-0.0487213134765625
1667824288695509500,7.603509521484375,-0.8024749755859375,-0.3732147216796875,-0.06121826171875
1667824288705517300,7.613517333984375,-0.8040313720703125,-0.3655548095703125,-0.069610595703125
1667824288715525400,7.623525390625,-0.8066864013671875,-0.357574462890625,-0.0744781494140625
1667824288725533400,7.633533447265625,-0.80889892578125,-0.3484649658203125,-0.076629638671875
1667824288735541200,7.643541259765625,-0.805694580078125,-0.34320068359375,-0.074127197265625
1667824288745549600,7.653549560546875,-0.798980712890625,-0.345977783203125,-0.071136474609375
1667824288755557400,7.663557373046875,-0.7935638427734375,-0.3477630615234375,-0.06976318359375
1667824288765565400,7.6735654296875,-0.792999267578125,-0.3484344482421875,-0.063201904296875
1667824288775572200,7.683572265625,-0.78778076171875,-0.3535614013671875,-0.0590972900390625
1667824288785580300,7.693580322265625,-0.7802276611328125,-0.35992431640625,-0.0593414306640625
1667824288795588600,7.703588623046875,-0.7694854736328125,-0.36090087890625,-0.0655364990234375
1667824288805596400,7.713596435546875,-0.76458740234375,-0.3586883544921875,-0.0702056884765625
1667824288815604500,7.7236044921875,-0.767303466796875,-0.363372802734375,-0.065826416015625
1667824288825612300,7.7336123046875,-0.77081298828125,-0.3757476806640625,-0.0604705810546875
1667824288835620400,7.743620361328125,-0.773529052734375,-0.3931427001953125,-0.051788330078125
1667824288845628400,7.75362841796875,-0.775665283203125,-0.4145660400390625,-0.046966552734375
1667824288855635500,7.763635498046875,-0.7864837646484375,-0.4336700439453125,-0.0433349609375
1667824288865643500,7.7736435546875,-0.799224853515625,-0.449066162109375,-0.0406036376953125
1667824288875651300,7.7836513671875,-0.814300537109375,-0.4635772705078125,-0.0460052490234375
1667824288885659400,7.793659423828125,-0.8403778076171875,-0.478057861328125,-0.0533599853515625
1667824288895667200,7.803667236328125,-0.85784912109375,-0.4842529296875,-0.0681610107421875
1667824288905675500,7.813675537109375,-0.8730316162109375,-0.4743499755859375,-0.09124755859375
1667824288915683600,7.82368359375,-0.896575927734375,-0.4586944580078125,-0.1129608154296875
1667824288925691400,7.83369140625,-0.911956787109375,-0.4466705322265625,-0.130462646484375
1667824288935698400,7.843698486328125,-0.91387939453125,-0.443115234375,-0.1403045654296875
1667824288945706200,7.853706298828125,-0.918701171875,-0.44525146484375,-0.1400146484375
1667824288955714600,7.863714599609375,-0.924407958984375,-0.4471588134765625,-0.130126953125
1667824288965722400,7.873722412109375,-0.92938232421875,-0.443115234375,-0.12017822265625
1667824288975730400,7.88373046875,-0.9373016357421875,-0.4375152587890625,-0.1097869873046875
1667824288985738500,7.893738525390625,-0.9506072998046875,-0.4436798095703125,-0.1004486083984375
1667824288995746300,7.903746337890625,-0.968597412109375,-0.4531707763671875,-0.0989227294921875
1667824289005753600,7.913753662109375,-0.980560302734375,-0.447662353515625,-0.103240966796875
1667824289015761400,7.923761474609375,-0.99444580078125,-0.4352569580078125,-0.1007080078125
1667824289025769500,7.93376953125,-1.0069427490234375,-0.435211181640625,-0.0997161865234375
1667824289035777300,7.94377734375,-1.0140838623046875,-0.432647705078125,-0.0982666015625
1667824289045785300,7.953785400390625,-1.02545166015625,-0.417236328125,-0.1022796630859375
1667824289055793400,7.96379345703125,-1.03497314453125,-0.3966827392578125,-0.1156768798828125
1667824289065801500,7.973801513671875,-1.038421630859375,-0.3691253662109375,-0.12762451171875
1667824289075809500,7.9838095703125,-1.0368194580078125,-0.3431396484375,-0.135772705078125
1667824289085817300,7.9938173828125,-1.031890869140625,-0.327545166015625,-0.1400909423828125
1667824289095824400,8.003824462890625,-1.0238189697265625,-0.31304931640625,-0.1416778564453125
1667824289105832400,8.01383251953125,-1.0004119873046875,-0.3023834228515625,-0.13580322265625
1667824289115840500,8.023840576171875,-0.9754638671875,-0.30096435546875,-0.1277008056640625
1667824289125848300,8.033848388671874,-0.951934814453125,-0.301727294921875,-0.115447998046875
1667824289135856400,8.0438564453125,-0.92620849609375,-0.303680419921875,-0.0930938720703125
1667824289145864400,8.053864501953125,-0.91741943359375,-0.3212890625,-0.068756103515625
1667824289155872300,8.063872314453125,-0.91705322265625,-0.3466033935546875,-0.0499725341796875
1667824289165879600,8.073879638671874,-0.9227752685546875,-0.3714752197265625,-0.02777099609375
1667824289175887400,8.083887451171876,-0.9369964599609375,-0.395538330078125,-0.0074005126953125
1667824289185895400,8.0938955078125,-0.9581756591796875,-0.419647216796875,0.0020751953125
1667824289195903200,8.1039033203125,-0.9967498779296875,-0.4346771240234375,-0.000213623046875
1667824289205911300,8.113911376953125,-1.04248046875,-0.4301605224609375,-0.011199951171875
1667824289215919600,8.123919677734374,-1.0863189697265625,-0.417083740234375,-0.0243377685546875
1667824289225927400,8.133927490234376,-1.1139068603515625,-0.4024810791015625,-0.0517425537109375
1667824289235935500,8.143935546875,-1.1248016357421875,-0.379302978515625,-0.08062744140625
1667824289245943300,8.153943359375,-1.1204833984375,-0.3427734375,-0.1085357666015625
1667824289255950300,8.163950439453124,-1.1090850830078125,-0.3011474609375,-0.1275482177734375
1667824289265958400,8.17395849609375,-1.094085693359375,-0.2777557373046875,-0.129974365234375
1667824289275966500,8.183966552734375,-1.0842437744140625,-0.268768310546875,-0.1268310546875
1667824289285974500,8.193974609375,-1.057861328125,-0.2638092041015625,-0.1112823486328125
1667824289295982300,8.203982421875,-1.0258026123046875,-0.2714385986328125,-0.0965423583984375
1667824289305990400,8.213990478515624,-0.9885406494140625,-0.2779998779296875,-0.0795440673828125
1667824289315998200,8.223998291015626,-0.947357177734375,-0.2813720703125,-0.0554962158203125
1667824289326005500,8.234005615234375,-0.91668701171875,-0.2846832275390625,-0.0302581787109375
1667824289336013300,8.244013427734375,-0.88787841796875,-0.2904205322265625,-0.009307861328125
1667824289346021400,8.254021484375,-0.85797119140625,-0.293670654296875,0.005035400390625
1667824289356029400,8.264029541015624,-0.832489013671875,-0.2962799072265625,0.0101776123046875
1667824289366037200,8.274037353515626,-0.82073974609375,-0.299072265625,0.01507568359375
1667824289376045600,8.284045654296875,-0.8078460693359375,-0.303314208984375,0.0173187255859375
1667824289386053400,8.294053466796875,-0.8025360107421875,-0.3139801025390625,0.0195465087890625
1667824289396061400,8.3040615234375,-0.806365966796875,-0.3282623291015625,0.0225982666015625
1667824289406068200,8.314068115234376,-0.8108978271484375,-0.3452911376953125,0.0189666748046875
1667824289416076500,8.32407666015625,-0.8240203857421875,-0.3534698486328125,0.00958251953125
1667824289426084600,8.334084716796875,-0.8368988037109375,-0.3549652099609375,-0.0005340576171875
1667824289436092400,8.344092529296875,-0.8459625244140625,-0.3628082275390625,-0.00634765625
1667824289446100500,8.3541005859375,-0.85400390625,-0.370849609375,-0.019378662109375
1667824289456108300,8.3641083984375,-0.8663330078125,-0.36578369140625,-0.03277587890625
1667824289466116400,8.374116455078125,-0.869659423828125,-0.3554534912109375,-0.0386505126953125
1667824289476124200,8.384124267578125,-0.8680267333984375,-0.3508758544921875,-0.041900634765625
1667824289486131500,8.39413134765625,-0.86383056640625,-0.3506317138671875,-0.0438690185546875
1667824289496139300,8.40413916015625,-0.8586578369140625,-0.3451385498046875,-0.0340576171875
1667824289506147300,8.414147216796875,-0.8499603271484375,-0.3382415771484375,-0.0177001953125
1667824289516155400,8.4241552734375,-0.83935546875,-0.3386688232421875,-0.0048828125
1667824289526163500,8.43416357421875,-0.830810546875,-0.340423583984375,0.0086212158203125
1667824289536171500,8.444171630859374,-0.8349456787109375,-0.34136962890625,0.024139404296875
1667824289546179300,8.454179443359376,-0.8366546630859375,-0.3458251953125,0.02813720703125
1667824289556187400,8.4641875,-0.841094970703125,-0.3553009033203125,0.0310821533203125
1667824289566194200,8.474194091796875,-0.8438262939453125,-0.3719482421875,0.0363311767578125
1667824289576202500,8.484202392578124,-0.85223388671875,-0.383270263671875,0.0369720458984375
1667824289586210600,8.49421044921875,-0.85528564453125,-0.385986328125,0.037445068359375
1667824289596218400,8.50421826171875,-0.8559112548828125,-0.3876495361328125,0.0427703857421875
1667824289606226400,8.514226318359375,-0.8584136962890625,-0.3917694091796875,0.0423431396484375
1667824289616234200,8.524234130859375,-0.86212158203125,-0.3932037353515625,0.04046630859375
1667824289626246700,8.53424658203125,-0.87188720703125,-0.390655517578125,0.0440521240234375
1667824289636254000,8.54425390625,-0.8751220703125,-0.3974456787109375,0.0511474609375
1667824289646261800,8.55426171875,-0.8792572021484375,-0.40545654296875,0.0548095703125
1667824289656269800,8.564269775390626,-0.8843841552734375,-0.4075164794921875,0.0564727783203125
1667824289666277600,8.574277587890625,-0.8848114013671875,-0.4080963134765625,0.0587615966796875
1667824289676285700,8.58428564453125,-0.88458251953125,-0.411651611328125,0.062774658203125
1667824289686293800,8.594293701171875,-0.887603759765625,-0.4132843017578125,0.0648651123046875
1667824289696301800,8.6043017578125,-0.891754150390625,-0.4125213623046875,0.069366455078125
1667824289706310000,8.614309814453126,-0.8971405029296875,-0.415924072265625,0.0732421875
1667824289716316700,8.624316650390625,-0.9024200439453125,-0.4264068603515625,0.0745391845703125
1667824289726324700,8.63432470703125,-0.91363525390625,-0.4341278076171875,0.080841064453125
1667824289736332500,8.64433251953125,-0.92803955078125,-0.4428863525390625,0.0844268798828125
1667824289746340900,8.6543408203125,-0.94171142578125,-0.454620361328125,0.07867431640625
1667824289756349000,8.664348876953126,-0.951446533203125,-0.46185302734375,0.067352294921875
1667824289766356700,8.674356689453125,-0.9672698974609375,-0.4587249755859375,0.0452117919921875
1667824289776364800,8.68436474609375,-0.9859466552734375,-0.454010009765625,0.0193939208984375
1667824289786372600,8.69437255859375,-0.9954986572265625,-0.4553985595703125,-0.00689697265625
1667824289796380000,8.7043798828125,-1.0020294189453125,-0.456268310546875,-0.0284271240234375
1667824289806387700,8.7143876953125,-1.0055999755859375,-0.4539031982421875,-0.0439300537109375
1667824289816395800,8.724395751953125,-0.996673583984375,-0.4455108642578125,-0.0696563720703125
1667824289826403600,8.734403564453125,-0.9963226318359375,-0.435302734375,-0.08087158203125
1667824289836411600,8.74441162109375,-0.9877166748046875,-0.43890380859375,-0.0815582275390625
1667824289846419700,8.754419677734376,-0.974853515625,-0.4504547119140625,-0.0805511474609375
1667824289856427800,8.764427734375,-0.970977783203125,-0.4538726806640625,-0.07684326171875
1667824289866435800,8.774435791015625,-0.9874114990234375,-0.4441680908203125,-0.084442138671875
1667824289876442600,8.784442626953124,-1.0060882568359375,-0.42181396484375,-0.0981597900390625
1667824289886450700,8.79445068359375,-1.0204010009765625,-0.40838623046875,-0.119384765625
1667824289896458800,8.804458740234375,-1.0332489013671875,-0.4021759033203125,-0.147705078125
1667824289906466800,8.814466796875,-1.0450439453125,-0.382171630859375,-0.1650543212890625
1667824289916475000,8.824474853515625,-1.04461669921875,-0.353057861328125,-0.181640625
1667824289926482700,8.834482666015624,-1.0380096435546875,-0.3366851806640625,-0.189910888671875
1667824289936490800,8.84449072265625,-1.0240478515625,-0.3382415771484375,-0.1880340576171875
1667824289946498600,8.85449853515625,-1.00921630859375,-0.3485870361328125,-0.1756439208984375
1667824289956505900,8.864505859375,-0.9915313720703125,-0.3604736328125,-0.1580352783203125
1667824289966513700,8.874513671875,-0.9840087890625,-0.3690643310546875,-0.150390625
1667824289976521700,8.884521728515624,-0.97442626953125,-0.3688812255859375,-0.1364593505859375
1667824289986529800,8.89452978515625,-0.9446868896484375,-0.378753662109375,-0.137542724609375
1667824289996537600,8.90453759765625,-0.9323272705078125,-0.3868865966796875,-0.1350555419921875
1667824290006545700,8.914545654296875,-0.927825927734375,-0.3858642578125,-0.121246337890625
1667824290016553700,8.9245537109375,-0.909454345703125,-0.3859100341796875,-0.109344482421875
1667824290026560800,8.934560791015626,-0.900360107421875,-0.3871917724609375,-0.1086273193359375
1667824290036568600,8.944568603515625,-0.89141845703125,-0.382659912109375,-0.0987396240234375
1667824290046576600,8.95457666015625,-0.89031982421875,-0.3801727294921875,-0.0862579345703125
1667824290056585000,8.9645849609375,-0.89532470703125,-0.3698272705078125,-0.085235595703125
1667824290066592800,8.9745927734375,-0.886260986328125,-0.3502655029296875,-0.0885162353515625
1667824290076600800,8.984600830078126,-0.882476806640625,-0.3387298583984375,-0.0853424072265625
1667824290086608600,8.994608642578125,-0.88580322265625,-0.3414764404296875,-0.0794830322265625
1667824290096615700,9.00461572265625,-0.8877410888671875,-0.349029541015625,-0.07098388671875
1667824290106623700,9.014623779296874,-0.8937530517578125,-0.3504791259765625,-0.0655975341796875
1667824290116631800,9.0246318359375,-0.89752197265625,-0.346893310546875,-0.0619964599609375
1667824290126639900,9.034639892578125,-0.901214599609375,-0.34222412109375,-0.063232421875
1667824290136647700,9.044647705078125,-0.9085845947265625,-0.3357696533203125,-0.0670166015625
1667824290146655700,9.05465576171875,-0.912994384765625,-0.3254241943359375,-0.070526123046875
1667824290156663600,9.06466357421875,-0.913818359375,-0.315399169921875,-0.0743255615234375
1667824290166672000,9.074671875,-0.918609619140625,-0.3098602294921875,-0.07806396484375
1667824290176678700,9.0846787109375,-0.92303466796875,-0.3103485107421875,-0.080413818359375
1667824290186686700,9.094686767578125,-0.928009033203125,-0.3179473876953125,-0.08013916015625
1667824290196694800,9.10469482421875,-0.9264068603515625,-0.32769775390625,-0.08245849609375
1667824290206702600,9.11470263671875,-0.9223480224609375,-0.3350982666015625,-0.091094970703125
1667824290216711000,9.1247109375,-0.9208526611328125,-0.3434906005859375,-0.0956573486328125
1667824290226718700,9.13471875,-0.913177490234375,-0.362274169921875,-0.098785400390625
1667824290236726800,9.144726806640625,-0.9072113037109375,-0.3843841552734375,-0.1024169921875
1667824290246734600,9.154734619140624,-0.901519775390625,-0.3983001708984375,-0.105438232421875
1667824290256742000,9.164741943359376,-0.8967742919921875,-0.406951904296875,-0.11322021484375
1667824290266749700,9.174749755859375,-0.89459228515625,-0.4131317138671875,-0.117706298828125
1667824290276757800,9.1847578125,-0.895599365234375,-0.4178009033203125,-0.121002197265625
1667824290286765800,9.194765869140625,-0.9002227783203125,-0.4210357666015625,-0.1258087158203125
1667824290296773600,9.204773681640624,-0.9055633544921875,-0.4217681884765625,-0.13470458984375
1667824290306781700,9.21478173828125,-0.9115753173828125,-0.4136810302734375,-0.1464080810546875
1667824290316789500,9.22478955078125,-0.916900634765625,-0.3985137939453125,-0.1568145751953125
1667824290326797800,9.2347978515625,-0.9124755859375,-0.3848419189453125,-0.1616973876953125
1667824290336804600,9.2448046875,-0.8968353271484375,-0.3741912841796875,-0.165802001953125
1667824290346812700,9.254812744140626,-0.877288818359375,-0.365142822265625,-0.164703369140625
1667824290356820700,9.26482080078125,-0.854705810546875,-0.358245849609375,-0.156890869140625
1667824290366828800,9.274828857421875,-0.8331298828125,-0.35699462890625,-0.144287109375
1667824290376836900,9.2848369140625,-0.8211517333984375,-0.3590240478515625,-0.1364898681640625
1667824290386844700,9.2948447265625,-0.8125,-0.362945556640625,-0.1269989013671875
1667824290396852700,9.304852783203126,-0.803985595703125,-0.374176025390625,-0.119842529296875
1667824290406859500,9.314859619140625,-0.8016357421875,-0.3886260986328125,-0.11309814453125
1667824290416867800,9.324867919921875,-0.7969970703125,-0.3975982666015625,-0.1154327392578125
1667824290426876000,9.3348759765625,-0.7976226806640625,-0.3958282470703125,-0.124359130859375
1667824290436883700,9.3448837890625,-0.80902099609375,-0.389434814453125,-0.125396728515625
1667824290446891800,9.354891845703126,-0.812164306640625,-0.3897857666015625,-0.12445068359375
1667824290456899600,9.364899658203125,-0.8080596923828125,-0.3888702392578125,-0.1219940185546875
1667824290466907600,9.37490771484375,-0.8090057373046875,-0.387847900390625,-0.110809326171875
1667824290476915700,9.384915771484375,-0.81536865234375,-0.389617919921875,-0.0899810791015625
1667824290486922800,9.3949228515625,-0.8235931396484375,-0.3914947509765625,-0.078460693359375
1667824290496930800,9.404930908203125,-0.82916259765625,-0.3975067138671875,-0.0760498046875
1667824290506938600,9.414938720703125,-0.8361968994140625,-0.4102020263671875,-0.0704803466796875
1667824290516946700,9.42494677734375,-0.857269287109375,-0.4194488525390625,-0.0630950927734375
1667824290526954800,9.434954833984374,-0.8795013427734375,-0.4124298095703125,-0.06085205078125
1667824290536962800,9.444962890625,-0.8899078369140625,-0.392120361328125,-0.0678253173828125
1667824290546971000,9.454970947265625,-0.89471435546875,-0.3656005859375,-0.0799407958984375
1667824290556977700,9.464977783203125,-0.8955841064453125,-0.337738037109375,-0.090972900390625
1667824290566985700,9.47498583984375,-0.88433837890625,-0.317138671875,-0.09454345703125
1667824290576993800,9.484993896484376,-0.87872314453125,-0.302001953125,-0.0886993408203125
1667824290587001900,9.495001953125,-0.87689208984375,-0.28802490234375,-0.0866546630859375
1667824290597009700,9.505009765625,-0.8646087646484375,-0.282928466796875,-0.084503173828125
1667824290607017700,9.515017822265625,-0.853485107421875,-0.284759521484375,-0.0734100341796875
1667824290617025800,9.52502587890625,-0.85504150390625,-0.2897796630859375,-0.06329345703125
1667824290627029500,9.535029541015625,-0.848846435546875,-0.293426513671875,-0.0537567138671875
1667824290637036300,9.545036376953124,-0.847808837890625,-0.294708251953125,-0.05291748046875
1667824290647044400,9.55504443359375,-0.841094970703125,-0.2948760986328125,-0.065338134765625
1667824290657052200,9.56505224609375,-0.838653564453125,-0.2972869873046875,-0.06494140625
1667824290667060500,9.575060546875,-0.8444366455078125,-0.31494140625,-0.0536041259765625
1667824290677068500,9.585068603515625,-0.840240478515625,-0.3570404052734375,-0.0431976318359375
1667824290687076400,9.595076416015624,-0.8497161865234375,-0.3930816650390625,-0.0294342041015625
1667824290697084400,9.60508447265625,-0.8738250732421875,-0.4120941162109375,-0.0261993408203125
1667824290707091500,9.615091552734375,-0.8917083740234375,-0.425445556640625,-0.0336151123046875
1667824290717099500,9.625099609375,-0.9230194091796875,-0.4292449951171875,-0.0547332763671875
1667824290727107300,9.635107421875,-0.9707794189453125,-0.4222564697265625,-0.0755767822265625
1667824290737115400,9.645115478515624,-1.015869140625,-0.419647216796875,-0.0963897705078125
1667824290747123200,9.655123291015625,-1.049407958984375,-0.4161224365234375,-0.12054443359375
1667824290757131300,9.66513134765625,-1.07647705078125,-0.400848388671875,-0.13665771484375
1667824290767139300,9.675139404296875,-1.09417724609375,-0.3726959228515625,-0.1518707275390625
1667824290777146400,9.685146484375,-1.10516357421875,-0.3383331298828125,-0.1642913818359375
1667824290787154400,9.695154541015626,-1.102020263671875,-0.3090667724609375,-0.166412353515625
1667824290797162200,9.705162353515625,-1.0821075439453125,-0.298797607421875,-0.1549224853515625
1667824290807170300,9.71517041015625,-1.0640869140625,-0.2960205078125,-0.1455078125
1667824290817178400,9.725178466796875,-1.0540008544921875,-0.288116455078125,-0.1326446533203125
1667824290827186400,9.7351865234375,-1.0446929931640625,-0.2890777587890625,-0.111236572265625
1667824290837194500,9.745194580078126,-1.0307464599609375,-0.3083953857421875,-0.0908660888671875
1667824290847202300,9.755202392578125,-1.0152130126953125,-0.3294830322265625,-0.0709686279296875
1667824290857209300,9.765209228515625,-0.999420166015625,-0.3449249267578125,-0.0652923583984375
1667824290867217400,9.775217529296874,-0.9831390380859375,-0.3563079833984375,-0.074066162109375
1667824290877225500,9.7852255859375,-0.9771881103515625,-0.3600311279296875,-0.075408935546875
1667824290887233300,9.7952333984375,-0.973968505859375,-0.3639678955078125,-0.0711517333984375
1667824290897241300,9.805241455078125,-0.96319580078125,-0.367645263671875,-0.0789947509765625
1667824290907249400,9.81524951171875,-0.956878662109375,-0.3663787841796875,-0.091644287109375
1667824290917257200,9.82525732421875,-0.9545440673828125,-0.35980224609375,-0.096099853515625
1667824290927264500,9.835264404296876,-0.9581756591796875,-0.3561248779296875,-0.1014556884765625
1667824290937272300,9.845272216796875,-0.9532928466796875,-0.36077880859375,-0.1064453125
1667824290947280400,9.8552802734375,-0.9415130615234375,-0.3675689697265625,-0.108367919921875
1667824290957288200,9.8652880859375,-0.933135986328125,-0.3655853271484375,-0.107513427734375
1667824290967296300,9.875296142578126,-0.9203948974609375,-0.3569793701171875,-0.101470947265625
1667824290977304600,9.8853046875,-0.900482177734375,-0.3555755615234375,-0.0908355712890625
1667824290987312400,9.8953125,-0.8857269287109375,-0.35638427734375,-0.0766448974609375
1667824290997320400,9.905320556640625,-0.8810272216796875,-0.3511199951171875,-0.0589599609375
1667824291007327200,9.9153271484375,-0.876556396484375,-0.34588623046875,-0.0439910888671875
1667824291017335300,9.925335205078126,-0.8675384521484375,-0.341644287109375,-0.0295562744140625
1667824291027343400,9.93534326171875,-0.86187744140625,-0.3331451416015625,-0.018341064453125
1667824291037351400,9.945351318359375,-0.859588623046875,-0.3218536376953125,-0.00579833984375
1667824291047359500,9.955359375,-0.85028076171875,-0.3185882568359375,0.0005950927734375
1667824291057367300,9.9653671875,-0.8451995849609375,-0.31982421875,0.00634765625
1667824291067375400,9.975375244140626,-0.8433380126953125,-0.3206024169921875,0.0100555419921875
1667824291077383200,9.985383056640625,-0.843170166015625,-0.317047119140625,0.0064849853515625
1667824291087390500,9.995390380859375,-0.8475189208984375,-0.30926513671875,-0.0029449462890625
1667824291097398300,10.005398193359374,-0.85430908203125,-0.3017425537109375,-0.0133209228515625
1667824291107406300,10.01540625,-0.8575592041015625,-0.2982177734375,-0.013824462890625
1667824291117414400,10.025414306640625,-0.856597900390625,-0.30242919921875,-0.0081329345703125
1667824291127422200,10.035422119140625,-0.854766845703125,-0.3127899169921875,0.0066680908203125
1667824291137430500,10.045430419921875,-0.856719970703125,-0.321685791015625,0.020355224609375
1667824291147438300,10.055438232421874,-0.8568878173828125,-0.3200225830078125,0.031036376953125
1667824291157445400,10.0654453125,-0.861846923828125,-0.3109283447265625,0.0462493896484375
1667824291167453200,10.075453125,-0.861602783203125,-0.317901611328125,0.054595947265625
1667824291177461500,10.08546142578125,-0.874664306640625,-0.3183441162109375,0.0601654052734375
1667824291187469300,10.09546923828125,-0.8887176513671875,-0.309967041015625,0.068878173828125
1667824291197477400,10.105477294921876,-0.8978729248046875,-0.3042144775390625,0.0695037841796875
1667824291207485400,10.1154853515625,-0.9141845703125,-0.3031005859375,0.0612030029296875
1667824291217493200,10.1254931640625,-0.92449951171875,-0.3002166748046875,0.048095703125
1667824291227501300,10.135501220703125,-0.929290771484375,-0.2923431396484375,0.0432586669921875
1667824291237508400,10.14550830078125,-0.9374542236328125,-0.2976531982421875,0.04632568359375
1667824291247516400,10.155516357421876,-0.9474945068359375,-0.30859375,0.0503692626953125
1667824291257524200,10.165524169921875,-0.9583740234375,-0.315643310546875,0.062347412109375
1667824291267532300,10.1755322265625,-0.9632568359375,-0.3267974853515625,0.07318115234375
1667824291277540400,10.185540283203125,-0.97003173828125,-0.346038818359375,0.084259033203125
1667824291287548400,10.19554833984375,-0.978179931640625,-0.364410400390625,0.0984344482421875
1667824291297556500,10.205556396484376,-0.9998016357421875,-0.373992919921875,0.107177734375
1667824291307563300,10.215563232421875,-1.0251007080078125,-0.36761474609375,0.1045989990234375
1667824291317571300,10.2255712890625,-1.053741455078125,-0.3543548583984375,0.07781982421875
1667824291327579100,10.2355791015625,-1.0803375244140625,-0.329193115234375,0.0368499755859375
1667824291337587500,10.24558740234375,-1.10589599609375,-0.30609130859375,-0.00299072265625
1667824291347595500,10.255595458984375,-1.1346588134765625,-0.2999725341796875,-0.0421142578125
1667824291357603300,10.265603271484375,-1.1474609375,-0.3051605224609375,-0.06988525390625
1667824291367611400,10.275611328125,-1.1536407470703125,-0.32415771484375,-0.0865020751953125
1667824291377619200,10.285619140625,-1.166015625,-0.35650634765625,-0.0980072021484375
1667824291387626500,10.29562646484375,-1.174713134765625,-0.38641357421875,-0.1172027587890625
1667824291397634300,10.30563427734375,-1.184600830078125,-0.392303466796875,-0.1522979736328125
1667824291407642400,10.315642333984375,-1.1906280517578125,-0.389434814453125,-0.186065673828125
1667824291417650400,10.325650390625,-1.18756103515625,-0.395751953125,-0.2162933349609375
1667824291427658200,10.335658203125,-1.1772003173828125,-0.4050445556640625,-0.235321044921875
1667824291437666300,10.345666259765625,-1.15740966796875,-0.418731689453125,-0.2423553466796875
1667824291447674400,10.35567431640625,-1.1262359619140625,-0.4429931640625,-0.237548828125
1667824291457682400,10.365682373046875,-1.083892822265625,-0.465057373046875,-0.2227935791015625
1667824291467689200,10.375689208984374,-1.0525665283203125,-0.4770355224609375,-0.21502685546875
1667824291477697300,10.385697265625,-1.02001953125,-0.474609375,-0.19512939453125
1667824291487705300,10.395705322265625,-0.9814300537109375,-0.4797515869140625,-0.1753387451171875
1667824291497713400,10.40571337890625,-0.9521636962890625,-0.4761810302734375,-0.164794921875
1667824291507721500,10.415721435546875,-0.922088623046875,-0.464752197265625,-0.150726318359375
1667824291517729300,10.425729248046874,-0.851318359375,-0.464599609375,-0.117584228515625
1667824291527737300,10.4357373046875,-0.8481903076171875,-0.4746551513671875,-0.124420166015625
1667824291537744400,10.445744384765625,-0.917633056640625,-0.44354248046875,-0.1624755859375
1667824291547752400,10.45575244140625,-0.8353271484375,-0.40576171875,-0.13262939453125
1667824291557760500,10.465760498046874,-0.7815704345703125,-0.3939971923828125,-0.1298370361328125
1667824291567768300,10.475768310546876,-0.790435791015625,-0.381927490234375,-0.143768310546875
1667824291577776400,10.4857763671875,-0.7808074951171875,-0.358306884765625,-0.1474761962890625
1667824291587784200,10.4957841796875,-0.762054443359375,-0.3380126953125,-0.1380615234375
1667824291597792500,10.50579248046875,-0.761810302734375,-0.326416015625,-0.13525390625
1667824291607799300,10.51579931640625,-0.7680511474609375,-0.3191070556640625,-0.1309814453125
1667824291617807400,10.525807373046876,-0.7734527587890625,-0.324981689453125,-0.1179962158203125
1667824291627815700,10.535815673828125,-0.77557373046875,-0.3455963134765625,-0.1044464111328125
1667824291637823500,10.545823486328125,-0.781280517578125,-0.362945556640625,-0.09283447265625
1667824291647831600,10.55583154296875,-0.7831573486328125,-0.3672943115234375,-0.0872955322265625
1667824291657839600,10.565839599609374,-0.787872314453125,-0.3589324951171875,-0.0919952392578125
1667824291667847700,10.57584765625,-0.7968597412109375,-0.349273681640625,-0.0986175537109375
1667824291677855500,10.58585546875,-0.795074462890625,-0.3430023193359375,-0.1013946533203125
1667824291687862500,10.595862548828125,-0.7923583984375,-0.35015869140625,-0.09796142578125
1667824291697870600,10.60587060546875,-0.7972869873046875,-0.360107421875,-0.099517822265625
1667824291707878700,10.615878662109376,-0.79327392578125,-0.36224365234375,-0.0998382568359375
1667824291717886700,10.62588671875,-0.800384521484375,-0.3603973388671875,-0.09490966796875
1667824291727894500,10.63589453125,-0.817413330078125,-0.363433837890625,-0.09100341796875
1667824291737902600,10.645902587890625,-0.82574462890625,-0.3688812255859375,-0.0889129638671875
1667824291747910400,10.655910400390624,-0.841339111328125,-0.3683624267578125,-0.090240478515625
1667824291757918700,10.665918701171876,-0.8536529541015625,-0.363800048828125,-0.0946807861328125
1667824291767925500,10.675925537109375,-0.8593902587890625,-0.356231689453125,-0.098236083984375
1667824291777933600,10.68593359375,-0.867401123046875,-0.3484344482421875,-0.106842041015625
1667824291787941600,10.695941650390624,-0.877410888671875,-0.34002685546875,-0.114959716796875
1667824291797949400,10.705949462890626,-0.8871307373046875,-0.3398590087890625,-0.1196441650390625
1667824291807957800,10.715957763671875,-0.901123046875,-0.3451995849609375,-0.126739501953125
1667824291817965600,10.725965576171875,-0.911285400390625,-0.3525848388671875,-0.133148193359375
1667824291827973600,10.7359736328125,-0.9123992919921875,-0.362060546875,-0.142333984375
1667824291837981700,10.745981689453124,-0.91326904296875,-0.3725128173828125,-0.1497955322265625
1667824291847988500,10.755988525390626,-0.9168701171875,-0.375457763671875,-0.153350830078125
1667824291857996800,10.765996826171875,-0.919921875,-0.37823486328125,-0.1489715576171875
1667824291868004600,10.776004638671875,-0.9144439697265625,-0.3879241943359375,-0.1415863037109375
1667824291878012700,10.7860126953125,-0.9099273681640625,-0.394989013671875,-0.131622314453125
1667824291888020500,10.7960205078125,-0.9166412353515625,-0.39471435546875,-0.123748779296875
1667824291898028500,10.806028564453126,-0.9194793701171875,-0.3891448974609375,-0.1180419921875
1667824291908036600,10.81603662109375,-0.9203033447265625,-0.381500244140625,-0.1095733642578125
1667824291918043600,10.826043701171875,-0.9307403564453125,-0.3770599365234375,-0.105438232421875
1667824291928051700,10.8360517578125,-0.9363250732421875,-0.3705596923828125,-0.109039306640625
1667824291938059500,10.8460595703125,-0.9354095458984375,-0.360107421875,-0.111358642578125
1667824291948067600,10.856067626953125,-0.933990478515625,-0.346343994140625,-0.1092071533203125
1667824291958075600,10.86607568359375,-0.9278564453125,-0.33001708984375,-0.1060638427734375
1667824291968083700,10.876083740234375,-0.9181060791015625,-0.3121337890625,-0.1042633056640625
1667824291978091800,10.886091796875,-0.902984619140625,-0.2919769287109375,-0.102325439453125
1667824291988099600,10.896099609375,-0.88079833984375,-0.2717132568359375,-0.0942535400390625
1667824291998106600,10.906106689453125,-0.862518310546875,-0.2601318359375,-0.074615478515625
1667824292008114700,10.91611474609375,-0.8539581298828125,-0.257293701171875,-0.0482330322265625
1667824292018122800,10.926122802734374,-0.8489532470703125,-0.2513580322265625,-0.019287109375
1667824292028130600,10.936130615234376,-0.8427276611328125,-0.2480621337890625,-0.0035552978515625
1667824292038138600,10.946138671875,-0.8304595947265625,-0.2554168701171875,0.001678466796875
1667824292048146700,10.956146728515625,-0.825897216796875,-0.265289306640625,0.0052337646484375
1667824292058154500,10.966154541015625,-0.8348541259765625,-0.2767181396484375,0.015472412109375
1667824292068162600,10.97616259765625,-0.8442840576171875,-0.3018035888671875,0.02484130859375
1667824292078169600,10.986169677734376,-0.8714599609375,-0.334808349609375,0.034637451171875
1667824292088177700,10.996177734375,-0.9104766845703125,-0.369232177734375,0.0467376708984375
1667824292098185500,11.006185546875,-0.9467620849609375,-0.4026641845703125,0.043182373046875
1667824292108193500,11.016193603515624,-1.00567626953125,-0.424163818359375,0.037872314453125
1667824292118201600,11.02620166015625,-1.0699310302734375,-0.4264373779296875,0.0157012939453125
1667824292128209700,11.036209716796876,-1.115142822265625,-0.4049835205078125,-0.0115203857421875
1667824292138217700,11.0462177734375,-1.173492431640625,-0.37786865234375,-0.037689208984375
1667824292148225500,11.0562255859375,-1.203887939453125,-0.34979248046875,-0.0626220703125
1667824292158232600,11.066232666015624,-1.20745849609375,-0.31451416015625,-0.089935302734375
1667824292168240600,11.07624072265625,-1.1952362060546875,-0.270294189453125,-0.12359619140625
1667824292178248700,11.086248779296875,-1.179168701171875,-0.219024658203125,-0.135101318359375
1667824292188256500,11.096256591796875,-1.1753387451171875,-0.1707916259765625,-0.1197967529296875
1667824292198264600,11.1062646484375,-1.1591644287109375,-0.1399383544921875,-0.096282958984375
1667824292208272600,11.116272705078124,-1.11431884765625,-0.1405181884765625,-0.0605926513671875
1667824292218280400,11.126280517578126,-1.0572967529296875,-0.170257568359375,-0.0186920166015625
1667824292228287700,11.136287841796875,-1.0034942626953125,-0.1955413818359375,0.019683837890625
1667824292238295600,11.146295654296875,-0.9600982666015625,-0.2037811279296875,0.0624847412109375
1667824292248303600,11.1563037109375,-0.9128875732421875,-0.2083587646484375,0.0969696044921875
1667824292258311400,11.1663115234375,-0.865966796875,-0.21673583984375,0.119781494140625
1667824292268319500,11.176319580078125,-0.8343658447265625,-0.2272186279296875,0.1369171142578125
1667824292278327800,11.186327880859375,-0.8099365234375,-0.2390289306640625,0.1511688232421875
1667824292288335600,11.196335693359375,-0.786590576171875,-0.2493438720703125,0.162872314453125
1667824292298343700,11.20634375,-0.77874755859375,-0.2581024169921875,0.171051025390625
1667824292308350500,11.2163505859375,-0.7864532470703125,-0.268829345703125,0.1766815185546875
1667824292318358800,11.22635888671875,-0.7950439453125,-0.2786865234375,0.1800079345703125
1667824292328366600,11.23636669921875,-0.8026123046875,-0.284637451171875,0.178985595703125
1667824292338374700,11.246374755859375,-0.8227386474609375,-0.2875213623046875,0.1702117919921875
1667824292348382700,11.2563828125,-0.854217529296875,-0.2877044677734375,0.162872314453125
1667824292358390500,11.266390625,-0.8798065185546875,-0.29046630859375,0.1452178955078125
1667824292368398600,11.276398681640625,-0.90972900390625,-0.2889556884765625,0.1238250732421875
1667824292378405600,11.286405517578125,-0.947235107421875,-0.285186767578125,0.1107330322265625
1667824292388413700,11.29641357421875,-0.9826202392578125,-0.288116455078125,0.089569091796875
1667824292398421500,11.30642138671875,-1.0107421875,-0.28912353515625,0.059326171875
1667824292408429600,11.3164296875,-1.0294036865234375,-0.2861480712890625,0.0335540771484375
1667824292418437600,11.326437744140625,-1.0547637939453125,-0.2872161865234375,0.007598876953125
1667824292428445700,11.33644580078125,-1.091583251953125,-0.28900146484375,-0.0188446044921875
1667824292438453800,11.346453857421874,-1.1183319091796875,-0.28973388671875,-0.04119873046875
1667824292448461600,11.356461669921876,-1.149810791015625,-0.293304443359375,-0.061004638671875
1667824292458468600,11.366468505859375,-1.1766357421875,-0.3011016845703125,-0.076080322265625
1667824292468476400,11.376476318359375,-1.19256591796875,-0.3060150146484375,-0.0897216796875
1667824292478484700,11.386484619140624,-1.1933746337890625,-0.3038482666015625,-0.114501953125
1667824292488492800,11.396492919921876,-1.175384521484375,-0.2958221435546875,-0.1362152099609375
1667824292498500600,11.40650048828125,-1.1419219970703125,-0.2855987548828125,-0.1538543701171875
1667824292508508700,11.4165087890625,-1.1013031005859375,-0.2733612060546875,-0.1653900146484375
1667824292518516500,11.4265166015625,-1.0588531494140625,-0.261962890625,-0.15496826171875
1667824292528523800,11.436523681640624,-1.01611328125,-0.2623748779296875,-0.1212921142578125
1667824292538531600,11.446531494140626,-0.97442626953125,-0.2737579345703125,-0.0941314697265625
1667824292548539600,11.45653955078125,-0.9302520751953125,-0.283355712890625,-0.0723114013671875
1667824292558547500,11.46654736328125,-0.888519287109375,-0.28277587890625,-0.042816162109375
1667824292568555500,11.476555419921874,-0.84918212890625,-0.281158447265625,-0.0179595947265625
1667824292578563600,11.4865634765625,-0.8163604736328125,-0.281951904296875,0.0072174072265625
1667824292588571600,11.496571533203126,-0.790283203125,-0.2845611572265625,0.03326416015625
1667824292598579700,11.506579833984375,-0.7749481201171875,-0.281158447265625,0.0553741455078125
1667824292608586500,11.51658642578125,-0.7613372802734375,-0.277435302734375,0.0720062255859375
1667824292618594600,11.526594482421874,-0.7439727783203125,-0.2738037109375,0.0840606689453125
1667824292628606500,11.5366064453125,-0.7399749755859375,-0.2667694091796875,0.1006927490234375
1667824292638614500,11.546614501953124,-0.7413482666015625,-0.26263427734375,0.11370849609375
1667824292648622600,11.55662255859375,-0.7433624267578125,-0.2646026611328125,0.130157470703125
1667824292658630700,11.566630615234375,-0.7501983642578125,-0.2708892822265625,0.150238037109375
1667824292668638500,11.576638427734375,-0.7597503662109375,-0.279296875,0.1638946533203125
1667824292678645500,11.5866455078125,-0.772216796875,-0.2904510498046875,0.178375244140625
1667824292688653600,11.596653564453124,-0.7882537841796875,-0.30078125,0.1886749267578125
1667824292698661600,11.60666162109375,-0.806610107421875,-0.311798095703125,0.1944732666015625
1667824292708669400,11.61666943359375,-0.830322265625,-0.3132476806640625,0.1854248046875
1667824292718677500,11.626677490234375,-0.8553619384765625,-0.297332763671875,0.168548583984375
1667824292728685600,11.636685546875,-0.8842315673828125,-0.2787017822265625,0.15283203125
1667824292738693400,11.646693359375,-0.92791748046875,-0.269866943359375,0.1362762451171875
1667824292748701700,11.65670166015625,-0.9802398681640625,-0.2601470947265625,0.1183013916015625
1667824292758708500,11.66670849609375,-1.025726318359375,-0.2467193603515625,0.09613037109375
1667824292768716500,11.676716552734375,-1.0642852783203125,-0.230804443359375,0.063568115234375
1667824292778724400,11.686724365234374,-1.1058197021484375,-0.2121734619140625,0.036346435546875
1667824292788732400,11.696732421875,-1.1353302001953125,-0.193634033203125,0.012542724609375
1667824292798740700,11.70674072265625,-1.1528167724609375,-0.181396484375,-0.018798828125
1667824292808748500,11.71674853515625,-1.1663360595703125,-0.17230224609375,-0.046875
1667824292818756600,11.726756591796875,-1.1708984375,-0.1733551025390625,-0.0783233642578125
1667824292828763400,11.736763427734376,-1.1730194091796875,-0.1821136474609375,-0.1103973388671875
1667824292838771500,11.746771484375,-1.165130615234375,-0.1960906982421875,-0.1318511962890625
1667824292848779500,11.756779541015625,-1.1525115966796875,-0.21551513671875,-0.1531524658203125
1667824292858787600,11.76678759765625,-1.1422882080078125,-0.2372589111328125,-0.1764984130859375
1667824292868795600,11.776795654296874,-1.1363067626953125,-0.2608795166015625,-0.1949310302734375
1667824292878803500,11.786803466796876,-1.1344146728515625,-0.2909088134765625,-0.2104339599609375
1667824292888811500,11.7968115234375,-1.1460723876953125,-0.3226470947265625,-0.2263031005859375
1667824292898818600,11.806818603515625,-1.16473388671875,-0.3445281982421875,-0.2426910400390625
1667824292908826600,11.81682666015625,-1.1742095947265625,-0.3565826416015625,-0.2684478759765625
1667824292918834400,11.82683447265625,-1.176177978515625,-0.3571014404296875,-0.2986297607421875
1667824292928842500,11.836842529296876,-1.172332763671875,-0.34814453125,-0.3260040283203125
1667824292938850600,11.8468505859375,-1.1584320068359375,-0.332244873046875,-0.34991455078125
1667824292948858600,11.856858642578125,-1.1348419189453125,-0.311737060546875,-0.362060546875
1667824292958866700,11.86686669921875,-1.098907470703125,-0.290618896484375,-0.36090087890625
1667824292968874500,11.87687451171875,-1.0669403076171875,-0.2796783447265625,-0.34136962890625
1667824292978881500,11.886881591796875,-1.04437255859375,-0.2730255126953125,-0.3069915771484375
1667824292988889300,11.896889404296875,-0.9946136474609375,-0.2590484619140625,-0.27313232421875
1667824292998897700,11.906897705078125,-0.9399871826171875,-0.2447509765625,-0.237640380859375
1667824293008905500,11.916905517578124,-0.89422607421875,-0.2377471923828125,-0.2034759521484375
1667824293018913500,11.92691357421875,-0.8498382568359375,-0.236480712890625,-0.16656494140625
1667824293028921600,11.936921630859375,-0.8097381591796875,-0.243194580078125,-0.1264801025390625
1667824293038929400,11.946929443359375,-0.7744903564453125,-0.254913330078125,-0.09588623046875
1667824293048936700,11.956936767578124,-0.751800537109375,-0.2605133056640625,-0.0717620849609375
1667824293058944500,11.966944580078126,-0.738067626953125,-0.2622833251953125,-0.0530548095703125
1667824293068952600,11.97695263671875,-0.7225341796875,-0.266845703125,-0.0442657470703125
1667824293078960400,11.98696044921875,-0.713653564453125,-0.2743072509765625,-0.0404815673828125
1667824293088968400,11.996968505859375,-0.712371826171875,-0.2811279296875,-0.0435943603515625
1667824293098976500,12.0069765625,-0.719696044921875,-0.284454345703125,-0.0432281494140625
1667824293108984600,12.016984619140626,-0.736175537109375,-0.2891845703125,-0.0408172607421875
1667824293118991600,12.02699169921875,-0.7498321533203125,-0.2949676513671875,-0.049957275390625
1667824293128999400,12.03699951171875,-0.7535552978515625,-0.2920989990234375,-0.065460205078125
1667824293139007500,12.047007568359374,-0.7584075927734375,-0.276336669921875,-0.0793609619140625
1667824293149015600,12.057015625,-0.7682342529296875,-0.26116943359375,-0.0888824462890625
1667824293159023600,12.067023681640626,-0.77655029296875,-0.254730224609375,-0.07940673828125
1667824293169031700,12.07703173828125,-0.7976837158203125,-0.2659759521484375,-0.0527801513671875
1667824293179039500,12.08703955078125,-0.8085479736328125,-0.2900390625,-0.0307464599609375
1667824293189047600,12.097047607421874,-0.8115692138671875,-0.3000335693359375,-0.0151519775390625
1667824293199054600,12.1070546875,-0.818359375,-0.2972564697265625,-0.0120086669921875
1667824293209062700,12.117062744140625,-0.8248291015625,-0.2998046875,-0.0087432861328125
1667824293219070500,12.127070556640625,-0.8297882080078125,-0.31793212890625,-0.0068511962890625
1667824293229078500,12.13707861328125,-0.845428466796875,-0.3362274169921875,-0.005096435546875
1667824293239086600,12.147086669921874,-0.85955810546875,-0.3441925048828125,-0.007110595703125
1667824293249094400,12.157094482421876,-0.8699798583984375,-0.3418121337890625,-0.01995849609375
1667824293259102500,12.1671025390625,-0.8779449462890625,-0.337371826171875,-0.0369415283203125
1667824293269109500,12.177109619140625,-0.89239501953125,-0.3337249755859375,-0.0559234619140625
1667824293279117600,12.18711767578125,-0.9123687744140625,-0.328399658203125,-0.07421875
1667824293289125400,12.19712548828125,-0.937713623046875,-0.3256378173828125,-0.0898284912109375
1667824293299133400,12.207133544921875,-0.9564208984375,-0.3312225341796875,-0.0974884033203125
1667824293309141800,12.217141845703125,-0.970489501953125,-0.342010498046875,-0.100128173828125
1667824293319149600,12.227149658203125,-0.98504638671875,-0.3554840087890625,-0.106719970703125
1667824293329157600,12.23715771484375,-0.9958343505859375,-0.3588409423828125,-0.111663818359375
1667824293339164400,12.247164306640625,-0.999359130859375,-0.3582763671875,-0.1082916259765625
1667824293349172500,12.25717236328125,-1.0110015869140625,-0.36163330078125,-0.108154296875
1667824293359180500,12.2671806640625,-1.0315704345703125,-0.3657379150390625,-0.1055450439453125
1667824293369188600,12.277188720703125,-1.0457305908203125,-0.370941162109375,-0.10101318359375
1667824293379196700,12.28719677734375,-1.0645294189453125,-0.3719635009765625,-0.1064605712890625
1667824293389204500,12.29720458984375,-1.0869140625,-0.362213134765625,-0.11553955078125
1667824293399212500,12.307212646484375,-1.1064453125,-0.3443603515625,-0.1291046142578125
1667824293409219600,12.317219482421875,-1.123748779296875,-0.3197479248046875,-0.149017333984375
1667824293419227600,12.3272275390625,-1.12335205078125,-0.2879791259765625,-0.1743316650390625
1667824293429235500,12.3372353515625,-1.1192169189453125,-0.252044677734375,-0.202606201171875
1667824293439243500,12.347243408203125,-1.1117095947265625,-0.22039794921875,-0.2250213623046875
1667824293449251300,12.357251220703125,-1.0940093994140625,-0.1948394775390625,-0.236236572265625
1667824293459259400,12.36725927734375,-1.07623291015625,-0.1748504638671875,-0.2367706298828125
1667824293469267700,12.377267822265624,-1.051239013671875,-0.166229248046875,-0.23370361328125
1667824293479274500,12.3872744140625,-1.0239105224609375,-0.160491943359375,-0.2189788818359375
1667824293489282600,12.397282470703125,-0.98388671875,-0.16192626953125,-0.2018280029296875
1667824293499290400,12.407290283203125,-0.9468841552734375,-0.1718902587890625,-0.187835693359375
1667824293509298700,12.417298583984374,-0.9242095947265625,-0.1860809326171875,-0.173126220703125
1667824293519306500,12.427306396484376,-0.9004669189453125,-0.1971282958984375,-0.1646728515625
1667824293529314600,12.437314453125,-0.8866119384765625,-0.209075927734375,-0.1519775390625
1667824293539322600,12.447322509765625,-0.87310791015625,-0.2247161865234375,-0.144989013671875
1667824293549329400,12.457329345703124,-0.8543548583984375,-0.2352752685546875,-0.1448516845703125
1667824293559337700,12.467337646484374,-0.8491363525390625,-0.236907958984375,-0.1417083740234375
1667824293569345500,12.477345458984376,-0.853424072265625,-0.2452850341796875,-0.133209228515625
1667824293579353600,12.487353515625,-0.860595703125,-0.266082763671875,-0.1268310546875
1667824293589361400,12.497361328125,-0.8744354248046875,-0.284515380859375,-0.1188812255859375
1667824293599369500,12.507369384765624,-0.890228271484375,-0.29632568359375,-0.1153411865234375
1667824293609377500,12.51737744140625,-0.9052276611328125,-0.3030548095703125,-0.1121978759765625
1667824293619384600,12.527384521484375,-0.919464111328125,-0.306182861328125,-0.1135101318359375
1667824293629388300,12.53738818359375,-0.936859130859375,-0.303741455078125,-0.115753173828125
1667824293639396400,12.547396240234375,-0.9512939453125,-0.2945556640625,-0.11871337890625
1667824293649404200,12.557404052734375,-0.9644622802734375,-0.27935791015625,-0.1175384521484375
1667824293659412500,12.56741259765625,-0.9762420654296875,-0.2609710693359375,-0.109100341796875
1667824293669420300,12.577420166015624,-0.98583984375,-0.248687744140625,-0.096160888671875
1667824293679427300,12.58742724609375,-0.9801483154296875,-0.2391510009765625,-0.0827484130859375
1667824293689435100,12.59743505859375,-0.9615936279296875,-0.22528076171875,-0.0781097412109375
1667824293699443500,12.607443359375,-0.94268798828125,-0.20556640625,-0.0714263916015625
1667824293709451500,12.617451416015625,-0.92266845703125,-0.1905975341796875,-0.056793212890625
1667824293719459300,12.627459228515624,-0.902313232421875,-0.1900787353515625,-0.0433349609375
1667824293729467400,12.63746728515625,-0.8875274658203125,-0.20172119140625,-0.0334625244140625
1667824293739475200,12.64747509765625,-0.8723907470703125,-0.2100372314453125,-0.0166778564453125
1667824293749483300,12.657483154296875,-0.868682861328125,-0.2283935546875,-0.007232666015625
1667824293759490300,12.667490234375,-0.8607635498046875,-0.25018310546875,-0.0061798095703125
1667824293769498400,12.677498291015626,-0.8499298095703125,-0.2664947509765625,-0.00665283203125
1667824293779506400,12.68750634765625,-0.847381591796875,-0.2800140380859375,-0.0076446533203125
1667824293789514200,12.69751416015625,-0.8496551513671875,-0.294921875,-0.0088043212890625
1667824293799522300,12.707522216796875,-0.85430908203125,-0.3103485107421875,-0.0157318115234375
1667824293809530400,12.7175302734375,-0.8671875,-0.3233184814453125,-0.022705078125
1667824293819537400,12.727537353515626,-0.8894195556640625,-0.3321990966796875,-0.0286102294921875
1667824293829545200,12.737545166015625,-0.9043426513671875,-0.33673095703125,-0.038360595703125
1667824293839553300,12.74755322265625,-0.9129791259765625,-0.33648681640625,-0.047943115234375
1667824293849561300,12.757561279296874,-0.922821044921875,-0.329803466796875,-0.06121826171875
