time,seconds_elapsed,z,y,x
1667824622762721000,0.020720947265625,0.8901894285917281,-0.6255179169416427,0.522454286699742
1667824622772729000,0.03072900390625,0.8827917195558548,-0.6014771161407232,0.5442882251061498
1667824622782737200,0.040737060546875,0.8620441150814294,-0.6599778204262257,0.6229302385360003
1667824622792744200,0.050744140625,0.8653378959298134,-0.7282610830575227,0.644430414943397
1667824622802752300,0.060752197265625,0.8568149822562933,-0.8366922316819428,0.6452374935425818
1667824622812760000,0.070760009765625,0.9037567661732435,-0.9318693464577198,0.6922875601395965
1667824622822767400,0.080767333984375,0.9591279402613639,-0.9392118181750178,0.687654785772413
1667824622832775200,0.090775146484375,0.9844272166907787,-0.8940919889882206,0.5838986432217061
1667824622842783200,0.100783203125,0.9551233807951212,-0.8671887844935059,0.4668684469476342
1667824622852790000,0.1107900390625,0.898352861303091,-0.8911346004873514,0.3858335470318794
1667824622862798300,0.12079833984375,0.8972136281400919,-0.9524942013353109,0.3019473493382335
1667824622872805000,0.13080517578125,0.7979518743991851,-1.0533692354917525,0.2580386495068669
1667824622882813200,0.140813232421875,0.6911848595947027,-1.1960495674595235,0.1753178423307836
1667824622892821000,0.150821044921875,0.5990285539448261,-1.4053633490249513,-0.035654081705212594
1667824622902828300,0.160828369140625,0.3661012570798397,-1.5161878225266932,-0.21701617263630033
1667824622912836000,0.170836181640625,0.21733634450137615,-1.5460218197762965,-0.2587289698585868
1667824622922844200,0.18084423828125,0.16367022076547144,-1.5467960190191865,-0.30090836167931556
1667824622932850700,0.1908505859375,0.0860170722424984,-1.571502297991514,-0.3735305302977562
1667824622942858800,0.200858642578125,-0.012933131331205367,-1.5900728506878017,-0.4590355613648891
1667824622952866600,0.210866455078125,-0.03971241718530655,-1.5522992926105856,-0.6133019939690828
1667824622962873600,0.22087353515625,0.004847440031170845,-1.5537319557622074,-0.8415329497113824
1667824622972881700,0.230881591796875,0.060543023768067354,-1.5772273976400493,-1.0738085046693682
1667824622982889700,0.2408896484375,0.011788637471199036,-1.6150573620796203,-1.1879898873835801
1667824622992896500,0.250896484375,-0.2167231810390949,-1.6694035770341753,-1.106148054999113
1667824623002904600,0.260904541015625,-0.301547244104743,-1.6377584387093782,-0.8594108439683914
1667824623012911600,0.27091162109375,-0.2572059980750084,-1.5080702747836707,-0.5327151300817727
1667824623022919700,0.280919677734375,-0.12831015357077122,-1.4430606269955635,-0.3925216464936733
1667824623032927500,0.290927490234375,-0.10354513014853,-1.452022808869183,-0.37381343889236446
1667824623042934800,0.300934814453125,-0.14522212540507315,-1.403530580639839,-0.36948856143057346
1667824623052942600,0.310942626953125,-0.1763081685423851,-1.286072660472989,-0.364864116500318
1667824623062950700,0.32095068359375,-0.24276713835597036,-1.199612520638108,-0.47144116169065237
1667824623072957400,0.33095751953125,-0.20305004499554632,-1.0928741474062205,-0.5489046328604221
1667824623082965500,0.340965576171875,-0.019214403557777402,-0.9459028402462601,-0.5116296719551087
1667824623092973800,0.350973876953125,-0.0358498965382576,-0.8100140681147575,-0.5386345832586288
1667824623102980600,0.360980712890625,-0.22707389466166494,-0.7931511961191892,-0.5280822095841169
1667824623112988700,0.37098876953125,-0.33764848505556583,-0.8362395194783806,-0.46796121062040325
1667824623122995700,0.38099560546875,-0.2913461680859327,-0.8865478572189808,-0.39441900454759593
1667824623133003800,0.391003662109375,-0.18553660013675688,-0.9508201306432486,-0.3451391330718994
1667824623143011600,0.401011474609375,-0.4008873237788677,-0.7159665418908,-0.2688993584781885
1667824623153018600,0.4110185546875,-0.6827437789857387,-0.9042366586446762,-0.17528116358220577
1667824623163026700,0.421026611328125,-0.1501519830226898,-1.3186539106041193,-0.24283728098273274
1667824623173034800,0.43103466796875,0.1755927137494087,-0.9226651725217699,-0.3939654155611992
1667824623183041500,0.44104150390625,0.32024551483392716,-0.6851330122098326,-0.5794312885493039
1667824623193049600,0.451049560546875,0.4757330136656761,-0.8621136731863022,-0.6240531050860881
1667824623203057400,0.461057373046875,0.6571323678672313,-0.9338292483538388,-0.41028351315557954
1667824623213064700,0.471064697265625,0.5473696783781051,-0.8569248723715543,-0.3998240784615278
1667824623223072500,0.481072509765625,0.10486322700977325,-0.8400006255775689,-0.7334083828181028
1667824623233080600,0.49108056640625,-0.11398410657644271,-0.5763596260190009,-1.3763736936450004
1667824623243087600,0.501087646484375,-0.22339608293175697,-0.10813275019973516,-0.4032762647420168
1667824623253095700,0.511095703125,-0.7874234661221504,0.015499182426929473,-0.19943769971728323
1667824623263102500,0.5211025390625,-1.749799010002613,-0.08859159890562296,-0.018902268868684766
1667824623273110500,0.531110595703125,-1.6238661069571971,-0.6613081922471523,0.21864567353427408
1667824623283118800,0.541118896484375,-0.4697516011685133,-0.9577852934807538,0.4648381101638078
1667824623293125600,0.551125732421875,-0.31033260810673235,-0.4730772384598851,0.8244581885308027
1667824623303133700,0.5611337890625,-1.2057084994256495,0.02501987496614456,0.6022972003519534
1667824623313141500,0.5711416015625,-2.155025824290514,0.16992197463661432,-0.3216378459751606
1667824623323148800,0.581148681640625,-2.1739918060451746,0.3535363745391369,-1.1807581825643778
1667824623333156600,0.591156494140625,-1.2307348041325807,0.8975073503896593,-1.0531424409985541
1667824623343164700,0.60116455078125,-1.1409990036278963,1.2734288674771785,-0.621194208523631
1667824623353171700,0.611171630859375,-0.6407242539018392,1.1879413720667362,0.5575713389188051
1667824623363179800,0.6211796875,1.4461626846641302,1.5091317665353416,1.774808655835688
1667824623373186600,0.6311865234375,3.7504958578467367,1.9127865092009304,0.7772828881189227
1667824623383194600,0.641194580078125,3.5085318525671956,1.6568027463972568,0.22517273721545933
1667824623393202400,0.651202392578125,2.064250159344077,1.1676985022440551,0.1184396246805787
1667824623403209700,0.661209716796875,0.6717167735368013,0.8979019026651978,-0.6857327316686511
1667824623413217500,0.671217529296875,-0.3259861043125391,0.8435457508385181,-1.2493132478743791
1667824623423225600,0.6812255859375,-0.43444764807522296,0.8841948643520474,-0.9371084161549806
1667824623433232600,0.691232666015625,0.054818800902366634,1.0088663691595197,-0.45572570616453884
1667824623443240700,0.70124072265625,0.7401824069976807,1.3129621287032962,-0.5011228909879922
1667824623453248500,0.71124853515625,1.370180684223771,1.5087202631250023,-0.6177972595617175
1667824623463255600,0.721255615234375,1.674362953007221,1.5199471750602125,-0.5414116467565298
1667824623473263600,0.731263671875,1.6121435204595327,1.3665373592853545,-0.32723668889552354
1667824623483270700,0.741270751953125,1.4457646252572536,0.9864227744221686,-0.18623510379493236
1667824623493278500,0.751278564453125,1.2819196324467659,0.7274222941458225,-0.3181356830731034
1667824623503286500,0.76128662109375,1.0988245802432297,0.7419213596194982,-0.56701779717803
1667824623513293600,0.77129345703125,0.9956810166329145,0.8298363744378089,-0.6427078289344906
1667824623523301600,0.781301513671875,0.8872510370522737,0.8609288473159075,-0.6645157561168075
1667824623533309700,0.791309814453125,0.839726484811306,0.8670651581138372,-0.7233832478880882
1667824623543316500,0.80131640625,0.8095435279935598,0.9108575380891561,-0.7012135016560554
1667824623553324800,0.81132470703125,0.545351908814907,0.8220295000791549,-0.303087751545012
1667824623563332600,0.82133251953125,0.12552139963507652,0.5314508092343807,0.32238837208151816
1667824623573339600,0.831339599609375,-0.016463059023022652,-0.00020867431461811065,0.8023284820482134
1667824623583347500,0.841347412109375,-0.01769698473215103,-0.6354179641872644,1.0591486956760288
1667824623593355800,0.851355712890625,-0.17796061192452906,-1.1963947276353835,1.2798553933933376
1667824623603362600,0.861362548828125,-0.5755354501545429,-1.4271212995856999,1.347664608772099
1667824623613370600,0.87137060546875,-0.9233943635791539,-1.285964523923397,1.3372145264282822
1667824623623378400,0.88137841796875,-1.0998246971964836,-0.8798848921984433,1.2867469064727426
1667824623633385700,0.8913857421875,-1.1856430319964886,-0.4209697423428297,1.1325681521520017
1667824623643393500,0.9013935546875,-1.1220108100414274,-0.10477613324820995,0.8404977614447474
1667824623653400600,0.911400634765625,-0.986108886167407,0.1241536184132099,0.4814741876661777
1667824623663408600,0.92140869140625,-0.8055518280088901,0.3980944781899452,0.14827216062545776
1667824623673416700,0.931416748046875,-0.7407704360187053,0.6181704767882824,-0.06795286163315177
1667824623683423500,0.941423583984375,-0.8691612536102533,0.682068071681261,-0.17163184729442
1667824623693431600,0.951431640625,-0.8192465913623571,0.7459788183167576,-0.2942861670605838
1667824623703439600,0.961439697265625,-0.5066740953743457,0.8820315488383174,-0.4304753834433853
1667824623713446700,0.97144677734375,-0.3380149802803993,1.055326799300313,-0.5121275384746492
1667824623723454700,0.981454833984375,-0.2803635863006115,1.1021136849164963,-0.5029720259860158
1667824623733462500,0.991462646484375,-0.1004255368232727,0.9477592817679047,-0.5669114141941071
1667824623743469800,1.0014697265625,0.09313070363998413,0.6797776226565242,-0.5489017102509737
1667824623753477600,1.0114775390625,0.26853110968768595,0.36717297796458004,-0.46106239101737734
1667824623763484700,1.021484619140625,0.2635971604168415,0.034223464380204675,-0.39462373333945866
1667824623773492500,1.031492431640625,0.22513795816302298,-0.24423574960380792,-0.4201766922689974
1667824623783500500,1.04150048828125,0.3976315368533134,-0.37058278640806674,-0.4768576337814331
1667824623793507600,1.051507568359375,0.5264852957814932,-0.37664515518695113,-0.4716726323589682
1667824623803515600,1.061515625,0.5180412925630807,-0.46744478553086516,-0.40306992851495743
1667824623813523500,1.0715234375,0.49683717649281023,-0.659154813605547,-0.32108138113617896
1667824623823530800,1.08153076171875,0.2580290048956871,-0.8978209463834762,-0.2247580189347267
1667824623833538600,1.09153857421875,-0.0598006809681654,-1.0462985664531588,-0.33324572005197406
1667824623843546600,1.101546630859375,0.02422258710861206,-0.8868854186102747,-0.685140757124871
1667824623853553400,1.111553466796875,0.10749649812281131,-0.5295598809212446,-0.913277604842931
1667824623863561700,1.121561767578125,-0.16302549312114714,-0.3307274536207318,-0.8579317113265394
1667824623873568500,1.131568603515625,-0.38626609323024746,-0.4736901096612215,-0.7782379968866705
1667824623883576600,1.14157666015625,-0.38775720857083795,-0.6866437090337276,-0.7449689106218517
1667824623893584600,1.151584716796875,-0.41214989154934883,-0.7470420636340975,-0.7156409631982446
1667824623903591700,1.161591796875,-0.5187678532719612,-0.6955860171630979,-0.6894425459720194
1667824623913599700,1.171599853515625,-0.39113808318078513,-0.47186494006067514,-0.8758591438136994
1667824623923607600,1.181607666015625,-0.1435387023627758,-0.09495178158730268,-1.0806687458276747
1667824623933615000,1.191614990234375,-0.12377660179436206,0.17204057422578334,-1.077250900208205
1667824623943623200,1.201623046875,-0.23246026387512683,0.13007424063384532,-0.9712966630913317
1667824623953631200,1.21163134765625,-0.2740536725014448,-0.09802548994421958,-0.8818623297512531
1667824623963638000,1.221637939453125,-0.189775552880764,-0.20969284401088953,-0.8360593406058847
1667824623973646000,1.23164599609375,-0.054687283477187154,-0.11779723512381314,-0.8281403841748833
1667824623983653000,1.241653076171875,0.08575403739213942,0.07635083375275134,-0.8481579208090901
1667824623993661200,1.2516611328125,0.187427528449893,0.35152123532444235,-0.9261844326891004
1667824624003669200,1.261669189453125,0.38204526066482064,0.6799909731462598,-1.038591937598586
1667824624013676300,1.27167626953125,0.6315577816277742,0.9640835168421268,-1.0856943189047277
1667824624023684400,1.281684326171875,0.7549678881973028,1.1243503589048982,-1.035496017409861
1667824624033692200,1.291692138671875,0.8303530917882919,1.1682260332494974,-0.9453921142451465
1667824624043699200,1.30169921875,0.9434043014287948,1.1691320421785116,-0.8606634743779897
1667824624053707000,1.31170703125,1.1128870078653097,1.199514320960641,-0.8132800841733813
1667824624063715300,1.32171533203125,1.1690174758881329,1.2169395030140877,-0.724064215889573
1667824624073722000,1.33172216796875,1.213096856111288,1.2151122875869274,-0.6424521006077527
1667824624083730200,1.341730224609375,1.3367185596048832,1.269190499255061,-0.6460591851890086
1667824624093738000,1.351738037109375,1.339747552037239,1.3295435534089803,-0.5316871022082865
1667824624103745300,1.361745361328125,1.296988606762886,1.2651438542127609,-0.2706090850055218
1667824624113753000,1.371753173828125,1.2470055554538964,1.0938561441808938,0.029969314067065714
1667824624123760000,1.381760009765625,1.1579682586073874,0.9346592694371938,0.29929917291700836
1667824624133768200,1.391768310546875,1.1066320391237736,0.9735054251819848,0.49754064858704805
1667824624143776300,1.4017763671875,1.1019289759993554,0.8282844688206911,0.8110634310372173
1667824624153783000,1.411782958984375,1.098587264356017,0.5305705192685127,0.9023753948174417
1667824624163791000,1.421791015625,0.9485054239600896,0.5203536611586809,0.8865209692120551
1667824624173799200,1.431799072265625,0.9246621915578842,0.7924433401107788,1.009925961215049
1667824624183806200,1.44180615234375,1.0481044468313454,1.099238421741128,1.0729245614416896
1667824624193814300,1.451814208984375,1.1172586470782757,1.2300883229225874,1.0319742730244994
1667824624203822000,1.461822021484375,1.2219324889957903,1.271652505454421,0.9830132582396268
1667824624213829400,1.471829345703125,1.3724609041154383,1.3471376622885465,0.9946835300281643
1667824624223837200,1.481837158203125,1.4732412457257509,1.4942431172221897,1.0380069773174823
1667824624233845200,1.49184521484375,1.546233416700363,1.604850440841913,1.1268230326287447
1667824624243852000,1.50185205078125,1.6171154636532068,1.6441916866272688,1.2624809186138213
1667824624253860400,1.5118603515625,1.5943740550130605,1.6425971109122037,1.4017432588316499
1667824624263867100,1.5218671875,1.6132728167504071,1.6600737308919429,1.537062706642598
1667824624273875200,1.531875244140625,1.6752765607208013,1.66882577714622,1.6470435689270495
1667824624283883000,1.541883056640625,1.6699322770833969,1.6082453439772129,1.7747157168552279
1667824624293890300,1.551890380859375,1.6649457208424805,1.4696622181952,1.942332191028446
1667824624303898000,1.561898193359375,1.6426672535389661,1.2675298725664614,2.107795871081948
1667824624313906200,1.57190625,1.5512749179989098,1.0304565619379282,2.3122918771021066
1667824624323913200,1.581913330078125,1.4457359836846588,0.7356845110565423,2.533358786433935
1667824624333921300,1.59192138671875,1.351685242590308,0.40454000106751914,2.7863293388962744
1667824624343929000,1.60192919921875,1.2223913386791945,0.07112988423407077,3.017508623050153
1667824624353936100,1.61193603515625,1.0080343022495508,-0.19047171845138072,3.2119857777506113
1667824624363944000,1.62194384765625,0.726675275170803,-0.4100684091001749,3.376026585394144
1667824624373952300,1.6319521484375,0.49894496242702,-0.633958413028717,3.501071599689126
1667824624383959000,1.641958984375,0.28479660031199455,-0.8275695985496043,3.5737305931866166
1667824624393967000,1.651967041015625,0.011824293306469917,-0.9396803124696016,3.581695288455486
1667824624403974100,1.66197412109375,-0.16995032394826412,-1.0207909079700708,3.548963231676817
1667824624413982200,1.671982177734375,-0.29250936664640903,-1.1028723943293095,3.550503446856141
1667824624423990300,1.681990234375,-0.41231297315657134,-1.2005857495844363,3.6090041511416433
1667824624433997000,1.6919970703125,-0.5967103401303291,-1.3969050250202417,3.812889477917552
1667824624444005400,1.70200537109375,-0.9030237757235765,-1.7395567251905797,4.024013523775339
1667824624454013200,1.71201318359375,-1.2852654357433317,-2.0858687014341353,4.140603136675059
1667824624464020200,1.722020263671875,-1.8094319331884383,-2.310429151970148,4.184448415881395
1667824624474028000,1.732028076171875,-2.3861826043516396,-2.5045158460482955,4.11920963551253
1667824624484035300,1.742035400390625,-2.8461189139485357,-2.678763574929535,3.907455767318606
1667824624494043100,1.752043212890625,-2.9982658701807257,-2.82065304878056,3.5041236807361242
1667824624504051200,1.76205126953125,-2.851491839158535,-2.7765283681109545,2.8884157946690916
1667824624514058200,1.772058349609375,-2.751875280630588,-2.3673572001114485,2.210896033941954
1667824624524066300,1.78206640625,-2.700942381250858,-1.8924097838655114,1.5441642092108725
1667824624534074000,1.79207421875,-2.5446488267332312,-1.6096148787647484,0.8339321193188428
1667824624544081200,1.8020810546875,-2.2935317931830883,-1.4709911287114024,0.15144421479031442
1667824624554089000,1.8120888671875,-2.051157453536987,-1.4949585720151661,-0.4802611586146056
1667824624564097300,1.82209716796875,-1.8211060043692588,-1.6504012087918818,-0.8583134041205048
1667824624574104000,1.83210400390625,-1.4764268900245427,-1.7693411842100322,-0.9924670230224728
1667824624584112000,1.842112060546875,-1.0752274315565824,-1.8091338270246982,-1.1770483682610093
1667824624594120200,1.8521201171875,-0.623305501589179,-1.7842882857121527,-1.4078268165290355
1667824624604127200,1.862127197265625,-0.12914601987302302,-1.631974448480457,-1.5303748994417488
1667824624614135300,1.87213525390625,0.19744155746400355,-1.4463717973701655,-1.4759784156046807
1667824624624143000,1.88214306640625,0.4096463842958212,-1.239703854138404,-1.4240423305317758
1667824624634150100,1.892150146484375,0.7439046423912048,-1.0419469471149145,-1.4385263445667922
1667824624644158200,1.902158203125,1.0515116249263285,-0.8803430112294852,-1.4401893093429505
1667824624654165200,1.912165283203125,1.2368600090146065,-0.7410574362665414,-1.3866472503781317
1667824624664173000,1.922173095703125,1.3352268597424028,-0.6891741042941808,-1.284404288869351
1667824624674181000,1.93218115234375,1.5294874490827322,-0.6601707126498222,-1.1818319492757319
1667824624684188200,1.942188232421875,1.7409090165823697,-0.561116756440699,-1.0525938672050834
1667824624694196200,1.9521962890625,1.795112900456786,-0.4504334449753165,-0.7953660956896841
1667824624704204000,1.9622041015625,1.8237737622737884,-0.4442603092983365,-0.6271677299752831
1667824624714211300,1.97221142578125,1.834082390320301,-0.3860550808280706,-0.5183512352950871
1667824624724219100,1.98221923828125,1.864966773405671,-0.33575317282825706,-0.40633083000704645
1667824624734227200,1.992227294921875,1.8042986619532106,-0.34662527997642756,-0.3504223341718316
1667824624744234000,2.00223388671875,1.609572793188691,-0.27830226985663176,-0.3272418034620583
1667824624754242300,2.0122421875,1.5577794775873421,-0.05508534288406372,-0.34238325849249956
1667824624764250400,2.02225048828125,1.5490490586429833,0.204938050699234,-0.3093317605011165
1667824624774257200,2.032257080078125,1.4088064752161502,0.3158616006612778,-0.23012480666488408
1667824624784265000,2.042264892578125,1.2561942395597696,0.2846563150584698,-0.2503708913579583
1667824624794272300,2.052272216796875,1.229098727363348,0.3365224036350846,-0.46371275939568873
1667824624804280000,2.062280029296875,1.2046551909804344,0.5273071335583925,-0.5562997115477919
1667824624814288100,2.0722880859375,1.0804857904762029,0.594823211209476,-0.5018601192213594
1667824624824295200,2.082295166015625,0.9196019855588674,0.4418351279780268,-0.4144897326737642
1667824624834303200,2.09230322265625,0.8140712345510721,0.26108839246630666,-0.359282224714756
1667824624844311300,2.102311279296875,0.8358458439856767,0.2003872555270791,-0.45586584528759116
1667824624854318000,2.112318115234375,0.9689864864528178,0.2943807134762406,-0.6257866508804262
1667824624864326100,2.122326171875,0.853814631396532,0.37902415927797556,-0.6260585996896029
1667824624874334200,2.132334228515625,0.7448568285495042,0.2980079640626907,-0.5686386763781309
1667824624884341200,2.14234130859375,0.6925023719340563,0.16689064411669968,-0.6041545186564325
1667824624894349000,2.15234912109375,0.5343085367530584,0.04262538202255964,-0.6756266404569149
1667824624904356400,2.1623564453125,0.24977672485709188,-0.08481734106391668,-0.6874661313325167
1667824624914364200,2.1723642578125,-0.017530395993590353,-0.29500469059348106,-0.8472235625684261
1667824624924372200,2.182372314453125,-0.38225159689188,-0.41695232339501376,-1.0493909795105456
1667824624934378500,2.19237841796875,-0.7876683807939291,-0.43851329007893797,-1.1287196600303053
1667824624944386600,2.202386474609375,-1.1259417197495698,-0.4687830483973026,-1.203710311345756
1667824624954394400,2.212394287109375,-1.3690940580308437,-0.46055473375618455,-1.452781810542941
1667824624964401400,2.2224013671875,-1.4698936888635157,-0.2572790633112192,-1.8037468732893467
1667824624974409200,2.2324091796875,-1.4145821360081434,0.16727525952011346,-2.262949900175631
1667824624984417500,2.24241748046875,-1.3793839813768862,0.6912000571638345,-2.6630598098412155
1667824624994424300,2.25242431640625,-1.2848504252016544,1.0968798759162426,-2.9013144392088055
1667824625004432400,2.262432373046875,-1.0673363860458136,1.2751625594019889,-3.0510163403764365
1667824625014440200,2.272440185546875,-0.8322808449804783,1.2905009983092546,-3.0756884248182175
1667824625024447500,2.282447509765625,-0.6630705257445574,1.1720414998844266,-3.0268443144112824
1667824625034455300,2.292455322265625,-0.4986322432160377,0.9394418275386095,-2.905061516782641
1667824625044462300,2.30246240234375,-0.3698205698639154,0.6651026160940527,-2.7116078599110245
1667824625054470400,2.312470458984375,-0.2551765380740166,0.4407897105783224,-2.4702625710517165
1667824625064478500,2.322478515625,-0.07035247012078762,0.3115487058982253,-2.1930834600061178
1667824625074485200,2.3324853515625,0.0375491016715765,0.1896080873593688,-1.8575412995800376
1667824625084493300,2.342493408203125,-0.008779518783092499,0.038079847547411914,-1.488037540580332
1667824625094501400,2.35250146484375,-0.08742226286530494,-0.024712416452169417,-1.1615320885688065
1667824625104508400,2.36250830078125,-0.267055776438117,-0.009874036021530627,-0.9709969494923949
1667824625114516500,2.3725166015625,-0.5398550649642944,0.018321546371281146,-0.9093002256445586
1667824625124524300,2.382524169921875,-0.6961866134047507,0.06841536457836628,-0.8946624823525547
1667824625134531600,2.392531494140625,-0.6982634196788072,0.1915288262888789,-0.9456482809633016
1667824625144539400,2.402539306640625,-0.6959171488136052,0.403566772121191,-1.0399221632890403
1667824625154547500,2.41254736328125,-0.688963091892004,0.7107406239360571,-1.184378565018624
1667824625164554200,2.42255419921875,-0.5767267057657242,1.058238010571897,-1.300493546143919
1667824625174562600,2.4325625,-0.3369219243466854,1.4074439546912907,-1.3993261146873235
1667824625184569300,2.4425693359375,-0.062194298106431956,1.6954200618222355,-1.5358837259911
1667824625194577400,2.452577392578125,0.24447452679574488,1.864918258088827,-1.6063282583095133
1667824625204585200,2.462585205078125,0.6357207465261221,1.893575905035436,-1.5164887051694094
1667824625214592500,2.472592529296875,0.9883698168367147,1.7136261651203035,-1.2914118295438586
1667824625224600300,2.482600341796875,1.3055658809721469,1.3520464771181344,-0.9347530852004885
1667824625234608400,2.4926083984375,1.5796365046083927,0.9497104158356785,-0.5112886034324765
1667824625244615400,2.502615478515625,1.8144892165780067,0.6164598734781146,-0.1276585577942431
1667824625254623500,2.51262353515625,1.907127168264985,0.3603799568235874,0.24344335711710152
1667824625264631600,2.522631591796875,1.8674170891672373,0.11661270151436329,0.6221097889985889
1667824625274638300,2.532638427734375,1.779002892655134,-0.1238593116417527,0.9484723254080861
1667824625284646400,2.542646484375,1.6504723743319512,-0.32857407497912644,1.121736084753275
1667824625294654500,2.552654541015625,1.4619927064806222,-0.4943295775860548,1.266395023317635
1667824625304661500,2.56266162109375,1.2427449753999709,-0.6203726630076766,1.3876995359100401
1667824625314669300,2.57266943359375,0.9939753817588091,-0.7139791674658655,1.3786087592206895
1667824625324677400,2.582677490234375,0.7197147885084152,-0.7411866156041622,1.2598890024244784
1667824625334684400,2.592684326171875,0.3027659722447395,-0.6664148677363991,1.1734246978711336
1667824625344692500,2.6026923828125,-0.2138356429040432,-0.5676441123828292,1.144364826799184
1667824625354699300,2.61269921875,-0.7532377034038304,-0.48506256754696364,1.1631557442478835
1667824625364707600,2.62270751953125,-1.2445119850724935,-0.36792291954904793,1.127527016179636
1667824625374715400,2.63271533203125,-1.608599564242363,-0.2120131036520004,1.0541711995244025
1667824625384722400,2.642722412109375,-1.9294746091514825,-0.06573942336738109,1.042390745359659
1667824625394730200,2.652730224609375,-2.17761876437068,-0.042866497302055356,1.077695940561965
1667824625404738300,2.66273828125,-2.1313801602870224,0.05694996771216392,1.063024879522249
1667824625414745300,2.672745361328125,-2.163302654248476,0.21665683780461548,1.1056540609370917
1667824625424753400,2.68275341796875,-1.9741747516214847,0.3098112145811319,1.2437867395378648
1667824625434761500,2.692761474609375,-1.7449398795336484,0.285979964877665,1.4236545002579688
1667824625444768500,2.7027685546875,-1.4896370847314595,0.2137324747905135,1.5836594765141605
1667824625454776600,2.712776611328125,-1.114960307008028,0.21297581120431422,1.7690856020137666
1667824625464784400,2.722784423828125,-0.7540624637901783,0.21486615499556064,1.930975076842308
1667824625474791400,2.73279150390625,-0.3814800279974937,0.15861732129007577,2.1007935911044475
1667824625484799500,2.742799560546875,0.03699672848582267,0.10558891093581914,2.2391068139038977
1667824625494806500,2.752806640625,0.3804045077204704,0.08407587504684924,2.3388190878912805
1667824625504814300,2.762814453125,0.6212088215708732,0.027570143970847127,2.4530229746982455
1667824625514822400,2.772822509765625,0.8083505188167095,-0.0811801536053419,2.572842655560374
1667824625524829400,2.782829345703125,0.927474910891056,-0.13225421502143145,2.6839050294712186
1667824625534837500,2.79283740234375,0.9771779762148857,-0.11417203036397695,2.752905792722106
1667824625544845300,2.80284521484375,0.9821429051458835,-0.12642302464991806,2.80321617628932
1667824625554852600,2.8128525390625,0.956302361446619,-0.21894202613234517,2.8824539636552333
1667824625564860400,2.8228603515625,0.9303063349246978,-0.3128010440468788,2.9358804334163664
1667824625574868500,2.832868408203125,0.9349117828935384,-0.3737912270605564,2.855544621680677
1667824625584875300,2.842875244140625,0.8536655783146619,-0.3903478095859289,2.7622058282479642
1667824625594883300,2.85288330078125,0.6795663179934024,-0.4387786630168557,2.784608214192092
1667824625604891400,2.862891357421875,0.4388029206752777,-0.5616001560434699,2.7649022277250883
1667824625614898400,2.8728984375,0.22019524106383323,-0.6457254231899976,2.646803379306197
1667824625624906200,2.88290625,0.020983751317858696,-0.698340284307301,2.5142194939389824
1667824625634913500,2.89291357421875,-0.2667132466107607,-0.7640288542702793,2.4858166985362766
1667824625644921300,2.90292138671875,-0.6700830348551273,-0.8688505802258849,2.5104963817626236
1667824625654929400,2.912929443359375,-1.1018126561433077,-1.0841329148069023,2.4982936105325817
1667824625664936200,2.922936279296875,-1.5506161618292331,-1.2395990785896778,2.4086019414305686
1667824625674944500,2.932944580078125,-1.9613065022200344,-1.2039753920227287,2.270777525061369
1667824625684952600,2.94295263671875,-2.361972292202711,-1.019555813217163,2.0506055187426506
1667824625694959400,2.95295947265625,-2.6892086888372897,-0.7965421537317335,1.7705800783552228
1667824625704967400,2.962967529296875,-2.7963556428700684,-0.6148597448050975,1.4966183219209312
1667824625714975200,2.972975341796875,-2.7503718903303143,-0.4352713855482638,1.1901154281701891
1667824625724982500,2.982982421875,-2.589335525199771,-0.23993878306224942,0.870247295281291
1667824625734990300,2.992990234375,-2.339610238268971,-0.07843699237704277,0.49352396029159423
1667824625744998400,3.002998291015625,-1.957967128664255,-0.048422962385416025,0.06108114923276007
1667824625755005400,3.01300537109375,-1.5770663618594407,-0.15127017339766025,-0.33770598739646374
1667824625765013500,3.023013427734375,-1.2507833204269407,-0.34616087733507156,-0.6184898449357599
1667824625775020300,3.033020263671875,-0.9631950435698032,-0.6557404751174152,-0.8348044451739639
1667824625785028400,3.0430283203125,-0.7972089470773935,-1.045510923206806,-1.0377239956576376
1667824625795036400,3.053036376953125,-0.6359264982312918,-1.4535140703402458,-1.2408753821358085
1667824625805043500,3.06304345703125,-0.4654460129290819,-1.7366450755275784,-1.4047865720503032
1667824625815051300,3.07305126953125,-0.33854455711245535,-1.8360441919125616,-1.5003427492715418
1667824625825059300,3.083059326171875,-0.20528116504848,-1.8416051870405672,-1.5647294428557157
1667824625835066400,3.09306640625,-0.017132921108603476,-1.812092822960764,-1.597493356077373
1667824625845074400,3.103074462890625,0.1776671819359064,-1.7555827079705892,-1.5691082424618303
1667824625855082500,3.11308251953125,0.35639936275482176,-1.662788835069537,-1.5386016066476702
1667824625865089500,3.123089599609375,0.5323147325873374,-1.5522497543804346,-1.5625873162604869
1667824625875097600,3.13309765625,0.7829197249621153,-1.4043774067275225,-1.5969985582977533
1667824625885105400,3.14310546875,1.0252993253052234,-1.2101447283074258,-1.5609271279633044
1667824625895112400,3.153112548828125,1.2261790405243636,-1.1091505978159606,-1.37915309523046
1667824625905120300,3.163120361328125,1.3430097687035798,-1.1372514876626432,-1.1310136161863804
1667824625915128600,3.173128662109375,1.4370570026665925,-1.1717317032828927,-0.8934175237927585
1667824625925135400,3.18313525390625,1.6290128221958875,-1.168442890870571,-0.7277317984864116
1667824625935146800,3.193146728515625,1.747648553970456,-1.1105486280456185,-0.5696449673438444
1667824625945154000,3.203154052734375,1.8599241030633449,-1.0494031083397566,-0.4452744913095608
1667824625955161900,3.213161865234375,1.9457167189002036,-0.9766799635648726,-0.3970558558572084
1667824625965170000,3.223169921875,1.9419944835066794,-0.8936123887777327,-0.3582093347862363
1667824625975176700,3.2331767578125,1.8966957906216382,-0.8105848537400364,-0.28324736157599834
1667824625985185000,3.24318505859375,1.8246762640714644,-0.7216743981435895,-0.27706447168998416
1667824625995193000,3.253193115234375,1.8077023329168558,-0.5566723442524671,-0.4009655401142314
1667824626005200000,3.263199951171875,1.7518173640877008,-0.304022109785676,-0.3918353081973269
1667824626015208000,3.2732080078125,1.5733908882170915,-0.11807605206519364,-0.290482610059157
1667824626025215700,3.2832158203125,1.4295540796905755,-0.08656944542825222,-0.258086836030148
1667824626035223000,3.29322314453125,1.3759797258913515,-0.10200023879408836,-0.24961943366983905
1667824626045230800,3.30323095703125,1.2994775009691715,-0.12789660433381794,-0.1678615349754691
1667824626055239000,3.313239013671875,1.1153922686845064,-0.20619477276206016,-0.08565353615973144
1667824626065246000,3.323245849609375,0.8847516214519738,-0.26833149546235796,-0.0798231495058164
1667824626075254000,3.33325390625,0.7499860081315041,-0.2223687857106328,-0.18034038320053367
1667824626085261800,3.34326171875,0.5524877520442009,-0.08240385018140077,-0.33768041456378994
1667824626095268900,3.353268798828125,0.28286943164169787,0.04701163428276777,-0.42674423409104345
1667824626105277000,3.36327685546875,-0.025879706665873525,0.08844692973792552,-0.45669878898039457
1667824626115284000,3.373283935546875,-0.37605449581742284,0.0948898222669959,-0.534162844672054
1667824626125291800,3.383291748046875,-0.6552361788570881,0.12582272066920994,-0.6332479997370392
1667824626135299800,3.3932998046875,-0.8778250370591878,0.16968991944640874,-0.771969364945963
1667824626145307000,3.403306884765625,-1.1266454841047524,0.21477759992927312,-0.8817006363835185
1667824626155315000,3.41331494140625,-1.3760937076598405,0.33424890574514865,-1.0181126286715267
1667824626165323000,3.423322998046875,-1.5201970581680535,0.5671618818238378,-1.2111240947335957
1667824626175330000,3.433330078125,-1.4908201570361852,0.8035179840937257,-1.4548080556735397
1667824626185338000,3.443338134765625,-1.3902601801782846,0.9586243746533989,-1.6948546830244362
1667824626195346000,3.453345947265625,-1.2673504243463276,1.0395756879389286,-1.9080742398567496
1667824626205353000,3.46335302734375,-1.040676927179098,1.0796028701618312,-2.046268220190704
1667824626215360800,3.47336083984375,-0.7533814957886934,1.1034916952714324,-2.1363025652505456
1667824626225369000,3.483369140625,-0.3988046722859144,1.1464499625101685,-2.1814316006571053
1667824626235375900,3.4933759765625,-0.024248890593647956,1.1370707242682576,-2.169378174769878
1667824626245384000,3.503384033203125,0.33179508285224435,1.0367769971311092,-2.1705340668067334
1667824626255391000,3.513390869140625,0.616731383895874,0.8591463478133082,-2.0661377266563474
1667824626265399000,3.52339892578125,0.7389753692954778,0.601880436244607,-1.930229226911068
1667824626275406800,3.53340673828125,0.7213759997189044,0.3219721924960613,-1.8153576699756084
1667824626285414000,3.543413818359375,0.7160732171356677,0.03584843523353338,-1.7417818538941443
1667824626295422000,3.553421875,0.6997679790228605,-0.2214756362631917,-1.6159785685777663
1667824626305430000,3.563429931640625,0.5798170729964971,-0.43508214658647776,-1.3745137449920177
1667824626315436800,3.573436767578125,0.4145569526910782,-0.6163990832015872,-1.1154783395327628
1667824626325444900,3.58344482421875,0.13889701403677462,-0.6709399439454078,-0.9320638461165129
1667824626335452700,3.59345263671875,-0.2643763280957937,-0.5560618111386895,-0.8308233396485447
1667824626345460000,3.6034599609375,-0.5250485409766436,-0.40986411869972944,-0.7227376434609294
1667824626355467800,3.6134677734375,-0.6428180113106966,-0.3154726013436913,-0.6414955305352806
1667824626365475800,3.623475830078125,-0.7184510521829128,-0.24071663556694983,-0.6097584761433303
1667824626375483000,3.63348291015625,-0.7116700137406587,-0.03180997349768877,-0.6326993528783321
1667824626385491000,3.643490966796875,-0.6342816536337137,0.32971418492496013,-0.6687423608358949
1667824626395499000,3.6534990234375,-0.4725742573738098,0.7171361701920628,-0.7024120637908577
1667824626405505800,3.663505859375,-0.269167069503665,1.017144368161261,-0.7112478428058325
1667824626415514000,3.67351416015625,0.025566987454891204,1.1428183280095456,-0.6461626455634832
1667824626425521000,3.68352099609375,0.3337830417990684,1.150287056455016,-0.5415857612144201
1667824626435529000,3.693529052734375,0.6190688869327307,1.0765461129397154,-0.39134843799583613
1667824626445536800,3.703536865234375,1.0158803395748137,1.011909097856283,-0.1605287078693509
1667824626455544000,3.7135439453125,1.4175608595579863,0.9369153778009116,0.07746361730024218
1667824626465552000,3.7235517578125,1.744576891440153,0.7694612545825541,0.30942331124208866
1667824626475560000,3.733559814453125,2.007795866194367,0.5461396981917321,0.5377215600669384
1667824626485567000,3.74356689453125,2.187840298655629,0.27379940547943116,0.811861814873293
1667824626495575000,3.753574951171875,2.166295406323671,-0.010141747047007084,1.107010370916873
1667824626505582800,3.763582763671875,2.087133606803417,-0.2845465710736811,1.2797957721605897
1667824626515590000,3.77358984375,2.013134304612875,-0.5191936774685979,1.3575439054906366
1667824626525597700,3.78359765625,1.8317898954689502,-0.6983546050935984,1.2853984144732356
1667824626535606000,3.79360595703125,1.5423510223090648,-0.8574111945837736,1.1615099498022348
1667824626545612800,3.80361279296875,1.2775041540920733,-0.9994856696128844,1.0438364141233265
1667824626555620900,3.813620849609375,0.9896931743949651,-1.0054428244516254,0.906334069315344
1667824626565629000,3.82362890625,0.7197633038252592,-0.8948492370963096,0.7510580212771892
1667824626575636000,3.833635986328125,0.43015959549248217,-0.7225731005489826,0.672162690673396
1667824626585644000,3.84364404296875,0.2551876439899206,-0.493422691874206,0.6752452399238944
1667824626595650800,3.85365087890625,0.07217500937283039,-0.2705141001984477,0.7063717612020671
1667824626605659100,3.8636591796875,-0.13510872766971588,-0.15664163730293512,0.6864093157559633
1667824626615667000,3.8736669921875,-0.2861550291836262,-0.08535539346337317,0.7392289056651293
1667824626625674000,3.883674072265625,-0.45705987737774845,-0.02674012288749218,0.8626178233161568
1667824626635681800,3.893681884765625,-0.6191682556539774,-0.002996551467478275,0.9468292343761772
1667824626645689900,3.90368994140625,-0.689259444490075,-0.03470014198124408,0.953085152965784
1667824626655697000,3.91369677734375,-0.7911328420341014,-0.033384383207559584,0.9477975679516791
1667824626665705000,3.923705078125,-0.8945423631042242,-0.003201426389813423,1.0219528644215314
1667824626675712800,3.933712646484375,-0.9151508513689041,0.0694537677153945,1.0939648652523755
1667824626685720000,3.943719970703125,-0.8623603414237498,0.16272183399945497,1.1214383439157158
1667824626695727900,3.953727783203125,-0.8253332177996635,0.23331863427013158,1.1531976101394743
1667824626705736000,3.96373583984375,-0.8074620455443858,0.24366145684719084,1.197506342139095
1667824626715742700,3.97374267578125,-0.8001110982596874,0.21443507010191679,1.2696534405916928
1667824626725751000,3.9837509765625,-0.7772025163590908,0.16408377000242472,1.3722399548411368
1667824626735759000,3.993759033203125,-0.7058721411168575,0.1320148533076048,1.3996588537730277
1667824626745766000,4.003765869140625,-0.5726560953259467,0.14089198724627494,1.3680043630979954
1667824626755774000,4.01377392578125,-0.4604395829439163,0.1665411000266671,1.4437975629679858
1667824626765781800,4.02378173828125,-0.4399789787173271,0.18629501728862524,1.4829963315427301
1667824626775789000,4.0337890625,-0.3910492358535528,0.1562134750187397,1.4285624383047222
1667824626785796900,4.043796875,-0.33849195014238354,0.10685147821754216,1.3571148664236068
1667824626795804000,4.053803955078125,-0.21428514023721218,0.10178805734813212,1.3333755327872931
1667824626805812000,4.06381201171875,-0.05267068295776844,0.0679307959318161,1.2960264837324618
1667824626815820000,4.073820068359375,0.10492752441763878,-0.02622895849496126,1.2710919489622114
1667824626825826800,4.083826904296875,0.29572715964913365,-0.1351750709041953,1.2731531192757188
1667824626835835000,4.0938349609375,0.4379880971610546,-0.22283085026443003,1.3015695048123597
1667824626845843000,4.103843017578125,0.5694879866838455,-0.3334545404970646,1.3273790688514708
1667824626855850000,4.11385009765625,0.7053606844633817,-0.5175377269551158,1.4261796348214149
1667824626865857800,4.12385791015625,0.7097527819424867,-0.8350307282105087,1.67146036343351
1667824626875865900,4.133865966796875,0.6296598390519619,-1.2349874931409954,2.0023831934958696
1667824626885873000,4.143872802734375,0.47405660488605494,-1.6007652173548936,2.2361220990046857
1667824626895881000,4.153880859375,0.17993220425844192,-1.8002148997709153,2.20684252076745
1667824626905888800,4.163888671875,-0.4197369856774807,-1.8016636372745036,1.9598332147970794
1667824626915896000,4.17389599609375,-1.2887152839362621,-1.8274021819040178,1.64151311506778
1667824626925904000,4.18390380859375,-1.9451754516303539,-1.9585802921265363,1.2839431010983884
1667824626935909400,4.193909423828125,-2.4188521172881123,-1.9368097743451593,0.8421887832716107
1667824626945916200,4.203916259765625,-2.690409296798706,-1.6146378214932977,0.2106250833597034
1667824626955924200,4.21392431640625,-2.643351777547598,-1.0550357073992491,-0.3338206338630989
1667824626965931300,4.22393115234375,-2.5319886671245095,-0.5434070583574474,-0.7139033257506787
1667824626975939300,4.233939208984375,-2.4531051000237465,-0.37057284953594205,-0.9663383100315928
1667824626985947100,4.243947021484375,-2.3027082023292778,-0.5452439183957875,-1.112012709248811
1667824626995954200,4.2539541015625,-2.090824862536788,-0.8386652853205799,-1.15825956970416
1667824627005962200,4.263962158203125,-1.735378854984045,-1.093870026575774,-1.197021846557781
1667824627015970300,4.27397021484375,-1.3797306028574705,-1.3200873044081032,-1.1345039425201713
1667824627025977000,4.28397705078125,-1.0132231030642986,-1.5154901956513522,-1.0105384670902042
1667824627035985200,4.293985107421875,-0.6344108329713344,-1.5875044615045188,-0.9935402782771736
1667824627045993200,4.3039931640625,-0.22557459601461885,-1.5199027513965964,-1.0382600752957165
1667824627056000300,4.314000244140625,0.16199848816096782,-1.3522516443014143,-1.0132334052626042
1667824627066008300,4.32400830078125,0.5474281305670738,-1.21477633363083,-0.9457722726691513
1667824627076016000,4.33401611328125,0.8688561331838369,-1.174708527136594,-0.8322397092524916
1667824627086023400,4.3440234375,1.1305009904891252,-1.192632452492416,-0.6756468064621091
1667824627096031200,4.35403125,1.3851906218290329,-1.1430490680254994,-0.549609858520329
1667824627106039300,4.364039306640625,1.5853601429522037,-1.0560323172211648,-0.463366284045577
1667824627116046000,4.374046142578125,1.7490449767649172,-1.0272498748511076,-0.3823373754791915
1667824627126054400,4.384054443359375,1.8420225356698035,-1.0823866556614636,-0.31010387738477435
1667824627136061200,4.394061279296875,1.8844658391237257,-1.105958523776382,-0.2736559601544402
1667824627146069200,4.4040693359375,1.8693577018409966,-1.0249639558710157,-0.2232592682769522
1667824627156077000,4.4140771484375,1.8353420349925755,-0.9280139862038195,-0.17655379560021683
1667824627166084400,4.42408447265625,1.85545718678236,-0.8165176047898829,-0.20909476851988582
1667824627176092200,4.434092041015625,1.8175585410207509,-0.6894030907444656,-0.17018698224835097
1667824627186100200,4.444100341796875,1.748831041753292,-0.6008204057976603,-0.08323978041573427
1667824627196107300,4.454107177734375,1.7019599849849938,-0.6008487551093101,0.0035619667978957293
1667824627206115300,4.464115234375,1.6768167759001253,-0.5519821406096219,0.004799819763470441
1667824627216123400,4.474123291015625,1.6072656852900982,-0.3450830189704895,0.026174031703639775
1667824627226130200,4.484130126953125,1.4595061503618956,-0.18790654413849114,0.12065520010450854
1667824627236138200,4.49413818359375,1.4240344394862652,-0.2023167622849345,0.1152221239387989
1667824627246146300,4.504146240234375,1.3361141639709473,-0.24094927527904508,0.03690696784313768
1667824627256153300,4.5141533203125,1.1433172174423933,-0.16044249089062212,-0.009970007209293544
1667824627266161200,4.5241611328125,0.9765525377929211,-0.03775631468147039,-0.05327274050414562
1667824627276168400,4.53416845703125,0.8630383868157863,0.03159107005000114,-0.15465196132306008
1667824627286176300,4.54417626953125,0.7488736629754305,0.019550211383402346,-0.24833456322476266
1667824627296184300,4.554184326171875,0.6441127272963524,-0.01265197630226612,-0.2965746067913249
1667824627306191000,4.564191162109375,0.509596120300889,0.02392272737920284,-0.36882849008664487
1667824627316199400,4.574199462890625,0.3377876012653112,0.10406272428184747,-0.5052428935274481
1667824627326207200,4.584207275390625,0.13194763329029083,0.16209464201182125,-0.576618861477077
1667824627336214300,4.59421435546875,-0.18152444188594816,0.12276420988142489,-0.5846149017322808
1667824627346222000,4.60422216796875,-0.5123258375257254,0.06533347291499376,-0.7096133004065602
1667824627356230100,4.614230224609375,-0.7349620420008898,0.1249798401042819,-0.8952011923391372
1667824627366237200,4.6242373046875,-0.9099579589009285,0.3234197609558701,-1.0978084620032458
1667824627376245200,4.634245361328125,-1.0235925213873385,0.579649607475102,-1.3263548403702676
1667824627386253300,4.64425341796875,-1.0092758267432451,0.8350812893539666,-1.5882774917036293
1667824627396260400,4.65426025390625,-0.8729121305763721,1.123742456139624,-1.8831709770075975
1667824627406268400,4.664268310546875,-0.7267588618010282,1.3917042415067553,-2.0864117222696543
1667824627416276200,4.674276123046875,-0.6280453895926476,1.5216253374055027,-2.167428209745884
1667824627426283300,4.684283203125,-0.49658349399268625,1.4692109672963618,-2.1331153135165573
1667824627436291300,4.694291259765625,-0.2634498609006405,1.2830486364766955,-1.9879044401578605
1667824627446298400,4.70429833984375,-0.05688274769484997,1.0769076397284865,-1.7841447855882346
1667824627456306200,4.71430615234375,0.09821838216781616,0.8177616135016084,-1.5439245552361012
1667824627466314200,4.724314208984375,0.12534312045872212,0.5298489269956946,-1.3369561677530406
1667824627476321300,4.7343212890625,0.07610475003719329,0.2770645447552204,-1.1916628768078983
1667824627486329300,4.744329345703125,-0.029256489622592925,0.11303133589625358,-1.11038276995942
1667824627496337200,4.754337158203125,-0.3254401608675718,0.02293722347319126,-1.0620017470195888
1667824627506344200,4.76434423828125,-0.7526724707365036,0.015391338138282298,-0.9406753148563206
1667824627516352300,4.774352294921875,-1.0452379514843224,0.059392976950109,-0.8647335002958774
1667824627526360300,4.7843603515625,-1.2735966252595186,0.0926370749041438,-0.8897564440019429
1667824627536367000,4.7943671875,-1.3288047177404165,0.12398586063086986,-0.9832884219191967
1667824627546375200,4.804375244140625,-1.2584177608281373,0.1786035860031843,-1.048712787988037
1667824627556383200,4.81438330078125,-1.1935486905544996,0.29036767844259737,-1.0485082783918827
1667824627566390300,4.824390380859375,-1.1832184351980686,0.45408466095924377,-1.0414048030622303
1667824627576398000,4.834398193359375,-1.0380869106858968,0.657051119324565,-1.034231696562469
1667824627586405400,4.8444052734375,-0.7476946823239327,0.8306637651726603,-1.008300917296484
1667824627596413200,4.8544130859375,-0.45091655231714245,0.9200599584594369,-0.9578406038645655
1667824627606421200,4.864421142578125,-0.06515373243391513,0.9104711691200733,-0.8293735061664134
1667824627616428000,4.874427978515625,0.25789222677350043,0.8483534433811902,-0.6639976505268365
1667824627626436400,4.884436279296875,0.6462403869748116,0.7614280241221189,-0.44519780934415754
1667824627636444400,4.8944443359375,1.137159279334545,0.6301055369928479,-0.21207170197144148
1667824627646451200,4.904451171875,1.5347317794770001,0.46665743454545733,-0.0014710224006325005
1667824627656459300,4.914459228515625,1.8352058413922785,0.2500900285899639,0.17818815533639862
1667824627666467000,4.924467041015625,2.0991104603230952,0.06688683983683585,0.34879732678588476
1667824627676474400,4.934474365234375,2.308722932574153,-0.06752455321848393,0.5496303898517042
1667824627686482200,4.944482177734375,2.3845412668853996,-0.21139497175365685,0.7133858046825975
1667824627696490200,4.954490234375,2.4102158063679933,-0.4018134987130761,0.8309262885663657
1667824627706497300,4.964497314453125,2.3205869733691213,-0.6020142917573451,0.9041172700487077
1667824627716505300,4.97450537109375,2.1784172212719914,-0.7137631866276264,0.9560909106530249
1667824627726513200,4.98451318359375,2.0240940900444984,-0.74911682408154,0.952227367092669
1667824627736520200,4.994520263671875,1.8012889587432146,-0.8047142081409693,0.9773308286890386
1667824627746528300,5.0045283203125,1.5253221460968256,-0.8890317829892038,0.9468234622225165
1667824627756535300,5.014535400390625,1.258123746317625,-1.00012805916965,0.9174304867386818
1667824627766543000,5.024543212890625,1.0421066677212714,-1.0320870857492088,0.9321358884394169
1667824627776551200,5.03455126953125,0.8945224893599748,-0.9297115839019418,0.9142740685343742
1667824627786558200,5.04455810546875,0.625730098387599,-0.8780719975575805,0.934987186217308
1667824627796566300,5.054566162109375,0.4267547554850578,-0.8523302380576729,0.8907965276394039
1667824627806574300,5.06457421875,0.12527882305085658,-0.7526578576892614,0.7977042563136667
1667824627816581400,5.074581298828125,-0.2203969011157751,-0.63414867490381,0.8017970055200159
1667824627826589400,5.08458935546875,-0.4541536345422268,-0.5889575340464711,0.8318949144028127
1667824627836597200,5.09459716796875,-0.678819299018383,-0.5633133897021413,0.8295648640200495
1667824627846604300,5.104604248046875,-0.8528080847024917,-0.41362376349419355,0.7970981071140617
1667824627856612000,5.114612060546875,-0.9571312134861946,-0.21437924826145172,0.7893778150603175
1667824627866620400,5.124620361328125,-0.9664081603974103,-0.008350479716062545,0.8245867102812975
1667824627876627200,5.134627197265625,-1.0061118097543715,0.19743220511376858,0.8826955657050013
1667824627886635300,5.14463525390625,-0.9805284556865692,0.32121172951757904,0.9827955238357186
1667824627896642300,5.154642333984375,-0.9733294840931892,0.30455519374907014,1.0960396256998182
1667824627906650400,5.164650390625,-0.9945067121565342,0.26744886740893126,1.2164011583536862
1667824627916658200,5.174658203125,-0.9221674521327018,0.28324411017298695,1.3395349321998655
1667824627926665200,5.184665283203125,-0.7663280711233615,0.31018121693730355,1.4512231829240918
1667824627936676000,5.194676025390625,-0.5669055689752102,0.3033230216056108,1.542511911959201
1667824627946684000,5.204683837890625,-0.4949152685195207,0.22290508454442023,1.573015771294385
1667824627956691000,5.21469091796875,-0.44590427711308,0.13430647137612103,1.6194184798985718
1667824627966699000,5.224698974609375,-0.4395207135558128,0.06578589285761118,1.5997776676222681
1667824627976707000,5.23470703125,-0.4146522297590971,0.03718231418579816,1.5374764020100236
1667824627986713900,5.2447138671875,-0.3133271137475967,0.038593057766556735,1.4645768777549266
1667824627996722000,5.254721923828125,-0.25664894871413707,0.012393325366079807,1.4273495553836226
1667824628006730000,5.26472998046875,-0.2508919926226139,-0.08029547972530127,1.4372617314584553
1667824628016737000,5.274737060546875,-0.24614216774702072,-0.20937018792778253,1.4574980254098773
1667824628026745000,5.2847451171875,-0.27194237943589683,-0.38294922376722096,1.5071940764710305
1667824628036753000,5.2947529296875,-0.3479144430041313,-0.6801426565766334,1.66124964280352
1667824628046760200,5.30476025390625,-0.45966626048386094,-1.06795831733644,1.8611422466814518
1667824628056768000,5.31476806640625,-0.7058528518944979,-1.3489669235423207,1.9636689935676752
1667824628066775000,5.324775146484375,-1.0840239014744757,-1.4266659570336342,1.8771178144484757
1667824628076782800,5.334782958984375,-1.517693550914526,-1.3745654751792549,1.6319700645662842
1667824628086791000,5.344791015625,-1.89891171310544,-1.2941174352407454,1.221139365856722
1667824628096798000,5.3547978515625,-2.1745757434129716,-1.1351517389044166,0.7504577903617173
1667824628106806000,5.364805908203125,-2.3392636167883873,-0.9383118005953729,0.29477033384833484
1667824628116813800,5.374813720703125,-2.241242803019285,-0.6525972086556255,-0.17423560005202887
1667824628126821000,5.384821044921875,-2.0609967105060814,-0.408447529900074,-0.565540710362792
1667824628136829000,5.394828857421875,-1.8538854074209927,-0.3705388011358678,-0.7754580838445574
1667824628146837000,5.4048369140625,-1.507169234290719,-0.6213108206406235,-0.9171957281347364
1667824628156843800,5.41484375,-1.0471341404944658,-0.923188173482567,-1.0940689101487397
1667824628166852000,5.42485205078125,-0.6648766983836889,-1.1260628619112074,-1.0986769884660839
1667824628176859000,5.43485888671875,-0.3686269761651754,-1.3216216743685305,-1.0572507531002164
1667824628186867000,5.444866943359375,-0.12937456793189048,-1.5939942619152365,-1.0774256722532212
1667824628196875000,5.454875,0.10091887329816818,-1.8336138960257171,-1.089256468365714
1667824628206882000,5.464882080078125,0.32967852908968925,-1.9306641111969947,-1.0778641367357225
1667824628216890000,5.47489013671875,0.5325152235955,-1.887665804208815,-0.9871439283035695
1667824628226898000,5.48489794921875,0.7263309917777776,-1.7214131657347083,-0.9173813868999481
1667824628236905200,5.4949052734375,0.9514759642034768,-1.5487323939092457,-0.8295202211607247
1667824628246913000,5.5049130859375,1.1954571545243262,-1.4358558101832866,-0.7068772265061736
1667824628256921000,5.514921142578125,1.3042588900268077,-1.3479958865530788,-0.5594019884120672
1667824628266927900,5.524927978515625,1.4201228190004824,-1.2768512431412935,-0.3838378797026351
1667824628276936000,5.53493603515625,1.4276444466769695,-1.2358594536699354,-0.17793701185323296
1667824628286944000,5.544944091796875,1.3889578654080628,-1.197797872431576,-0.035978564419224854
1667824628296951000,5.554950927734375,1.4391156887620686,-1.1545625418171286,0.05533789287302643
1667824628306958800,5.564958740234375,1.4410270753413439,-1.0384434690386057,0.14350005085282028
1667824628316966100,5.574966064453125,1.419748724991083,-0.9194318896889686,0.20538879014141856
1667824628326974000,5.584973876953125,1.4082389044612644,-0.8061191065028309,0.25355339385159315
1667824628336982000,5.59498193359375,1.433042506328225,-0.656745122115314,0.28550957088693973
1667824628346988800,5.60498876953125,1.4618091666072606,-0.5009796831250191,0.3375827263429761
1667824628356997000,5.6149970703125,1.470861072590947,-0.3630614509925246,0.40109888417031614
1667824628367005200,5.625005126953125,1.3636036439210175,-0.2599792621806264,0.4914794853845611
1667824628377012000,5.635011962890625,1.2870160788029432,-0.16116817481666804,0.5094516703289002
1667824628387020000,5.64502001953125,1.3029431312531232,-0.04662468079179525,0.4928464263562113
1667824628397028000,5.655028076171875,1.2626233958244324,0.04833820671141147,0.5220965227706358
1667824628407035100,5.66503515625,1.173616494116187,0.07318593998104334,0.5105701529648154
1667824628417043000,5.67504296875,1.097919740357995,0.0820414466097951,0.4658916378047317
1667824628427051000,5.685051025390625,1.037146414965391,0.12277297770977019,0.4333867408454418
1667824628437058000,5.69505810546875,0.9685621235609054,0.1788566839814186,0.41478867908772077
1667824628447066000,5.705066162109375,0.8927315142899751,0.15701105513721703,0.42926644604504105
1667824628457073000,5.715072998046875,0.8520891227781772,0.09606120413392781,0.4032853978965431
1667824628467081000,5.7250810546875,0.7466139013499021,0.042270869496464726,0.2949203002456575
1667824628477089000,5.735089111328125,0.4646224215865135,0.019936288091540334,0.12616999973692
1667824628487096000,5.745095947265625,0.08787935898303985,0.03357932125777006,-0.08560841837637126
1667824628497104000,5.755103759765625,-0.32535072901844975,0.010863923841714859,-0.27324367129281163
1667824628507112000,5.76511181640625,-0.715317430332303,-0.05473316844552755,-0.46267530610673124
1667824628517119000,5.775118896484375,-0.9893547362208366,-0.09154694157987832,-0.7615792691610753
1667824628527127000,5.785126953125,-1.2774901255667208,0.004873158994317055,-1.0700725330114365
1667824628537134800,5.795134765625,-1.4751818583995102,0.2705778130844235,-1.433747731988132
1667824628547142100,5.80514208984375,-1.501990370348096,0.6946604267507791,-1.8888059141546487
1667824628557150000,5.81514990234375,-1.4846236404836177,1.1396572336301207,-2.257912782791257
1667824628567158000,5.825157958984375,-1.3686217643439769,1.4682415377423166,-2.5095710836112497
1667824628577164800,5.835164794921875,-1.2072551443457602,1.6417913474872707,-2.700178118880093
1667824628587172900,5.8451728515625,-0.9853332256197929,1.6820032386273145,-2.713155089353025
1667824628597181200,5.85518115234375,-0.5507786100387573,1.595234471234679,-2.597229201059043
1667824628607188000,5.86518798828125,-0.13928689013719558,1.5684221598938106,-2.4671166742414234
1667824628617196000,5.875196044921875,0.18949439785182476,1.5320871101871132,-2.285583756788075
1667824628627203000,5.885203125,0.44997254946529863,1.3572867158591746,-2.1648134972028434
1667824628637211100,5.895211181640625,0.6593214023441076,1.156902675202489,-2.083704655268043
1667824628647219000,5.905218994140625,0.8297539568513631,1.0219511839210986,-2.0032212517552077
1667824628657226000,5.91522607421875,0.8505962538719177,0.9246937557399273,-1.8890537514358758
1667824628667234000,5.925234130859375,0.8475544019579887,0.8004837309643625,-1.7565131206884979
1667824628677242000,5.9352421875,0.8036392723858355,0.7136284543320536,-1.6357516289316116
1667824628687249000,5.945248779296875,0.6392658717870712,0.6446633469164371,-1.5170831639312208
1667824628697257000,5.955257080078125,0.4718839370220899,0.5203320338487625,-1.3415813433356583
1667824628707265000,5.96526513671875,0.32051907107830047,0.4161418837949633,-1.2370444256708024
1667824628717272000,5.97527197265625,0.14141805694699286,0.3893994228199124,-1.176434108820185
1667824628727279900,5.98527978515625,-0.11612579478025435,0.3602870178431272,-1.0233331397987901
1667824628737287200,5.995287109375,-0.31745617637634277,0.27519758183956144,-0.9583473112776875
1667824628747295000,6.005294921875,-0.3926519948750734,0.24158026665896176,-0.9966719273664056
1667824628757303000,6.015302978515625,-0.41542029152214527,0.3358864438191056,-1.012360641016066
1667824628767309800,6.025309814453125,-0.41388299895226954,0.4643482808202505,-0.9982657724291085
1667824628777318000,6.03531787109375,-0.30611528267264365,0.5791434115186334,-1.013601288726926
1667824628787326200,6.045326171875,-0.17833119880259035,0.679526278243959,-0.969494289844483
1667824628797333000,6.0553330078125,0.031551322561502455,0.704500268241763,-0.8222099712125956
1667824628807341000,6.065341064453125,0.19862112263739107,0.6003598025485873,-0.6152770934343338
1667824628817348900,6.075348876953125,0.35475334911346434,0.4729737780854106,-0.3759436193214729
1667824628827356200,6.085356201171875,0.4883259532570839,0.3353472223758697,-0.11534944011289626
1667824628837364000,6.095364013671875,0.6258990252137184,0.14260522090494632,0.14339520223885774
1667824628847372000,6.1053720703125,0.8200976552337408,-0.10744739828407764,0.33871534710209816
1667824628857379000,6.115379150390625,0.9801321498453617,-0.303766673719883,0.48113757612295444
1667824628867387100,6.12538720703125,1.0878647948116063,-0.4189247925117612,0.6442967786263674
1667824628877394000,6.135393798828125,1.1790595619529485,-0.4928168349355459,0.7455152924582362
1667824628887402000,6.145402099609375,1.2603589580237864,-0.5432391544446349,0.7453090292964131
1667824628897409800,6.155409912109375,1.2781126413792372,-0.5868570546358823,0.7869524876095354
1667824628907417000,6.1654169921875,1.1922019521206617,-0.7021119118005037,0.8678953253276646
1667824628917425000,6.1754248046875,1.1349579698979855,-0.8341858018189668,0.8938030159790068
1667824628927433000,6.185432861328125,1.1013257494091988,-0.8990072335585951,0.9573184066213667
1667824628937436700,6.195436767578125,0.9819763164073229,-0.9749202604159712,1.111005578032881
1667824628947444500,6.205444580078125,0.8815817592442036,-1.084931663969159,1.2450503297328948
1667824628957452500,6.21545263671875,0.7412672796249389,-1.0954174021482468,1.3331230193309485
1667824628967459300,6.225459228515625,0.5790647933244705,-1.0528811597138643,1.4420704469144343
1667824628977467600,6.235467529296875,0.44488136380612847,-1.0839584350228308,1.5316422890290617
1667824628987474400,6.245474365234375,0.29906711772680283,-1.0592127008229493,1.508344415549934
1667824628997482500,6.255482421875,0.11080255393087864,-0.8956912408784031,1.5465905595749616
1667824629007490300,6.265490234375,-0.13419921160936354,-0.7767366524130106,1.6315611915044486
1667824629017497600,6.27549755859375,-0.38086920262277124,-0.7282926472395658,1.6277432406514882
1667824629027505400,6.28550537109375,-0.6641477995872497,-0.6543558888912201,1.6756316577687858
1667824629037513500,6.295513427734375,-0.9446890805423259,-0.5571756175994873,1.7229077882066368
1667824629047520500,6.3055205078125,-1.1678922712504862,-0.4639554821103811,1.6739762917771934
1667824629057528600,6.315528564453125,-1.3626222316682337,-0.35679946798831225,1.6194913990043103
1667824629067536600,6.32553662109375,-1.5460913778811691,-0.22586802600324152,1.5657679921232164
1667824629077543400,6.33554345703125,-1.7190601728677748,-0.10967851833701132,1.4952596007883547
1667824629087551500,6.345551513671875,-1.842148207876086,-0.004153028026223182,1.426929722536355
1667824629097559600,6.3555595703125,-1.908559246894717,0.13623656265586614,1.3676764463178812
1667824629107566600,6.365566650390625,-1.9274755442887543,0.2685550750851631,1.2683391431227327
1667824629117574400,6.375574462890625,-1.865505702587962,0.36129561036378144,1.2702344553500413
1667824629127581700,6.385581787109375,-1.7634850055277347,0.39636955409348007,1.3626966120786963
1667824629137589500,6.395589599609375,-1.6132698941409587,0.3458919972658157,1.442708744817972
1667824629147597600,6.40559765625,-1.4639198751509188,0.297121536616981,1.5282997006028889
1667824629157604400,6.415604248046875,-1.284394498127699,0.27590163845568894,1.6350272601798175
1667824629167612700,6.42561279296875,-1.0802379531949757,0.2328834577232599,1.688502391388267
1667824629177620500,6.435620361328125,-0.9034791182756423,0.18628478815555571,1.673730792583525
1667824629187627500,6.44562744140625,-0.7175204933345317,0.16408113965392113,1.6162852964393795
1667824629197635300,6.45563525390625,-0.49608606586456294,0.15673165367394684,1.5525012449234723
1667824629207643400,6.465643310546875,-0.31059447391331196,0.15147680188566445,1.449998171173781
1667824629217650400,6.475650390625,-0.10806874505281448,0.1219939561612904,1.3455875102370976
1667824629227658500,6.485658447265625,0.13563713545799255,0.08322524956688285,1.2510593608893454
1667824629237666600,6.49566650390625,0.2861158662170172,-0.01228621172979474,1.2725354257687926
1667824629247673600,6.505673583984375,0.32228432718515393,-0.21246756942123174,1.3469246040597558
1667824629257681700,6.515681640625,0.3305301774829626,-0.42564094902426003,1.4221772673122584
1667824629267688400,6.5256884765625,0.22875088796317575,-0.5763435516670345,1.4109762204706668
1667824629277696500,6.535696533203125,0.044458734929561615,-0.676913173136115,1.2277101956143974
1667824629287704600,6.54570458984375,-0.1887602383583784,-0.7106859711393714,0.9220867881119251
1667824629297711600,6.555711669921875,-0.5094564195692539,-0.6390778018690645,0.6170405959755182
1667824629307719400,6.565719482421875,-0.8394879998803139,-0.6104989192470908,0.3191481115186587
1667824629317727500,6.5757275390625,-1.1440817720741032,-0.5907761277757585,-0.012686664023157209
1667824629327734500,6.585734619140625,-1.3057862457245588,-0.49823199185207484,-0.3400154333826154
1667824629337742600,6.59574267578125,-1.4641823254793882,-0.28972835762575266,-0.6636639615930616
1667824629347750400,6.60575048828125,-1.5448159511178732,-0.14280249704271555,-0.8967389963656663
1667824629357757700,6.6157578125,-1.522954247921705,-0.11181874523609876,-1.1779002358499913
1667824629367765500,6.625765625,-1.3559867391765117,-0.1413482065811753,-1.4180201476328074
1667824629377773600,6.635773681640625,-1.1376140373647212,-0.31316198631376024,-1.4988000498741865
1667824629387780400,6.6457802734375,-0.8815601319342851,-0.5972270574808121,-1.5214964503288269
1667824629397788400,6.655788330078125,-0.5292413164913654,-0.8984015227504074,-1.5002726066447793
1667824629407795500,6.66579541015625,-0.16267770259678363,-1.138482490762323,-1.4263628824338317
1667824629417803500,6.675803466796875,0.17652093451023101,-1.3064851877741515,-1.3346195414990185
1667824629427811300,6.685811279296875,0.5346516511023044,-1.3759353022277354,-1.2347706355199217
1667824629437818600,6.695818603515625,0.8396423136591911,-1.3958397338762878,-1.1835256014510989
1667824629447826400,6.705826416015625,1.1853951947152614,-1.3848327483020721,-1.0916858144044876
1667824629457834500,6.71583447265625,1.4908721794843673,-1.3807367111600934,-0.9297705475475638
1667824629467841300,6.72584130859375,1.7612801889598368,-1.3956690534844993,-0.7815949791643768
1667824629477849600,6.735849609375,1.929848703160882,-1.430870130725205,-0.6470759610161185
1667824629487857700,6.745857666015625,2.016082633024454,-1.4796383994169533,-0.4978936267431825
1667824629497864400,6.755864501953125,2.097526990523934,-1.4999303690783679,-0.37645777938868846
1667824629507872500,6.76587255859375,2.106609876167774,-1.496490019366145,-0.25292042971029877
1667824629517879600,6.775879638671875,2.1106728878229855,-1.5110500212468205,-0.1428271200273186
1667824629527887600,6.7858876953125,2.0740309641242027,-1.5053792821340262,-0.030619119745306667
1667824629537895400,6.7958955078125,2.01670573335886,-1.4878275510914623,0.04859159695059061
1667824629547902500,6.80590234375,1.8637164810836313,-1.3755807897016405,0.08962989244479685
1667824629557910500,6.81591064453125,1.7318460046827793,-1.1697152488939464,0.10228862728141247
1667824629567918600,6.825918701171875,1.6496826852589845,-0.9978820338085294,0.11719853857830166
1667824629577925400,6.83592529296875,1.4776391884237527,-0.9114847300767898,0.1857217839779332
1667824629587933400,6.845933349609375,1.2516022355943917,-0.8874874761566519,0.29927513445429504
1667824629597941500,6.85594140625,1.0596452470213173,-0.8676414966970681,0.3859922081923112
1667824629607948500,6.865948486328125,0.955600935178995,-0.8672878609538078,0.43096886604875323
1667824629617956400,6.875956298828125,0.7824848406761884,-0.8338131691142916,0.4297541199641302
1667824629627964400,6.88596435546875,0.5713526115119457,-0.7108996138900519,0.30637258190196004
1667824629637971500,6.895971435546875,0.38800563037395475,-0.5537167093172669,0.17663520853966475
1667824629647979500,6.9059794921875,0.22922435069382188,-0.4435071528434753,0.06461007227757945
1667824629657986300,6.915986328125,0.011613865426182746,-0.40262627640068527,0.0029777371691539884
1667824629667994600,6.92599462890625,-0.148113170671463,-0.3869371243596077,-0.054938408694043754
1667824629678002700,6.936002685546875,-0.29140520479679105,-0.3764391112208366,-0.12692527508363127
1667824629688009500,6.946009521484375,-0.5122533568114042,-0.3719958680763841,-0.24673540266612543
1667824629698017500,6.956017578125,-0.7560106752485036,-0.3401312417820096,-0.4527887759298086
1667824629708025300,6.966025390625,-0.9790063606858252,-0.2401391279399395,-0.6561504441577941
1667824629718032600,6.97603271484375,-1.1035457635462282,-0.11664543474018572,-0.9018938949108123
1667824629728040400,6.98604052734375,-1.2022037061750888,0.009360533541440964,-1.1371790800135582
1667824629738048500,6.996048583984375,-1.2675725426644087,0.1860410425275564,-1.3390000946708023
1667824629748055600,7.0060556640625,-1.2887310660272835,0.40293928787261246,-1.550870574981719
1667824629758063600,7.016063720703125,-1.2794254775434732,0.6485735060974955,-1.730644666069001
1667824629768070400,7.0260703125,-1.170671672835946,0.8709826238185167,-1.8719548787273466
1667824629778078500,7.036078369140625,-0.8876035037517547,1.0517597544685005,-1.9994522546105085
1667824629788086500,7.04608642578125,-0.5856745668530464,1.167370877724886,-2.055498551481217
1667824629798093600,7.056093505859375,-0.30088614984750744,1.2311363706707954,-2.019662683468312
1667824629808101400,7.066101318359375,0.03306815686523914,1.2882216552004218,-1.9446878142438828
1667824629818109400,7.076109375,0.39124738877415655,1.3373854990810154,-1.8664159493006764
1667824629828116500,7.086116455078125,0.7437859844475984,1.37153472918123,-1.791815904738009
1667824629838124500,7.09612451171875,1.0315724142253397,1.3757850801020859,-1.6804358431801198
1667824629848132600,7.106132568359375,1.2592939591407775,1.3219000529184937,-1.5439682482473551
1667824629858139400,7.116139404296875,1.3966671246111393,1.180721942207217,-1.4178048974469304
1667824629868147700,7.126147705078125,1.4188532374560832,0.9552297637790441,-1.1695280557587742
1667824629878154500,7.136154541015625,1.3412269769400358,0.7041407872796058,-0.7931399440728127
1667824629888162600,7.14616259765625,1.1379027911782265,0.4515487127408385,-0.34810382809638973
1667824629898170400,7.15617041015625,0.8631032687455416,0.16735767710655927,0.08615524773732759
1667824629908177400,7.166177490234375,0.36592473146915433,-0.12940788567960262,0.39939898491725323
1667824629918185500,7.176185546875,-0.34357845962643624,-0.29316578472852706,0.4781221738245338
1667824629928193500,7.186193603515625,-0.8907698588281869,-0.35260376986414194,0.43583365907352417
1667824629938204700,7.19620458984375,-1.350549516558647,-0.33610534726679325,0.33562812167648226
1667824629948212700,7.206212646484375,-1.8294003699839114,-0.1916732031956315,0.16271953244451431
1667824629958220800,7.216220703125,-2.115485841062665,0.16774258477091789,-0.15013667585570364
1667824629968227600,7.2262275390625,-2.2255419605404136,0.7304205991789698,-0.5839601641505956
1667824629978235600,7.236235595703125,-2.20540751952827,1.2353081033974884,-0.9347584189627319
1667824629988243700,7.24624365234375,-2.0955437077522276,1.5052932112857698,-1.0379799431800842
1667824629998250800,7.256250732421875,-1.8906448200196027,1.5273685572326183,-0.9740841018527746
1667824630008258800,7.2662587890625,-1.3991507581204174,1.365771635609865,-0.8441801032193005
1667824630018265600,7.276265625,-0.8428209436953067,1.1871046289816498,-0.6704389356207102
1667824630028274000,7.28627392578125,-0.2773129665583372,1.0295597592286765,-0.4748521026453003
1667824630038281700,7.29628173828125,0.4262999974548816,0.8305848547175526,-0.32687161844279616
1667824630048288800,7.306288818359375,1.053536408752203,0.6413695660680532,-0.2031848868889734
1667824630058296600,7.316296630859375,1.5649281802982091,0.42763811419084663,-0.10468801657333969
1667824630068305000,7.326304931640625,2.047692992296815,0.18760873023569583,-0.03529191559562459
1667824630078311700,7.336311767578125,2.440159109210968,-0.061928632907569406,0.11432864569779484
1667824630088319700,7.34631982421875,2.6838848634660244,-0.2994841740950942,0.23002204041015356
1667824630098326800,7.356326904296875,2.7622201490342615,-0.5437278147444129,0.35244130931142714
1667824630108334800,7.3663349609375,2.812710565343499,-0.8122945802673697,0.4338357267219573
1667824630118342700,7.3763427734375,2.768594360241294,-1.022398343166709,0.41061577731724824
1667824630128349700,7.386349609375,2.61181039185822,-1.104301842610538,0.34143326429128645
1667824630138357800,7.396357666015625,2.432669045716524,-1.1572992733046412,0.3156787549076602
1667824630148365800,7.40636572265625,2.245469480803609,-1.2369371659040451,0.2556745507240295
1667824630158372600,7.41637255859375,2.0237989064902067,-1.187333469301462,0.09494390880810097
1667824630168380700,7.426380615234375,1.7272691982865334,-1.056641389030218,-0.004223718642257154
1667824630178388700,7.436388671875,1.542320627170801,-0.8765659769088029,-0.07732661998234688
1667824630188395800,7.446395751953125,1.3089186985313892,-0.6949146937727928,-0.06626532867131754
1667824630198403800,7.45640380859375,1.0679068794101476,-0.5564043409660459,0.006292177213076502
1667824630208411600,7.46641162109375,0.8291606671333313,-0.4634600998088717,0.17637272167857734
1667824630218419000,7.4764189453125,0.5584440301001071,-0.39191315920650954,0.36154553000424056
1667824630228426800,7.4864267578125,0.40133915919959545,-0.270869781768322,0.5096318857340142
1667824630238433800,7.496433837890625,0.23065116862654686,-0.07789221797585487,0.7141895222809165
1667824630248441600,7.506441650390625,0.010767477729916573,0.0493847931548953,0.8623712281439453
1667824630258450000,7.516449951171875,-0.14281214165389536,0.1411401167884469,0.8248913923162966
1667824630268456700,7.526456787109375,-0.2664835295081138,0.2712979440525174,0.7900411012746393
1667824630278464800,7.53646484375,-0.3926140009522438,0.3674988489180803,0.9434477752443402
1667824630288472600,7.54647265625,-0.5135790524572134,0.3303025062069297,1.0792408319164066
1667824630298479900,7.55647998046875,-0.595867459565401,0.21646219201534986,1.1725056102648377
1667824630308487700,7.56648779296875,-0.6184943019151687,0.13531360259205102,1.260210781724751
1667824630318495700,7.576495849609375,-0.7278121702462435,0.1322019003123045,1.317573860282451
1667824630328502500,7.58650244140625,-0.8750567413896322,0.10173282002955675,1.4067334683343766
1667824630338510800,7.5965107421875,-0.8924550354361533,-0.02203092228323221,1.4307809911370277
1667824630348517600,7.606517578125,-0.9793810392171144,-0.17770254551023243,1.428923088310659
1667824630358525700,7.616525634765625,-1.096727900224924,-0.2857727518677711,1.3895420950368047
1667824630368533800,7.62653369140625,-1.1344874297767877,-0.32002602686434983,1.353193455196172
1667824630378540800,7.636540771484375,-1.163970713892579,-0.34794162327200173,1.3021364910453557
1667824630388548900,7.646548828125,-1.123800616067648,-0.3650157999306917,1.2203205237545072
1667824630398556700,7.656556640625,-0.992097312927246,-0.32924656741321084,1.1682743293706328
1667824630408564000,7.66656396484375,-0.863613556355238,-0.27648586808443065,1.1708604734063148
1667824630418571800,7.67657177734375,-0.79859543299973,-0.26233663896173237,1.143376034957543
1667824630428579800,7.686579833984375,-0.6558487577974796,-0.19620003297030925,1.063007563061267
1667824630438586600,7.696586669921875,-0.45729017900228497,-0.07050064641982316,1.0472093246225267
1667824630448594700,7.7065947265625,-0.40305999164283274,-0.06735533413141966,1.181810102770105
1667824630458601700,7.716601806640625,-0.4002858507543802,-0.21818360898047684,1.3801371378317475
1667824630468609800,7.72660986328125,-0.4141770134627819,-0.4512254721358418,1.6108675091743467
1667824630478617600,7.73661767578125,-0.5832400331825017,-0.6567360620260239,1.7339390314392744
1667824630488625000,7.746625,-0.6943465384960175,-0.7411921685621142,1.664886684131622
1667824630498632700,7.7566328125,-0.7596236050486564,-0.5938622572228313,1.4154739702813326
1667824630508640800,7.766640869140625,-0.9569704699665308,-0.4722274897627532,1.093262927528098
1667824630518647600,7.7766474609375,-1.1453922701507806,-0.42625864253118634,0.8010497673492878
1667824630528656000,7.78665576171875,-1.3448083425581454,-0.3620907062642276,0.5277542197387666
1667824630538663700,7.79666357421875,-1.4581208334833382,-0.318292188809067,0.17272165182512253
1667824630548670700,7.806670654296875,-1.3889976128965615,-0.20178923127949236,-0.19800602294635025
1667824630558678500,7.816678466796875,-1.31402741984725,-0.08123436801061033,-0.4890124011512845
1667824630568685800,7.826685791015625,-1.1916495789349077,-0.12678747404813764,-0.6663013974245637
1667824630578693600,7.836693603515625,-1.022217141380906,-0.399063761613518,-0.7360539288908243
1667824630588701700,7.84670166015625,-0.8841519019931554,-0.78229063327834,-0.7744367779728025
1667824630598708700,7.856708740234375,-0.6694307084262371,-1.073507914287597,-0.8505230425052345
1667824630608716800,7.866716796875,-0.37434769189953804,-1.2434484474942087,-0.8919973547965288
1667824630618724900,7.876724853515625,-0.1228951427847147,-1.3702414745002984,-0.9259929287049918
1667824630628731600,7.886731689453125,0.09902034620046615,-1.4603167360924183,-0.987604020095989
1667824630638739700,7.89673974609375,0.3968967928379774,-1.4725798592075705,-1.0779515958234667
1667824630648747800,7.906747802734375,0.6773205848932266,-1.4386249826356767,-1.1372468114875256
1667824630658754800,7.9167548828125,0.9723848967194557,-1.367332893577218,-1.177688711991161
1667824630668762600,7.9267626953125,1.1387561931371688,-1.2989587377920746,-1.1383341683328152
1667824630678770700,7.936770751953125,1.3364981948524712,-1.2549915857717393,-1.0279588999032974
1667824630688777700,7.94677783203125,1.5192647457540034,-1.230247312876582,-0.9020867871344089
1667824630698785800,7.956785888671875,1.6690063944101332,-1.2012173254862426,-0.7073686632849275
1667824630708792600,7.96679248046875,1.8119746034085749,-1.1589616535589098,-0.5090505421821028
1667824630718801000,7.97680078125,1.8551842150598763,-1.0863090898022054,-0.32691399627979845
1667824630728808700,7.98680859375,1.8648375940680502,-1.000477018737793,-0.12338792213718407
1667824630738815700,7.996815673828125,1.9665157613009214,-0.9229200240656733,0.0560411457715556
1667824630748823600,8.006823486328125,1.9652251369684934,-0.8870824024870991,0.19347802412789314
1667824630758831600,8.01683154296875,1.9007687391489743,-0.8848609270453452,0.2824935840666294
1667824630768838700,8.026838623046874,1.8445272119671106,-0.8849337000206112,0.33819139629323036
1667824630778846700,8.0368466796875,1.7127666256815195,-0.8577271286651491,0.3983760716103017
1667824630788854800,8.046854736328125,1.6402531781345604,-0.8434013739317655,0.4184085866179317
1667824630798861800,8.05686181640625,1.5775696352064608,-0.8580638132736086,0.4286942721802741
1667824630808870000,8.066869873046874,1.4739485172122717,-0.8316893088281154,0.42354514578878877
1667824630818876700,8.076876708984376,1.3916560184508562,-0.790387576624751,0.4141967410765588
1667824630828884700,8.086884765625,1.2921616249978543,-0.7736153055220842,0.399009693338722
1667824630838892800,8.096892822265625,1.130600359210372,-0.7950921010538935,0.378611194562912
1667824630848899800,8.10689990234375,0.9916559989005327,-0.8412766368627548,0.33834961906224487
1667824630858907600,8.11690771484375,0.767259799015522,-0.8319152265384793,0.20720252503249792
1667824630868915700,8.126915771484375,0.4668950426936149,-0.7806012188866734,0.08748988474141806
1667824630878922800,8.1369228515625,0.17335867108702657,-0.7541951502591371,-0.04426310275960713
1667824630888930800,8.146930908203124,-0.10673545062243937,-0.7653691629633307,-0.21911460622027515
1667824630898938600,8.156938720703126,-0.45706455355286596,-0.7455860196068882,-0.4031130370043218
1667824630908946000,8.16694580078125,-0.6639151598751545,-0.666849752022326,-0.656475511393696
1667824630918953700,8.17695361328125,-0.8769611137062311,-0.49587826833277937,-0.8804616691730915
1667824630928960800,8.186960693359374,-1.1421394058346748,-0.30615970633625983,-1.0808005555137992
1667824630938964500,8.196964599609375,-1.4029618408411741,-0.12687106067836285,-1.306304862771183
1667824630948972500,8.20697265625,-1.6200912645936012,0.018988193586468697,-1.5101662241496145
1667824630958979300,8.216979248046876,-1.793341214609146,0.16004706183224915,-1.7448003249324857
1667824630968987400,8.2269873046875,-1.8625053517282009,0.32218905011713506,-1.9496270242117344
1667824630978995200,8.2369951171875,-1.8168670516252516,0.5067229029521346,-2.1380444404818117
1667824630989002500,8.24700244140625,-1.6695587675958872,0.7169774724990129,-2.284286994975805
1667824630999010300,8.25701025390625,-1.4382371523618698,0.940513256162405,-2.345523700096458
1667824631009018400,8.267018310546876,-1.188368657568097,1.1326076073795557,-2.407782441741228
1667824631019025400,8.277025390625,-0.8624339911818504,1.2478025510504842,-2.4495690348520873
1667824631029033500,8.287033447265625,-0.527780011767149,1.2998340593218802,-2.390703735037893
1667824631039040300,8.297040283203126,-0.20825638146698475,1.3426111247748136,-2.3033030994825063
1667824631049048300,8.30704833984375,0.11707914998233318,1.3855793288856744,-2.1738692025788127
1667824631059056600,8.317056640625,0.3903203370571136,1.37020114248991,-2.000878926412761
1667824631069063400,8.3270634765625,0.5899924300521612,1.3001716207131742,-1.8113149704560636
1667824631079071500,8.337071533203124,0.7173854687780141,1.225646541082859,-1.6041411235287784
1667824631089079300,8.347079345703126,0.7836018620073795,1.1021487562298775,-1.414712630520016
1667824631099086600,8.357086669921875,0.8303162669092417,0.9422919562727212,-1.2604086423844099
1667824631109094400,8.367094482421875,0.8119570188760757,0.7754504119947552,-1.0488575302209704
1667824631119102500,8.3771025390625,0.6876940948694944,0.6185737968921661,-0.813579067119956
1667824631129109500,8.387109619140626,0.4575672423779964,0.48897272672802206,-0.6430695018537342
1667824631139117600,8.39711767578125,0.14439619597494602,0.45565293318927286,-0.5260268114242702
1667824631149124400,8.407124267578125,-0.1556242769539356,0.494815899798274,-0.449548478834331
1667824631159132400,8.41713232421875,-0.3767746267855167,0.5528814275369048,-0.48433878331705926
1667824631169140200,8.42714013671875,-0.5126479090869427,0.6820727478563785,-0.5773784842053428
1667824631179147500,8.4371474609375,-0.6341863765656948,0.878022313196957,-0.593070960714668
1667824631189155300,8.4471552734375,-0.6505459752142428,1.168676115104556,-0.7131032614141702
1667824631199163400,8.457163330078124,-0.5734615664899348,1.5636036536961793,-0.8116057212203741
1667824631209170400,8.46717041015625,-0.4294423871338367,1.8463021126851438,-0.7443621038351208
1667824631219178500,8.477178466796875,-0.17581658563315866,1.8450740321949124,-0.572031972078234
1667824631229185300,8.487185302734375,0.125242582693696,1.6614248532399534,-0.3770284919487312
1667824631239193300,8.497193359375,0.37196342711150643,1.4009224439680577,-0.06956566712465137
1667824631249201400,8.507201416015626,0.6476683739513158,1.1155334307208657,0.33103947871197015
1667824631259208400,8.51720849609375,0.9352069664478302,0.7500865458965301,0.5653786151362583
1667824631269216300,8.52721630859375,1.2278724004387855,0.4652160035654902,0.7438202520433813
1667824631279224300,8.537224365234374,1.4240660036683082,0.23315730622857808,0.9420818206533789
1667824631289231400,8.5472314453125,1.5271411782175301,-0.026383856795728206,1.0984687525428831
1667824631299239400,8.557239501953125,1.599360026732087,-0.27505057458430526,1.2044424250125885
1667824631309247500,8.56724755859375,1.6021569639742375,-0.4756847906097769,1.2527611963711678
1667824631319254300,8.577254150390624,1.4944079523950815,-0.6307534795075654,1.2534291587606072
1667824631329262600,8.5872626953125,1.3639917664557695,-0.8220327149495482,1.1760048505574463
1667824631339270400,8.5972705078125,1.2640022829622028,-0.9795531809136271,1.041654978431016
1667824631349277400,8.60727734375,1.0339625242322683,-1.045595094358921,0.9425991955909877
1667824631359285200,8.61728515625,0.7289864747226238,-1.0332838943183422,0.9509049593824893
1667824631369292500,8.62729248046875,0.5072247149944306,-0.9753072139069437,0.9754666422523558
1667824631379300400,8.63730029296875,0.2852309000760317,-0.8940732842877507,0.8427633682891726
1667824631389308400,8.647308349609375,0.1280149700164795,-0.7922554163232445,0.6192182322755455
1667824631399315500,8.6573154296875,-0.1862070467442274,-0.6603805560082197,0.4543678618147969
1667824631409323500,8.667323486328126,-0.38782735119760037,-0.5899912610083818,0.47453240570425986
1667824631419331300,8.677331298828125,-0.40339901433885095,-0.5907008705824613,0.4530555371072143
1667824631429338400,8.68733837890625,-0.5443401014238596,-0.589513414363563,0.4649648783486336
1667824631439346400,8.697346435546875,-0.558222496303916,-0.5197162400379777,0.5215850295845419
1667824631449354500,8.7073544921875,-0.5169914912492036,-0.4200900368988514,0.6439984532669186
1667824631459361300,8.717361328125,-0.45614510062038893,-0.3539677516937256,0.7618011682834476
1667824631469369300,8.727369384765625,-0.3856780642092228,-0.3342974210619926,0.8860710334874689
1667824631479376400,8.73737646484375,-0.2940010665088892,-0.34514702411741016,1.0275012192636728
1667824631489384400,8.747384521484374,-0.17800503558814523,-0.34455987187922,1.1848278431560844
1667824631499392500,8.757392578125,-0.14502514152824877,-0.36820991979688406,1.3517203139036893
1667824631509399300,8.7673994140625,-0.1140934121698141,-0.4054872187897563,1.4955195668987928
1667824631519407600,8.77740771484375,-0.0310264219045639,-0.4009413920536637,1.5858536255575715
1667824631529415400,8.78741552734375,-0.05981061784029006,-0.32696605526059863,1.640005925375223
1667824631539422500,8.79742236328125,-0.14950900894403457,-0.25658874295949935,1.6743654372252523
1667824631549430300,8.80743017578125,-0.11955460018515586,-0.2032367997393012,1.6502051016978918
1667824631559438600,8.8174384765625,-0.1062684176325798,-0.1349672733724117,1.590373733330518
1667824631569445400,8.8274453125,-0.21206044992506504,-0.06296615926176309,1.5660019470095634
1667824631579453400,8.837453369140626,-0.323254049000144,-0.03776595929265022,1.5525532673716544
1667824631589460500,8.84746044921875,-0.34651802020967004,-0.05793956327140331,1.4987664398655294
1667824631599468500,8.857468505859375,-0.4228688539624214,-0.04551408920139074,1.4300895017415285
1667824631609476400,8.867476318359374,-0.4482967252075672,-0.012867080357670783,1.412535871002823
1667824631619483400,8.8774833984375,-0.40062721153795716,0.02200403427630663,1.356382314365357
1667824631629491500,8.887491455078125,-0.4363806619644165,0.06766629977673291,1.3060770453646777
1667824631639499500,8.89749951171875,-0.4294862262755632,0.0767231741964817,1.2456386510148643
1667824631649506300,8.90750634765625,-0.37547932627797126,0.09300152430236339,1.1434885554213077
1667824631659514400,8.917514404296876,-0.3085235128581524,0.16843524321019648,1.0168643821761012
1667824631669521400,8.927521484375,-0.25000585743784903,0.2179018694296479,0.8819329838346689
1667824631679529500,8.937529541015625,-0.18251403744518757,0.21585896542519328,0.7367280287601053
1667824631689537500,8.94753759765625,-0.03309562939405441,0.17957126199156045,0.6515969455718994
1667824631699544300,8.95754443359375,0.07570727515220642,-0.01196750116944313,0.7350327691495419
1667824631709552600,8.967552734375,-0.030975568500161168,-0.44718174970299,0.8772793858751654
1667824631719560400,8.977560546875,-0.22389351105988026,-0.9143260909825562,0.9231386352524161
1667824631729567500,8.9875673828125,-0.47715690898895263,-1.136894490918517,0.7048328611969947
1667824631739575300,8.9975751953125,-0.8918687599807977,-1.1301704433605073,0.33585312607139345
1667824631749583400,9.007583251953125,-1.176736671963334,-1.1089482071116565,-0.021089458448346702
1667824631759590400,9.01759033203125,-1.4828788426429031,-1.0618941949918865,-0.3397790308108553
1667824631769598500,9.027598388671874,-1.7699059784859419,-0.9581383447021246,-0.7000649161428213
1667824631779605500,9.03760546875,-1.8052333124548197,-0.6587120382741093,-1.1446366294778882
1667824631789613600,9.047613525390625,-1.660103541508317,-0.2434330549187958,-1.5070090752929448
1667824631799621400,9.057621337890625,-1.3946277277380228,0.027791531636565923,-1.7651203516446052
1667824631809628400,9.06762841796875,-1.1703671369314192,0.02701090265288949,-1.760084549434483
1667824631819636200,9.07763623046875,-0.8638368437170982,-0.23016528480574489,-1.5871386969320476
1667824631829644500,9.08764453125,-0.37470425025224685,-0.5520182348363101,-1.5476904836408794
1667824631839651300,9.0976513671875,0.14537468561828135,-0.7544035323128104,-1.493265796622634
1667824631849659400,9.107659423828125,0.5825631568342446,-0.9782771696284412,-1.2566628799848258
1667824631859667200,9.117667236328124,0.9671095866650342,-1.2562022767357528,-0.9408515482060611
1667824631869674500,9.127674560546875,1.3061165005922317,-1.4319225623875855,-0.6413291609924286
1667824631879682300,9.137682373046875,1.4186696975827215,-1.4205062653601168,-0.3872870337758213
1667824631889689300,9.147689453125,1.5266069252103567,-1.2917244026243686,-0.1291512440374121
1667824631899697400,9.157697509765624,1.700536674183607,-1.1697986893936991,0.03600165303386747
1667824631909705500,9.16770556640625,1.7434639617621899,-1.159237255629897,0.1597043858744204
1667824631919712300,9.177712158203125,1.7443232089400291,-1.2170403330400585,0.30419322856888176
1667824631929720300,9.18772021484375,1.6780641456127166,-1.2686726128607988,0.38031441828422247
1667824631939728600,9.197728759765624,1.5598551148176192,-1.2933563877403735,0.4083079022336751
1667824631949736000,9.20773583984375,1.4292466211766004,-1.2576231033191083,0.4528906288690865
1667824631959743700,9.21774365234375,1.3338701844364405,-1.1210741137132048,0.5364351735182106
1667824631969751800,9.227751708984375,1.2666612730383873,-0.898705328002572,0.6542848694816231
1667824631979758800,9.2377587890625,1.129773845258355,-0.7590192094147205,0.7712209577314555
1667824631989767000,9.247766845703126,1.0535749871969222,-0.7027896649315953,0.8586691587556153
1667824631999773700,9.257773681640625,0.9770768539279698,-0.6485644460082054,0.9970354999817908
1667824632009781800,9.26778173828125,0.8189975850373507,-0.5927347144976258,1.1475285515271128
1667824632019789600,9.27778955078125,0.7162713700562715,-0.590501840879023,1.248246495425701
1667824632029796900,9.287796875,0.660173050737381,-0.5872106903791428,1.309346276293695
1667824632039804700,9.2978046875,0.5203250195860862,-0.5397735241606831,1.3571981607928871
1667824632049812700,9.307812744140625,0.3825134626984596,-0.49081484746336934,1.364984138493985
1667824632059819800,9.31781982421875,0.2535679338335991,-0.4840203650176525,1.340900959856063
1667824632069827800,9.327827880859376,0.14184943410158157,-0.5000353880122304,1.280715371223539
1667824632079834600,9.337834716796875,-0.04417757990062236,-0.5040536837428808,1.2239331612937152
1667824632089842700,9.3478427734375,-0.26119711353778835,-0.48230391648858784,1.0932139007546007
1667824632099851000,9.35785107421875,-0.4488514364808798,-0.45220600760579105,0.9443838139854371
1667824632109857800,9.36785791015625,-0.4967167649835348,-0.43063130465745925,0.7794603782884776
1667824632119865900,9.377865966796875,-0.6117062492102384,-0.42931350005716085,0.5907203790005296
1667824632129873700,9.387873779296875,-0.7661012766301631,-0.4070718576326966,0.4175976720938459
1667824632139881000,9.397880859375,-0.8847627273678779,-0.30718554225265976,0.2282031544199213
1667824632149888800,9.407888671875,-1.010277112740278,-0.12455401590764521,0.04316025608424097
1667824632159896800,9.417896728515625,-1.034964394751191,0.08635141876339912,-0.1506764818208292
1667824632169903900,9.42790380859375,-1.089812421748042,0.22466128056198356,-0.30157018658891316
1667824632179912000,9.437911865234375,-1.2274953838199376,0.30566929247081276,-0.47060153252873566
1667824632189918700,9.447918701171876,-1.2744278153866528,0.4146186197504401,-0.6709455699685961
1667824632199926800,9.4579267578125,-1.232189094594121,0.535557075509429,-0.88294742157422
1667824632209934600,9.4679345703125,-1.1619313170194625,0.6469982196047902,-1.0286257663141936
1667824632219942000,9.47794189453125,-0.9763689979195594,0.7611784332752227,-1.1544821700572967
1667824632229949700,9.48794970703125,-0.8205237716913223,0.9041311524435878,-1.3094823237635194
1667824632239957800,9.497957763671875,-0.5969780511558056,1.045204925997555,-1.4419411214463411
1667824632249964800,9.50796484375,-0.2918523640424013,1.1914824056744575,-1.6153081219702958
1667824632259972900,9.517972900390625,-0.019333646023273466,1.2985051488056778,-1.7575838186599313
1667824632269980700,9.527980712890624,0.2784989614725113,1.2681094260200858,-1.8148828920707105
1667824632279987700,9.53798779296875,0.5629039321184158,1.1594131967186927,-1.8138881819449364
1667824632289995800,9.547995849609375,0.7558177830249071,1.004425171841681,-1.7785260689236222
1667824632300002800,9.5580029296875,0.918278628000617,0.8354802255436777,-1.7485582161612807
1667824632310010600,9.5680107421875,1.0221674570202828,0.6852145530134439,-1.646434497117996
1667824632320018700,9.578018798828126,0.9912421574026345,0.476781353674829,-1.4814965945042669
1667824632330025700,9.588025634765625,0.8893716824680566,0.2020642488285899,-1.3248480890691279
1667824632340033800,9.59803369140625,0.7045201419860124,-0.0687368516176939,-1.165221152345091
1667824632350041900,9.608041748046874,0.3524515019118786,-0.2393859714850783,-1.0582943438690156
1667824632360049000,9.618048828125,-0.004465162715315819,-0.2970344428554177,-1.0555911493249237
1667824632370057000,9.628056884765625,-0.40582010400593277,-0.2715282456770539,-1.1409227235212922
1667824632380064800,9.638064697265625,-0.7517191155344247,-0.19284078567028046,-1.296110801015049
1667824632390071800,9.64807177734375,-1.0440063638627528,-0.018239713306725025,-1.4567733643971383
1667824632400079600,9.65807958984375,-1.2904174116790295,0.24339257677793502,-1.5986873881675303
1667824632410087000,9.6680869140625,-1.316848907008767,0.6137412621691822,-1.8824267345115542
1667824632420094700,9.6780947265625,-1.2413842084407805,1.0443126533329485,-2.0477885616257785
1667824632430102800,9.688102783203124,-1.1598270382165907,1.352879128549993,-1.9574106638252733
1667824632440109800,9.69810986328125,-0.9300865546941757,1.3993655699148773,-1.7713118997611104
1667824632450118000,9.708117919921875,-0.4889963998645544,1.2611959933698176,-1.6070321687951683
1667824632460125700,9.718125732421875,-0.08149111925065516,1.1279100972130893,-1.3761314093217254
1667824632470132700,9.7281328125,0.3766448629260063,0.9593807459786534,-1.0556979707002638
1667824632480140800,9.738140869140626,0.9355208547025918,0.7480126622319221,-0.7882092827375978
1667824632490148900,9.74814892578125,1.4822189174294471,0.5748819546818733,-0.6147426212314516
1667824632500155600,9.75815576171875,2.0108166753202674,0.43988340938836334,-0.47496049492321907
1667824632510163700,9.768163818359374,2.395797989436984,0.30962942827343937,-0.32572124283127485
1667824632520170800,9.778170654296876,2.6862720508635043,0.14573592014610767,-0.16349890105286613
1667824632530178800,9.7881787109375,2.913490322431922,-0.05054243875741958,0.010088245027791707
1667824632540187000,9.798186767578125,3.0181144799888133,-0.20309008474498985,0.12467011656798421
1667824632550193700,9.808193603515624,3.055202978411317,-0.326698636496067,0.21599300360102205
1667824632560202000,9.818201904296876,3.053544105288386,-0.46452129929959773,0.3052670318128541
1667824632570209800,9.828209716796875,2.888858570000529,-0.6086120825871825,0.4213483663968742
1667824632580216800,9.838216796875,2.7411867133557797,-0.7220259880602359,0.4950958857834339
1667824632590224600,9.848224609375,2.6233400861322878,-0.7233435003995895,0.5228581547928973
1667824632600233000,9.85823291015625,2.34677413854897,-0.6632888446703553,0.5884135633628815
1667824632610239700,9.86823974609375,2.0525129597991705,-0.6262295723423361,0.6907404037628322
1667824632620247800,9.878247802734375,1.7717606664419172,-0.6216641641229391,0.7840509940143674
1667824632630254800,9.8882548828125,1.4233224918246268,-0.5324392357498408,0.7629783223040402
1667824632640263000,9.898262939453126,1.072746136134863,-0.3554688039064407,0.6750343005869537
1667824632650270700,9.908270751953125,0.7383060917317866,-0.12368687768429518,0.6047756462294608
1667824632660277800,9.91827783203125,0.24598434683680534,0.04385346251279115,0.5250234796006232
1667824632670285800,9.928285888671875,-0.25197335811853405,0.11002104816436767,0.47097727050594984
1667824632680294000,9.9382939453125,-0.5803630164414644,0.13499796077162027,0.4165013647571206
1667824632690300700,9.94830078125,-0.9103507576107979,0.23037819690406322,0.28488164824694395
1667824632700308700,9.958308837890625,-1.1660656403452156,0.4022299705594778,0.17767814172133803
1667824632710316800,9.96831689453125,-1.3662141186803578,0.6251067057922483,0.048436844780296084
1667824632720323800,9.97832373046875,-1.4826713373720646,0.8205363389119505,-0.01487659354917705
1667824632730332000,9.988331787109376,-1.486568344810605,0.9044649144425988,0.0042489626813679935
1667824632740338700,9.998338623046875,-1.4287895250588654,0.9200698953315615,0.03656016369946301
1667824632750347000,10.008346923828125,-1.2339870839267968,0.8885162346825003,0.18854718012958763
1667824632760354800,10.018354736328124,-0.9689707043617963,0.8242647117853165,0.4206999124255031
1667824632770361900,10.02836181640625,-0.6799509333968162,0.7267924718096852,0.6214044902734458
1667824632780369700,10.03836962890625,-0.4508680370002985,0.6092141401335597,0.8293230180881916
1667824632790377700,10.048377685546875,-0.2687017900794744,0.47030777374655003,1.0655712760694325
1667824632800384800,10.058384765625,-0.0908399623543024,0.3067991732835769,1.229881986695528
1667824632810392800,10.068392822265626,0.06416705948412418,0.17747224388569594,1.353824300445616
1667824632820400600,10.078400634765625,0.2058791309416294,0.07187222703397274,1.5266526640482245
1667824632830408000,10.088407958984375,0.25261048697829247,-0.055312137377262115,1.6999591665565967
1667824632840415700,10.098415771484374,0.2509796709060669,-0.2187456267774105,1.8434405857741831
1667824632850422800,10.1084228515625,0.1577601199388504,-0.35068069284707304,1.9080318620197474
1667824632860430600,10.1184306640625,0.05911503679156303,-0.41327597296983,1.9057855443976819
1667824632870439000,10.12843896484375,-0.07330372114181519,-0.4396083918392658,1.9196049570441245
1667824632880445700,10.13844580078125,-0.18874854792058468,-0.47397228760346766,1.9151291268043218
1667824632890453800,10.148453857421876,-0.2978957358598709,-0.5015530990988016,1.9033825749091804
1667824632900461600,10.158461669921875,-0.4302928664833307,-0.5368234421834349,1.9516862948291003
1667824632910468900,10.16846875,-0.6375497155189513,-0.6212655201941728,2.0361330490149556
1667824632920476700,10.1784765625,-0.8846586824715137,-0.6996192182019353,2.111194281348586
1667824632930484700,10.188484619140626,-1.2018144145965575,-0.8022270675003528,2.155784387572855
1667824632940491300,10.1984912109375,-1.6439824277907609,-0.9062374770730733,2.073152135463059
1667824632950499300,10.208499267578125,-2.0297785654217004,-0.8521212714821099,1.8670193220213054
1667824632960506000,10.218506103515624,-2.3037059811949727,-0.713111152459681,1.5739014680877328
1667824632970514200,10.22851416015625,-2.554599727383256,-0.6444568645589053,1.2310554143890737
1667824632980522500,10.2385224609375,-2.684129778137803,-0.6102024205185472,0.889550984557718
1667824632990529300,10.248529296875,-2.6850626750737425,-0.5558798056352883,0.580796475955285
1667824633000537300,10.258537353515624,-2.686936652252078,-0.537530786735192,0.2775391399970278
1667824633010545200,10.268545166015626,-2.5753672056019306,-0.5476671269547194,-0.05374320756010711
1667824633020552400,10.278552490234375,-2.3540754014730454,-0.523036543567106,-0.43045441372059284
1667824633030560300,10.288560302734375,-2.0515987675637004,-0.522477521444857,-0.7860340575903654
1667824633040568300,10.298568359375,-1.7069968101084232,-0.6418992890305817,-1.0091155946802348
1667824633050575400,10.308575439453126,-1.4977233605533837,-0.9410727166760713,-1.1194386214658618
1667824633060583400,10.31858349609375,-1.273870181503892,-1.2920976198509335,-1.1552540312126278
1667824633070591200,10.32859130859375,-0.9529144725739955,-1.5768544726744294,-1.1100520767003297
1667824633080598300,10.338598388671874,-0.5496691874921321,-1.6768477555602788,-1.0171944909133017
1667824633090606300,10.3486064453125,-0.16367665050625801,-1.6485352687895296,-0.940518151533231
1667824633100613400,10.35861328125,0.35619945626854893,-1.5850982771456241,-0.8820376132529228
1667824633110621200,10.36862109375,0.9161194041401147,-1.5408447093993425,-0.8344215102709829
1667824633120629200,10.378629150390625,1.4161901557266712,-1.5029741206884384,-0.7340523067448288
1667824633130636300,10.38863623046875,1.899674514171481,-1.4324261279955506,-0.5369605125665664
1667824633140644400,10.398644287109375,2.273787228271365,-1.3550890596844256,-0.24445202270299196
1667824633150652200,10.408652099609375,2.4873873088538647,-1.3164151917666196,0.020280644549801944
1667824633160659200,10.4186591796875,2.527272159996629,-1.3222861296266317,0.2754531640358269
1667824633170667300,10.428667236328126,2.581362062102556,-1.3463260536447166,0.5084877937328071
1667824633180675300,10.43867529296875,2.588810624542832,-1.3526920815452932,0.7551304583478718
1667824633190682000,10.44868212890625,2.514076578336954,-1.3334711021162569,0.9275890387900173
1667824633200690200,10.458690185546875,2.4416782816022633,-1.2615056438408792,0.9290755510207265
1667824633210697200,10.468697265625,2.3377467824846505,-1.1631070828005672,0.9828118904486298
1667824633220705300,10.478705322265625,2.1848756036311388,-1.0982631469681858,1.0368779732875526
1667824633230713300,10.48871337890625,1.9889193162888288,-1.067544475838542,1.0309227181449532
1667824633240720400,10.498720458984375,1.82190563031435,-1.029765072542429,1.0314493723675608
1667824633250728400,10.508728515625,1.620682800745964,-1.0389354903392494,1.0060125871635972
1667824633260736300,10.518736328125,1.3393898246407507,-1.0181715192519127,0.9764261349342763
1667824633270743300,10.528743408203125,1.0648428156644105,-0.9582358137272298,0.9849978561855852
1667824633280751000,10.538751220703125,0.5999871698439121,-0.9151029205739497,0.9481579256966709
1667824633290759400,10.548759521484374,-0.010182371318340301,-0.9003972266122698,0.803073455196619
1667824633300766200,10.55876611328125,-0.48619537096917625,-0.832742763403803,0.5879631161816418
1667824633310774300,10.568774169921875,-0.75635320507586,-0.6694155108571053,0.35348990504890676
1667824633320781300,10.57878125,-1.065561777588725,-0.42731414293348785,0.08368154196701943
1667824633330789400,10.588789306640624,-1.2739414931744337,-0.13861439770311115,-0.21690146021544932
1667824633340797200,10.598797119140626,-1.3095967439234255,0.14354527823403476,-0.5155065133884549
1667824633350804200,10.60880419921875,-1.207565525469184,0.42244712141901253,-0.8225766856331378
1667824633360812300,10.618812255859375,-1.1275497394680976,0.69899494882375,-0.9731762662928551
1667824633370820400,10.6288203125,-1.1299573851317166,0.8135138929292559,-0.9922027460630982
1667824633380827100,10.6388271484375,-1.0530348889708518,0.6997294005781411,-1.0431456553801894
1667824633390835200,10.648835205078125,-0.9632833063751458,0.5185654625676572,-1.0546915701366961
1667824633400843300,10.65884326171875,-0.8663210617482662,0.3358385130241513,-1.046081270440668
1667824633410850300,10.668850341796874,-0.712980511817336,0.20486600837633012,-1.1431006520822644
1667824633420858400,10.6788583984375,-0.5285919126719236,0.2538967273965478,-1.2526818475246428
1667824633430866200,10.6888662109375,-0.40595746665000915,0.4822254444248974,-1.3754444499708711
1667824633440873500,10.69887353515625,-0.28521862511634827,0.7440053262867034,-1.5354636008828877
1667824633450881300,10.70888134765625,-0.06862696150243282,1.0104673746153712,-1.7080618089914321
1667824633460888300,10.718888427734376,0.18465104947388172,1.3422218331962823,-1.8576560120008885
1667824633470896000,10.728896240234375,0.44552316884100435,1.628758555173874,-1.8778823690801858
1667824633480904400,10.738904541015625,0.6912210999518632,1.7660162775710224,-1.8818216082252561
1667824633490911200,10.7489111328125,0.928286227273941,1.7740020156279206,-1.9517694430679082
1667824633500919300,10.758919189453126,1.1540823570847512,1.7923627249658107,-1.9189329030014572
1667824633510927000,10.768927001953125,1.4197382035970687,1.7911191546455025,-1.7824819669425487
1667824633520934400,10.778934326171875,1.7293226236850023,1.702571394881606,-1.674969102206826
1667824633530942200,10.788942138671874,1.9509265625029801,1.5666618722230194,-1.63076594947353
1667824633540950300,10.7989501953125,2.044695564046502,1.3793153000548481,-1.5493261220186947
1667824633550957300,10.808957275390625,2.074363557079434,1.1628756121322512,-1.373261991365254
1667824633560965400,10.81896533203125,2.0817326245427132,0.8840008030846714,-1.1368582505613565
1667824633570972200,10.82897216796875,2.042465028515458,0.6486205601096153,-0.9147951697990298
1667824633580980200,10.838980224609376,1.9189555532246827,0.5203644748136401,-0.7366084209684282
1667824633590988300,10.84898828125,1.6337363435864447,0.4529162017017603,-0.6099398605922237
1667824633600995300,10.858995361328125,1.179905365127325,0.3568848081842065,-0.5044582459557801
1667824633611003400,10.86900341796875,0.6592483371078968,0.2803071799382567,-0.44172633384130894
1667824633621011200,10.87901123046875,0.15163783766627312,0.24759032072871923,-0.42631008045747876
1667824633631018500,10.8890185546875,-0.20222762269675731,0.25239509066194293,-0.4973406325029209
1667824633641026300,10.8990263671875,-0.4229115240603685,0.3399126305952668,-0.6665712273418903
1667824633651034400,10.909034423828125,-0.6999936044722795,0.5310150481656194,-0.7915202339164912
1667824633661041200,10.919041259765624,-0.8658891000717878,0.7695172225534915,-0.8995390754129737
1667824633671049500,10.929049560546876,-0.8322258999228477,1.0529625543870031,-1.0167110913105308
1667824633681056300,10.93905615234375,-0.7176268763184547,1.3525573492497205,-0.992601901448518
1667824633691064300,10.949064208984375,-0.6029302375584841,1.3847412706263362,-0.9210119984872639
1667824633701072100,10.959072021484374,-0.37248482063710686,1.1248783283017576,-0.5803716746719554
1667824633711079400,10.969079345703125,-0.0507248095870018,0.7159722409792244,-0.10919910078961402
1667824633721087200,10.979087158203125,0.031010639813542365,0.3323677681736648,0.23583916572369634
1667824633731095300,10.98909521484375,0.08960545212328433,-0.08489201373532414,0.582797221318446
1667824633741102300,10.999102294921874,0.26388766779601575,-0.5720401553846896,0.9845531811580062
1667824633751110400,11.0091103515625,0.2901443910807371,-1.080816775996238,1.1537171770341694
1667824633761118200,11.0191181640625,0.4236620501667261,-1.483209097510576,1.3606576535969972
1667824633771125200,11.029125244140625,0.8438082011669874,-1.514099618075788,1.2947865666739642
1667824633781133000,11.039133056640624,2.489339027443528,-2.1467849424287677,1.459333424143493
1667824633791140400,11.049140380859376,0.46877661865651604,-2.045429869670421,0.9394907812468707
1667824633801148200,11.059148193359375,-1.6803987260401247,-1.4188593749359248,0.47136711007375265
1667824633811156200,11.06915625,0.2700958747863769,-1.410550688534975,0.33360494528580453
1667824633821163300,11.079163330078124,1.911439186245203,-1.6866165776416657,0.6317280236281454
1667824633831171300,11.08917138671875,-0.31199615740478037,-0.7564255396597087,1.271354837682098
1667824633841179400,11.099179443359375,-0.7372177119731903,-0.27742943254485725,1.3829950114808975
1667824633851186200,11.109186279296875,0.8832961619466543,-0.7268778850708156,0.8466764500796794
1667824633861194500,11.119194580078124,0.5863415063291788,-0.7535613093350082,0.304622030173894
1667824633871202300,11.129202392578126,0.04895663087069988,-0.3505195840012282,0.1255626997598447
1667824633881209300,11.139209228515625,0.3624965105861425,0.0028093583323061467,0.3603670242767781
1667824633891217200,11.149217041015625,0.4611053533762693,-0.04514971286840737,0.7138913430519401
1667824633901225200,11.15922509765625,-0.09234393717646598,-0.42221170522794127,0.8535774616397916
1667824633911232300,11.169232177734376,-0.2867904044777155,-0.882142315736413,0.8587418586656451
1667824633921240300,11.179240234375,-0.16870821493268012,-1.1740842577584087,0.7351045192115009
1667824633931247400,11.189247314453125,-0.5008060801237821,-1.0531949018381535,0.46601351061873136
1667824633941255700,11.199255615234375,-0.8627379425644874,-0.7442261294305325,0.240031174053438
1667824633951263500,11.209263427734374,-1.0224421823084353,-0.6311888021849096,0.1542747255085036
1667824633961270500,11.2192705078125,-1.2352782927811146,-0.5763701474130153,0.2833605030942708
1667824633971278300,11.2292783203125,-2.1180039613634345,-0.4170603138141334,0.48963754731230436
1667824633981286400,11.239286376953125,-2.689452434465289,-0.14379428455904125,0.5909424242533743
1667824633991293400,11.24929345703125,-2.6165724916934967,0.0920011150881648,0.5729693259935825
1667824634001301500,11.259301513671875,-2.6154689143657683,0.21627382983639834,0.11756532606407999
1667824634011309600,11.2693095703125,-2.576205994513631,0.19276669752076267,-0.4182973082631826
1667824634021316600,11.279316650390625,-2.127738588914275,0.07448503988087177,-0.628455212502554
1667824634031324700,11.28932470703125,-1.3150251987129449,0.014083616540580986,-0.4766982419686392
1667824634041332500,11.29933251953125,-0.5954056872725486,-0.004293605540692806,-0.27866333998767656
1667824634051339500,11.309339599609375,-0.2174211001753807,-0.1955117584452033,-0.0792149179469794
1667824634061347600,11.31934765625,-0.17861469191908835,-0.5725350992947816,0.05326145192515105
1667824634071354600,11.329354736328124,-0.31336510767042636,-0.9114984663411975,0.10011340213418006
1667824634081362400,11.339362548828126,-0.9352642495930195,-1.1397153935581446,-0.04626293480731546
1667824634091370500,11.34937060546875,-1.6041712264060972,-1.3855585783585904,0.04827756256535649
1667824634101377500,11.35937744140625,-1.831247459155321,-1.5419892032593487,0.3689230365023017
1667824634111385600,11.369385498046874,-1.2856412833184003,-2.469879416953027,0.9923515799492597
1667824634121393400,11.379393310546876,-1.1284206770837306,-2.838022116732597,1.0646556225292385
1667824634131400700,11.389400634765625,-2.8439357246905566,-3.060701868088543,0.6513700049482286
1667824634141408500,11.399408447265625,-3.391540965390205,-3.1208602764531967,0.09472337965890765
1667824634151416600,11.40941650390625,-2.822949050763249,-2.626551449394226,0.2197055578507483
1667824634161423400,11.41942333984375,-2.3267186079919338,-1.9880060008361935,0.9703661042429507
1667824634171431400,11.429431396484375,-2.029322053825855,-1.1071860197447239,1.0868931733004747
1667824634181438500,11.4394384765625,-2.024742324820161,-0.5626182470448314,0.24929843982085584
1667824634191446500,11.449446533203124,-1.162819790291786,-0.8738785644557326,-0.5171612948581576
1667824634201454600,11.45945458984375,1.063119060611725,-0.8716817119985818,-0.2908494706101715
1667824634211461600,11.469461669921875,0.9340133727490901,-1.1387531974624843,-0.8741988093860447
1667824634221469700,11.4794697265625,0.3999462435364723,-1.4137028689555824,-1.6181928836263715
1667824634231477500,11.4894775390625,1.1424386810421943,-1.3803233080536126,-1.3523761474639175
1667824634241484500,11.499484619140626,1.2990958081752062,-1.0929324534647167,-1.0915409991063176
1667824634251492600,11.50949267578125,1.109172955778241,-0.38451139505002646,-1.0048255693361163
1667824634261500700,11.519500732421875,0.8680179287940263,0.4857531070943922,-1.0496097368277608
1667824634271507500,11.529507568359374,0.3254308085173368,1.0523712374303489,-1.1837927279546856
1667824634281515500,11.539515625,0.06581950286626816,1.5172951992467045,-1.538090003863722
1667824634291523600,11.549523681640625,0.6633411593794822,1.5142548086374996,-1.3802286155074834
1667824634301530600,11.559530517578125,1.8981740464806556,0.7587023985505104,-1.3435481133639813
1667824634311538400,11.569538330078124,2.9176760836839675,-0.182563064218685,-1.442768658311665
1667824634321545700,11.579545654296876,3.1312375858217476,-0.6386204134903848,-1.3521210036590694
1667824634331553500,11.589553466796875,2.8697756838679314,-0.5562251850068569,-0.9807742471411823
1667824634341561600,11.5995615234375,2.5976632085621354,-0.2795245051279664,-0.4737583525918424
1667824634351568400,11.609568359375,2.4983546930700538,-0.144842916829139,-0.2836563442356884
1667824634361576400,11.619576416015626,2.522131289976835,-0.21038813279867172,-0.3359954571515322
1667824634371584800,11.629584716796876,2.533668583035469,-0.44426673903912306,-0.4239394788686186
1667824634381591600,11.639591552734375,2.380710310420394,-0.6066811145246028,-0.6114032476756721
1667824634391599400,11.649599365234375,1.473649242004752,-0.630033494669944,-1.013411757504195
1667824634401607400,11.659607421875,1.2866928381979466,-0.48929143728837365,-1.1865316513992845
1667824634411614500,11.669614501953125,1.6338976716279983,-0.30512977876663205,-0.3543114505648613
1667824634421622500,11.67962255859375,1.2975532549083233,-0.4015574781253934,-0.08681041457727551
1667824634431630600,11.689630615234375,1.01859135209918,-0.5296018203668296,-0.520021652725339
1667824634441637600,11.6996376953125,1.0672767648130654,-0.43096565117835994,-0.6415504755929112
1667824634451645700,11.709645751953126,1.12375911501348,-0.24285832377076147,-0.5496553050972521
1667824634461652500,11.719652587890625,1.0268372023969887,-0.13791925504580138,-0.48800724269673224
1667824634471660500,11.72966064453125,0.8345879528790712,-0.11670096431970596,-0.3723053724169731
1667824634481668400,11.73966845703125,0.4368494485199451,-0.0782556444607675,-0.25048341182172296
1667824634491675600,11.749675537109376,0.059847442719340324,-0.18496259964108466,0.009347235668450594
1667824634501683500,11.759683349609375,-0.023712299498915672,-0.6874725610733032,0.007781447656452656
1667824634511691500,11.76969140625,-0.40342005712687967,-0.9145376879066228,-0.4273742025576532
1667824634521698600,11.779698486328124,-1.2007272038817405,-0.629060996375978,-0.7915230103954672
1667824634531706600,11.78970654296875,-1.603056543162465,-0.330602073675394,-1.0917527421608566
1667824634541714400,11.79971435546875,-1.5169032773196696,-0.041537586785852905,-1.2792511438898742
1667824634551721500,11.809721435546875,-1.4468442371875048,0.5983589841201901,-1.169900834593922
1667824634561729500,11.8197294921875,-1.3916840755015611,1.282913319659233,-0.9653054598525166
1667824634571736600,11.829736572265626,-1.2265437821835279,1.7565891085341572,-0.9736008483804762
1667824634581744400,11.839744384765625,-1.0550368764430285,1.8947084161967038,-1.1672732625693083
1667824634591752400,11.84975244140625,-0.7276987729996442,1.7079180166065693,-1.3986056914582847
1667824634601759500,11.859759521484374,-0.23580898978114126,1.4114128583222627,-1.449492852000147
1667824634611767600,11.869767578125,0.15111761318445205,1.208218144159019,-1.3980271609179675
1667824634621775600,11.879775634765625,0.3684177173286676,1.0173930822253228,-1.176611584278941
1667824634631782700,11.88978271484375,0.4995312378823757,0.6745268625214695,-0.8723420756034552
1667824634641790700,11.899790771484374,0.6470733306676149,0.35372517510950563,-0.5966878360375761
1667824634651798500,11.909798583984376,0.8569844936043024,0.018285890536010263,-0.2083573576234281
1667824634661805600,11.9198056640625,1.0316215140640734,-0.2515975105434656,0.2423372225061059
1667824634671813400,11.9298134765625,0.9002788609296083,-0.3961544500380754,0.7345788879022002
1667824634681821700,11.93982177734375,0.8468307638585567,-0.9978107221379876,1.2862502089969814
1667824634691828500,11.949828369140626,0.5845622216969728,-1.3993617705225945,1.7416319240294396
1667824634701836500,11.95983642578125,0.32106852165460587,-1.4858815315902232,2.0041667159117758
1667824634711843600,11.969843505859375,-0.039250644892454147,-1.127071600562334,1.816969781347364
1667824634721851600,11.9798515625,-0.6388572909861803,-0.43900808785855766,1.559787456408888
1667824634731859500,11.989859375,-1.0952619193255901,0.07659984007775783,1.502029533314705
1667824634741866500,11.999866455078125,-1.2586585838466882,0.13026157989948986,1.5876215120129287
1667824634751874600,12.00987451171875,-1.5155717364549637,-0.05659370162039995,1.579960621996224
1667824634761882600,12.019882568359375,-1.6839444358229636,-0.10310673873126507,1.3886967302538453
1667824634771889400,12.029889404296876,-1.5410416932761668,-0.010816869829595089,1.2829495600163936
1667824634781897500,12.0398974609375,-1.2191963420301675,0.09926730669885873,1.1137675900921225
1667824634791905500,12.049905517578125,-0.7631675612658262,0.2345569438934326,0.853787597259134
1667824634801912600,12.05991259765625,-0.2043278098464012,0.3436246368557215,0.6557772999964654
1667824634811920600,12.069920654296874,0.2487181557148695,0.34771278295218944,0.5002805949449539
1667824634821927400,12.079927490234375,0.44900458121597764,0.22101590979695318,0.5793228597387671
1667824634831935700,12.089935791015625,0.44022155530154705,-0.07231529462635516,0.8065081058204173
1667824634841943600,12.099943603515625,0.49326340965926646,-0.38244302781075235,1.0025142236538231
1667824634851950600,12.10995068359375,0.7519529242902994,-0.5661807618319988,1.1206231550753116
1667824634861958400,12.11995849609375,0.9118138159006833,-0.6976435342147946,1.2657554102398454
1667824634871966700,12.129966796875,0.9759183315426111,-0.8219093808308243,1.3479131767056882
1667824634881973500,12.139973388671875,1.0651637181818485,-0.811130212663114,1.3045328846625983
1667824634891981600,12.149981689453124,1.0425777923643589,-0.6633142713725566,1.2249207110263407
1667824634901989400,12.1599892578125,1.058321889463067,-0.40075054565668106,1.0726267475388944
1667824634911996700,12.16999658203125,1.159414365762472,-0.13200667000114916,0.9566099660910665
1667824634922004500,12.18000439453125,1.208175181800127,0.030821839243173596,0.8849472901545464
1667824634932012500,12.190012451171874,1.3391425718814134,0.16946517077982426,0.7492427885487675
1667824634942019600,12.20001953125,1.4162234734743833,0.3369564111381769,0.6982565515466034
1667824634952027400,12.21002734375,1.3936580059230326,0.4005430403858423,0.767437932061404
1667824634962034400,12.220034423828125,1.3509633580565452,0.3687140699267387,0.8391786416701972
1667824634972042200,12.230042236328124,1.2208522925436496,0.4046051752582192,0.8927798834763466
1667824634982050300,12.24005029296875,1.1335627161473034,0.5572589119687676,0.8939500962994992
1667824634992057300,12.250057373046875,1.1474059480607508,0.7676032056257128,0.7841643181957304
1667824635002065400,12.2600654296875,1.1551888570219278,0.9675126145079731,0.5787586499847471
1667824635012073200,12.2700732421875,1.218652736672759,1.074508469632268,0.37523148899674413
1667824635022080500,12.28008056640625,1.1878069320321083,1.147467030598223,0.22702143382206558
1667824635032088300,12.29008837890625,0.9907119960486889,1.2578688947737215,0.041161446949839586
1667824635042096400,12.300096435546875,0.7436381004095077,1.4121701064303516,-0.13559198114201426
1667824635052103200,12.310103271484374,0.3619914836734533,1.4783870841816067,-0.028235037620365618
1667824635062111500,12.320111572265626,-0.08702829511165619,1.0454472103208303,0.49328971314430237
1667824635072118300,12.3301181640625,-0.5664075563251972,0.24242080913633107,1.091934090077132
1667824635082126300,12.340126220703125,-1.099260633572936,-0.34289369223266836,1.4316985443733632
1667824635092134400,12.350134521484375,-1.4153238942861557,-0.659003714697063,1.5840680573150514
1667824635102141400,12.360141357421876,-1.6193611967533825,-0.9521496256813407,1.7857400919556616
1667824635112149500,12.3701494140625,-1.8848510390490292,-1.2303764922142029,1.9805957245796917
1667824635122157300,12.3801572265625,-2.2416128053754565,-1.3381968154639006,2.00909642739892
1667824635132164400,12.390164306640624,-2.484126261231303,-0.9769920982539653,1.616715650680661
1667824635142172400,12.40017236328125,-2.4376351436913013,-0.15772534088641404,0.8601113934531808
1667824635152180500,12.410180419921875,-2.3149825774908064,0.5974456686675548,0.08981076543703674
1667824635162187300,12.420187255859375,-2.0864988160312175,0.7950801183551549,-0.10750132042840123
1667824635172195300,12.4301953125,-1.9068612108051777,0.5465282591179013,0.1839468467272818
1667824635182203400,12.440203369140624,-1.965376528137922,0.008847031061351299,0.504036440347135
1667824635192210400,12.45021044921875,-2.1444424709558487,-0.5521493138700724,0.729901836001873
1667824635202218200,12.46021826171875,-2.187118414121866,-0.8803773518905043,1.087887591165304
1667824635212225500,12.4702255859375,-1.946014240542054,-1.1112447936162353,1.321176560949534
1667824635222233300,12.4802333984375,-1.7720178560733795,-1.3068614737406372,1.3674683565251529
1667824635232241400,12.490241455078126,-1.6735615734964608,-1.3858929248794913,1.3390620539911091
1667824635242248200,12.500248291015625,-1.4823890132993458,-1.2403265160813928,1.1542487996928392
1667824635252256500,12.510256591796875,-1.2818021435469389,-0.8287412726774811,0.7800697423584759
