time,seconds_elapsed,z,y,x
1667825651864452600,0.02345263671875,1.049118007788062,-0.24774551129043101,-0.74182009120211
1667825651874460400,0.03346044921875,0.9512532613635063,-0.394366689838469,-0.8046225843347609
1667825651884472000,0.04347216796875,0.7781751607835292,-0.49656245120465753,-0.7797889526557177
1667825651894479000,0.05347900390625,0.5480658439487218,-0.5719540845364331,-0.7320033383257687
1667825651904487200,0.063487060546875,0.29202888965308665,-0.5835933766648173,-0.6475174211733042
1667825651914495000,0.073494873046875,0.042645548027753825,-0.5694669438958168,-0.5218835741396993
1667825651924503000,0.0835029296875,-0.19120470890104768,-0.5614855897530913,-0.4148562644312158
1667825651934511000,0.093510986328125,-0.4085468986213207,-0.5673147342979907,-0.3082731182936579
1667825651944518100,0.10351806640625,-0.5466285046219825,-0.5485799309507012,-0.1962534984569065
1667825651954526200,0.113526123046875,-0.5714689313679934,-0.49048693068325516,-0.17309907030276953
1667825651964534000,0.123533935546875,-0.49200434950888156,-0.4192582622498274,-0.19471078079324214
1667825651974542000,0.1335419921875,-0.3701636842131614,-0.36655835319757457,-0.1625825533929281
1667825651984550000,0.1435498046875,-0.30543840632438657,-0.36517391310185193,-0.15179087280351666
1667825651994557200,0.15355712890625,-0.3421937272697687,-0.34909751530885696,-0.11234616664368659
1667825652004565000,0.16356494140625,-0.4242547553628683,-0.30560178019255396,0.017716054758802054
1667825652014573000,0.173572998046875,-0.4605003732204437,-0.253032804043591,0.19088022618703543
1667825652024581000,0.1835810546875,-0.38910862317979333,-0.2264478717178106,0.3016354155785404
1667825652034589000,0.1935888671875,-0.29069851783216,-0.2732090383708477,0.3502989635204896
1667825652044596200,0.20359619140625,-0.20106676222383973,-0.3138137282207608,0.358575903076306
1667825652054604000,0.21360400390625,-0.13826514587402344,-0.31379239317178725,0.3253570126287639
1667825652064612000,0.223612060546875,-0.2362520573735237,-0.3343991278707981,0.3517390427935868
1667825652074620000,0.233619873046875,-0.41188276504576204,-0.2660124048650265,0.5489541710905731
1667825652084628200,0.243628173828125,-0.6246475638478994,-0.12939473393708467,0.8519519793298095
1667825652094635000,0.253635009765625,-0.8590016786456107,-0.011079027897119521,1.1552947285491972
1667825652104643000,0.26364306640625,-0.9195493785887956,0.08443769409656524,1.3525874521270393
1667825652114651100,0.273651123046875,-0.8965759147584438,0.1738750961765647,1.4022989930182694
1667825652124659000,0.283658935546875,-0.8531868548870086,0.20748568935543296,1.3859556148521601
1667825652134667300,0.293667236328125,-0.7354565475195646,0.3104083036914468,1.5346955391198396
1667825652144674000,0.303674072265625,-0.646439124417305,0.0902910962998867,1.0486683643244206
1667825652154682000,0.31368212890625,-0.3882113820791244,0.15778145498782395,1.0469815072160213
1667825652164690000,0.32368994140625,-0.023124854999780654,0.20108312883675097,1.1004600724905729
1667825652174698200,0.3336982421875,0.26649638898968697,0.19073446104079483,1.1382293927840887
1667825652184706300,0.343706298828125,0.6258516789406537,0.19131869066953658,1.2882298385068773
1667825652194713000,0.353713134765625,0.8533990363329649,0.1995811998412013,1.2715885003075003
1667825652204721200,0.36372119140625,1.0175690233141184,0.22871318630129098,1.1787168859951198
1667825652214729000,0.37372900390625,1.1001900233775377,0.32160335918366906,1.150362898170203
1667825652224737300,0.3837373046875,1.0945002873033285,0.38688714773803945,1.0762381429690866
1667825652234745000,0.3937451171875,0.9519751458972692,0.4362625885426998,0.9573578618489206
1667825652244752100,0.403752197265625,0.8832681048959493,0.5566878340825439,0.8615552355859428
1667825652254760000,0.413760009765625,0.8996756343394517,0.6431941511467099,0.8220781615264713
1667825652264768000,0.42376806640625,0.936406405365467,0.647009617781639,0.8391214315902441
1667825652274776000,0.433776123046875,0.9595920506417751,0.5714630861490965,0.8296718315258622
1667825652284784000,0.4437841796875,0.9648609309554099,0.4925637369573116,0.8175375954873859
1667825652294791000,0.453791015625,0.9840642285972833,0.3916971783682704,0.8780443058330565
1667825652304799000,0.463799072265625,0.9674041856974362,0.20496347740143536,0.9008315263763069
1667825652314807300,0.473807373046875,0.8373322831511497,-0.14027531665265558,0.7184101356506347
1667825652324815000,0.483815185546875,0.5857447094798087,-0.58345776758641,0.4528558498166501
1667825652334823200,0.4938232421875,0.3433750460088253,-1.0906968033671378,0.08690174612253904
1667825652344830000,0.503829833984375,0.21033903295993803,-1.6214692749485373,-0.5061214299276471
1667825652354838000,0.513838134765625,0.17045827347040177,-1.9227844638630747,-0.6450520539730787
1667825652364846000,0.52384619140625,0.08648118262290955,-2.0878379556804894,-0.6172212132394314
1667825652374854100,0.533854248046875,0.19958616827726364,-2.0832889140740036,-0.5930762214116752
1667825652384862200,0.5438623046875,0.5170528660476208,-1.706577415652573,-0.4039114939056337
1667825652394869000,0.553868896484375,0.847688257470727,-1.1159884810119867,-0.12586086072251199
1667825652404877300,0.563877197265625,1.2118944945842027,-0.5203223892375827,0.19440043620243666
1667825652414885000,0.573885009765625,1.4444003511667252,-0.026549568751454353,0.5003206346943975
1667825652424893200,0.58389306640625,1.5353133787572384,0.39629561207443476,0.7582112540327012
1667825652434901000,0.59390087890625,1.5649819563120602,0.6855605899721383,0.97490389380306
1667825652444908000,0.603907958984375,1.5447925702422856,0.793175746038556,1.1016695944108068
1667825652454916000,0.613916015625,1.5840724412292242,0.7124032964512705,1.1121193844936788
1667825652464924200,0.623924072265625,1.6871657359570265,0.5024944716021418,0.9624036009311675
1667825652474932200,0.63393212890625,1.8064029407560824,0.2540574709162116,0.7694602316692472
1667825652484940000,0.64393994140625,1.9007108714818954,0.048285892002284524,0.6683160251826048
1667825652494947000,0.653947021484375,2.027173935881257,-0.12926613912135362,0.6096925713002681
1667825652504955100,0.663955078125,2.1760282803088424,-0.29515403593629597,0.5107629721231758
1667825652514963200,0.673963134765625,2.290620874172449,-0.4936351655811071,0.29402678547203537
1667825652524971000,0.683970947265625,2.3830185873627663,-0.7049421667903661,0.015929975059628485
1667825652534979000,0.69397900390625,2.47243816152513,-0.9287363091289996,-0.26290296760760246
1667825652544986000,0.703986083984375,2.561568981873989,-1.1110445948690175,-0.5183957320239395
1667825652554994200,0.713994140625,2.632000946971774,-1.188907879011333,-0.7072209253773093
1667825652565002200,0.724002197265625,2.6901252191603184,-1.1929366961359977,-0.8236183036405592
1667825652575010000,0.734010009765625,2.7073008103668688,-1.2368225996136664,-0.8643238965816795
1667825652585018000,0.74401806640625,2.662530525270104,-1.3618907025232911,-0.9141909933608025
1667825652595025200,0.754025146484375,2.6238380987823007,-1.4706450917527079,-0.9938656377740204
1667825652605033200,0.764033203125,2.581673612269759,-1.5229849353209137,-1.023173273061961
1667825652615041000,0.774041015625,2.4130092364788056,-1.557117798808217,-0.9981250487841665
1667825652625049000,0.784049072265625,2.117355726587772,-1.4869830630913377,-0.9196480166576803
1667825652635057200,0.79405712890625,1.7848147938042878,-1.3636688181117176,-0.7912214701656252
1667825652645064200,0.804064208984375,1.4204378762990235,-1.2805983207151292,-0.7027550320096314
1667825652655072300,0.814072265625,1.134214458054304,-1.1731821943521499,-0.5544172588020563
1667825652665080000,0.824080078125,1.079213870844245,-1.0292048083111642,-0.3775493374850601
1667825652675088100,0.834088134765625,1.0559124902337789,-0.9053200699672103,-0.22743074527531862
1667825652685096000,0.844095947265625,1.096715040743351,-0.8139487772151828,-0.12220453017204999
1667825652695103200,0.854103271484375,1.1571230399549006,-0.738432348459959,0.02644311270229518
1667825652705111000,0.864111083984375,1.2076140407860279,-0.6089090197071433,0.16568609063252807
1667825652715119000,0.874119140625,1.241437399932742,-0.4457493788123131,0.2928242778144777
1667825652725127000,0.884126953125,1.2044517773628234,-0.3813365278735757,0.26739136506803335
1667825652735135000,0.894135009765625,1.0957271987497805,-0.4085118273079395,0.10360504364222288
1667825652745143300,0.904143310546875,1.0374626413077115,-0.36262247505337,-0.0017881985910236835
1667825652755150000,0.914150146484375,0.9989128381609916,-0.26305823123455047,0.008591302734613417
1667825652765158100,0.924158203125,0.9205191004037857,-0.20462299340069293,0.009850655145943164
1667825652775166000,0.934166015625,0.7124743158608675,-0.23981091889888045,-0.0166875154286623
1667825652785174000,0.944174072265625,0.35542905641794204,-0.48155748203545806,-0.12393734531402587
1667825652795182000,0.95418212890625,-0.019400281518697736,-0.9299737419694661,-0.4309641898736357
1667825652805189000,0.964189208984375,-0.3583101648122072,-1.287650577314198,-0.7949094379633664
1667825652815197000,0.974197021484375,-0.7987497467786073,-1.2695648855254054,-0.8813730849295854
1667825652825205000,0.984205078125,-1.3346212950646876,-0.7781260609447955,-0.6969324633359909
1667825652835213300,0.99421337890625,-1.7729074983894824,-0.031141280455887314,-0.2984044160343706
1667825652845221000,1.00422119140625,-2.0855676726609467,0.675648852288723,0.18773688666000962
1667825652855228200,1.014228271484375,-2.406210662379861,1.1912678861409425,0.5903542491018772
1667825652865236000,1.024236083984375,-2.6004139685750007,1.53421944604069,0.8422903439499437
1667825652875244000,1.034244140625,-2.6054572234392164,1.6793287587210535,0.8652046249389648
1667825652885248500,1.04424853515625,-2.615031107470393,1.4202838547810912,0.5151172218099236
1667825652895256300,1.05425634765625,-2.50528127746284,0.729226713219285,0.004584551311284303
1667825652905264400,1.064264404296875,-2.2936808462649583,-0.0037722120150923727,-0.30360753763541576
1667825652915271200,1.074271240234375,-2.009275291097164,-0.5159425667181611,-0.5466363956674933
1667825652925279500,1.084279541015625,-1.701452619984746,-0.8221639401137828,-0.7615688938975333
1667825652935287300,1.094287353515625,-1.6127257042616605,-1.1087842487215995,-0.8879328818365931
1667825652945295400,1.10429541015625,-1.874679773646593,-1.3423513047948479,-0.8442255497962236
1667825652955303400,1.114303466796875,-2.3664105669111013,-1.381516317230463,-0.5972678278826177
1667825652965310200,1.124310302734375,-2.920235705038905,-1.1581664115279913,-0.27088322577178475
1667825652975318500,1.134318603515625,-3.4365433056771755,-0.8709124811917542,-0.03916910408884287
1667825652985326300,1.144326416015625,-3.911031287717819,-0.6589107757166027,0.1130626078173518
1667825652995334400,1.15433447265625,-4.2406297373086215,-0.4429001268610358,0.29970205462947486
1667825653005342200,1.16434228515625,-4.208132073807716,-0.1935480571568012,0.5373622252352536
1667825653015350300,1.174350341796875,-3.881405380260944,-0.009253858296573162,0.8079184110097587
1667825653025357300,1.184357421875,-3.370004256364703,0.12193915723413229,1.0067886861026287
1667825653035365400,1.194365478515625,-2.641081494528055,0.13713877219259737,1.0610938383944333
1667825653045373400,1.20437353515625,-1.781629149505496,0.08295856145471334,0.9657682550586759
1667825653055381200,1.21438134765625,-0.8944844954371451,0.06180617557168006,0.8365404021210968
1667825653065389300,1.224389404296875,0.04382862033247947,0.10279606534689664,0.7791150719821452
1667825653075396400,1.234396240234375,0.9202630798161029,0.1559381652086973,0.7368520935311913
1667825653085404400,1.244404296875,1.7146254052907228,0.17619564807862043,0.7294657826721668
1667825653095412200,1.254412109375,2.3860358893573284,0.15873217984139917,0.7398325706467032
1667825653105420300,1.264420166015625,2.8508839363932608,0.08499269763082265,0.7016361109822988
1667825653115428400,1.274428466796875,2.9853812541663647,-0.15149112267196177,0.4919999655947089
1667825653125435400,1.284435302734375,2.8655209490329026,-0.4679194173052907,0.2206668040983379
1667825653135443500,1.294443359375,2.5805069065779445,-0.6354159183606505,0.10783522855788469
1667825653145451300,1.304451171875,2.181053999516368,-0.6240042975082993,0.22830329032614827
1667825653155459300,1.314459228515625,1.659983714520931,-0.48411739565134043,0.41986616501510143
1667825653165467100,1.324467041015625,1.02049397085011,-0.32335078737288714,0.611596943616867
1667825653175475500,1.334475341796875,0.369280471637845,-0.21043752489835021,0.8156352689974009
1667825653185482200,1.344482177734375,-0.2646159820705652,-0.18457476936727762,1.129285477219522
1667825653195490300,1.354490234375,-0.9465747481584549,-0.3228945680379867,1.4198833111561835
1667825653205498400,1.364498291015625,-1.5441834984332323,-0.6182488027215004,1.5609348728783428
1667825653215506400,1.37450634765625,-2.1042717886090276,-1.1039151813805104,1.4578946235120296
1667825653225514500,1.384514404296875,-2.625852361214161,-1.6946762577176093,1.094250988717377
1667825653235522300,1.394522216796875,-2.9569974557250736,-2.2785104574009774,0.5740003495417535
1667825653245529300,1.404529296875,-3.073669193950295,-2.6019229118332263,0.20464432844966648
1667825653255537200,1.414537109375,-2.9635937852501866,-2.4468437015414235,0.030454759496450424
1667825653265545500,1.42454541015625,-2.643929285174608,-1.8663725485503673,0.07311462831050157
1667825653275553500,1.434553466796875,-2.290527350670099,-1.0287599871531128,0.2778082027293742
1667825653285561300,1.444561279296875,-1.884004651352763,-0.09487842409014702,0.5197627095282078
1667825653295569400,1.4545693359375,-1.3066051608920097,0.7880410134986042,0.7705950809180736
1667825653305576400,1.464576416015625,-0.5988946984320879,1.5038117405563591,0.9935209159895777
1667825653315584500,1.47458447265625,0.23236907846033572,1.9675433507829903,1.0947732590258121
1667825653325592300,1.48459228515625,1.0383844323277474,2.1022338530406355,1.0529353741191327
1667825653335600400,1.494600341796875,1.7777941013872622,1.9218369538798927,0.8063368409067392
1667825653345608200,1.504608154296875,2.2765602001160383,1.5578639410004018,0.3771136494815349
1667825653355615500,1.514615478515625,2.6245214048713446,1.1064695420384407,-0.1297439857661724
1667825653365623300,1.524623291015625,2.8867934541642666,0.7447834710523485,-0.5875938444778323
1667825653375631400,1.53463134765625,3.0182518426328895,0.5946279808983206,-0.8477022859960794
1667825653385639400,1.544639404296875,2.8903941090047356,0.5543959237530827,-0.9684972416311501
1667825653395647200,1.554647216796875,2.479928225019574,0.5077610138282179,-1.080311164561659
1667825653405655300,1.5646552734375,1.8325579572319983,0.3652215516358614,-1.2363814317174255
1667825653415662300,1.574662353515625,1.0444248815357684,0.1309612526014447,-1.3805375353261828
1667825653425670400,1.58467041015625,0.2837093895971775,-0.13117840248346327,-1.4546708391599357
1667825653435678200,1.59467822265625,-0.40156536917090413,-0.3480155652910471,-1.540136853390932
1667825653445686300,1.604686279296875,-0.8371487432777881,-0.43263563021719453,-1.6227200056619941
1667825653455694300,1.6146943359375,-1.026997361394763,-0.2881692916154861,-1.504922770538181
1667825653465702400,1.624702392578125,-1.07618312484622,0.02162321826517582,-1.2743814920268952
1667825653475709400,1.63470947265625,-0.9704010294258594,0.4320663058966398,-1.0529708838239311
1667825653485717200,1.64471728515625,-0.7503121713459491,0.8669684197410941,-0.8473860596537589
1667825653495725300,1.654725341796875,-0.45619887663424014,1.247198155416548,-0.662133975546807
1667825653505733400,1.6647333984375,-0.06286006853878498,1.4929676904588938,-0.5334916674122214
1667825653515741400,1.674741455078125,0.4579045115083456,1.5514309853434562,-0.5233833842433989
1667825653525749500,1.68474951171875,1.1440069532722235,1.3958026167362927,-0.5271216939888894
1667825653535756300,1.69475634765625,1.8306617682218551,1.0928683021873236,-0.4865628891073167
1667825653545764400,1.704764404296875,2.336153375813365,0.686700699917972,-0.41086964248046276
1667825653555772400,1.7147724609375,2.581912681722641,0.27691607619524,-0.29733313354104757
1667825653565780500,1.724780517578125,2.603112121617794,-0.1496314662799239,-0.18630057024657726
1667825653575788300,1.734788330078125,2.415076690402627,-0.6387228509515523,-0.11631064982786773
1667825653585796400,1.74479638671875,2.114776231488585,-1.0141405101701617,-0.0770073979653418
1667825653595803100,1.75480322265625,1.7400258040070533,-1.2100193483620882,-0.0167941906735301
1667825653605811500,1.7648115234375,1.442113701534271,-1.2079597854837774,0.08834317710250615
1667825653615819500,1.774819580078125,1.309157767984271,-1.1135311509877444,0.19379691735133528
1667825653625827300,1.784827392578125,1.3658143057078123,-0.9874024331092834,0.24650179483965037
1667825653635835400,1.79483544921875,1.5456968256056307,-0.869504952481389,0.18220117210373282
1667825653645843200,1.80484326171875,1.7608476427614688,-0.809912361305952,0.035848727494478226
1667825653655850500,1.8148505859375,2.0294372046381235,-0.6880629281818866,-0.08064977305568755
1667825653665858300,1.8248583984375,2.2902076171964407,-0.5135989262014627,-0.18737119515277445
1667825653675866400,1.834866455078125,2.4676760616898537,-0.3727706518411636,-0.33379319786690176
1667825653685874400,1.84487451171875,2.5585207002192734,-0.3417278633236885,-0.5305803830754011
1667825653695882200,1.85488232421875,2.585498723515868,-0.3487228367775678,-0.686964757681638
1667825653705890300,1.864890380859375,2.609725402277708,-0.22702304125726222,-0.6990468251414597
1667825653715897300,1.8748974609375,2.585183666217327,-0.09811959796845912,-0.6399044619515538
1667825653725905400,1.884905517578125,2.5493553969889877,-0.08543839557170868,-0.6253687177293002
1667825653735913200,1.894913330078125,2.611907422491908,-0.07084756016135216,-0.6738868110522628
1667825653745921300,1.90492138671875,2.708123232665658,-0.04074877449572086,-0.7383034613832831
1667825653755929300,1.914929443359375,2.777529361847043,-0.012459668600559234,-0.7913147744722664
1667825653765937400,1.9249375,2.7812229556679724,0.000768061763048172,-0.8134262146458029
1667825653775944200,1.934944091796875,2.698126154786348,-0.021440262913703916,-0.8665044554911553
1667825653785952300,1.9449521484375,2.486474285662174,-0.021964579048752784,-0.9229377058528363
1667825653795960300,1.954960205078125,2.1642507487535476,0.054341831040382385,-0.9178149560116231
1667825653805968400,1.964968505859375,1.8189432733774185,0.20607202316522596,-0.8726697001226246
1667825653815976400,1.9749765625,1.3578390890449286,0.36441198881864545,-0.8092856077097356
1667825653825984300,1.984984375,0.813521199452877,0.5444488224953413,-0.6518007975809276
1667825653835992300,1.994992431640625,0.36453883006870746,0.663541065865755,-0.44930853259861464
1667825653845999400,2.004999267578125,0.2377209608823061,0.7982073104649782,-0.22783216568306086
1667825653856007400,2.01500732421875,0.09955518372952937,0.8050432939648627,-0.11183978802412747
1667825653866015500,2.025015380859375,-0.2919640077233314,0.5676794759571552,-0.09218377817869186
1667825653876023300,2.035023193359375,-0.9543079727590084,0.12158347566425799,-0.21202420956790446
1667825653886030600,2.045030517578125,-1.5675100134849547,-0.322910934650898,-0.38574733005315065
1667825653896038700,2.05503857421875,-2.0019430485129357,-0.5520458534955978,-0.550376458978653
1667825653906045700,2.065045654296875,-2.307603573155403,-0.3545230474889278,-0.5299307600602507
1667825653916053800,2.0750537109375,-2.499738840904832,0.17566694802939892,-0.29354236295595765
1667825653926061600,2.0850615234375,-2.594107561907172,0.8643126445353031,0.1753746870845556
1667825653936069600,2.095069580078125,-2.462254036641121,1.4705898544341325,0.6887853972375393
1667825653946077700,2.10507763671875,-2.0793314086198804,1.954886113783717,1.1992159225359558
1667825653956085800,2.115085693359375,-1.5861118381023407,2.1996242599517104,1.5053434801682828
1667825653966092800,2.1250927734375,-1.1606424462527036,1.9416198049753903,1.4578576525025069
1667825653976100600,2.1351005859375,-0.8666215059995651,1.1622171482235193,1.0826035132825373
1667825653986108700,2.145108642578125,-0.7143190669447184,0.23099486749768255,0.6818932996362448
1667825653996116700,2.15511669921875,-0.6276572670578956,-0.4729010051101446,0.4150876985669136
1667825654006124800,2.165124755859375,-0.6770330001235008,-0.927454452624917,0.23917817395329474
1667825654016132900,2.1751328125,-1.0460305631667375,-1.3548697178453206,0.08147489876821637
1667825654026139600,2.1851396484375,-1.704065432831645,-1.7890397180229425,-0.06410144690200686
1667825654036147700,2.195147705078125,-2.4581308192312714,-2.082161663609743,-0.16218275868669152
1667825654046155800,2.20515576171875,-3.172977709442377,-2.056806857600808,-0.1196378945544362
1667825654056163800,2.215163818359375,-3.754432028251886,-1.842057022461295,-0.03604118132665753
1667825654066171600,2.225171630859375,-4.023572794270515,-1.49150112503767,0.11967004325836897
1667825654076179700,2.2351796875,-3.925742534637451,-1.0033855996608734,0.3792525612063706
1667825654086186800,2.245186767578125,-3.6099978383541105,-0.4272507223084569,0.7281755967311561
1667825654096194800,2.25519482421875,-3.215333334612846,0.08119505891352892,1.0547257646672428
1667825654106203000,2.265202880859375,-2.8193191698282956,0.4537698959216475,1.2435564379133284
1667825654116210700,2.275210693359375,-2.27670574606657,0.72614949773103,1.3124541791811584
1667825654126218800,2.28521875,-1.6380734960079193,0.877636236488819,1.3534715414851903
1667825654136226600,2.2952265625,-0.9410492627352476,0.9706599726229905,1.3538389134928583
1667825654146233900,2.30523388671875,-0.21199498347342013,1.063064407815039,1.3169859773918986
1667825654156241700,2.31524169921875,0.4707184003740549,1.0763929682046174,1.2842758401840924
1667825654166249700,2.325249755859375,1.0094780713170766,0.9704673726603388,1.2881199483916164
1667825654176257500,2.335257568359375,1.444430161783099,0.6691907621905208,1.1850341063179075
1667825654186265600,2.345265625,1.6057985353469848,0.08706336642503738,0.9471987252756953
1667825654196274000,2.35527392578125,1.6179326252549886,-0.6744523359805346,0.6085365331329405
1667825654206281700,2.36528173828125,1.6108049653321503,-1.4211255663022397,0.09784925659447907
1667825654216288800,2.375288818359375,1.674471674078703,-1.9777236762747168,-0.46359921601861714
1667825654226296600,2.385296630859375,1.7256541643053291,-2.195396997645497,-0.8111663068898022
1667825654236304600,2.3953046875,1.6414771669715642,-1.9112240821897983,-0.800135940439999
1667825654246312700,2.405312744140625,1.3573890071898698,-1.3132760169580577,-0.6787251909941434
1667825654256320800,2.41532080078125,1.0277858814239502,-0.6750617000505328,-0.49488238916322586
1667825654266328800,2.425328857421875,0.6388900242120027,-0.09423895714282989,-0.2928635869115591
1667825654276335600,2.435335693359375,0.09617606268525122,0.3559285303726792,-0.16073299826979637
1667825654286344000,2.445343994140625,-0.6697995417386293,0.4932289228677749,-0.18399916143640874
1667825654296351700,2.455351806640625,-1.5074176560938357,0.238648012599349,-0.3849085411414504
1667825654306359800,2.46535986328125,-2.227365084314346,-0.3197065856516361,-0.7537237333551049
1667825654316367600,2.47536767578125,-2.7442303188353776,-0.8399687691345811,-1.1127829629689454
1667825654326375700,2.485375732421875,-3.0530525223791596,-1.1934373391345143,-1.3565353129699826
1667825654336382700,2.4953828125,-3.1470921575576063,-1.376197168034315,-1.4688957638673483
1667825654346390800,2.505390869140625,-3.0171932734906672,-1.2541948824360967,-1.3420230957537889
1667825654356398800,2.51539892578125,-2.6350451369732615,-0.806372789002955,-1.0499012671202421
1667825654366406700,2.52540673828125,-2.1111872670859095,-0.23669103331267832,-0.7264581252887845
1667825654376414700,2.535414794921875,-1.444929927998781,0.2917152936592698,-0.4793731237336993
1667825654386422500,2.545422607421875,-0.7087105794131755,0.7323372464552521,-0.2719033625997603
1667825654396429800,2.555429931640625,0.027863573959469794,1.1362161532655357,-0.06461714133918285
1667825654406437600,2.565437744140625,0.7299567810595036,1.4171557858884334,0.10247340926378964
1667825654416445700,2.57544580078125,1.3485638956993817,1.504986921815574,0.20614465001001953
1667825654426453800,2.585453857421875,1.804575725328922,1.415291745582223,0.2350610940232873
1667825654436461600,2.595461669921875,2.0606834067732094,1.1455544749751687,0.17824556634575128
1667825654446470000,2.605469970703125,2.189433120805025,0.8168816157966852,0.050960079647600645
1667825654456476700,2.6154765625,2.2277005998790265,0.5007935129031539,-0.038408056588470935
1667825654466484700,2.625484619140625,2.2369190946012734,0.22241291711330413,-0.07088263147473335
1667825654476492500,2.635492431640625,2.150851753476262,0.025863340052962303,-0.07735124296694994
1667825654486500900,2.6455009765625,1.921381319066882,-0.12320055547207594,-0.018407471089065073
1667825654496509000,2.655509033203125,1.5990969918817282,-0.3722282155275345,-0.0169967275083065
1667825654506516700,2.665516845703125,1.1735972048938275,-0.7004243971049785,-0.11326076073795556
1667825654516523800,2.675523681640625,0.7361240715175866,-0.9591288170441985,-0.17961627017706633
1667825654526531600,2.685531494140625,0.31957039205133914,-1.06295042604655,-0.18694164462909102
1667825654536540000,2.695539794921875,-0.00814238992333412,-1.0065881950944662,-0.06843319249600172
1667825654546547700,2.705547607421875,-0.3032715836793184,-0.8793550231054424,0.10042772878035902
1667825654556555800,2.7155556640625,-0.48322307716012,-0.5687345379680395,0.31962022254243494
1667825654566563600,2.7255634765625,-0.4508674524784088,-0.08179331706762313,0.6189014214113354
1667825654576570600,2.735570556640625,-0.23498949009180067,0.4024547192260623,0.8941032410345972
1667825654586578700,2.74557861328125,0.10942600488066673,0.7736550530105829,1.0810054304361343
1667825654596586800,2.755586669921875,0.4940834938704967,0.9710171154975891,1.1145476345539092
1667825654606594800,2.7655947265625,0.9588117139190435,0.9799944949403404,0.9809048877835274
1667825654616602600,2.7756025390625,1.5382143608957528,0.8586731773436069,0.6913342049375176
1667825654626610700,2.785610595703125,2.1923568992972373,0.68504474940449,0.40634646596759555
1667825654636617700,2.79561767578125,2.8019781589269637,0.491397323526442,0.1587127444885671
1667825654646625800,2.805625732421875,3.250212924814224,0.2928191632479429,-0.057304480238258834
1667825654656633600,2.815633544921875,3.593503215149045,0.0830211052969098,-0.2344394549936056
1667825654666641700,2.8256416015625,3.9028018040329218,-0.08811229095607996,-0.3706516138605773
1667825654676649700,2.835649658203125,4.147973665443063,-0.2406760112956166,-0.5646501912638545
1667825654686657800,2.84565771484375,4.275104253840446,-0.3418509051814675,-0.7362531047247349
1667825654696664800,2.855664794921875,4.348107530730963,-0.37577567887604235,-0.7916131728969514
1667825654706672600,2.865672607421875,4.3594899254888295,-0.3566197275072336,-0.890299903228879
1667825654716680700,2.8756806640625,4.25543859938383,-0.35169483832567927,-1.0819238604553043
1667825654726688500,2.8856884765625,3.9942262882769106,-0.35727760689407584,-1.3004212115600704
1667825654736696800,2.89569677734375,3.571110181555152,-0.3321066330194473,-1.446657190182805
1667825654746705000,2.905704833984375,2.9840234098166225,-0.18346330099403857,-1.5083841630384325
1667825654756711700,2.915711669921875,2.266400040629506,0.040265374892950054,-1.5654058808125555
1667825654766719700,2.9257197265625,1.5504448969155549,0.2428705987304449,-1.5431000871106981
1667825654776727600,2.9357275390625,1.0318921476989984,0.41478316266238685,-1.4625756209351122
1667825654786735900,2.94573583984375,0.649902416613698,0.46098727995455263,-1.4248950018383562
1667825654796743700,2.95574365234375,0.28335224672257897,0.3023769729271531,-1.459859201583266
1667825654806751700,2.965751708984375,0.21748364401757717,0.1186339782088995,-1.4811634170271455
1667825654816758500,2.975758544921875,0.2932809355407953,-0.029018004691600797,-1.4489973235681652
1667825654826766800,2.985766845703125,0.2975906154334545,-0.3487894722729921,-1.4613685832329093
1667825654836775000,2.99577490234375,0.3175017690837383,-0.7123243859961629,-1.46279393986091
1667825654846782700,3.00578271484375,0.2961918545514345,-0.9962842432230711,-1.4013361393354833
1667825654856790800,3.015790771484375,0.1456733763039112,-1.1400216830283403,-1.256935705576837
1667825654866798600,3.025798583984375,-0.12620704381167888,-1.101403490820527,-0.9786376735039055
1667825654876806000,3.035805908203125,-0.5683581058710813,-0.8555784261986613,-0.6328457756116986
1667825654886813700,3.045813720703125,-1.024789037695527,-0.5012228442311286,-0.23896102407127617
1667825654896821500,3.055821533203125,-1.481689340597391,-0.17596885358542202,0.04408756352961063
1667825654906829600,3.06582958984375,-2.009592686483264,0.1348772570014,0.3522349365517497
1667825654916837600,3.075837646484375,-2.447999301317334,0.36958997597843407,0.6658177786260843
1667825654926845400,3.085845458984375,-2.7209400441408156,0.4984270760327577,0.775402188938856
1667825654936852700,3.095852783203125,-2.7813158946484324,0.43610184502303595,0.6671085490889846
1667825654946860500,3.105860595703125,-2.5495325071215627,0.21363690546154976,0.4738067217782139
1667825654956868600,3.11586865234375,-2.0125719945549965,0.0428512997329235,0.3051889616079628
1667825654966876400,3.12587646484375,-1.3358283327668905,0.09681845224201678,0.31558059176281095
1667825654976884500,3.135884521484375,-0.7883984486341477,0.33664778358042236,0.48460401012450455
1667825654986892800,3.145892822265625,-0.5779886885255575,0.5964017125725746,0.7218944706350564
1667825654996899600,3.155899658203125,-0.5753612626314163,0.8058096021622418,0.9599766660451888
1667825655006907600,3.16590771484375,-0.573241201737523,0.9662854108005762,1.159465657558292
1667825655016915500,3.17591552734375,-0.5836152962356805,1.0455366421699523,1.3096654252454638
1667825655026923800,3.185923828125,-0.7490595409363507,0.9954717577964067,1.4004212164476513
1667825655036931600,3.195931640625,-1.0151678073912858,0.7016068848878145,1.3671702503614127
1667825655046939600,3.205939697265625,-1.2769663939535618,0.17623568782806395,1.1172454953357576
1667825655056946400,3.215946533203125,-1.45435008277297,-0.39780572437644,0.8812216937601566
1667825655066954500,3.22595458984375,-1.6204712038218974,-0.8994546850651503,0.6217839911103248
1667825655076962800,3.235962890625,-1.8754618639349936,-1.4316393615320324,0.21207652427703141
1667825655086970600,3.245970703125,-2.1788626269519327,-1.932083038084209,-0.2451186699181795
1667825655096978700,3.255978759765625,-2.3792636187434195,-2.2804914020851252,-0.5495614893339574
1667825655106986500,3.265986572265625,-2.420298224443197,-2.3461221043810245,-0.6411683444075286
1667825655116993800,3.275993896484375,-2.282880635309219,-2.123831936864555,-0.5310673628747463
1667825655127001600,3.286001708984375,-2.100914294874668,-1.6961729260161518,-0.39282238300591704
1667825655137009700,3.296009765625,-1.9316104521363973,-1.2707768916636704,-0.2704644158378243
1667825655147017700,3.306017822265625,-1.806075608497858,-0.8554024851098656,-0.09250774943605065
1667825655157025500,3.316025634765625,-1.5984207000553607,-0.4239715545073151,0.1919169488236308
1667825655167033600,3.32603369140625,-1.4213719422787428,-0.061900283595919606,0.4829126960366964
1667825655177040600,3.33604052734375,-1.304466979819536,0.09726794957518577,0.6804978997550905
1667825655187048700,3.346048583984375,-1.1462748982042072,0.18343056776821612,0.8211300670213997
1667825655197056500,3.356056396484375,-0.9644979428619146,0.1842573739811778,0.9257267520494759
1667825655207064600,3.366064697265625,-0.6861088715046644,0.07373042212128639,0.9132947021082043
1667825655217072400,3.376072265625,-0.31039690551459787,-0.14773177013844252,0.790112705206126
1667825655227079700,3.38607958984375,0.08491758656799793,-0.39555093118697404,0.673524407480657
1667825655237087500,3.39608740234375,0.5324117632210255,-0.6131041333094239,0.5473492201119661
1667825655247095600,3.406095458984375,1.035733041036129,-0.7591174090921878,0.4292914343558252
1667825655257103600,3.416103515625,1.5919161404669284,-0.8222776296213269,0.3094438425734639
1667825655267111400,3.426111328125,2.060740105396509,-0.918530264674127,0.044513095465302466
1667825655277119700,3.43611962890625,2.3641502207636833,-1.002336090607941,-0.254832546941936
1667825655287126500,3.44612646484375,2.4007968206375834,-0.9643395374298095,-0.4636103219345212
1667825655297134600,3.456134521484375,2.049878519642353,-0.7971700763717293,-0.5295826772749423
1667825655307142400,3.466142333984375,1.4024942233294249,-0.5882905945703387,-0.5615352741137146
1667825655317150700,3.476150634765625,0.6741273418098688,-0.3657125500231981,-0.5519599287778139
1667825655327158800,3.48615869140625,-0.053045946010947226,-0.07772153758406639,-0.5317515457466244
1667825655337166600,3.49616650390625,-0.7025023724228143,0.24594401482641695,-0.49019233165085313
1667825655347173600,3.506173583984375,-1.2262363236695528,0.4944929514542222,-0.4203472265303135
1667825655357181400,3.516181396484375,-1.5871476108908653,0.5912620115965604,-0.26385698039680716
1667825655367189800,3.526189697265625,-1.740263119894266,0.5388341974839568,-0.06466061515472829
1667825655377197600,3.536197509765625,-1.7264438533782958,0.2788061277255416,-0.08732230962216854
1667825655387205600,3.54620556640625,-1.8330892876297233,-0.27586919749081135,-0.39512371875084934
1667825655397213700,3.556213623046875,-2.129251331564784,-0.8827487571969628,-0.7730440084401518
1667825655407220500,3.566220458984375,-2.4330448932915925,-1.1204054206714034,-1.0054799415916205
1667825655417228800,3.576228759765625,-2.594194655668735,-0.7179407645732164,-0.9495495992507785
1667825655427236600,3.586236572265625,-2.551837276932597,0.054960839721560475,-0.7110320811633021
1667825655437244700,3.59624462890625,-2.335145660075545,0.7946943339079618,-0.3843935042914003
1667825655447252500,3.60625244140625,-2.0510265206336973,1.4006371972858904,-0.046281493377313014
1667825655457260500,3.616260498046875,-1.6360814454078674,1.90007754201442,0.3124959966856986
1667825655467267600,3.626267578125,-1.0531956324905156,2.2182950581520795,0.6670617142725735
1667825655477275600,3.636275634765625,-0.4088128560811281,2.283331886208057,0.8986375965286045
1667825655487283700,3.64628369140625,0.2994114011198282,2.185915468072891,1.1131035732254386
1667825655497291500,3.65629150390625,0.889772079962492,1.8179288356378673,1.333693658825755
1667825655507299600,3.666299560546875,1.354993636485934,1.2679437140643597,1.2222946003064512
1667825655517307400,3.676307373046875,1.7579063286125658,0.6728174282550812,0.8585083421707153
1667825655527314700,3.686314697265625,1.9488859965860843,-0.012023615270853041,0.3276322640843689
1667825655537322500,3.696322509765625,2.0538152745693923,-0.6654705726236104,-0.026233050148189066
1667825655547330600,3.70633056640625,2.075138633105159,-1.2348159359663724,-0.14595102420151232
1667825655557338600,3.716338623046875,1.9681728808581829,-1.6652140163898468,-0.14335793896839022
1667825655567346700,3.7263466796875,1.6749112345397472,-1.9038138059332965,-0.0805617294460535
1667825655577353700,3.736353759765625,1.1861240935117006,-1.9938728470429776,-0.07379165078923106
1667825655587361500,3.746361572265625,0.7186568038880825,-1.8328078403398393,-0.08487447807863355
1667825655597369600,3.75636962890625,0.40022389143407344,-1.4421116557076572,-0.07515431744456291
1667825655607377400,3.76637744140625,0.21911913626492022,-1.0149515342921018,-0.03956453314721584
1667825655617385700,3.7763857421875,0.13460720788836478,-0.570035391433537,-0.023935440730303525
1667825655627393500,3.7863935546875,0.06950140624940394,-0.05739771147966385,0.011288286733627318
1667825655637400600,3.796400634765625,0.11007131704688071,0.45924891185462474,0.12641133421212433
1667825655647408400,3.806408447265625,0.2142149976104498,0.8726450040727853,0.2261022731505334
1667825655657416700,3.816416748046875,0.4598252504378557,1.1752099007874726,0.26735914329886434
1667825655667424800,3.8264248046875,0.9133838416963815,1.35056296056211,0.2385143032170832
1667825655677432600,3.8364326171875,1.4476514619171619,1.3385063198044895,0.13754501490592955
1667825655687440600,3.846440673828125,1.963763832244277,1.2066110012233258,-0.009549918633699417
1667825655697447400,3.856447509765625,2.411122984340787,1.0241443100512027,-0.10251856357976794
1667825655707455700,3.866455810546875,2.8214830698639153,0.7880711163759231,-0.2138404652096331
1667825655717463600,3.876463623046875,3.126656687772274,0.4971835057124495,-0.37265287068039177
1667825655727471600,3.8864716796875,3.3834278015613553,0.19443214651495216,-0.527263294416666
1667825655737479700,3.896479736328125,3.6944343634068963,0.053825698211789126,-0.5883312188416719
1667825655747487500,3.906487548828125,3.9243817676782604,0.11928162846267222,-0.524980444176495
1667825655757494800,3.916494873046875,3.9809827758222815,0.23706775767058133,-0.4449469763882458
1667825655767502600,3.926502685546875,3.880154503417015,0.32358079673647877,-0.409557244707644
1667825655777510700,3.9365107421875,3.6327158661186694,0.33848230553120373,-0.46825069508627054
1667825655787518500,3.9465185546875,3.208251851919293,0.3569362461104989,-0.6044925184391439
1667825655797526500,3.956526611328125,2.66192320702672,0.5066650352850556,-0.5831807042106986
1667825655807534600,3.96653466796875,2.016615716987848,0.6106666770294308,-0.5022969032034278
1667825655817541600,3.976541748046875,1.3411550807476043,0.5947828791990876,-0.4447171131551265
1667825655827549700,3.9865498046875,0.736222271195054,0.3978264749035239,-0.39305940663218497
1667825655837557500,3.9965576171875,0.30071079328060146,0.09814122527837753,-0.3660862056411803
1667825655847565600,4.006565673828125,0.03458966734409332,-0.2149839361563325,-0.4579688089162111
1667825655857573600,4.01657373046875,-0.14898352376520632,-0.5161953724354506,-0.6123147364974022
1667825655867580700,4.02658056640625,-0.2919488101541996,-0.7497568755507469,-0.6861977188318967
1667825655877588500,4.03658837890625,-0.3534808449596166,-0.8324848431199788,-0.6789132609121501
1667825655887597600,4.04659765625,-0.36782735022008417,-0.7895604781508445,-0.548272472436726
1667825655897605400,4.05660546875,-0.2441074470490217,-0.6793553055912256,-0.2829683619715273
1667825655907613400,4.066613525390625,-0.09511223284602165,-0.6164741942644119,-0.08016293938681483
1667825655917621200,4.076621337890625,0.04219195904135704,-0.5976520048946142,0.03317980054616928
1667825655927628500,4.086628662109375,0.1568015040397644,-0.5944242750197649,0.17546265762895344
1667825655937636400,4.09663623046875,0.20911036794781684,-0.6143079561412335,0.2917085716575384
1667825655947644400,4.10664453125,0.15557809972465036,-0.6253448984622955,0.38696459688842294
1667825655957652500,4.116652587890625,0.1085252566486597,-0.47089024980962274,0.5200149307236075
1667825655967660500,4.12666064453125,0.15593582712113857,-0.13658113830983637,0.690510905855894
1667825655977668600,4.136668701171875,0.30551907034516335,0.2897597756773233,0.9754806707777083
1667825655987675400,4.14667529296875,0.5202414329558611,0.7261264091163874,1.3496513986751437
1667825655997683500,4.156683349609375,0.8263795119822025,1.10143505500257,1.5884375045709311
1667825656007691300,4.166691162109375,1.1472861210733651,1.4209423186898231,1.6699483514353632
1667825656017699600,4.176699462890625,1.4819231493532656,1.4985218174546957,1.5720520408287644
1667825656027707600,4.186707763671875,1.710475299873948,1.3253823420763016,1.357867730617523
1667825656037715500,4.196715576171875,1.8170558521956204,1.0450251855164765,1.129490644402802
1667825656047722500,4.206722412109375,1.724945723775029,0.7196008067399263,0.8503799807727337
1667825656057730600,4.21673046875,1.4016548498958348,0.3713724754810333,0.6036272799119353
1667825656067738600,4.226738525390625,0.9358364965230226,-0.0035790275305509567,0.4496835033908486
1667825656077746400,4.236746337890625,0.43708734892904755,-0.30949966441392895,0.3572697158485651
1667825656087754500,4.24675439453125,-0.1540478214174509,-0.6618880379617214,0.15906214244812725
1667825656097762600,4.256762451171875,-0.7798322803407907,-1.21342886454463,-0.016642507243156433
1667825656107769600,4.26676953125,-1.3843933339715002,-1.7703174818962812,-0.04844400517344474
1667825656117777700,4.276777587890625,-1.9836147801399229,-2.0352853461444376,-0.09757277774065733
1667825656127785500,4.286785400390625,-2.570955234378576,-2.086622150149941,-0.17983108197152614
1667825656137793500,4.29679345703125,-3.317686624628305,-2.2386907804489136,-0.37500703259110446
1667825656147801300,4.30680126953125,-4.175300063785911,-2.434554713332653,-0.5903133325695992
1667825656157808600,4.31680859375,-4.930346862438321,-2.5006752449721095,-0.6822112795442342
1667825656167816400,4.32681640625,-5.378808422818779,-2.3624095145761967,-0.6232113935649395
1667825656177824500,4.336824462890625,-5.4604906807273625,-2.0392355450749395,-0.47740211592167614
1667825656187832300,4.346832275390625,-5.204011243361235,-1.6749416296780109,-0.40923838801681994
1667825656197840400,4.35684033203125,-4.737063009175658,-1.3359013980031014,-0.36813568551689385
1667825656207848400,4.366848388671875,-4.128836418774724,-0.9765420163989067,-0.2162444576114416
1667825656217855500,4.37685546875,-3.284118701547384,-0.6327060748800635,0.06240297242105007
1667825656227863600,4.386863525390625,-2.338168807289004,-0.40866380299925803,0.21421967378556728
1667825656237871400,4.396871337890625,-1.1603110223412514,-0.2592401342511177,0.29249416907727716
1667825656247879400,4.40687939453125,-0.07145721649229526,-0.21296821241974828,0.2232242334961891
1667825656257887500,4.416887451171875,0.6217459971874952,-0.3179477592855692,0.08802782754302024
1667825656267895600,4.4268955078125,1.1603852566212416,-0.25673253534436224,0.10543284359127282
1667825656277902300,4.43690234375,1.517523455044627,-0.04060439758896828,0.20961071868538855
1667825656287910400,4.446910400390625,1.8258394626319407,0.3057940878942609,0.42635932642668484
1667825656297918500,4.45691845703125,2.0478665952980517,0.7053931254282594,0.6217731774553656
1667825656307926500,4.466926513671875,2.203034360656142,1.0066992542535067,0.690348701031506
1667825656317934600,4.4769345703125,2.1609610595583915,1.1570111040130258,0.5790285529673099
1667825656327942400,4.4869423828125,1.9807132134795187,1.109351819476485,0.38879137392416596
1667825656337949400,4.496949462890625,1.7864280742198229,0.9611360652133822,0.13083061195909976
1667825656347957200,4.506957275390625,1.5951912166148423,0.7943743081733584,-0.1812662293411791
1667825656357965600,4.516965576171875,1.4866174446493385,0.6283619081959128,-0.40735038231313225
1667825656367973600,4.5269736328125,1.323779583054781,0.4567550492122769,-0.5559530900672078
1667825656377981400,4.5369814453125,1.1844891857862472,0.3057213149189949,-0.6824276987738906
1667825656387989500,4.546989501953125,1.0493857188135385,0.20509177995622158,-0.747716309633851
1667825656397996500,4.55699658203125,0.8076601984649896,0.1214309154510498,-0.7916746938258409
1667825656408004600,4.567004638671875,0.42000002052783963,0.06650982321798801,-0.8432865153804421
1667825656418012400,4.577012451171875,-0.097998601937294,-0.07731704843640327,-0.9022273646488785
1667825656428020500,4.5870205078125,-0.7242296355843544,-0.3423047864288091,-1.0203316198952495
1667825656438028500,4.597028564453125,-1.2871136939585208,-0.5976344692379236,-1.0832884268067777
1667825656448036400,4.607036376953125,-1.6981664379209278,-0.6673375355392694,-1.0304435563258827
1667825656458043600,4.617043701171875,-2.0157342579782007,-0.6231652163356542,-0.9891717808693646
1667825656468051500,4.627051513671875,-2.254237893670797,-0.44153819085806606,-0.9350165584422647
1667825656478059500,4.6370595703125,-2.3730939901977774,-0.06899170316159725,-0.7993065038785337
1667825656488067300,4.6470673828125,-2.388427168408036,0.3623939269945025,-0.5896276883929967
1667825656498075400,4.657075439453125,-2.3022405848175285,0.6799462572216988,-0.32150983568131924
1667825656508082400,4.66708251953125,-2.1702280695974827,0.8854027788370847,-0.11114917541146278
1667825656518090500,4.677090576171875,-1.9922844088077545,1.0896791507571935,0.03237637520879507
1667825656528098600,4.6870986328125,-1.6923405082464218,1.3199462885022162,0.2921770659521222
1667825656538106400,4.6971064453125,-1.2063824531644582,1.4817059994712471,0.6287088219374418
1667825656548114400,4.707114501953125,-0.845830646905303,1.3956918498381972,0.9318066564850509
1667825656558122500,4.71712255859375,-0.33974341150820253,1.198092763724923,1.1243050584584473
1667825656568129500,4.727129638671875,0.3879945244580507,1.0912038761064409,1.1413374418020248
1667825656578137300,4.737137451171875,1.14362175334692,1.000743268458545,1.044122537588328
1667825656588145400,4.7471455078125,1.7453046211928127,0.6601040771543979,0.7757597702048719
1667825656598153500,4.757153564453125,2.165519745776057,0.18992285239696502,0.40577188095003364
1667825656608161500,4.76716162109375,2.4505063157022,-0.13129676816612482,0.023726328024268148
1667825656618169600,4.777169677734375,2.5844606126397847,-0.2924117514908314,-0.2536662796415388
1667825656628176400,4.78717626953125,2.5340438460886476,-0.42681496123969553,-0.39263504374027247
1667825656638184400,4.797184326171875,2.1252403423577544,-0.6567974368244409,-0.2765175783969462
1667825656648192500,4.807192626953125,1.565460095217824,-0.8527765205204486,-0.013572306017577647
1667825656658200600,4.81720068359375,1.2081395259648562,-0.9266758694678544,0.1424459386900067
1667825656668208400,4.82720849609375,0.8179384313732385,-1.022541843290627,0.1814525456935167
1667825656678216400,4.837216552734375,0.3803092306524515,-1.05092155007869,0.2909901942551136
1667825656688223500,4.847223388671875,-0.020015783068537712,-0.9420137238532305,0.4814943536713719
1667825656698231600,4.8572314453125,-0.3309779212504625,-0.7548533219069242,0.6973897055841982
1667825656708239600,4.867239501953125,-0.5397352379769087,-0.5055085587263107,0.8901776650886982
1667825656718247400,4.877247314453125,-0.5915092643558979,-0.24466274284422396,0.8916095245227217
1667825656728255500,4.88725537109375,-0.38942192691266536,0.0054041971310973165,0.7786608984738588
1667825656738262500,4.897262451171875,-0.12524492078125476,0.21144144124388695,0.8431535366505384
1667825656748270600,4.9072705078125,0.18039163846373557,0.3186991621747613,0.7174108224149793
1667825656758278400,4.9172783203125,0.6273603299379349,0.4364920133844018,0.607930895389989
1667825656768286500,4.927286376953125,1.0654092173755167,0.4106125989794731,0.40438539502769705
1667825656778294500,4.93729443359375,1.4954144990891218,0.21825199804157017,0.1536906785428524
1667825656788302300,4.94730224609375,1.887953096717596,0.03153787855803966,-0.14484657009094953
1667825656798309600,4.9573095703125,2.187683646789193,0.026466274382174013,-0.36898039271272715
1667825656808317400,4.9673173828125,2.444069560652971,0.11784779626727103,-0.44413310272209344
1667825656818325500,4.977325439453125,2.4163854349136353,0.19640461563169956,-0.4500809782758355
1667825656828333300,4.987333251953125,2.3825609067231417,0.17967238427847623,-0.3662222531110048
1667825656838341400,4.99734130859375,2.3663860169917346,0.06311959625780582,-0.28669746549725533
1667825656848349700,5.007349609375,2.2695821777969596,-0.13427958336919546,-0.3554937922172248
1667825656858356500,5.0173564453125,2.2345330762475726,-0.33492695113718507,-0.5242268493302166
1667825656868364500,5.027364501953125,2.3483844963550564,-0.4580383670210838,-0.6195503868393599
1667825656878372400,5.037372314453125,2.5192770695894957,-0.6797650554358958,-0.7193667057231068
1667825656888380000,5.0473798828125,2.7047125474393368,-0.7600240025430918,-0.8053251796461641
1667825656898388000,5.057387939453125,2.801099038004875,-0.7150356907814741,-0.7734726821810006
1667825656908395800,5.067395751953125,2.8257085786044596,-0.6670993428692221,-0.6707923521682619
1667825656918402800,5.07740283203125,2.9320383710354565,-0.5662462282836437,-0.5524415748149156
1667825656928411000,5.087410888671875,3.0878596318662166,-0.5521893536195158,-0.4674094219565391
1667825656938419000,5.0974189453125,3.210882200422883,-0.5160775912746787,-0.41057109792530533
1667825656948427000,5.107427001953125,3.4255297442317008,-0.4629045117527246,-0.3535688155040145
1667825656958434800,5.117434814453125,3.6075486916363237,-0.4575152199298143,-0.34289281544983385
1667825656968441900,5.12744189453125,3.691040629315376,-0.38821898086369033,-0.2865786614231765
1667825656978450000,5.137449951171875,3.6318823379039764,-0.19954554400593041,-0.2700995280481875
1667825656988458000,5.1474580078125,3.3576901337146756,0.004031447473168373,-0.30648119337558744
1667825656998465800,5.1574658203125,2.908120319831371,0.11653817497342825,-0.4342693688988685
1667825657008473900,5.167473876953125,2.351422256615758,0.07862959233969449,-0.5839126717470586
1667825657018481700,5.177481689453125,1.6517326035261153,-0.15366905123293398,-0.7284875852897763
1667825657028489000,5.187489013671875,0.8232961590141058,-0.4658294592887163,-0.962202744596824
1667825657038496800,5.197496826171875,0.04471592456102371,-0.6150654965102672,-1.1869773493401705
1667825657048504800,5.2075048828125,-0.5659522137731313,-0.7039443879246712,-1.3728629090450704
1667825657058513000,5.217512939453125,-1.0436170722842215,-0.745002666760981,-1.516677798000723
1667825657068520700,5.227520751953125,-1.3654238450855016,-0.8683484759226441,-1.54950746993497
1667825657078528800,5.23752880859375,-1.487036546844244,-0.9719570266962051,-1.3847341102331876
1667825657088535800,5.247535888671875,-1.567895797932148,-0.7999544463932514,-1.2562673047959805
1667825657098543900,5.2575439453125,-1.8151017955183981,-0.41212475710809227,-1.2185866856992245
1667825657108551700,5.2675517578125,-2.3308833264559508,-0.12089257079064845,-1.1111205827146768
1667825657118559700,5.277559814453125,-3.0132465816915035,-0.06818652425855398,-0.9469632360193878
1667825657128567800,5.28756787109375,-3.6649960874766108,-0.07991641727983952,-0.7544725789610296
1667825657138576000,5.297575927734375,-4.214602146604657,0.005787351229786872,-0.5172491192720831
1667825657148583000,5.3075830078125,-4.629981521594524,-0.02824409770965576,-0.45892114120498295
1667825657158590700,5.3175908203125,-4.871662033757567,-0.29061171633154154,-0.5902884173240512
1667825657168598800,5.327598876953125,-4.775899812570214,-0.6848205852597952,-0.8193738710038363
1667825657178606800,5.33760693359375,-4.343060768735408,-0.9731821845769881,-0.9309206674307584
1667825657188615000,5.347614990234375,-3.78463778142333,-0.8907470624744892,-0.7606030445400626
1667825657198623000,5.357623046875,-3.1305121941566467,-0.48785658217966554,-0.3817726177359
1667825657208629800,5.367629638671875,-2.494492172423005,-0.13473171105086804,-0.03651077159978449
1667825657218637800,5.377637939453125,-2.056314690169692,0.06113309861570596,0.056253144554421305
1667825657228646000,5.38764599609375,-1.8112164785176514,0.17531009741574524,0.023627242430811747
1667825657238654000,5.397654052734375,-1.7378847003251312,0.19849983434528112,0.03184109928831458
1667825657248661800,5.407661865234375,-1.8936141912192106,0.025979367648065087,0.043755555096268654
1667825657258668800,5.417668701171875,-2.076102509701252,-0.16579086618125438,0.07811302111968398
1667825657268676900,5.4276767578125,-2.087564399436116,-0.20949615239501,0.24214571852199732
1667825657278685000,5.437684814453125,-1.8970669620215892,-0.10413754308372736,0.5865078758720308
1667825657288693000,5.44769287109375,-1.5496774196743963,0.09140577954351901,0.9421345006886869
1667825657298700800,5.45770068359375,-1.1274398493528366,0.2796802802115679,1.1398751141645014
1667825657308708900,5.467708984375,-0.7299789928913116,0.4396899326428771,1.1960261865839361
1667825657318716000,5.4777158203125,-0.34788054073452945,0.5509066203325986,1.1512046827565878
1667825657328724000,5.487723876953125,0.03158347126543522,0.5482604897379875,0.843800456251949
1667825657338731800,5.497731689453125,0.3959253174573183,0.4342164696678519,0.3142901866260916
1667825657348739800,5.50773974609375,0.788606538426876,0.348610608574748,-0.1704202064823359
1667825657358748000,5.517747802734375,1.1432868223041295,0.2747720499038696,-0.49599962969012557
1667825657368755700,5.527755615234375,1.3810358402371405,0.2525242699995637,-0.6421218457400798
1667825657378763000,5.537762939453125,1.287497724840045,0.17135463778823612,-0.6719798083871603
1667825657388770800,5.547770751953125,1.107905127799511,0.17340134118497372,-0.5686947904795407
1667825657398779000,5.55777880859375,0.8100064693301916,0.1768698940783739,-0.30026567986160513
1667825657408786700,5.56778662109375,0.3528232578337192,0.07081804180592298,-0.032634149362146855
1667825657418794800,5.577794677734375,-0.18632804277539253,-0.08331278171986341,0.0595826543033123
1667825657428803000,5.587802978515625,-0.6007768589168787,-0.16149726064056158,0.08161883728355168
1667825657438809900,5.597809814453125,-0.8764636855781078,-0.15034809011667966,0.15884177769571542
1667825657448817700,5.607817626953125,-0.9604629882574081,-0.08990881898403168,0.3687745679423213
1667825657458825700,5.61782568359375,-0.8190759109705686,-0.05851181020140647,0.6412563880171627
1667825657468834000,5.627833984375,-0.5719143370479345,-0.0625713147252798,0.7400907101262361
1667825657478841900,5.637841796875,-0.2790951737999916,-0.19775193858742712,0.5711436449363827
1667825657488850000,5.647849853515625,-0.13888415455520153,-0.475220387968421,0.19751491496115922
1667825657498856700,5.657856689453125,-0.11139818173646926,-0.5250637385457754,-0.06221804430820047
1667825657508864800,5.66786474609375,-0.11035013398826121,-0.22557868766784667,0.06817278799414635
1667825657518872800,5.677872802734375,-0.12849720057547093,0.10597031146883965,0.3663941025465727
1667825657528881000,5.687880859375,-0.22487901496589183,0.2968500261992216,0.5924804474756121
1667825657538889000,5.697888916015625,-0.3457470358371734,0.41862756313085553,0.7781842208728194
1667825657548896800,5.707896728515625,-0.29721418333649635,0.438373297086358,0.9429911905832589
1667825657558903800,5.71790380859375,-0.17971359307169912,0.35855975565910336,1.051061250810325
1667825657568912000,5.727911865234375,-0.08526362352669238,0.10701017591059207,1.1141109967023133
1667825657578920000,5.737919921875,-0.03655482993721962,-0.3009492782115936,0.9853653743237256
1667825657588927700,5.747927734375,0.10480652838647365,-0.6282984875708818,0.7461791631944477
1667825657598935800,5.757935791015625,0.39964813737273214,-0.8874205484002828,0.5415276743516325
1667825657608943900,5.76794384765625,0.8338806813925504,-0.9742664726823568,0.36582039431184527
1667825657618951000,5.777950927734375,1.1919897706747054,-0.7967109344273805,0.2083317117255181
1667825657628959000,5.787958984375,1.2870681012511254,-1.069215039399266,0.12152896899804472
1667825657638966800,5.797966796875,1.293323654514551,-1.353089848691225,0.19626016565971074
1667825657648974800,5.807974853515625,1.4662977101981638,-1.3532295494228601,0.3275619022618979
1667825657658982700,5.817982666015625,1.5644757603555917,-1.183173134751618,0.27504060117956247
1667825657668991000,5.827990966796875,1.4838637620270252,-1.0542398808464408,0.12547653758004307
1667825657678997800,5.837997802734375,1.4408376902490854,-1.1113637438207864,0.19170644787810742
1667825657689005800,5.848005859375,1.5364970355838536,-1.3064423715457318,0.4901844771379605
1667825657699014000,5.858013916015625,1.7198212203681469,-1.4758420758739113,0.6859549230519681
1667825657709021700,5.868021728515625,2.0018343274414536,-1.4959969751521944,0.7150399285651743
1667825657719030000,5.878030029296875,2.338483864587545,-1.5360925464361905,0.6093300946634262
1667825657729037800,5.888037841796875,2.6253140165537596,-1.4212097374543546,0.7246597706299275
1667825657739044900,5.898044921875,2.8297353499025104,-1.1228390775591135,0.9113360423211008
1667825657749052700,5.908052734375,2.901201334223151,-0.8772107045531272,0.9857817000396549
1667825657759060700,5.918060791015625,2.87473885923326,-0.670514412009716,1.1475547819469123
1667825657769069000,5.928069091796875,2.780225761324167,-0.5032593184947968,1.1699552681948988
1667825657779076900,5.938076904296875,2.6759862191706896,-0.3930857101172209,0.7889838473066687
1667825657789085000,5.9480849609375,2.6175667634278534,-0.3797887139096856,0.24510354541428386
1667825657799091700,5.958091796875,2.496419925615191,-0.4761091535016894,-0.15371332876607774
1667825657809100000,5.96810009765625,2.2734920447170732,-0.5588558257713914,-0.38494361245483155
1667825657819107800,5.97810791015625,2.0142390509843824,-0.5415531010538339,-0.5565114546023309
1667825657829116000,5.988115966796875,1.8833523249238728,-0.4513163652896881,-0.622004136667028
1667825657839124000,5.9981240234375,1.8742273537039755,-0.37988632906526326,-0.5824069433592259
1667825657849131800,6.0081318359375,1.8465905742377042,-0.4352008045300841,-0.5546306823570281
1667825657859139000,6.01813916015625,1.8832295753270387,-0.6614245121032,-0.6923967926677316
1667825657869147000,6.02814697265625,1.986572460901737,-0.9758934893622994,-0.9395680112015455
1667825657879155000,6.038155029296875,2.1791876211225985,-1.2642246935412287,-1.122119823373854
1667825657889162800,6.048162841796875,2.421363807848096,-1.4258505489975213,-1.1527411716088651
1667825657899170600,6.058170654296875,2.5965134540051222,-1.3820342036247253,-1.0703457239296286
1667825657909178600,6.0681787109375,2.5048995846688746,-1.3588047192066908,-1.043714249048382
1667825657919185700,6.078185546875,2.0706401526421305,-1.4700912572622298,-1.131843198878318
1667825657929193700,6.08819384765625,1.452078630709648,-1.6074632536888123,-1.250054567760974
1667825657939201500,6.098201416015625,1.0038719218730925,-1.60175101352185,-1.282857497818768
1667825657949209600,6.108209716796875,0.7406932791292667,-1.3928557496294378,-1.2233951088942587
1667825657959217700,6.1182177734375,0.6588882716238498,-1.084848077338934,-1.059477343108505
1667825657969225700,6.128225830078125,0.6707604957252741,-0.8480974227935075,-0.9341999813623726
1667825657979232800,6.138232666015625,0.7233627896219491,-0.7378513337016105,-0.7798267273828386
1667825657989240600,6.148240478515625,0.86232293202281,-0.6621186318472028,-0.716924134876579
1667825657999248600,6.15824853515625,0.9948790526002644,-0.5675830298453569,-0.7346347097426652
1667825658009256700,6.168256591796875,1.046986256456375,-0.44080549266934393,-0.8038904706679284
1667825658019264800,6.1782646484375,1.0424462749391794,-0.3334653541520238,-0.8520693951644003
1667825658029272800,6.18827294921875,0.9057622607767581,-0.33260259984284635,-0.9562696282207965
1667825658039279600,6.198279541015625,0.6493290006399154,-0.5253659363627433,-1.2469548481799662
1667825658049287700,6.20828759765625,0.6753992614418268,-0.5551864896088838,-1.2105087393142282
1667825658059295700,6.218295654296875,0.699207422530651,-0.43843467188477514,-0.7395994925431907
1667825658069303800,6.2283037109375,0.3462877185851335,-0.4374900845110416,-0.5356019375644624
1667825658079311600,6.2383115234375,-0.28232231915295125,-0.6264893923223018,-0.7852733023509383
1667825658089319700,6.248319580078125,-0.8370049508929253,-0.8614128314405679,-1.0708597378663718
1667825658099326700,6.25832666015625,-1.2568781301707028,-0.9685334819883108,-1.125185932946205
1667825658109334800,6.268334716796875,-1.56804134388268,-1.0444716432869434,-1.0929295308552682
1667825658119342600,6.278342529296875,-1.6646335861533879,-1.1494506056308746,-0.9692011521168052
1667825658129350700,6.2883505859375,-1.6510481283932923,-1.2418711151748896,-0.7512418534114956
1667825658139358700,6.298358642578125,-1.6310650785505771,-1.209752806380391,-0.35238048250228166
1667825658149366500,6.308366455078125,-1.5513795474171637,-1.1957009001523256,0.1337519062332809
1667825658159373800,6.318373779296875,-1.4177800552666187,-1.4139052596598862,0.5735989291340112
1667825658169381600,6.328381591796875,-1.4090350232750177,-1.7424948244690894,0.6294670929588377
1667825658179389700,6.3383896484375,-1.59914901432991,-1.976578305631876,0.31093685761019585
1667825658189397500,6.3483974609375,-1.8285189109742641,-1.8057810094654558,0.16331234723851085
1667825658199405600,6.358405517578125,-1.9485031347483395,-1.2871592866659163,0.43685646278262136
1667825658209414000,6.368413818359375,-1.9935300249546766,-0.7554168010085821,0.7162763384923339
1667825658219421700,6.378421630859375,-2.1031606124967337,-0.48171734877228733,0.6753377405129373
1667825658229428700,6.3884287109375,-2.207200832685828,-0.27037615303248164,0.6006651787033305
1667825658239436500,6.3984365234375,-2.1282693347901103,-0.027703122700750826,0.6987805023554712
1667825658249444600,6.408444580078125,-1.8748714968264102,0.09336042074263096,0.8531281104370951
1667825658259452700,6.41845263671875,-1.4113725263118744,0.08111293358802794,0.9430166172854602
1667825658269460700,6.428460693359375,-0.8311439499050378,-0.0035147301226854323,1.023058633706346
1667825658279468800,6.43846875,-0.2540823130965233,-0.17787585625052452,0.9625982467204331
1667825658289476600,6.4484765625,0.16625965273678303,-0.48772360344976184,0.7654962234091013
1667825658299484000,6.45848388671875,0.44965340051352976,-0.8030740397185087,0.43698345016315576
1667825658309491700,6.46849169921875,0.6409101318627596,-0.8637342601254582,0.13675496050678193
1667825658319499800,6.478499755859375,0.8237140921652316,-0.5866933885067701,0.16804595163166522
1667825658329507600,6.488507568359375,0.9817004220753908,-0.2194564053952694,0.461129172643274
1667825658339515600,6.498515625,1.0945774441927671,0.0840621387824416,0.7459073605157435
1667825658349523700,6.508523681640625,1.103826334053278,0.29538287625610826,0.93170582645908
1667825658359530800,6.51853076171875,1.0497101284623145,0.3308975494906306,0.9700658061221241
1667825658369538800,6.528538818359375,0.9094880033016204,0.14392594811469317,0.8152452467665076
1667825658379546600,6.538546630859375,0.7456587925821543,-0.11033932033330202,0.6090783483920619
1667825658389554700,6.5485546875,0.6559305908620358,-0.29647300958037376,0.4691365380100906
1667825658399562500,6.5585625,0.5430079760372638,-0.3595671791359782,0.4540661023892462
1667825658409570800,6.56857080078125,0.3520920209497213,-0.3071647917255759,0.41690746133998036
1667825658419577600,6.57857763671875,0.1384662214040756,-0.23488982910960912,0.32918022417873144
1667825658429585700,6.588585693359375,-0.03815115921795368,-0.18279343890845776,0.4025217931129038
1667825658439593700,6.59859375,-0.10509469767808914,-0.050422611770033834,0.5349906737983227
1667825658449601500,6.6086015625,-0.17003624866604805,0.047589726431667805,0.4654432364501059
1667825658459609900,6.61860986328125,-0.36223815191090103,0.05010989255905151,0.2794090620547533
1667825658469617700,6.62861767578125,-0.6758715551286936,0.01620382356494665,0.07573138668015598
1667825658479625700,6.638625732421875,-1.1183815136283635,0.040649990296363826,-0.13186010113731025
1667825658489632500,6.648632568359375,-1.664900128135085,0.04387070590853691,-0.22701529634222387
1667825658499640600,6.658640625,-2.0967010610938073,-0.028228607879579065,-0.12702888158857822
1667825658509649000,6.66864892578125,-2.3179443499058485,-0.13861965840011833,-0.002427227146923542
1667825658519656700,6.67865673828125,-2.2150468700110912,-0.1948854432404041,0.17179565955400466
1667825658529664800,6.688664794921875,-1.9888228701770305,-0.47402328713834285,0.3070603084377944
1667825658539672600,6.698672607421875,-1.7948785071790216,-0.894257408683002,0.34561069610640405
1667825658549679900,6.708679931640625,-1.672197883927822,-1.2335928239122032,0.2707674904376268
1667825658559687700,6.718687744140625,-1.7909990353971719,-1.3546572441384195,0.2545519764348864
1667825658569695700,6.72869580078125,-2.1307664123028514,-1.1056944660127161,0.49301221137717366
1667825658579703600,6.73870361328125,-2.4945523781776426,-0.5501894119739532,1.0540953578092158
1667825658589711600,6.748711669921875,-2.925572974413633,0.1134945694938302,1.536691535242647
1667825658599719700,6.7587197265625,-3.3805554609954354,0.7898965782374143,1.7695739700525999
1667825658609727700,6.768727783203125,-3.3334733918249606,1.205908990433812,2.3161888845406473
1667825658619734800,6.77873486328125,-2.899807834038138,1.3361430978044866,2.777214304548502
1667825658629742600,6.78874267578125,-2.057979993033409,1.3445961611121893,3.007922171798348
1667825658639750700,6.798750732421875,-1.2135007607370614,1.0259203798130154,2.5971803934812545
1667825658649758500,6.808758544921875,-0.4465706320673227,0.4863616674467921,1.726278287553042
1667825658659766800,6.818766845703125,0.3953413800895214,-0.10331716661155223,1.001020477964729
1667825658669774800,6.82877490234375,1.1665566387325526,-0.6097928168043494,0.3907340324245393
1667825658679781600,6.83878173828125,1.8312649948120117,-0.7490662629380822,-0.038450580555945635
1667825658689789700,6.848789794921875,2.326059267300367,-0.5706465090692043,-0.282789059881866
1667825658699797500,6.858797607421875,2.553687288713455,-0.2973191050156951,-0.35476211694180965
1667825658709805800,6.868805908203125,2.683978386968374,0.04805880524814129,-0.17436024934500455
1667825658719813600,6.878813720703125,2.6755817300230262,0.28685879353880883,0.08408318157047033
1667825658729821700,6.88882177734375,2.5204636490255594,0.33100188664793967,0.15173004599437118
1667825658739829800,6.898829833984375,2.3371195904970166,0.307481602589786,0.05121785380095243
1667825658749836800,6.9088369140625,2.1722540224671363,0.2125321590900421,0.006897796689718961
1667825658759844900,6.918844970703125,2.0577257260113955,-0.016168752251565454,0.06013955753371119
1667825658769852700,6.928852783203125,1.9945745655715463,-0.3634074879512191,0.04115516333952546
1667825658779860700,6.93886083984375,1.8738450763881205,-0.7704401826173066,-0.18404592318758367
1667825658789868500,6.94886865234375,1.7122072382330893,-1.1264768495395778,-0.5805637997105717
1667825658799876600,6.958876708984375,1.6046265689581631,-1.218675240765512,-0.9222194745808839
1667825658809884700,6.968884765625,1.5574930618613958,-1.0045917605802417,-0.9582580255590378
1667825658819891700,6.9788916015625,1.6035633236408233,-0.6268468274578451,-0.7532387263171374
1667825658829899800,6.988899658203125,1.712043572103977,-0.28151860155463215,-0.70625909460783
1667825658839907600,6.998907470703125,1.9083260226607321,-0.06592763941586018,-0.7797413871869444
1667825658849915600,7.00891552734375,2.1548925532996654,0.07627046199291944,-0.8565843883708119
1667825658859923700,7.018923828125,2.446689387762546,0.14740239205360411,-1.0224953738003968
1667825658869931800,7.028931884765625,2.6825568297326563,0.17609949422776697,-1.173342353349924
1667825658879940000,7.038940185546875,2.812397261610627,0.18724077370613812,-1.2603928602933883
1667825658889947000,7.04894677734375,2.793111546382308,0.2231134665980935,-1.2897947497360407
1667825658899955000,7.058954833984375,2.74545606123805,0.28657325459569694,-1.2659570702917873
1667825658909963000,7.068962890625,2.750227513423562,0.3383557565420866,-1.2826786341205239
1667825658919971000,7.07897119140625,2.775243881258368,0.3719859312042594,-1.411424694890529
1667825658929979100,7.088979248046875,2.8695272620648145,0.3865463714763522,-1.573869027122855
1667825658939987000,7.098987060546875,3.0777643543094393,0.44578386560380456,-1.7220741138614712
1667825658949995000,7.1089951171875,3.378596143621206,0.49394554670453067,-1.810736293785274
1667825658960002000,7.119001953125,3.5868753214418887,0.411343835863471,-1.8754887519419192
1667825658970010000,7.129010009765625,3.5684383319973945,0.20948972265422344,-1.911893213623017
1667825658980018000,7.139017822265625,3.242949071291089,-0.09211363555192947,-1.9436299757540225
1667825658990026000,7.14902587890625,2.4324627094894646,-0.4597787809476256,-1.9748785159766673
1667825659000033800,7.15903369140625,1.296191903427243,-0.7543234528139233,-1.8479183157101273
1667825659010041900,7.169041748046875,0.0697732089281082,-0.83876786891222,-1.5591561727680265
1667825659020049000,7.179048828125,-1.143597203427553,-0.7458934781208634,-1.2965680432632565
1667825659030057000,7.189056884765625,-2.377991114589572,-0.6056076400741934,-1.126750698044896
1667825659040065000,7.19906494140625,-3.3584605335652826,-0.6364508143663405,-1.1241617044650019
1667825659050072800,7.20907275390625,-3.942264630371332,-0.8236839892879128,-1.003120665114373
1667825659060081000,7.219080810546875,-4.123963844302296,-1.0693243449926375,-0.7179165069147944
1667825659070089000,7.2290888671875,-4.065809761497378,-1.4335297053232787,-0.7011991808697581
1667825659080097000,7.239096923828125,-3.9068490335971116,-1.9291542911559343,-1.0623578669808804
1667825659090103800,7.249103759765625,-3.6395319758743048,-2.2651398114353416,-1.4298932485170661
1667825659100112000,7.25911181640625,-2.8586878881424664,-2.0291735852658745,-1.3848282182574272
1667825659110120000,7.269119873046875,-1.6269973907202482,-1.311792792662978,-0.9814063344996422
1667825659120128000,7.2791279296875,-1.6713479891002176,-0.34667058042287824,-0.1066600472986698
1667825659130136000,7.289135986328125,-2.248811192446947,0.49487289068251844,0.6048183893926441
1667825659140143900,7.299143798828125,-2.8993711961865425,0.9340911141604185,0.9944082202181219
1667825659150152000,7.30915185546875,-3.4249142426818606,1.0209665567979216,0.9633866206191479
1667825659160159000,7.319158935546875,-3.825706873914599,0.8425134851813316,0.7670924796245991
1667825659170167000,7.3291669921875,-3.773770350450277,0.7200342297211288,0.7903257634349167
