time,seconds_elapsed,z,y,x
1667825651850691600,0.009691650390625,0.2655770778656006,0.3660469651222229,0.1763143092393875
1667825651860699600,0.01969970703125,0.27694132924079895,0.4790624678134918,0.24084323644638062
1667825651870707500,0.02970751953125,0.3057734966278076,0.5863103270530701,0.2651011645793915
1667825651880719000,0.039718994140625,0.34914201498031616,0.6655426025390625,0.25999510288238525
1667825651890726100,0.04972607421875,0.4005942940711975,0.702419102191925,0.21666786074638367
1667825651900734200,0.059734130859375,0.4478912353515625,0.6911779046058655,0.14814206957817078
1667825651910742000,0.069741943359375,0.48424631357192993,0.6492661237716675,0.049205098301172256
1667825651920750000,0.07975,0.5165084004402161,0.599977433681488,-0.061167482286691666
1667825651930758000,0.0897578125,0.5449568033218384,0.5216024518013,-0.16719697415828705
1667825651940765200,0.09976513671875,0.5820351839065552,0.4325556755065918,-0.2509262263774872
1667825651950773000,0.10977294921875,0.620458722114563,0.3758907914161682,-0.3057977259159088
1667825651960781000,0.119781005859375,0.6500648260116577,0.384015828371048,-0.32709211111068726
1667825651970789000,0.1297890625,0.6639177799224854,0.45246174931526184,-0.2977067828178406
1667825651980797000,0.139796875,0.6699227094650269,0.518169641494751,-0.2237987369298935
1667825651990804200,0.14980419921875,0.6656494140625,0.5536094307899475,-0.1169990599155426
1667825652000812000,0.15981201171875,0.6505489945411682,0.5626338124275208,-0.0001483380765421316
1667825652010820000,0.169820068359375,0.6301579475402832,0.5570443272590637,0.11723874509334564
1667825652020828000,0.179827880859375,0.6145294904708862,0.5671103000640869,0.21185871958732605
1667825652030836200,0.189836181640625,0.6085144877433777,0.6130892634391785,0.27745771408081055
1667825652040843000,0.199843017578125,0.6118958592414856,0.6911129355430603,0.2992902994155884
1667825652050851000,0.20985107421875,0.6181489825248718,0.7901947498321533,0.2740464508533478
1667825652060859100,0.219859130859375,0.6183007955551147,0.866875410079956,0.19303257763385773
1667825652070867000,0.229866943359375,0.5975621938705444,0.8785297274589539,0.07278791815042496
1667825652080875300,0.239875244140625,0.5602588057518005,0.8126683831214905,-0.07776004076004028
1667825652090882000,0.249882080078125,0.5194053649902344,0.6895552277565002,-0.20520667731761932
1667825652100890000,0.25989013671875,0.4782949388027191,0.5059569478034973,-0.2902422249317169
1667825652110898000,0.26989794921875,0.45160847902297974,0.265472412109375,-0.3369652330875397
1667825652120906200,0.27990625,0.4005407691001892,-0.008650213479995728,-0.37019082903862
1667825652130914300,0.289914306640625,0.3483920693397522,-0.33908379077911377,-0.39182955026626587
1667825652140921000,0.299921142578125,0.33390527963638306,-0.7003772854804993,-0.42290037870407104
1667825652150929200,0.30992919921875,0.3220062553882599,-0.9936397671699524,-0.4538702964782715
1667825652160937000,0.31993701171875,0.3016354739665985,-1.2287540435791016,-0.47274330258369446
1667825652170945300,0.3299453125,0.25770050287246704,-1.35783851146698,-0.466089129447937
1667825652180953000,0.339953125,0.21284648776054382,-1.407674789428711,-0.4358779788017273
1667825652190960000,0.349960205078125,0.16985002160072327,-1.4052987098693848,-0.3668192923069
1667825652200968000,0.359968017578125,0.12685328722000122,-1.3444150686264038,-0.26961231231689453
1667825652210976000,0.36997607421875,0.07904528081417084,-1.2548404932022095,-0.15865808725357056
1667825652220984000,0.379984130859375,0.03386422246694565,-1.1895301342010498,-0.04210137948393822
1667825652230992100,0.3899921875,-0.015386679209768772,-1.1754878759384155,0.08116888999938965
1667825652240999000,0.3999990234375,-0.08819324523210526,-1.1866315603256226,0.2279157191514969
1667825652251007000,0.410007080078125,-0.1904280036687851,-1.1732521057128906,0.38898611068725586
1667825652261015300,0.420015380859375,-0.316280722618103,-1.1220920085906982,0.5565381050109863
1667825652271023000,0.430023193359375,-0.45734572410583496,-1.0528700351715088,0.7106794714927673
1667825652281031200,0.44003125,-0.5857020616531372,-0.993363618850708,0.8403860330581665
1667825652291038000,0.450037841796875,-0.6825575232505798,-0.9552937150001526,0.9252594113349915
1667825652301046000,0.4600458984375,-0.7151780724525452,-0.9287760853767395,0.9420852661132812
1667825652311054000,0.47005419921875,-0.6596894860267639,-0.9145063161849976,0.8803896307945251
1667825652321062100,0.480062255859375,-0.5057483911514282,-0.8885967135429382,0.7252000570297241
1667825652331070200,0.4900703125,-0.23321621119976044,-0.8070680499076843,0.48275068402290344
1667825652341077000,0.500076904296875,0.11728854477405548,-0.6493889093399048,0.1733536720275879
1667825652351085300,0.510085205078125,0.43964582681655884,-0.5575828552246094,-0.15652808547019958
1667825652361093000,0.520093017578125,0.6909467577934265,-0.54095059633255,-0.44864755868911743
1667825652371101200,0.53010107421875,0.851481020450592,-0.4713893532752991,-0.6939926147460938
1667825652381109000,0.54010888671875,0.9305518865585327,-0.3319494426250458,-0.8719229102134705
1667825652391116000,0.550115966796875,0.9245251417160034,-0.1189386397600174,-0.9762110114097595
1667825652401124000,0.5601240234375,0.8442327380180359,0.12841762602329254,-1.000389575958252
1667825652411132200,0.570132080078125,0.714228093624115,0.3551498353481293,-0.9535067081451416
1667825652421140200,0.58014013671875,0.5538871884346008,0.5328982472419739,-0.8493757843971252
1667825652431148000,0.59014794921875,0.37805595993995667,0.6272130608558655,-0.7077265381813049
1667825652441155000,0.600155029296875,0.20335844159126282,0.6154685020446777,-0.5393814444541931
1667825652451163100,0.6101630859375,0.05909501016139984,0.5486274361610413,-0.3584388494491577
1667825652461171200,0.620171142578125,-0.03226099908351898,0.5070506930351257,-0.1924552023410797
1667825652471179000,0.630178955078125,-0.0761893093585968,0.510991096496582,-0.06654200702905655
1667825652481187000,0.64018701171875,-0.10172902792692184,0.5299474596977234,0.02197187766432762
1667825652491194000,0.650194091796875,-0.1233150064945221,0.5493624806404114,0.08384376764297485
1667825652501202200,0.6602021484375,-0.13519591093063354,0.5487502217292786,0.12591291964054108
1667825652511210200,0.670210205078125,-0.12663356959819794,0.5367915630340576,0.13637754321098328
1667825652521218000,0.680218017578125,-0.10331946611404419,0.5371094942092896,0.11811598390340805
1667825652531226000,0.69022607421875,-0.061158694326877594,0.5404725670814514,0.07986979931592941
1667825652541233200,0.700233154296875,-0.008236091583967209,0.529892086982727,0.048107609152793884
1667825652551241200,0.7102412109375,0.041184455156326294,0.5058027505874634,0.0038511971943080425
1667825652561249000,0.7202490234375,0.08384723216295242,0.48983654379844666,-0.03694656491279602
1667825652571257000,0.730257080078125,0.1211775541305542,0.4684239327907562,-0.05626353994011879
1667825652581265200,0.74026513671875,0.16843721270561218,0.4366662800312042,-0.04616856202483177
1667825652591272200,0.750272216796875,0.215687558054924,0.4380923807621002,-0.02184138260781765
1667825652601280300,0.7602802734375,0.250749409198761,0.4674433469772339,-0.004209924954921007
1667825652611288000,0.7702880859375,0.26616910099983215,0.4797375798225403,0.005761216394603252
1667825652621296000,0.780296142578125,0.25883954763412476,0.45311954617500305,0.025418274104595184
1667825652631304000,0.790303955078125,0.2467770278453827,0.38311144709587097,0.062063369899988174
1667825652641311200,0.800311279296875,0.23562930524349213,0.22656230628490448,0.11094196140766144
1667825652651319000,0.810319091796875,0.21867695450782776,0.04833397641777992,0.20110595226287842
1667825652661327000,0.8203271484375,0.2156449407339096,-0.12127742916345596,0.3172543942928314
1667825652671335000,0.8303349609375,0.22719107568264008,-0.2658340632915497,0.4361285865306854
1667825652681343000,0.840343017578125,0.2415281981229782,-0.3822523057460785,0.5563058257102966
1667825652691350000,0.85035009765625,0.25201359391212463,-0.47867923974990845,0.6765795350074768
1667825652701358000,0.860358154296875,0.26474323868751526,-0.5696988701820374,0.7648614645004272
1667825652711366100,0.8703662109375,0.28409644961357117,-0.6223312020301819,0.8210808038711548
1667825652721374000,0.8803740234375,0.31055599451065063,-0.6833437085151672,0.8478335738182068
1667825652731382000,0.890382080078125,0.3279309868812561,-0.7936486005783081,0.8526768088340759
1667825652741390000,0.90039013671875,0.3235093653202057,-0.9279515743255615,0.8302950859069824
1667825652751397000,0.910397216796875,0.3029273748397827,-0.965048611164093,0.741341769695282
1667825652761405000,0.920405029296875,0.2960796058177948,-0.8709045648574829,0.5745370388031006
1667825652771413000,0.9304130859375,0.29489636421203613,-0.7229800820350647,0.3527529835700989
1667825652781421300,0.94042138671875,0.32191118597984314,-0.5500703454017639,0.10402520000934601
1667825652791429000,0.95042919921875,0.3995969295501709,-0.31839102506637573,-0.141459122300148
1667825652801436200,0.960436279296875,0.5282262563705444,-0.00669358903542161,-0.3409472107887268
1667825652811444000,0.97044384765625,0.6587355732917786,0.2652044892311096,-0.460482656955719
1667825652821452000,0.9804521484375,0.7540865540504456,0.4385283589363098,-0.495635062456131
1667825652831460000,0.990460205078125,0.7883015275001526,0.5026189088821411,-0.43601831793785095
1667825652841468200,1.00046826171875,0.741340160369873,0.37534138560295105,-0.2698887288570404
1667825652851475000,1.010474853515625,0.6524164080619812,0.05993390828371048,-0.06033311411738396
1667825652861483000,1.02048291015625,0.5516951084136963,-0.2916100025177002,0.11477052420377731
1667825652871491000,1.030490966796875,0.46900954842567444,-0.5749104022979736,0.1775905042886734
1667825652881495300,1.040495361328125,0.40579143166542053,-0.7365232706069946,0.12261273711919785
1667825652891503400,1.05050341796875,0.3338368237018585,-0.787969708442688,-0.01101696491241455
1667825652901511400,1.060511474609375,0.26281723380088806,-0.7328662276268005,-0.17209480702877045
1667825652911518200,1.070518310546875,0.24312876164913177,-0.5296286940574646,-0.341755211353302
1667825652921526500,1.080526611328125,0.29719892144203186,-0.17621657252311707,-0.493358314037323
1667825652931534300,1.090534423828125,0.40261536836624146,0.21245607733726501,-0.5955978631973267
1667825652941542400,1.10054248046875,0.5248139500617981,0.5631597638130188,-0.6424570083618164
1667825652951550200,1.11055029296875,0.6423794627189636,0.8263669013977051,-0.6287097334861755
1667825652961557500,1.1205576171875,0.7359685301780701,0.9485220909118652,-0.5781949162483215
1667825652971565300,1.1305654296875,0.7976031303405762,0.9368025660514832,-0.5115721821784973
1667825652981573400,1.140573486328125,0.8056240677833557,0.7693824172019958,-0.4544135630130768
1667825652991581400,1.15058154296875,0.743884265422821,0.5229009985923767,-0.410419762134552
1667825653001589200,1.16058935546875,0.6244902610778809,0.24870489537715912,-0.3626735210418701
1667825653011597300,1.170597412109375,0.47770825028419495,-0.03429219499230385,-0.2996397018432617
1667825653021604400,1.180604248046875,0.3430233895778656,-0.28307589888572693,-0.22275212407112122
1667825653031612400,1.1906123046875,0.257024347782135,-0.5052375793457031,-0.11782410740852356
1667825653041620200,1.2006201171875,0.22512100636959076,-0.6976933479309082,0.001130778226070106
1667825653051628300,1.210628173828125,0.2330084890127182,-0.8231828212738037,0.11416119337081909
1667825653061636400,1.22063623046875,0.24597887694835663,-0.8702656626701355,0.2105276733636856
1667825653071643400,1.230643310546875,0.23825997114181519,-0.8279346823692322,0.2820303440093994
1667825653081651500,1.2406513671875,0.1973881721496582,-0.682313859462738,0.32815125584602356
1667825653091659300,1.2506591796875,0.14373639225959778,-0.43467769026756287,0.3553261458873749
1667825653101667300,1.260667236328125,0.1079629510641098,-0.09336590021848679,0.3437909185886383
1667825653111675100,1.270675048828125,0.09953990578651428,0.3091557025909424,0.30879831314086914
1667825653121682400,1.280682373046875,0.11538677662611008,0.6883938312530518,0.28470391035079956
1667825653131690200,1.290690185546875,0.1464885026216507,1.012497067451477,0.2921823263168335
1667825653141698300,1.3006982421875,0.18558238446712494,1.272058129310608,0.3572912812232971
1667825653151706400,1.310706298828125,0.23835158348083496,1.422985553741455,0.4602949023246765
1667825653161714400,1.32071435546875,0.29177433252334595,1.4922239780426025,0.5783126354217529
1667825653171722500,1.330722412109375,0.3094649016857147,1.5215624570846558,0.715114414691925
1667825653181729300,1.340729248046875,0.293637216091156,1.4534835815429688,0.8624772429466248
1667825653191737300,1.3507373046875,0.27983856201171875,1.2872391939163208,1.0086884498596191
1667825653201745200,1.3607451171875,0.3252846300601959,1.1119065284729004,1.089391827583313
1667825653211753500,1.37075341796875,0.4777785539627075,0.9748884439468384,1.0618082284927368
1667825653221761500,1.380761474609375,0.7557420134544373,0.8632718920707703,0.9231246113777161
1667825653231769300,1.390769287109375,1.1026568412780762,0.7302813529968262,0.7120823860168457
1667825653241776400,1.4007763671875,1.449977159500122,0.5740856528282166,0.4818827509880066
1667825653251784400,1.410784423828125,1.7474528551101685,0.4000086486339569,0.2807360589504242
1667825653261792500,1.42079248046875,1.929112434387207,0.19614315032958984,0.1571190506219864
1667825653271800300,1.43080029296875,1.9945108890533447,-0.05736235901713371,0.11221335828304291
1667825653281808400,1.440808349609375,1.951395869255066,-0.32663804292678833,0.13987401127815247
1667825653291816200,1.450816162109375,1.8094608783721924,-0.5760606527328491,0.22719401121139526
1667825653301823500,1.460823486328125,1.5895640850067139,-0.7552242875099182,0.34992364048957825
1667825653311831300,1.470831298828125,1.319959282875061,-0.7969503998756409,0.47387781739234924
1667825653321839400,1.48083935546875,1.051135778427124,-0.6928354501724243,0.5876078605651855
1667825653331847400,1.490847412109375,0.8214275240898132,-0.506580114364624,0.6890079975128174
1667825653341855200,1.500855224609375,0.6591659188270569,-0.281576544046402,0.7596331238746643
1667825653351862500,1.510862548828125,0.5653805732727051,-0.023662451654672623,0.8034107089042664
1667825653361870300,1.520870361328125,0.5131458640098572,0.2660742998123169,0.8071649670600891
1667825653371878400,1.53087841796875,0.46937841176986694,0.5724145174026489,0.7493405342102051
1667825653381886200,1.54088623046875,0.41952723264694214,0.8472431302070618,0.6304778456687927
1667825653391894300,1.550894287109375,0.3628261387348175,1.067797303199768,0.44188153743743896
1667825653401902300,1.56090234375,0.3185630738735199,1.2115612030029297,0.1866103559732437
1667825653411909400,1.570909423828125,0.2919863164424896,1.289185881614685,-0.11035580188035965
1667825653421917400,1.58091748046875,0.2795141935348511,1.2762129306793213,-0.40913131833076477
1667825653431925200,1.59092529296875,0.29914170503616333,1.1953134536743164,-0.6508547067642212
1667825653441933300,1.600933349609375,0.352332204580307,1.0782045125961304,-0.7851624488830566
1667825653451941400,1.61094140625,0.4028864800930023,0.9571693539619446,-0.78611159324646
1667825653461949400,1.620949462890625,0.43645721673965454,0.7989912033081055,-0.6558151245117188
1667825653471956200,1.630956298828125,0.4194236397743225,0.59206223487854,-0.43618476390838623
1667825653481964300,1.64096435546875,0.34906211495399475,0.3624836504459381,-0.18985329568386078
1667825653491972400,1.650972412109375,0.2135775238275528,0.14099200069904327,0.029627135023474693
1667825653501980400,1.66098046875,0.028128840029239655,-0.0688062310218811,0.19820895791053772
1667825653511988500,1.670988525390625,-0.1983354538679123,-0.19871681928634644,0.2937037944793701
1667825653521996300,1.680996337890625,-0.4443630576133728,-0.20486445724964142,0.34015944600105286
1667825653532003300,1.69100341796875,-0.6904172897338867,-0.1100362241268158,0.35529792308807373
1667825653542011100,1.70101123046875,-0.9111390113830566,0.05642998591065407,0.353527694940567
1667825653552019500,1.71101953125,-1.0638177394866943,0.26216983795166016,0.34359490871429443
1667825653562027500,1.721027587890625,-1.1260756254196167,0.461681604385376,0.3384678065776825
1667825653572035300,1.731035400390625,-1.089091420173645,0.6011928915977478,0.34286466240882874
1667825653582043400,1.74104345703125,-0.9804803133010864,0.635621964931488,0.34038475155830383
1667825653592050400,1.751050537109375,-0.8282865285873413,0.5571990609169006,0.3343156576156616
1667825653602058500,1.76105859375,-0.6739991903305054,0.38859888911247253,0.32667240500450134
1667825653612066300,1.77106640625,-0.5391260385513306,0.17031021416187286,0.323900043964386
1667825653622074400,1.781074462890625,-0.4250357151031494,-0.04717443510890007,0.32612964510917664
1667825653632082400,1.79108251953125,-0.33470287919044495,-0.22524963319301605,0.3182021975517273
1667825653642090200,1.80109033203125,-0.2675374448299408,-0.3518688380718231,0.2895047962665558
1667825653652097500,1.81109765625,-0.23090991377830505,-0.42480161786079407,0.2469669133424759
1667825653662105300,1.821105224609375,-0.229009747505188,-0.4776746928691864,0.205621600151062
1667825653672113400,1.831113525390625,-0.25100746750831604,-0.5269269347190857,0.15638241171836853
1667825653682121200,1.841121337890625,-0.29084649682044983,-0.5649797916412354,0.11387064307928085
1667825653692129300,1.85112939453125,-0.3436228930950165,-0.5885069370269775,0.07025977969169617
1667825653702137300,1.861137451171875,-0.4032169580459595,-0.6070313453674316,0.03255021944642067
1667825653712144400,1.871144287109375,-0.4601729214191437,-0.626269519329071,0.009959157556295395
1667825653722152200,1.881152099609375,-0.5025454163551331,-0.6524534225463867,0.04201216623187065
1667825653732160300,1.89116015625,-0.527438759803772,-0.6916748881340027,0.11639558523893356
1667825653742168300,1.901168212890625,-0.5452699661254883,-0.709739625453949,0.2143077701330185
1667825653752176400,1.91117626953125,-0.5404400825500488,-0.6799169778823853,0.3012469410896301
1667825653762184400,1.921184326171875,-0.5250704288482666,-0.6235395073890686,0.38378652930259705
1667825653772191200,1.931191162109375,-0.4885598421096802,-0.5618463158607483,0.45774465799331665
1667825653782199300,1.94119921875,-0.4412951171398163,-0.4946132004261017,0.4994167387485504
1667825653792207400,1.951207275390625,-0.387778103351593,-0.44170790910720825,0.5202360153198242
1667825653802215400,1.96121533203125,-0.3375109136104584,-0.426001638174057,0.5106608867645264
1667825653812223500,1.971223388671875,-0.30154600739479065,-0.469451367855072,0.48566949367523193
1667825653822231300,1.981231201171875,-0.2946321666240692,-0.6259461641311646,0.46651870012283325
1667825653832239400,1.9912392578125,-0.3203452527523041,-0.8269080519676208,0.45373019576072693
1667825653842246400,2.001246337890625,-0.31917664408683777,-0.8455259203910828,0.4038372039794922
1667825653852254500,2.01125439453125,-0.26902535557746887,-0.7172446846961975,0.3156205415725708
1667825653862262300,2.02126220703125,-0.17159758508205414,-0.6167969107627869,0.20398882031440735
1667825653872270300,2.031270263671875,-0.04781785607337952,-0.566068172454834,0.06567727774381638
1667825653882277600,2.041277587890625,0.1068958267569542,-0.5249029397964478,-0.08431354910135269
1667825653892285700,2.05128564453125,0.2719026207923889,-0.48901575803756714,-0.22004581987857819
1667825653902292700,2.061292724609375,0.4104767441749573,-0.5054085850715637,-0.3035774528980255
1667825653912300800,2.07130078125,0.4614459276199341,-0.6024200916290283,-0.32926738262176514
1667825653922308600,2.08130859375,0.40361058712005615,-0.7668300867080688,-0.27669790387153625
1667825653932316700,2.091316650390625,0.23867781460285187,-0.9548633694648743,-0.16785770654678345
1667825653942324700,2.10132470703125,-0.008960471488535404,-1.1111102104187012,-0.017302557826042175
1667825653952332800,2.111332763671875,-0.2733822762966156,-1.1762783527374268,0.1106942892074585
1667825653962339600,2.121339599609375,-0.4934675097465515,-1.0731183290481567,0.17349696159362793
1667825653972347600,2.13134765625,-0.6397839784622192,-0.839144229888916,0.16741855442523956
1667825653982355700,2.141355712890625,-0.7146249413490295,-0.5320100784301758,0.12486523389816284
1667825653992363800,2.15136376953125,-0.6790480017662048,-0.1304996907711029,0.026221750304102898
1667825654002371800,2.161371826171875,-0.533552885055542,0.3349657356739044,-0.12784823775291443
1667825654012379600,2.171379638671875,-0.31972235441207886,0.7534375786781311,-0.3212909400463104
1667825654022386700,2.18138671875,-0.0945371612906456,1.0457954406738281,-0.5423010587692261
1667825654032394800,2.191394775390625,0.11548638343811035,1.1865594387054443,-0.7586376667022705
1667825654042402800,2.20140283203125,0.30088821053504944,1.1580201387405396,-0.9431433081626892
1667825654052411000,2.211410888671875,0.44525229930877686,0.9981266856193542,-1.0898888111114502
1667825654062418700,2.221418701171875,0.5313200950622559,0.8190698623657227,-1.1760700941085815
1667825654072426800,2.2314267578125,0.5401327610015869,0.6674315929412842,-1.1915533542633057
1667825654082433800,2.241433837890625,0.47145408391952515,0.5451256632804871,-1.1361010074615479
1667825654092441900,2.25144189453125,0.3508768081665039,0.4364055395126343,-1.0161384344100952
1667825654102449700,2.26144970703125,0.21790197491645813,0.3071860373020172,-0.8311011791229248
1667825654112457700,2.271457763671875,0.08264002203941345,0.17099730670452118,-0.5917104482650757
1667825654122465500,2.281465576171875,-0.05234283208847046,0.021819811314344406,-0.3155941665172577
1667825654132473600,2.2914736328125,-0.1800946742296219,-0.14322666823863983,-0.033126529306173325
1667825654142480600,2.301480712890625,-0.28642964363098145,-0.3090590536594391,0.21339990198612213
1667825654152488700,2.31148876953125,-0.3662682771682739,-0.44394922256469727,0.3885386884212494
1667825654162496800,2.321496826171875,-0.41607895493507385,-0.5161342024803162,0.4698074460029602
1667825654172504600,2.331504638671875,-0.41870325803756714,-0.5240110158920288,0.44388237595558167
1667825654182512600,2.3415126953125,-0.3626500964164734,-0.47884300351142883,0.3191966414451599
1667825654192520700,2.351520751953125,-0.22339953482151031,-0.41444405913352966,0.12057488411664963
1667825654202528800,2.36152880859375,-0.000630636524874717,-0.32333996891975403,-0.11654152721166611
1667825654212535600,2.37153564453125,0.2507036030292511,-0.15592621266841888,-0.3591267466545105
1667825654222543600,2.381543701171875,0.45764318108558655,0.1005961149930954,-0.5630026459693909
1667825654232552000,2.391552001953125,0.5758944749832153,0.38810351490974426,-0.6986702084541321
1667825654242559700,2.401559814453125,0.6192739009857178,0.6892721652984619,-0.7154643535614014
1667825654252567800,2.41156787109375,0.6065772771835327,0.9388556480407715,-0.56778484582901
1667825654262575600,2.42157568359375,0.5612300634384155,1.0796260833740234,-0.29813528060913086
1667825654272582700,2.431582763671875,0.49886786937713623,1.0925631523132324,0.022491194307804108
1667825654282590700,2.4415908203125,0.4301151633262634,0.9872606992721558,0.3087879419326782
1667825654292598800,2.451598876953125,0.395252525806427,0.8501169681549072,0.4741031229496002
1667825654302606800,2.46160693359375,0.43390563130378723,0.7281343340873718,0.5004550814628601
1667825654312614700,2.47161474609375,0.5460108518600464,0.5973294377326965,0.40732622146606445
1667825654322622700,2.481622802734375,0.7029962539672852,0.4254189431667328,0.2514229118824005
1667825654332629800,2.491629638671875,0.8669228553771973,0.2171642780303955,0.08124665170907974
1667825654342637800,2.501637939453125,0.9945255517959595,0.0022125542163848877,-0.061229802668094635
1667825654352645600,2.511645751953125,1.0747947692871094,-0.19697831571102142,-0.14384238421916962
1667825654362653700,2.52165380859375,1.0997060537338257,-0.36371883749961853,-0.14838893711566925
1667825654372661800,2.531661865234375,1.0684407949447632,-0.5100736618041992,-0.07971293479204178
1667825654382669600,2.541669677734375,0.9847884774208069,-0.6331737637519836,0.04998699948191643
1667825654392676900,2.5516767578125,0.8525716066360474,-0.7103399038314819,0.19373591244220734
1667825654402684700,2.5616845703125,0.6964805126190186,-0.7250320315361023,0.3282391428947449
1667825654412692700,2.571692626953125,0.5430710315704346,-0.6629585027694702,0.4192340075969696
1667825654422700500,2.581700439453125,0.4063038229942322,-0.5633549690246582,0.46212634444236755
1667825654432708900,2.591708984375,0.3072297275066376,-0.45902642607688904,0.4605489671230316
1667825654442717000,2.601717041015625,0.24587421119213104,-0.3526161015033722,0.4062223434448242
1667825654452723700,2.6117236328125,0.20989064872264862,-0.2374058961868286,0.2806937098503113
1667825654462731800,2.621731689453125,0.18004460632801056,-0.08472154289484024,0.08255213499069214
1667825654472739600,2.631739501953125,0.13602308928966522,0.08215958625078201,-0.17632229626178741
1667825654482748000,2.641747802734375,0.08595911413431168,0.28630340099334717,-0.4840982258319855
1667825654492755700,2.651755615234375,0.04635072126984596,0.5284110903739929,-0.7892544269561768
1667825654502763800,2.661763671875,0.024810807779431343,0.7604179978370667,-1.0312252044677734
1667825654512770600,2.6717705078125,0.018747055903077126,0.9471782445907593,-1.179498314857483
1667825654522778600,2.681778564453125,0.018667161464691162,1.1125824451446533,-1.2247710227966309
1667825654532786700,2.69178662109375,0.015359515324234962,1.2450666427612305,-1.1672616004943848
1667825654542794800,2.701794677734375,-0.0010484865633770823,1.2825757265090942,-0.9885757565498352
1667825654552802800,2.711802734375,-0.03236699476838112,1.2182073593139648,-0.7168872952461243
1667825654562810600,2.721810546875,-0.09243965148925781,1.069413661956787,-0.3937552869319916
1667825654572818000,2.73181787109375,-0.19091349840164185,0.8731464147567749,-0.07226194441318512
1667825654582825700,2.74182568359375,-0.3282284736633301,0.6385634541511536,0.2121487408876419
1667825654592833800,2.751833740234375,-0.4795871078968048,0.4003759026527405,0.4278160631656647
1667825654602841600,2.761841552734375,-0.6051250696182251,0.1758171021938324,0.5756039023399353
1667825654612849700,2.771849609375,-0.6815295219421387,-0.018496185541152954,0.6571568250656128
1667825654622857700,2.781857666015625,-0.7055129408836365,-0.17618674039840698,0.685152530670166
1667825654632864800,2.79186474609375,-0.6854491829872131,-0.2831459641456604,0.6622658371925354
1667825654642872800,2.801872802734375,-0.649145245552063,-0.3449645936489105,0.5806514024734497
1667825654652880600,2.811880615234375,-0.5889564752578735,-0.37161803245544434,0.46718770265579224
1667825654662888700,2.821888671875,-0.5018689632415771,-0.3686288893222809,0.34330248832702637
1667825654672896500,2.831896484375,-0.38599109649658203,-0.32709023356437683,0.20636887848377228
1667825654682904800,2.84190478515625,-0.259940505027771,-0.25950905680656433,0.08152814954519272
1667825654692911600,2.85191162109375,-0.1470901072025299,-0.1750088334083557,-0.025308286771178246
1667825654702919700,2.861919677734375,-0.04881787300109863,-0.08162935078144073,-0.09959237277507782
1667825654712927700,2.871927734375,0.03399818018078804,0.029990389943122864,-0.14218802750110626
1667825654722935600,2.881935546875,0.09525568038225174,0.16394685208797455,-0.1578141301870346
1667825654732944000,2.89194384765625,0.12542343139648438,0.25507357716560364,-0.1553669571876526
1667825654742951700,2.90195166015625,0.11940415948629379,0.2771133482456207,-0.1489439457654953
1667825654752958700,2.911958740234375,0.091920867562294,0.2349770963191986,-0.15175117552280426
1667825654762966500,2.921966552734375,0.026394855231046677,0.09588924795389175,-0.16760897636413574
1667825654772974800,2.931974853515625,-0.07414533197879791,-0.10614693909883499,-0.178500235080719
1667825654782983000,2.94198291015625,-0.20029181241989136,-0.33521768450737,-0.20284952223300934
1667825654792990700,2.95199072265625,-0.32928282022476196,-0.5648167729377747,-0.23346708714962006
1667825654802998800,2.961998779296875,-0.4568847119808197,-0.7388969659805298,-0.2588014602661133
1667825654813005600,2.972005615234375,-0.5640183687210083,-0.820257842540741,-0.2978271543979645
1667825654823014000,2.982013916015625,-0.6431810855865479,-0.8068086504936218,-0.3559783399105072
1667825654833021700,2.992021728515625,-0.6867408156394958,-0.693899393081665,-0.41819486021995544
1667825654843029800,3.00202978515625,-0.6846119165420532,-0.5024945735931396,-0.4676295220851898
1667825654853037800,3.012037841796875,-0.6657710671424866,-0.2691020369529724,-0.4743340313434601
1667825654863045600,3.022045654296875,-0.6387200355529785,-0.09135281294584274,-0.4153505861759186
1667825654873053000,3.032052978515625,-0.640407383441925,-0.005826996639370918,-0.2927943170070648
1667825654883060700,3.042060791015625,-0.660276472568512,0.0009624664089642465,-0.12627963721752167
1667825654893068500,3.052068603515625,-0.7070306539535522,-0.11221229285001755,0.04436346888542175
1667825654903076600,3.06207666015625,-0.7866858243942261,-0.3330051302909851,0.18536026775836945
1667825654913084400,3.07208447265625,-0.8538253903388977,-0.5838741064071655,0.257885605096817
1667825654923092500,3.082092529296875,-0.8762175440788269,-0.858282744884491,0.2510322332382202
1667825654933099500,3.092099609375,-0.8599887490272522,-1.1464202404022217,0.17988534271717072
1667825654943107600,3.102107666015625,-0.8188692927360535,-1.3530927896499634,0.08857327699661255
1667825654953115600,3.11211572265625,-0.7735002040863037,-1.372568130493164,-0.020012058317661285
1667825654963123500,3.12212353515625,-0.7395414710044861,-1.1793254613876343,-0.11832424998283386
1667825654973131800,3.1321318359375,-0.7459253072738647,-0.8826189637184143,-0.18546520173549652
1667825654983139600,3.1421396484375,-0.7887124419212341,-0.607758104801178,-0.18469661474227905
1667825654993146600,3.152146728515625,-0.8555365204811096,-0.3948439955711365,-0.09390785545110703
1667825655003154400,3.162154541015625,-0.9287031292915344,-0.26941895484924316,0.08444856852293015
1667825655013162500,3.17216259765625,-0.9742136001586914,-0.22389407455921173,0.29784899950027466
1667825655023170800,3.1821708984375,-0.9819532632827759,-0.2157173752784729,0.48378077149391174
1667825655033178600,3.1921787109375,-0.9340510368347168,-0.24684441089630127,0.5920721292495728
1667825655043186700,3.202186767578125,-0.8380536437034607,-0.26506760716438293,0.6075929999351501
1667825655053193500,3.212193359375,-0.6929023265838623,-0.23547697067260742,0.5271889567375183
1667825655063201800,3.222201904296875,-0.49629658460617065,-0.16701161861419678,0.32776135206222534
1667825655073209600,3.232209716796875,-0.2447146773338318,-0.08729469031095505,0.023213444277644157
1667825655083217700,3.2422177734375,0.023134080693125725,-0.03412894159555435,-0.3417040705680847
1667825655093225700,3.252225830078125,0.2684900462627411,-0.0008644621120765805,-0.7042055726051331
1667825655103233500,3.262233642578125,0.46387845277786255,0.043891556560993195,-0.9987903237342834
1667825655113240600,3.272240478515625,0.5989611744880676,0.09351370483636856,-1.1635699272155762
1667825655123248600,3.28224853515625,0.6779257655143738,0.152742400765419,-1.209653615951538
1667825655133256700,3.292256591796875,0.6918591260910034,0.23150646686553955,-1.160642385482788
1667825655143264500,3.302264404296875,0.6342818737030029,0.3177681267261505,-1.0418297052383423
1667825655153272600,3.3122724609375,0.5023864507675171,0.41278064250946045,-0.853564441204071
1667825655163280400,3.3222802734375,0.31882593035697937,0.4738280177116394,-0.6187881231307983
1667825655173287700,3.33228759765625,0.11832904070615768,0.47003594040870667,-0.34934839606285095
1667825655183295500,3.34229541015625,-0.059414323419332504,0.3916394114494324,-0.07740557193756104
1667825655193303600,3.352303466796875,-0.18964529037475586,0.24832352995872498,0.17340508103370667
1667825655203311600,3.3623115234375,-0.25090333819389343,0.07498769462108612,0.35617169737815857
1667825655213319400,3.3723193359375,-0.2484380453824997,-0.08766034245491028,0.4525139331817627
1667825655223326700,3.38232666015625,-0.20908157527446747,-0.23725515604019165,0.46030768752098083
1667825655233334500,3.39233447265625,-0.149208664894104,-0.32285207509994507,0.4062362015247345
1667825655243342600,3.402342529296875,-0.09167612344026566,-0.31787997484207153,0.30430182814598083
1667825655253350400,3.412350341796875,-0.04789508879184723,-0.19771839678287506,0.18425533175468445
1667825655263358700,3.422358642578125,0.004320978652685881,0.03461204096674919,0.08059311658143997
1667825655273366800,3.43236669921875,0.05305575951933861,0.3467757999897003,0.012707538902759552
1667825655283373600,3.44237353515625,0.09695770591497421,0.6819980144500732,-0.007823302410542965
1667825655293381600,3.452381591796875,0.13964924216270447,0.9909196496009827,0.00818043202161789
1667825655303389400,3.462389404296875,0.1949108988046646,1.217231035232544,0.07854007929563522
1667825655313397800,3.472397705078125,0.25602778792381287,1.298597812652588,0.21449126303195953
1667825655323405600,3.482405517578125,0.3137432634830475,1.2395033836364746,0.38390398025512695
1667825655333413600,3.49241357421875,0.33927926421165466,1.0790231227874756,0.5499347448348999
1667825655343420400,3.50242041015625,0.3028472065925598,0.8498844504356384,0.6939678192138672
1667825655353428500,3.512428466796875,0.2149152308702469,0.6165409684181213,0.7895412445068359
1667825655363436800,3.522436767578125,0.1581084132194519,0.500601589679718,0.803583562374115
1667825655373444600,3.532444580078125,0.21291227638721466,0.5690211057662964,0.7203275561332703
1667825655383452700,3.54245263671875,0.38483795523643494,0.7235965728759766,0.5705774426460266
1667825655393460500,3.55246044921875,0.6394601464271545,0.8164615631103516,0.3987109065055847
1667825655403467800,3.5624677734375,0.9037002921104431,0.7907974720001221,0.2634396255016327
1667825655413475600,3.5724755859375,1.0999926328659058,0.7060378193855286,0.1649242341518402
1667825655423483600,3.582483642578125,1.1663141250610352,0.6043103933334351,0.13447605073451996
1667825655433491700,3.59249169921875,1.114722490310669,0.43502524495124817,0.18113915622234344
1667825655443499500,3.60249951171875,0.9827786087989807,0.1758972555398941,0.2833363711833954
1667825655453507600,3.612507568359375,0.8017739057540894,-0.13879862427711487,0.40934595465660095
1667825655463514600,3.6225146484375,0.5898491740226746,-0.4363346993923187,0.5217920541763306
1667825655473522700,3.632522705078125,0.377394437789917,-0.6608706116676331,0.6061996221542358
1667825655483530500,3.642530517578125,0.14668451249599457,-0.8066325783729553,0.6606788635253906
1667825655493538600,3.65253857421875,-0.08119338750839233,-0.9203612804412842,0.6729081273078918
1667825655503546600,3.662546630859375,-0.24019315838813782,-0.9510366320610046,0.6422907710075378
1667825655513554700,3.6725546875,-0.2798052728176117,-0.9056934118270874,0.5551950335502625
1667825655523561700,3.682561767578125,-0.2152870148420334,-0.808519721031189,0.4274216294288635
1667825655533569500,3.692569580078125,-0.0964738056063652,-0.6455196142196655,0.272946298122406
1667825655543577600,3.70257763671875,0.03405224159359932,-0.40292081236839294,0.08176783472299576
1667825655553585400,3.71258544921875,0.16059793531894684,-0.08498306572437286,-0.13941195607185364
1667825655563593700,3.72259375,0.2855137586593628,0.2258797287940979,-0.3555421233177185
1667825655573600500,3.7326005859375,0.38807448744773865,0.4385608434677124,-0.5248014330863953
1667825655583608600,3.742608642578125,0.4669482707977295,0.5515286922454834,-0.6295409202575684
1667825655593616400,3.752616455078125,0.5040130615234375,0.6157641410827637,-0.6674017310142517
1667825655603624700,3.762624755859375,0.4986787736415863,0.6414593458175659,-0.6415911912918091
1667825655613632800,3.7726328125,0.47075021266937256,0.5865042209625244,-0.560901403427124
1667825655623640600,3.782640625,0.4006539285182953,0.4414258599281311,-0.44483044743537903
1667825655633647600,3.792647705078125,0.2903601825237274,0.23033413290977478,-0.3119658827781677
1667825655643655400,3.802655517578125,0.14535532891750336,-0.014868427999317646,-0.18876005709171295
1667825655653663700,3.812663818359375,-0.018264757469296455,-0.26733770966529846,-0.06871035695075989
1667825655663671600,3.822671630859375,-0.1926376223564148,-0.49101099371910095,0.052688512951135635
1667825655673679600,3.8326796875,-0.34573182463645935,-0.6800978183746338,0.14902730286121368
1667825655683687700,3.842687744140625,-0.4700753688812256,-0.8078062534332275,0.2134760618209839
1667825655693694500,3.852694580078125,-0.5440624952316284,-0.8690128922462463,0.23528042435646057
1667825655703702800,3.862702880859375,-0.5660679340362549,-0.8627493977546692,0.21067655086517334
1667825655713710600,3.872710693359375,-0.5430803298950195,-0.7936656475067139,0.15883465111255646
1667825655723718700,3.88271875,-0.501213014125824,-0.6711826324462891,0.09806611388921738
1667825655733726500,3.8927265625,-0.4566468894481659,-0.4976598620414734,0.052509013563394547
1667825655743734500,3.902734619140625,-0.40564149618148804,-0.29695603251457214,0.030460437759757042
1667825655753741600,3.912741455078125,-0.357034295797348,-0.10441508889198303,0.037225399166345596
1667825655763749600,3.92274951171875,-0.31041327118873596,0.07709718495607376,0.07001956552267075
1667825655773757700,3.9327578125,-0.2661517858505249,0.23862749338150024,0.14668291807174683
1667825655783765500,3.942765625,-0.23662824928760529,0.324011892080307,0.2431764304637909
1667825655793773600,3.952773681640625,-0.2332412451505661,0.3308655321598053,0.3366267681121826
1667825655803781600,3.96278173828125,-0.24783830344676971,0.26469770073890686,0.40188831090927124
1667825655813788700,3.97278857421875,-0.2770116329193115,0.1687173843383789,0.42153844237327576
1667825655823796500,3.98279638671875,-0.3015313446521759,0.0518682561814785,0.41046077013015747
1667825655833804500,3.992804443359375,-0.2963840067386627,-0.07832542806863785,0.39222848415374756
1667825655843812600,4.0028125,-0.2528671324253082,-0.24181236326694489,0.3860481083393097
1667825655853820700,4.012820556640625,-0.1897832453250885,-0.41260114312171936,0.38306668400764465
1667825655863827700,4.02282763671875,-0.13686516880989075,-0.5763791799545288,0.37619706988334656
1667825655873835500,4.03283544921875,-0.10987270623445511,-0.7423779964447021,0.35695359110832214
1667825655883844400,4.04284423828125,-0.1305026113986969,-0.8504895567893982,0.3181076645851135
1667825655893852400,4.052852294921875,-0.19217103719711304,-0.8897535800933838,0.25543656945228577
1667825655903860500,4.062860595703125,-0.27373167872428894,-0.8845380544662476,0.17667517066001892
1667825655913868500,4.07286865234375,-0.3416644036769867,-0.834511935710907,0.09161433577537537
1667825655923875600,4.08287548828125,-0.3922673761844635,-0.7496175169944763,-0.003477822057902813
1667825655933883400,4.09288330078125,-0.42041271924972534,-0.665729820728302,-0.08561184257268906
1667825655943891500,4.102891357421875,-0.42640379071235657,-0.623585045337677,-0.14827628433704376
1667825655953899300,4.112899169921875,-0.41509440541267395,-0.6504768133163452,-0.17174139618873596
1667825655963907600,4.122907470703125,-0.4023873805999756,-0.7267561554908752,-0.16974908113479614
1667825655973915600,4.13291552734375,-0.42314353585243225,-0.8376110196113586,-0.1254471391439438
1667825655983922400,4.14292236328125,-0.4712032079696655,-0.9533783793449402,-0.029203159734606743
1667825655993930500,4.152930419921875,-0.5362250804901123,-1.1039870977401733,0.12288464605808258
1667825656003938600,4.1629384765625,-0.5976415872573853,-1.2468349933624268,0.2742435336112976
1667825656013946600,4.172946533203125,-0.6529468894004822,-1.2702884674072266,0.37301671504974365
1667825656023954400,4.182954345703125,-0.69591224193573,-1.1915472745895386,0.40917447209358215
1667825656033962500,4.19296240234375,-0.7244738340377808,-1.063668966293335,0.388270765542984
1667825656043969300,4.20296923828125,-0.7263316512107849,-0.9455992579460144,0.33424481749534607
1667825656053977600,4.2129775390625,-0.716837465763092,-0.8800809979438782,0.27087756991386414
1667825656063985700,4.222985595703125,-0.6864287257194519,-0.8607836961746216,0.2154633104801178
1667825656073993500,4.232993408203125,-0.6315186023712158,-0.853794515132904,0.1474917232990265
1667825656084001500,4.24300146484375,-0.5552113056182861,-0.8413540720939636,0.07350031286478043
1667825656094009300,4.25300927734375,-0.4918152689933777,-0.7878120541572571,0.02431679144501686
1667825656104016600,4.2630166015625,-0.41315242648124695,-0.6940922141075134,-0.00504056503996253
1667825656114024400,4.2730244140625,-0.28725868463516235,-0.5064266920089722,-0.0350131094455719
1667825656124032500,4.283032470703125,-0.09125800430774689,-0.20983178913593292,-0.10783538967370987
1667825656134040300,4.293040283203125,0.16007116436958313,0.10661299526691437,-0.22731225192546844
1667825656144048400,4.30304833984375,0.41061654686927795,0.30836769938468933,-0.38047170639038086
1667825656154055400,4.313055419921875,0.6137257218360901,0.3410198986530304,-0.54632169008255
1667825656164063500,4.3230634765625,0.7487866282463074,0.29994437098503113,-0.7041946649551392
1667825656174071600,4.333071533203125,0.8247511386871338,0.21783113479614258,-0.8288183212280273
1667825656184079400,4.343079345703125,0.8667630553245544,0.11582833528518677,-0.8982623815536499
1667825656194087400,4.35308740234375,0.882034420967102,0.03699290379881859,-0.9548769593238831
1667825656204095500,4.363095458984375,0.8616985082626343,0.021121796220541,-1.0290459394454956
1667825656214102500,4.3731025390625,0.8172386288642883,0.10071622580289841,-1.1272313594818115
1667825656224110300,4.3831103515625,0.766454815864563,0.26574885845184326,-1.2319724559783936
1667825656234118400,4.393118408203125,0.7014012336730957,0.5107181072235107,-1.2966252565383911
1667825656244126500,4.40312646484375,0.6162440180778503,0.7911966443061829,-1.2950667142868042
1667825656254134500,4.413134521484375,0.5235875844955444,1.0671813488006592,-1.1792885065078735
1667825656264142600,4.423142578125,0.4510310888290405,1.3190644979476929,-0.9475830793380737
1667825656274149400,4.4331494140625,0.40403908491134644,1.4868489503860474,-0.6169998049736023
1667825656284157400,4.443157470703125,0.3849008083343506,1.522142767906189,-0.24568086862564087
1667825656294165200,4.453165283203125,0.3739834427833557,1.4655252695083618,0.09225882589817047
1667825656304173600,4.463173583984375,0.3596407175064087,1.3926862478256226,0.3263956904411316
1667825656314181600,4.473181640625,0.3200046420097351,1.3115003108978271,0.4627023935317993
1667825656324189400,4.483189453125,0.25294917821884155,1.216697335243225,0.5042900443077087
1667825656334196500,4.493196533203125,0.17617209255695343,1.0877660512924194,0.47101011872291565
1667825656344204500,4.50320458984375,0.0990954264998436,0.949513852596283,0.3847615122795105
1667825656354212600,4.513212646484375,0.0337102934718132,0.8476465940475464,0.2701079249382019
1667825656364220400,4.523220458984375,-0.010319482535123825,0.7800891399383545,0.1627473682165146
1667825656374228500,4.533228515625,-0.02047092095017433,0.7567012906074524,0.11162639409303665
1667825656384236500,4.543236572265625,0.0003145193331874907,0.7491128444671631,0.14715376496315002
1667825656394243600,4.55324365234375,0.044430047273635864,0.728196918964386,0.2676143944263458
1667825656404251600,4.563251708984375,0.09422210603952408,0.6704776883125305,0.4201453626155853
1667825656414259500,4.573259521484375,0.1370079219341278,0.5765330791473389,0.5442219972610474
1667825656424267500,4.583267578125,0.17317737638950348,0.5187134742736816,0.582862377166748
1667825656434275300,4.593275390625,0.2325962334871292,0.542220950126648,0.5220144391059875
1667825656444283400,4.603283447265625,0.3279475271701813,0.6299883127212524,0.37904131412506104
1667825656454290400,4.61329052734375,0.4550705850124359,0.702786922454834,0.2142782062292099
1667825656464298500,4.623298583984375,0.6054286360740662,0.7066143751144409,0.07725750654935837
1667825656474306600,4.633306640625,0.7319663763046265,0.6574138402938843,-0.021733524277806282
1667825656484314400,4.643314453125,0.7910922765731812,0.598633348941803,-0.06983527541160583
1667825656494322400,4.653322509765625,0.7744264602661133,0.5275794267654419,-0.07139988243579865
1667825656504329500,4.66332958984375,0.7114501595497131,0.4211576282978058,-0.037040043622255325
1667825656514337500,4.673337646484375,0.6287800669670105,0.2343275547027588,0.013997041620314121
1667825656524345300,4.683345458984375,0.5214861035346985,-0.009502158500254154,0.08491142839193344
1667825656534353400,4.693353515625,0.3831087648868561,-0.2631791830062866,0.15059137344360352
1667825656544361500,4.703361572265625,0.23991964757442474,-0.5037185549736023,0.2085268497467041
1667825656554369500,4.71336962890625,0.11710292100906372,-0.6998046636581421,0.2849031090736389
1667825656564376600,4.72337646484375,0.02184351347386837,-0.8481763005256653,0.376239150762558
1667825656574384400,4.73338427734375,-0.03665308654308319,-0.9181801676750183,0.4436464011669159
1667825656584392400,4.743392333984375,-0.06562481820583344,-0.8718757629394531,0.4633234441280365
1667825656594400500,4.753400390625,-0.07685349881649017,-0.7380479574203491,0.41016143560409546
1667825656604408600,4.76340869140625,-0.06100716069340706,-0.5152857303619385,0.263715535402298
1667825656614416400,4.77341650390625,-0.02785160392522812,-0.1767185777425766,0.027413249015808105
1667825656624423400,4.78342333984375,-0.016988569870591164,0.21187390387058258,-0.2553580105304718
1667825656634431500,4.793431396484375,-0.062427956610918045,0.54311203956604,-0.5415213108062744
1667825656644439600,4.803439453125,-0.141628235578537,0.8240118622779846,-0.7748110294342041
1667825656654447600,4.813447509765625,-0.20187479257583618,1.0937906503677368,-0.9200981855392456
1667825656664455400,4.823455322265625,-0.2105010449886322,1.2926523685455322,-0.9521802067756653
1667825656674463500,4.83346337890625,-0.1658925712108612,1.4310253858566284,-0.8640628457069397
1667825656684470500,4.843470458984375,-0.08386240899562836,1.4737662076950073,-0.6591848134994507
1667825656694478600,4.853478515625,0.028015123680233955,1.3777296543121338,-0.36547383666038513
1667825656704486400,4.863486328125,0.1547277867794037,1.1275688409805298,-0.030249249190092087
1667825656714494500,4.873494384765625,0.288710355758667,0.7206495404243469,0.3022754490375519
1667825656724502500,4.88350244140625,0.37975451350212097,0.33077338337898254,0.5709766745567322
1667825656734509600,4.893509521484375,0.40375038981437683,0.03456463664770126,0.716610312461853
1667825656744517600,4.903517578125,0.3561525046825409,-0.15904611349105835,0.7250277400016785
1667825656754525400,4.913525390625,0.2544463872909546,-0.26879578828811646,0.6220571398735046
1667825656764533500,4.923533447265625,0.14677932858467102,-0.32473841309547424,0.4869113266468048
1667825656774541300,4.933541259765625,0.07801809906959534,-0.3710917830467224,0.3967832922935486
1667825656784549400,4.94354931640625,0.06364688277244568,-0.43219348788261414,0.3594532310962677
1667825656794556400,4.953556396484375,0.0743408128619194,-0.5016660690307617,0.3647784888744354
1667825656804564500,4.963564453125,0.07607399672269821,-0.5462881326675415,0.34146758913993835
1667825656814572500,4.973572509765625,0.05706195533275604,-0.5289426445960999,0.2602108120918274
1667825656824580400,4.983580322265625,-0.005036037415266037,-0.47666987776756287,0.14105112850666046
1667825656834588400,4.99358837890625,-0.08967103064060211,-0.43190667033195496,-0.01187982875853777
1667825656844596500,5.003596435546875,-0.1686318963766098,-0.4235166311264038,-0.1730620563030243
1667825656854603500,5.013603515625,-0.22995437681674957,-0.45092111825942993,-0.34347134828567505
1667825656864611300,5.023611328125,-0.2875095307826996,-0.4478515386581421,-0.4962736666202545
1667825656874619400,5.033619384765625,-0.3264433741569519,-0.41265973448753357,-0.6123632788658142
1667825656884627000,5.043626953125,-0.3510746657848358,-0.3312397003173828,-0.6899616718292236
1667825656894635000,5.053635009765625,-0.37131574749946594,-0.23609481751918793,-0.7336193919181824
1667825656904642800,5.063642822265625,-0.39961957931518555,-0.1622147411108017,-0.7404131293296814
1667825656914649900,5.07364990234375,-0.41871654987335205,-0.0943741723895073,-0.6884830594062805
1667825656924658000,5.083657958984375,-0.4265824854373932,-0.06630099564790726,-0.5878866910934448
1667825656934666000,5.093666015625,-0.4297164976596832,-0.05894986912608147,-0.4530404508113861
1667825656944673800,5.103673828125,-0.429886132478714,-0.021024325862526894,-0.2714488208293915
1667825656954681900,5.113681884765625,-0.4215509593486786,0.0484602116048336,-0.046912115067243576
1667825656964689000,5.12368896484375,-0.42515262961387634,0.0842008963227272,0.19409917294979095
1667825656974697000,5.133697021484375,-0.4401076138019562,0.09696755558252335,0.3932338356971741
1667825656984704800,5.143704833984375,-0.463021457195282,0.11370313167572021,0.4949119985103607
1667825656994712800,5.153712890625,-0.48814836144447327,0.1354968398809433,0.47559502720832825
1667825657004721000,5.163720947265625,-0.5151978135108948,0.11520728468894958,0.3695673942565918
1667825657014728700,5.173728759765625,-0.520099937915802,-0.009981527924537659,0.2244059443473816
1667825657024736000,5.183736083984375,-0.4937596619129181,-0.2219049632549286,0.08179233223199844
1667825657034743800,5.193743896484375,-0.41576817631721497,-0.4110695719718933,-0.06504957377910614
1667825657044752000,5.203751953125,-0.317402720451355,-0.5181012153625488,-0.23172004520893097
1667825657054759700,5.213759765625,-0.25330495834350586,-0.5075833201408386,-0.4194321632385254
1667825657064767700,5.223767822265625,-0.254483163356781,-0.3032118082046509,-0.5974761843681335
1667825657074775800,5.23377587890625,-0.28934285044670105,0.09816677868366241,-0.7101313471794128
1667825657084782800,5.243782958984375,-0.319266140460968,0.5766119360923767,-0.6943870186805725
1667825657094791000,5.253791015625,-0.31985124945640564,0.9750434756278992,-0.5311810374259949
1667825657104798700,5.263798828125,-0.30809658765792847,1.1445730924606323,-0.23634809255599976
1667825657114806800,5.273806884765625,-0.29118257761001587,1.0814753770828247,0.1235368549823761
1667825657124814800,5.28381494140625,-0.2668628394603729,0.8936710953712463,0.44398489594459534
1667825657134823000,5.293822998046875,-0.23148462176322937,0.6826723217964172,0.6139105558395386
1667825657144829700,5.30382958984375,-0.19089192152023315,0.5022756457328796,0.5886805653572083
1667825657154837800,5.313837646484375,-0.1637772172689438,0.39297419786453247,0.3831822872161865
1667825657164845800,5.323845703125,-0.1561528444290161,0.4002395570278168,0.07735151052474976
1667825657174854000,5.33385400390625,-0.14366528391838074,0.5171001553535461,-0.2259066253900528
1667825657184862000,5.343862060546875,-0.11348102241754532,0.746271014213562,-0.44942572712898254
1667825657194869800,5.353869873046875,-0.07469581067562103,1.093565821647644,-0.5352839231491089
1667825657204876800,5.363876708984375,-0.0564345121383667,1.4446772336959839,-0.4728831350803375
1667825657214884900,5.373884765625,-0.055394016206264496,1.740166425704956,-0.3236643373966217
1667825657224893000,5.383892822265625,-0.07470566034317017,1.9848147630691528,-0.1400335431098938
1667825657234901000,5.39390087890625,-0.07123663276433945,2.142609119415283,0.04148299619555473
1667825657244908800,5.40390869140625,-0.017427193000912666,2.143277645111084,0.21495358645915985
1667825657254915800,5.413915771484375,0.07021664083003998,2.035543441772461,0.36587652564048767
1667825657264924000,5.423923828125,0.15470941364765167,1.8671208620071411,0.4804973602294922
1667825657274932000,5.433931884765625,0.1974496841430664,1.6252228021621704,0.5575982928276062
1667825657284939800,5.443939697265625,0.17853352427482605,1.289101481437683,0.5879226326942444
1667825657294947800,5.45394775390625,0.12317998707294464,0.9208593368530273,0.5648679137229919
1667825657304956000,5.463955810546875,0.05715782940387726,0.5713945031166077,0.4720005691051483
1667825657314963000,5.473962890625,0.0021611552219837904,0.26673954725265503,0.33810561895370483
1667825657324971000,5.483970947265625,-0.0234664436429739,0.006954578682780266,0.19924546778202057
1667825657334978800,5.493978759765625,-0.03242398425936699,-0.17225272953510284,0.08302697539329529
1667825657344987000,5.50398681640625,-0.03262798488140106,-0.18066218495368958,-0.001058872789144516
1667825657354994700,5.51399462890625,-0.0379287414252758,-0.0303973201662302,-0.026693928986787796
1667825657365002800,5.524002685546875,-0.04198313504457474,0.17690765857696533,0.00010519486386328936
1667825657375009800,5.534009765625,-0.04676883667707443,0.3398004472255707,0.08482274413108826
1667825657385017900,5.544017822265625,-0.05398280918598175,0.4353829026222229,0.1991882026195526
1667825657395025700,5.554025634765625,-0.05398600175976753,0.4663304090499878,0.339632123708725
1667825657405033700,5.56403369140625,-0.026521354913711548,0.4011748433113098,0.48626232147216797
1667825657415042000,5.5740419921875,0.020491160452365875,0.19040057063102722,0.6412809491157532
1667825657425049900,5.5840498046875,0.07614803314208984,-0.1415981501340866,0.7853331565856934
1667825657435057000,5.594056884765625,0.1165953204035759,-0.4840388596057892,0.8696203827857971
1667825657445064700,5.604064697265625,0.13949771225452423,-0.6693229675292969,0.841086208820343
1667825657455072800,5.61407275390625,0.16084188222885132,-0.6370691657066345,0.6861591935157776
1667825657465080800,5.624080810546875,0.17889118194580078,-0.42108678817749023,0.4545784294605255
1667825657475089000,5.6340888671875,0.21240361034870148,-0.0790463462471962,0.22377051413059235
1667825657485097000,5.644096923828125,0.2745681703090668,0.30903133749961853,0.051717787981033325
1667825657495103700,5.654103759765625,0.35237428545951843,0.6585632562637329,-0.0026429209392517805
1667825657505111800,5.66411181640625,0.3960072696208954,0.9045618176460266,0.08741506934165955
1667825657515119900,5.674119873046875,0.3914306163787842,0.9853357672691345,0.2814684212207794
1667825657525128000,5.6841279296875,0.34968316555023193,0.8765014410018921,0.527653694152832
1667825657535135700,5.6941357421875,0.3076702058315277,0.6082300543785095,0.7507339119911194
1667825657545143800,5.704143798828125,0.2883889079093933,0.2823456823825836,0.8790977597236633
1667825657555150800,5.71415087890625,0.2919005751609802,0.0021084246691316366,0.8775842785835266
1667825657565159000,5.724158935546875,0.30792081356048584,-0.24841433763504028,0.756664514541626
1667825657575167000,5.7341669921875,0.33550289273262024,-0.5201952457427979,0.5597221255302429
1667825657585174800,5.7441748046875,0.3918708264827728,-0.7491376399993896,0.288298100233078
1667825657595182800,5.754182861328125,0.4895385503768921,-0.8448330163955688,-0.04159564524888992
1667825657605190700,5.764190673828125,0.5952985286712646,-0.8544275760650635,-0.4101574420928955
1667825657615198000,5.774197998046875,0.690014660358429,-0.84048992395401,-0.7767985463142395
1667825657625205800,5.784205810546875,0.7813501358032227,-0.837052583694458,-1.127320647239685
1667825657635213800,5.7942138671875,0.8156298398971558,-0.829057514667511,-1.4244428873062134
1667825657645222000,5.804221923828125,0.7883036732673645,-0.7559918165206909,-1.6852949857711792
1667825657655229700,5.814229736328125,0.7287580370903015,-0.605888843536377,-1.921439528465271
1667825657665238000,5.824238037109375,0.6704273819923401,-0.4033961892127991,-2.0995373725891113
1667825657675244800,5.834244873046875,0.6360698938369751,-0.18317781388759613,-2.1850662231445312
1667825657685252900,5.8442529296875,0.6286623477935791,0.026330407708883286,-2.147836923599243
1667825657695260700,5.8542607421875,0.6610831022262573,0.22477371990680695,-1.987173318862915
1667825657705268700,5.864268798828125,0.7718687653541565,0.38951578736305237,-1.697363018989563
1667825657715277000,5.874277099609375,0.9464243054389954,0.49397191405296326,-1.3053425550460815
1667825657725284900,5.884284912109375,1.1054056882858276,0.6057671308517456,-0.8875298500061035
1667825657735292000,5.8942919921875,1.1944658756256104,0.7484060525894165,-0.4922325909137726
1667825657745299700,5.9042998046875,1.192394733428955,0.8758196830749512,-0.14920467138290405
1667825657755308000,5.91430810546875,1.1209532022476196,0.98521488904953,0.11454682052135468
1667825657765315800,5.92431591796875,1.000848650932312,1.0772793292999268,0.2847784757614136
1667825657775324000,5.934323974609375,0.8828480243682861,1.1217296123504639,0.3858499526977539
1667825657785332000,5.94433203125,0.7728666663169861,1.1167519092559814,0.45967811346054077
1667825657795338800,5.9543388671875,0.6625095009803772,1.0544389486312866,0.524742603302002
1667825657805347000,5.96434716796875,0.5606989860534668,0.9201620817184448,0.5642402172088623
1667825657815355000,5.97435498046875,0.45547163486480713,0.7093321681022644,0.5808228850364685
1667825657825363000,5.984363037109375,0.3630192279815674,0.4416343867778778,0.5882619023323059
1667825657835370800,5.994370849609375,0.27156707644462585,0.15668068826198578,0.5649363398551941
1667825657845378800,6.00437890625,0.19532528519630432,-0.12755556404590607,0.5125245451927185
1667825657855385900,6.0143857421875,0.15202388167381287,-0.36375585198402405,0.44096487760543823
1667825657865394000,6.024393798828125,0.12538161873817444,-0.5202706456184387,0.3685503304004669
1667825657875401700,6.034401611328125,0.10178282111883163,-0.5593181252479553,0.3234390616416931
1667825657885409500,6.044409423828125,0.06788264214992523,-0.4718889594078064,0.32739782333374023
1667825657895417600,6.05441748046875,0.030244454741477966,-0.26361751556396484,0.3417735695838928
1667825657905425700,6.06442578125,-0.0041220407001674175,-0.026743730530142784,0.3461981415748596
1667825657915432700,6.0744326171875,-0.013437245041131973,0.10786361247301102,0.3559280037879944
1667825657925440800,6.084440673828125,-0.014429805800318718,0.1049027144908905,0.3715732991695404
1667825657935448600,6.094448486328125,-0.005104480776935816,0.014190386980772018,0.4100772738456726
1667825657945456600,6.10445654296875,0.004848817363381386,-0.10246965289115906,0.42928531765937805
1667825657955464700,6.114464599609375,0.00392869533970952,-0.23458826541900635,0.4379674792289734
1667825657965472800,6.12447265625,-0.006846720818430185,-0.35242408514022827,0.426635205745697
1667825657975479600,6.1344794921875,-0.01619042083621025,-0.4355032742023468,0.417743980884552
1667825657985487600,6.144487548828125,-0.029948044568300247,-0.45730018615722656,0.42231714725494385
1667825657995495700,6.15449560546875,-0.05042802169919014,-0.409679114818573,0.4333628714084625
1667825658005503700,6.164503662109375,-0.08331432938575745,-0.28980305790901184,0.4553973376750946
1667825658015511800,6.17451171875,-0.1211613118648529,-0.17324315011501312,0.48478585481643677
1667825658025519600,6.18451953125,-0.1566934734582901,-0.19080910086631775,0.5269615650177002
1667825658035526700,6.194526611328125,-0.1914844810962677,-0.33171775937080383,0.552677571773529
1667825658045534700,6.20453466796875,-0.24927613139152527,-0.3404774069786072,0.5067689418792725
1667825658055542800,6.214542724609375,-0.32702553272247314,-0.1732865571975708,0.3936983048915863
1667825658065550600,6.224550537109375,-0.40053650736808777,-0.04021293297410011,0.28367406129837036
1667825658075558700,6.23455859375,-0.44294893741607666,-0.06946456432342529,0.23985014855861664
1667825658085566700,6.244566650390625,-0.44638893008232117,-0.18905247747898102,0.2547720968723297
1667825658095574500,6.254574462890625,-0.41952216625213623,-0.3825066387653351,0.30058085918426514
1667825658105581800,6.264581787109375,-0.3897560238838196,-0.6542782187461853,0.34495285153388977
1667825658115589600,6.274589599609375,-0.37350034713745117,-0.8978879451751709,0.35368722677230835
1667825658125597700,6.28459765625,-0.3554614186286926,-1.0188279151916504,0.28396379947662354
1667825658135605500,6.29460546875,-0.35331839323043823,-0.9859975576400757,0.12105026096105576
1667825658145613600,6.304613525390625,-0.3562214970588684,-0.765777587890625,-0.10061129927635193
1667825658155622000,6.314621826171875,-0.33974185585975647,-0.3484104573726654,-0.33867472410202026
1667825658165628700,6.324628662109375,-0.241953507065773,0.1556127667427063,-0.516596794128418
1667825658175636700,6.33463671875,-0.0625440701842308,0.581298828125,-0.5882387757301331
1667825658185644500,6.34464453125,0.11767470091581345,0.8566648960113525,-0.5471326112747192
1667825658195652600,6.354652587890625,0.23541757464408875,1.0369983911514282,-0.41271644830703735
1667825658205660700,6.36466064453125,0.2906547486782074,1.0955981016159058,-0.2249966263771057
1667825658215668700,6.374668701171875,0.292819082736969,0.9739621877670288,-0.017124924808740616
1667825658225675500,6.384675537109375,0.24070608615875244,0.7259068489074707,0.14727947115898132
1667825658235683600,6.39468359375,0.13679327070713043,0.4593532085418701,0.21777813136577606
1667825658245692000,6.40469189453125,0.013441506773233414,0.20484395325183868,0.19033771753311157
1667825658255699700,6.41469970703125,-0.10127841681241989,-0.011226022616028786,0.09431584924459457
1667825658265707800,6.424707763671875,-0.14867176115512848,-0.1589297354221344,-0.06870768964290619
1667825658275715600,6.434715576171875,-0.11732769012451172,-0.20643413066864014,-0.27199795842170715
1667825658285723600,6.4447236328125,-0.015989618375897408,-0.16811203956604004,-0.49626249074935913
1667825658295730700,6.454730712890625,0.12146784365177155,-0.08725900202989578,-0.6673490405082703
1667825658305738800,6.46473876953125,0.2417535036802292,-0.012023373506963253,-0.755317747592926
1667825658315746800,6.474746826171875,0.2934052348136902,0.05615488067269325,-0.7493000626564026
1667825658325754600,6.484754638671875,0.2846274673938751,0.09855453670024872,-0.6662871837615967
1667825658335762700,6.4947626953125,0.2399284392595291,0.10762153565883636,-0.5296675562858582
1667825658345770500,6.5047705078125,0.20573079586029053,0.11457850784063339,-0.3774687349796295
1667825658355777800,6.51477783203125,0.20746637880802155,0.11667042225599289,-0.23683544993400574
1667825658365785600,6.52478564453125,0.2396770417690277,0.09479068964719772,-0.11888963729143143
1667825658375793700,6.534793701171875,0.30247119069099426,0.04409662261605263,-0.018124409019947052
1667825658385801700,6.5448017578125,0.37257277965545654,-0.003906058380380273,0.056649431586265564
1667825658395809500,6.5548095703125,0.4547693729400635,-0.050212569534778595,0.08856076002120972
1667825658405817900,6.56481787109375,0.5379292368888855,-0.13062165677547455,0.07758693397045135
1667825658415825700,6.57482568359375,0.6057993769645691,-0.2425769567489624,0.03160186856985092
1667825658425832700,6.584832763671875,0.6577160954475403,-0.3217069208621979,-0.043167177587747574
1667825658435840500,6.594840576171875,0.6995173096656799,-0.32243210077285767,-0.14544427394866943
1667825658445848600,6.6048486328125,0.7384572625160217,-0.22734659910202026,-0.2465653121471405
1667825658455857000,6.61485693359375,0.765849769115448,-0.05632106214761734,-0.3064478039741516
1667825658465864700,6.62486474609375,0.7687715291976929,0.13376498222351074,-0.28947150707244873
1667825658475872800,6.634872802734375,0.7410589456558228,0.19808192551136017,-0.1996699720621109
1667825658485879600,6.644879638671875,0.6621603965759277,0.06047053262591362,-0.05765823647379875
1667825658495888000,6.654887939453125,0.5566632747650146,-0.2225148230791092,0.05841803550720215
1667825658505895700,6.664895751953125,0.4683397710323334,-0.47978684306144714,0.06566103547811508
1667825658515903700,6.67490380859375,0.4212239384651184,-0.5609293580055237,-0.06245458871126175
1667825658525911600,6.68491162109375,0.426819771528244,-0.47692474722862244,-0.28133127093315125
1667825658535919600,6.694919677734375,0.491906076669693,-0.20475873351097107,-0.5250499248504639
1667825658545927700,6.704927734375,0.627628743648529,0.26891961693763733,-0.7376977205276489
1667825658555934700,6.714934814453125,0.8009869456291199,0.7618973851203918,-0.8450987935066223
1667825658565942800,6.72494287109375,0.9435214996337891,1.1323550939559937,-0.8063031435012817
1667825658575950600,6.73495068359375,1.0097721815109253,1.3483754396438599,-0.615227222442627
1667825658585958700,6.744958740234375,1.0441738367080688,1.35088050365448,-0.32366061210632324
1667825658595966500,6.754966552734375,1.0298476219177246,1.0676429271697998,0.055927712470293045
1667825658605974800,6.764974853515625,0.8980866074562073,0.5007709264755249,0.5095926523208618
1667825658615981600,6.774981689453125,0.6522403955459595,-0.14296062290668488,0.9505189657211304
1667825658625989600,6.78498974609375,0.3775361180305481,-0.6616570353507996,1.2667008638381958
1667825658635997700,6.794997802734375,0.1904333233833313,-0.9133720993995667,1.3559767007827759
1667825658646005500,6.805005615234375,0.12468867003917694,-0.9242388606071472,1.2082735300064087
1667825658656013800,6.815013916015625,0.1768149882555008,-0.7792755365371704,0.8998578786849976
1667825658666021600,6.825021728515625,0.30618444085121155,-0.5452582836151123,0.509046733379364
1667825658676029700,6.83502978515625,0.46777623891830444,-0.22680971026420593,0.10638555884361267
1667825658686036500,6.845036376953125,0.5896510481834412,0.09670843183994293,-0.24689234793186188
1667825658696044800,6.855044921875,0.6117552518844604,0.33940842747688293,-0.4944073259830475
1667825658706052900,6.865052978515625,0.5239412784576416,0.534900963306427,-0.6228840947151184
1667825658716060700,6.875060791015625,0.37770840525627136,0.6747483611106873,-0.6440375447273254
1667825658726068700,6.88506884765625,0.24100595712661743,0.7191959619522095,-0.5721554160118103
1667825658736076500,6.89507666015625,0.1463548094034195,0.6665160059928894,-0.43940213322639465
1667825658746084600,6.905084716796875,0.09837743639945984,0.5727524757385254,-0.2743050456047058
1667825658756091600,6.915091552734375,0.10147948563098907,0.47434255480766296,-0.10900824517011642
1667825658766099700,6.925099609375,0.1781367063522339,0.38820046186447144,0.043170373886823654
1667825658776107800,6.935107666015625,0.3237684667110443,0.32585960626602173,0.1656520813703537
1667825658786115600,6.945115478515625,0.5123986005783081,0.29473310708999634,0.2444334477186203
1667825658796123600,6.95512353515625,0.6811452507972717,0.23084066808223724,0.3028070032596588
1667825658806131700,6.965131591796875,0.7719696760177612,0.11807284504175186,0.33837273716926575
1667825658816138800,6.975138671875,0.7786632776260376,0.011833756230771542,0.3414556086063385
1667825658826146600,6.985146484375,0.736418604850769,-0.07862424105405807,0.3365340828895569
1667825658836154600,6.995154541015625,0.6701719760894775,-0.13353568315505981,0.30402672290802
1667825658846162700,7.00516259765625,0.6056323647499084,-0.14589835703372955,0.2661254107952118
1667825658856170800,7.015170654296875,0.5574885606765747,-0.09173338115215302,0.22284293174743652
1667825658866178800,7.0251787109375,0.5052464008331299,0.011381551623344421,0.1923888921737671
1667825658876186600,7.0351865234375,0.4431998133659363,0.09783894568681717,0.18115194141864777
1667825658886194000,7.04519384765625,0.3689420819282532,0.11612633615732193,0.18208271265029907
1667825658896202000,7.055201904296875,0.29734113812446594,0.07070159912109375,0.18949748575687408
1667825658906210000,7.0652099609375,0.22954930365085602,-0.02863137796521187,0.19064505398273468
1667825658916218000,7.075218017578125,0.16914881765842438,-0.1750413179397583,0.17324794828891754
1667825658926226000,7.085225830078125,0.11620490252971649,-0.33954158425331116,0.14507782459259033
1667825658936234000,7.09523388671875,0.0494554340839386,-0.42079782485961914,0.1052398681640625
1667825658946241800,7.10524169921875,-0.04424762353301048,-0.33765020966529846,0.04729374498128891
1667825658956249000,7.1152490234375,-0.1393704116344452,-0.1300935596227646,-0.004050934221595526
1667825658966257000,7.1252568359375,-0.21473173797130585,0.1124274730682373,-0.033732663840055466
1667825658976265000,7.135264892578125,-0.24083684384822845,0.34296801686286926,-0.08333403617143631
1667825658986273000,7.14527294921875,-0.22208473086357117,0.524885356426239,-0.1777667999267578
1667825658996280800,7.15528076171875,-0.18987326323986053,0.6004855632781982,-0.3005768656730652
1667825659006289000,7.165288818359375,-0.15503458678722382,0.5442094802856445,-0.3955662250518799
1667825659016297000,7.175296875,-0.1393062323331833,0.37336692214012146,-0.45694971084594727
1667825659026304000,7.185303955078125,-0.15645405650138855,0.07161426544189453,-0.47638386487960815
1667825659036311800,7.195311767578125,-0.22210843861103058,-0.3470191955566406,-0.4461500644683838
1667825659046319900,7.20531982421875,-0.3267933130264282,-0.7553675770759583,-0.4230841398239136
1667825659056328000,7.215327880859375,-0.419015109539032,-1.01772940158844,-0.46043577790260315
1667825659066336000,7.2253359375,-0.43375062942504883,-1.1285384893417358,-0.5769975185394287
1667825659076344000,7.235343994140625,-0.3643004596233368,-1.1081418991088867,-0.7346388697624207
1667825659086352000,7.245351806640625,-0.23927463591098785,-0.9914104342460632,-0.8852517604827881
1667825659096359000,7.25535888671875,-0.08691678941249847,-0.7479445338249207,-0.8323501944541931
1667825659106367000,7.265366943359375,0.007504787761718035,-0.11086047440767288,-0.7995765805244446
1667825659116375000,7.275375,-0.006238721311092377,0.4190124273300171,-0.7541411519050598
1667825659126383000,7.285383056640625,-0.09171633422374725,0.7078450322151184,-0.693160891532898
1667825659136391000,7.295390869140625,-0.1935926377773285,0.765487551689148,-0.5961925387382507
1667825659146399000,7.30539892578125,-0.27325019240379333,0.650420606136322,-0.5012641549110413
1667825659156406800,7.31540673828125,-0.34180954098701477,0.3982597589492798,-0.4142853319644928
1667825659166414000,7.3254140625,-0.42090487480163574,0.07950387895107269,-0.3307015001773834
1667825659176422000,7.335421875,-0.543125331401825,-0.24722763895988464,-0.22751252353191376
