time,seconds_elapsed,z,y,x
1667266457779331600,0.06233154296875,0.2071535736322403,-0.09979717433452606,-0.7246938943862915
1667266457781729500,0.0647294921875,0.1949366331100464,-0.10101886838674545,-0.7210288047790527
1667266457784127200,0.067127197265625,0.18699561059474945,-0.10957072675228119,-0.7112552523612976
1667266457786525000,0.06952490234375,0.1796654462814331,-0.11873343586921692,-0.7020925879478455
1667266457788923000,0.0719228515625,0.17477867007255554,-0.12606360018253326,-0.6843779683113098
1667266457791320600,0.074320556640625,0.17416782677173615,-0.135226309299469,-0.6648308634757996
1667266457793718500,0.076718505859375,0.17722205817699432,-0.13705885410308838,-0.6452837586402893
1667266457796116200,0.0791162109375,0.1808871477842331,-0.1358371526002884,-0.6177956461906433
1667266457798514200,0.08151416015625,0.18943901360034943,-0.13156123459339142,-0.5903075337409973
1667266457800912000,0.083911865234375,0.19799086451530457,-0.12545275688171387,-0.5597651600837708
1667266457803309800,0.086309814453125,0.21020781993865967,-0.11445750296115875,-0.5261685848236084
1667266457805707500,0.08870751953125,0.22608983516693115,-0.11201411485671997,-0.49196112155914307
1667266457808105200,0.091105224609375,0.24746949970722198,-0.11140327155590057,-0.45897534489631653
1667266457810503200,0.093503173828125,0.2700708508491516,-0.10590564459562302,-0.422324538230896
1667266457812900900,0.09590087890625,0.29450473189353943,-0.09735377877950668,-0.38994961977005005
1667266457815298800,0.098298828125,0.3201603293418884,-0.08819106966257095,-0.3551313281059265
1667266457817696500,0.100696533203125,0.348259299993515,-0.07475243508815765,-0.3184804916381836
1667266457820094200,0.10309423828125,0.375747412443161,-0.06131379306316376,-0.28366219997406006
1667266457822492200,0.1054921875,0.40690064430236816,-0.04604261368513107,-0.24640052020549774
1667266457824889900,0.107889892578125,0.43805384635925293,-0.03626905754208565,-0.212803915143013
1667266457827287800,0.110287841796875,0.4667636752128601,-0.024662958458065987,-0.1737096905708313
1667266457829685500,0.112685546875,0.4985277056694031,-0.013667707331478596,-0.1358371526002884
1667266457832083200,0.115083251953125,0.5278483629226685,-0.006337540224194527,-0.09796462953090668
1667266457834481200,0.117481201171875,0.5565581917762756,0.00038177953683771193,-0.06070294603705406
1667266457836878800,0.11987890625,0.5846571922302246,0.004046862944960594,-0.02283041551709175
1667266457839276800,0.12227685546875,0.6109235882759094,0.008933641016483307,0.015042114071547985
1667266457841674500,0.124674560546875,0.6365792155265808,0.009544488042593002,0.05291464552283287
1667266457844072400,0.127072509765625,0.660402238368988,0.008322793990373611,0.09139802306890488
1667266457846470100,0.12947021484375,0.6823927164077759,0.004046862944960594,0.12438376992940903
1667266457848867800,0.131867919921875,0.7037724256515503,-0.0014507622690871358,0.153704434633255
1667266457851265800,0.134265869140625,0.7227086424827576,-0.013667707331478596,0.18669019639492035
1667266457853663500,0.13666357421875,0.7361472845077515,-0.03321481868624687,0.2208976447582245
1667266457856061400,0.1390615234375,0.748364269733429,-0.053983625024557114,0.25327253341674805
1667266457858459100,0.141459228515625,0.7575269341468811,-0.08269345015287399,0.283204048871994
1667266457860857000,0.143857177734375,0.7660788297653198,-0.11140327155590057,0.3125247359275818
1667266457863254800,0.1462548828125,0.770965576171875,-0.14377817511558533,0.34123456478118896
1667266457865652700,0.14865283203125,0.775852382183075,-0.17920731008052826,0.3668901324272156
1667266457868050400,0.151050537109375,0.7782957553863525,-0.22013407945632935,0.3907131850719452
1667266457870448000,0.1534482421875,0.7770740985870361,-0.264725923538208,0.4169796109199524
1667266457872846000,0.15584619140625,0.7764632105827332,-0.30992862582206726,0.4426352083683014
1667266457875243800,0.158243896484375,0.7746306657791138,-0.3581855595111847,0.470734179019928
1667266457877641700,0.160641845703125,0.770965576171875,-0.4076641798019409,0.491502970457077
1667266457880039400,0.163039306640625,0.766689658164978,-0.4553866386413574,0.5141043066978455
1667266457882437000,0.16543701171875,0.762413740158081,-0.4993676245212555,0.5348731279373169
1667266457884835000,0.1678349609375,0.7563052773475647,-0.5427377820014954,0.5531985759735107
1667266457887232800,0.170232666015625,0.7495859265327454,-0.5806103348731995,0.572745680809021
1667266457889630700,0.172630615234375,0.7398123741149902,-0.6129852533340454,0.5910710692405701
1667266457892028400,0.1750283203125,0.7312605381011963,-0.6441384553909302,0.6051205396652222
1667266457894426400,0.17742626953125,0.724541187286377,-0.6697940230369568,0.6228351593017578
1667266457896824000,0.179823974609375,0.7172110676765442,-0.6917845010757446,0.6344412565231323
1667266457899221800,0.1822216796875,0.7074374556541443,-0.7088882327079773,0.6472690105438232
1667266457901619700,0.18461962890625,0.7025507092475891,-0.7211052179336548,0.6564317345619202
1667266457904017400,0.187017333984375,0.6952205300331116,-0.7290462255477905,0.6637619137763977
1667266457906415400,0.189415283203125,0.6909446120262146,-0.7357655167579651,0.674757182598114
1667266457908813000,0.19181298828125,0.6860578060150146,-0.7357655167579651,0.6820873022079468
1667266457911210800,0.194210693359375,0.6817818880081177,-0.7339329719543457,0.6857523918151855
1667266457913608700,0.196608642578125,0.6793385148048401,-0.7235485911369324,0.6894174814224243
1667266457916006400,0.19900634765625,0.6768951416015625,-0.7107207775115967,0.6894174814224243
1667266457918404400,0.201404296875,0.6744517087936401,-0.6972821354866028,0.6869741082191467
1667266457920802000,0.203802001953125,0.6732300519943237,-0.6807892918586731,0.6845307350158691
1667266457923200000,0.206199951171875,0.6720083355903625,-0.661853015422821,0.683309018611908
1667266457925597700,0.20859765625,0.6732300519943237,-0.6392516493797302,0.6759788393974304
1667266457927995600,0.21099560546875,0.6762842535972595,-0.6160394549369812,0.6698703765869141
1667266457930393300,0.213393310546875,0.6787276864051819,-0.591605544090271,0.6619293689727783
1667266457932791000,0.215791015625,0.6866686940193176,-0.5659499764442444,0.6515449285507202
1667266457935189000,0.21818896484375,0.6939988136291504,-0.5390726923942566,0.6393280029296875
1667266457937586700,0.220586669921875,0.7043832540512085,-0.51341712474823,0.6265002489089966
1667266457939984600,0.222984619140625,0.7178218960762024,-0.487761527299881,0.6136724352836609
1667266457942382300,0.22538232421875,0.7282062768936157,-0.4627167880535126,0.5996229648590088
1667266457944780000,0.227780029296875,0.7410340905189514,-0.44255882501602173,0.5825192332267761
1667266457947178000,0.230177978515625,0.7532510161399841,-0.424157053232193,0.5672480463981628
1667266457949575700,0.23257568359375,0.766689658164978,-0.4107184112071991,0.548922598361969
1667266457951973600,0.2349736328125,0.7789065837860107,-0.40277740359306335,0.5330405831336975
1667266457954371300,0.237371337890625,0.7929561138153076,-0.3960580825805664,0.5141043066978455
1667266457956769300,0.239769287109375,0.8094489574432373,-0.39117130637168884,0.4933355152606964
1667266457959167000,0.2421669921875,0.8277744054794312,-0.3862845301628113,0.47439923882484436
1667266457961564700,0.244564697265625,0.845488965511322,-0.3838411569595337,0.4524087607860565
1667266457963962600,0.246962646484375,0.8625926971435547,-0.38811707496643066,0.4298073947429657
1667266457966360300,0.2493603515625,0.8803072571754456,-0.394225537776947,0.40720605850219727
1667266457968758300,0.25175830078125,0.8986326456069946,-0.40277740359306335,0.38338300585746765
1667266457971156000,0.254156005859375,0.9169580936431885,-0.4113292694091797,0.3607816696166992
1667266457973553700,0.2565537109375,0.9371160268783569,-0.4247679114341736,0.334515243768692
1667266457975951600,0.25895166015625,0.9554414749145508,-0.44133713841438293,0.3106921911239624
1667266457978349300,0.261349365234375,0.9743777513504028,-0.4566083252429962,0.283204048871994
1667266457980747300,0.263747314453125,0.9945356845855713,-0.4724903404712677,0.2618243992328644
1667266457983145000,0.26614501953125,1.011028528213501,-0.49020493030548096,0.23739051818847656
1667266457985543000,0.26854296875,1.0305756330490112,-0.504865288734436,0.21173493564128876
1667266457987940600,0.270940673828125,1.0464577674865723,-0.5189147591590881,0.18852274119853973
1667266457990338300,0.27333837890625,1.0641722679138184,-0.5347967743873596,0.1653105467557907
1667266457992736300,0.275736328125,1.0782217979431152,-0.5482354164123535,0.1396549493074417
1667266457995134000,0.278134033203125,1.0941038131713867,-0.5604523420333862,0.11766445636749268
1667266457997532000,0.280531982421875,1.1081533432006836,-0.5696150660514832,0.09445225447416306
1667266457999929600,0.2829296875,1.1215919256210327,-0.5787777900695801,0.07124006003141403
1667266458002327600,0.28532763671875,1.1338088512420654,-0.587329626083374,0.04741701856255531
1667266458004725200,0.287725341796875,1.1448041200637817,-0.5940489768981934,0.02664821222424507
1667266458007123000,0.290123046875,1.1551885604858398,-0.6038225293159485,0.0064902519807219505
1667266458009521000,0.29252099609375,1.1655728816986084,-0.6129852533340454,-0.012446013279259205
1667266458011918600,0.294918701171875,1.1753464937210083,-0.6233696341514587,-0.03443651273846626
1667266458014316500,0.297316650390625,1.1857309341430664,-0.6337540149688721,-0.05276193097233772
1667266458016714200,0.29971435546875,1.1948935985565186,-0.642916738986969,-0.07108735293149948
1667266458019112200,0.3021123046875,1.2028346061706543,-0.6557445526123047,-0.08696937561035156
1667266458021510000,0.304510009765625,1.21077561378479,-0.6679614782333374,-0.10162971168756485
1667266458023907600,0.306907470703125,1.2174949645996094,-0.6826218366622925,-0.11751174181699753
1667266458026305500,0.309305419921875,1.224825143814087,-0.6972821354866028,-0.12789614498615265
1667266458028703200,0.311703125,1.2327661514282227,-0.7101099491119385,-0.14133478701114655
1667266458031101200,0.31410107421875,1.2388745546340942,-0.7296570539474487,-0.15355172753334045
1667266458033499000,0.316498779296875,1.2462047338485718,-0.7443174123764038,-0.16454698145389557
1667266458035896600,0.318896484375,1.2553675174713135,-0.7632536292076111,-0.1737096905708313
1667266458038294500,0.32129443359375,1.2651410102844238,-0.7815790772438049,-0.18103985488414764
1667266458040692200,0.323692138671875,1.2743037939071655,-0.7974610924720764,-0.19020256400108337
1667266458043090200,0.326090087890625,1.2834664583206177,-0.8115105628967285,-0.19631104171276093
1667266458045487900,0.32848779296875,1.2920182943344116,-0.8261709213256836,-0.20425204932689667
1667266458047885800,0.3308857421875,1.3005701303482056,-0.8353336453437805,-0.21097137033939362
1667266458050283500,0.333283447265625,1.31217622756958,-0.846328854560852,-0.21463645994663239
1667266458052681200,0.33568115234375,1.3213390111923218,-0.8579349517822266,-0.21707984805107117
1667266458055079200,0.3380791015625,1.330501675605774,-0.8652651309967041,-0.22196662425994873
1667266458057476900,0.340476806640625,1.3390535116195679,-0.874427855014801,-0.2262425571680069
1667266458059874800,0.342874755859375,1.3476054668426514,-0.8805363178253174,-0.22807510197162628
1667266458062272500,0.3452724609375,1.355546474456787,-0.8823688626289368,-0.22929678857326508
1667266458064670500,0.34767041015625,1.362876534461975,-0.8854231238365173,-0.23112933337688446
1667266458067068200,0.350068115234375,1.3702067136764526,-0.8903098702430725,-0.22990763187408447
1667266458069465900,0.3524658203125,1.3744826316833496,-0.8866447806358337,-0.22807510197162628
1667266458071863800,0.35486376953125,1.3757044076919556,-0.878703773021698,-0.2262425571680069
1667266458074261500,0.357261474609375,1.3781477212905884,-0.874427855014801,-0.2244100123643875
1667266458076659500,0.359659423828125,1.382423758506775,-0.8719844818115234,-0.22196662425994873
1667266458079057200,0.36205712890625,1.3866996765136719,-0.8762603998184204,-0.21952323615550995
1667266458081455000,0.364455078125,1.3934189081192017,-0.8805363178253174,-0.21585814654827118
1667266458083852800,0.366852783203125,1.3964731693267822,-0.8848122358322144,-0.21524730324745178
1667266458086250500,0.36925048828125,1.4025816917419434,-0.8903098702430725,-0.21463645994663239
1667266458088648400,0.3716484375,1.4074684381484985,-0.8994725942611694,-0.20913882553577423
1667266458091046100,0.374046142578125,1.414798617362976,-0.9055810570716858,-0.20547375082969666
1667266458093444000,0.376444091796875,1.42335045337677,-0.9153546094894409,-0.20241950452327728
1667266458095841800,0.378841796875,1.4300698041915894,-0.9245173335075378,-0.19447849690914154
1667266458098239700,0.38123974609375,1.438010811805725,-0.9336800575256348,-0.18898087739944458
1667266458100637400,0.383637451171875,1.4447301626205444,-0.9385668039321899,-0.18226155638694763
1667266458103035100,0.38603515625,1.4538928270339966,-0.9385668039321899,-0.17187714576721191
1667266458105433000,0.38843310546875,1.4630554914474487,-0.9434536099433899,-0.1621035933494568
1667266458107830800,0.390830810546875,1.4703856706619263,-0.9471186995506287,-0.15294088423252106
1667266458110228700,0.393228759765625,1.479548454284668,-0.948951244354248,-0.14133478701114655
1667266458112626400,0.39562646484375,1.4868786334991455,-0.9507837295532227,-0.13033953309059143
1667266458115024100,0.398024169921875,1.4935978651046753,-0.9520054459571838,-0.11629004776477814
1667266458117422000,0.400422119140625,1.5052039623260498,-0.953227162361145,-0.10407309979200363
1667266458119819800,0.40281982421875,1.5119233131408691,-0.9520054459571838,-0.09246700257062912
1667266458122217700,0.4052177734375,1.5186426639556885,-0.952616274356842,-0.07841751724481583
1667266458124615400,0.407615478515625,1.5265836715698242,-0.9538379907608032,-0.06192464008927345
1667266458127013400,0.410013427734375,1.5296379327774048,-0.953227162361145,-0.04665346071124077
1667266458129411000,0.4124111328125,1.5381897687911987,-0.9544488191604614,-0.02832804247736931
1667266458131808800,0.414808837890625,1.5424656867980957,-0.9599464535713196,-0.014889402315020561
1667266458134206700,0.417206787109375,1.5455199480056763,-0.9623898267745972,0.0028251686599105597
1667266458136604400,0.4196044921875,1.549185037612915,-0.9691091775894165,0.019928891211748123
1667266458139002400,0.42200244140625,1.5473524332046509,-0.9770501852035522,0.0364217683672905
1667266458141400000,0.424400146484375,1.5467416048049927,-0.9886562824249268,0.05719057470560074
1667266458143798000,0.426798095703125,1.544909119606018,-1.0008732080459595,0.07734853774309158
1667266458146195700,0.42919580078125,1.5412440299987793,-1.016755223274231,0.09628479927778244
1667266458148593400,0.431593505859375,1.5375789403915405,-1.0320264101028442,0.11766445636749268
1667266458150991400,0.433991455078125,1.5333030223846436,-1.0466867685317993,0.13904410600662231
1667266458153389000,0.43638916015625,1.5235294103622437,-1.063179612159729,0.16103461384773254
1667266458155787000,0.438787109375,1.5168100595474243,-1.0796725749969482,0.18363595008850098
1667266458158184700,0.441184814453125,1.5064257383346558,-1.090667724609375,0.2050156146287918
1667266458160582700,0.443582763671875,1.4966521263122559,-1.1041064262390137,0.22761696577072144
1667266458162980400,0.44598046875,1.483824372291565,-1.1163233518600464,0.25205084681510925
1667266458165378000,0.4483779296875,1.4709964990615845,-1.1267077922821045,0.2703762650489807
1667266458167776000,0.45077587890625,1.45939040184021,-1.1407572031021118,0.2941993176937103
1667266458170173700,0.453173583984375,1.4435083866119385,-1.1517524719238281,0.31557896733283997
1667266458172571600,0.455571533203125,1.4294589757919312,-1.1664128303527832,0.336347758769989
1667266458174969300,0.45796923828125,1.414798617362976,-1.1810731887817383,0.35711658000946045
1667266458177367300,0.4603671875,1.3952515125274658,-1.1969552040100098,0.3760528564453125
1667266458179765000,0.462764892578125,1.3781477212905884,-1.2116155624389648,0.39498910307884216
1667266458182162700,0.46516259765625,1.362876534461975,-1.2287192344665527,0.41209283471107483
1667266458184560600,0.467560546875,1.3476054668426514,-1.249488115310669,0.4279748499393463
1667266458186958300,0.469958251953125,1.3341667652130127,-1.2647593021392822,0.4401918053627014
1667266458189356300,0.472356201171875,1.3213390111923218,-1.281252145767212,0.4530195891857147
1667266458191754000,0.47475390625,1.3109545707702637,-1.2983558177947998,0.4652365446090698
1667266458194151700,0.477151611328125,1.2999593019485474,-1.319124698638916,0.47623178362846375
1667266458196549600,0.479549560546875,1.2907966375350952,-1.3429477214813232,0.48539450764656067
1667266458198947300,0.481947265625,1.2865207195281982,-1.3667707443237305,0.49761146306991577
1667266458201345300,0.48434521484375,1.2779687643051147,-1.3863178491592407,0.5073850154876709
1667266458203743000,0.486742919921875,1.2724711894989014,-1.4034215211868286,0.5183802843093872
1667266458206141000,0.489140869140625,1.265751838684082,-1.4138059616088867,0.5299863815307617
1667266458208538600,0.49153857421875,1.2596434354782104,-1.4180818796157837,0.540370762348175
1667266458210936300,0.493936279296875,1.2510915994644165,-1.414416790008545,0.5519768595695496
1667266458213334300,0.496334228515625,1.2449830770492554,-1.4040324687957764,0.5617504119873047
1667266458215732000,0.49873193359375,1.2352094650268555,-1.3875395059585571,0.5733565092086792
1667266458218130000,0.5011298828125,1.224825143814087,-1.3667707443237305,0.5843517780303955
1667266458220527600,0.503527587890625,1.2132190465927124,-1.331952452659607,0.59595787525177
1667266458222925600,0.505925537109375,1.1997803449630737,-1.2953015565872192,0.6069530844688416
1667266458225323300,0.5083232421875,1.183287501335144,-1.2568182945251465,0.6197808980941772
1667266458227721000,0.510720947265625,1.1655728816986084,-1.2158914804458618,0.6338303685188293
1667266458230119000,0.513118896484375,1.14541494846344,-1.1749646663665771,0.6515449285507202
1667266458232516600,0.5155166015625,1.1203702688217163,-1.134037971496582,0.6668161153793335
1667266458234914600,0.51791455078125,1.0965471267700195,-1.090667724609375,0.6820873022079468
1667266458237312300,0.520312255859375,1.0751675367355347,-1.0460759401321411,0.6991910338401794
1667266458239710000,0.5227099609375,1.048901081085205,-1.00392746925354,0.7114079594612122
1667266458242108000,0.52510791015625,1.0220237970352173,-0.9599464535713196,0.724846601486206
1667266458244505600,0.527505615234375,0.9975899457931519,-0.9190196990966797,0.7346965670585632
1667266458246903600,0.529903564453125,0.9707126617431641,-0.8817580342292786,0.7499676942825317
1667266458249301200,0.53230126953125,0.9450570940971375,-0.8487722873687744,0.760962963104248
1667266458251699200,0.53469921875,0.923677384853363,-0.8170081973075867,0.7725690603256226
1667266458254097000,0.537096923828125,0.8998543620109558,-0.7913526296615601,0.7811209559440613
1667266458256494600,0.53949462890625,0.8803072571754456,-0.7693621516227722,0.7878402471542358
1667266458258892500,0.541892578125,0.8564842343330383,-0.7485933303833008,0.7945595979690552
1667266458261290200,0.544290283203125,0.8399913311004639,-0.7345438003540039,0.8006680607795715
1667266458263688200,0.546688232421875,0.8241093158721924,-0.7253811359405518,0.8049439787864685
1667266458266086000,0.5490859375,0.8082273006439209,-0.7186617851257324,0.8055548071861267
1667266458268483600,0.551483642578125,0.794788658618927,-0.7180509567260742,0.8061656951904297
1667266458270881500,0.553881591796875,0.7844042181968689,-0.7235485911369324,0.8043331503868103
1667266458273279200,0.556279296875,0.775852382183075,-0.7339329719543457,0.8000571727752686
1667266458275677200,0.55867724609375,0.7697439193725586,-0.7485933303833008,0.7994463443756104
1667266458278075000,0.561074951171875,0.7642462849617004,-0.7711946368217468,0.7963921427726746
1667266458280472800,0.563472900390625,0.7605811953544617,-0.7944068312644958,0.7939487099647522
1667266458282870500,0.56587060546875,0.7593594789505005,-0.8163973689079285,0.7927270531654358
1667266458285268200,0.568268310546875,0.7569161057472229,-0.8414421081542969,0.7921161651611328
1667266458287666200,0.570666259765625,0.7575269341468811,-0.859767496585846,0.7872294187545776
1667266458290064000,0.57306396484375,0.7581378221511841,-0.870151937007904,0.7860077023506165
1667266458292461800,0.5754619140625,0.7587486505508423,-0.8768712282180786,0.7829535007476807
1667266458294859500,0.577859619140625,0.7605811953544617,-0.8750386834144592,0.7811209559440613
1667266458297257500,0.580257568359375,0.7593594789505005,-0.8640434741973877,0.7792884111404419
1667266458299655200,0.5826552734375,0.7593594789505005,-0.8493831157684326,0.7792884111404419
1667266458302052900,0.585052978515625,0.762413740158081,-0.8286142945289612,0.7811209559440613
1667266458304450800,0.587450927734375,0.7618029117584229,-0.7980719208717346,0.7829535007476807
1667266458306848500,0.5898486328125,0.7611920237541199,-0.7687512636184692,0.7817317843437195
1667266458309246500,0.59224658203125,0.7581378221511841,-0.7363763451576233,0.7817317843437195
1667266458311644200,0.59464404296875,0.7575269341468811,-0.7015580534934998,0.7847860455513
1667266458314041900,0.597041748046875,0.7550835609436035,-0.6655181050300598,0.7829535007476807
1667266458316439800,0.599439697265625,0.7544727325439453,-0.6349757313728333,0.7823426127433777
1667266458318837500,0.60183740234375,0.7489750981330872,-0.6074876189231873,0.7847860455513
1667266458321235500,0.6042353515625,0.747753381729126,-0.5861079692840576,0.7841751575469971
1667266458323633200,0.606633056640625,0.7453100085258484,-0.5671716928482056,0.7841751575469971
1667266458326031000,0.609031005859375,0.7410340905189514,-0.5537330508232117,0.7841751575469971
1667266458328428800,0.6114287109375,0.7410340905189514,-0.5457920432090759,0.7847860455513
1667266458330826500,0.613826416015625,0.7398123741149902,-0.5427377820014954,0.7847860455513
1667266458333224400,0.616224365234375,0.7404232621192932,-0.5402944087982178,0.788451075553894
1667266458335622100,0.6186220703125,0.7422557473182678,-0.5402944087982178,0.7915053367614746
1667266458338020000,0.62102001953125,0.7416449189186096,-0.5378510355949402,0.7939487099647522
1667266458340417800,0.623417724609375,0.7471425533294678,-0.5372401475906372,0.8006680607795715
1667266458342815500,0.6258154296875,0.7489750981330872,-0.536629319190979,0.8043331503868103
1667266458345213400,0.62821337890625,0.7532510161399841,-0.5335750579833984,0.8104416131973267
1667266458347611100,0.630611083984375,0.7563052773475647,-0.5292991399765015,0.816550076007843
1667266458350009000,0.633009033203125,0.762413740158081,-0.5280774831771851,0.8244910836219788
1667266458352406800,0.63540673828125,0.7673004865646362,-0.5201364159584045,0.8281561732292175
1667266458354804700,0.6378046875,0.7721872925758362,-0.51341712474823,0.8391514420509338
1667266458357202400,0.640202392578125,0.775852382183075,-0.5079194903373718,0.8470924496650696
1667266458359600000,0.64260009765625,0.7782957553863525,-0.4999784827232361,0.8538117408752441
1667266458361998000,0.644998046875,0.7807391285896301,-0.49203747510910034,0.8605310916900635
1667266458364395800,0.647395751953125,0.7837933897972107,-0.4865398406982422,0.8696937561035156
1667266458366793700,0.649793701171875,0.7825716733932495,-0.47982051968574524,0.8782456517219543
1667266458369191400,0.65219140625,0.7819608449935913,-0.4749337434768677,0.8861866593360901
1667266458371589400,0.65458935546875,0.7782957553863525,-0.4712686538696289,0.8965710401535034
1667266458373987000,0.656987060546875,0.7746306657791138,-0.46577104926109314,0.9032903909683228
1667266458376384800,0.659384765625,0.7685222029685974,-0.46332764625549316,0.9124531149864197
1667266458378782700,0.66178271484375,0.7636354565620422,-0.46210595965385437,0.9203941226005554
1667266458381180400,0.664180419921875,0.7544727325439453,-0.460273414850235,0.9265025854110718
1667266458383578400,0.666578369140625,0.7489750981330872,-0.4590517282485962,0.931389331817627
1667266458385976000,0.66897607421875,0.7398123741149902,-0.4590517282485962,0.9362761378288269
1667266458388374000,0.6713740234375,0.7312605381011963,-0.45416492223739624,0.9411629438400269
1667266458390771700,0.673771728515625,0.7233195304870605,-0.45355409383773804,0.9423846006393433
1667266458393169400,0.67616943359375,0.7153785228729248,-0.45355409383773804,0.9448279738426208
1667266458395567400,0.6785673828125,0.7080483436584473,-0.44988900423049927,0.9466605186462402
1667266458397965000,0.680965087890625,0.6982747912406921,-0.4486673176288605,0.9478822350502014
1667266458400363000,0.683363037109375,0.6921663284301758,-0.4486673176288605,0.9478822350502014
1667266458402760700,0.6857607421875,0.6848361492156982,-0.44988900423049927,0.9484930634498596
1667266458405158700,0.68815869140625,0.6799493432044983,-0.4553866386413574,0.9478822350502014
1667266458407556400,0.690556396484375,0.6768951416015625,-0.4608842432498932,0.9478822350502014
1667266458409954000,0.6929541015625,0.6744517087936401,-0.4706578254699707,0.9484930634498596
1667266458412352000,0.69535205078125,0.6744517087936401,-0.47982051968574524,0.9497147798538208
1667266458414749700,0.697749755859375,0.6720083355903625,-0.49020493030548096,0.9539906978607178
1667266458417147600,0.700147705078125,0.6756734251976013,-0.4987567961215973,0.9588775038719177
1667266458419545300,0.70254541015625,0.6793385148048401,-0.5018110275268555,0.9655967950820923
1667266458421943000,0.704943115234375,0.6787276864051819,-0.5005893111228943,0.974148690700531
1667266458424341000,0.707341064453125,0.6823927164077759,-0.4975350797176361,0.9839222431182861
1667266458426738700,0.70973876953125,0.6830036044120789,-0.4865398406982422,0.9930849075317383
1667266458429136600,0.71213671875,0.6860578060150146,-0.4688252806663513,1.006523609161377
1667266458431534300,0.714534423828125,0.6836144328117371,-0.4456130862236023,1.019962191581726
1667266458433932300,0.716932373046875,0.6811710596084595,-0.4186594486236572,1.0352333784103394
1667266458436330000,0.719330078125,0.6781167984008789,-0.39178216457366943,1.0505045652389526
1667266458438727700,0.721727783203125,0.6775059700012207,-0.3581855595111847,1.0676082372665405
1667266458441125600,0.724125732421875,0.6707866191864014,-0.3197021782398224,1.0859336853027344
1667266458443523300,0.7265234375,0.6640673279762268,-0.2806079685688019,1.1024266481399536
1667266458445921300,0.72892138671875,0.6561263203620911,-0.23601610958576202,1.1176977157592773
1667266458448319000,0.731319091796875,0.6463527679443359,-0.19203510880470276,1.1341906785964966
1667266458450717000,0.733717041015625,0.6353574991226196,-0.15294088423252106,1.1506835222244263
1667266458453114600,0.736114501953125,0.6255839467048645,-0.11079242080450058,1.1677871942520142
1667266458455512300,0.73851220703125,0.609701931476593,-0.07047650218009949,1.181836724281311
1667266458457910300,0.74091015625,0.5956524610519409,-0.03443651273846626,1.1977187395095825
1667266458460308000,0.743307861328125,0.5773270130157471,-0.0038941511884331703,1.2087140083312988
1667266458462706000,0.745705810546875,0.559001624584198,0.02542651630938053,1.2184876203536987
1667266458465103600,0.748103515625,0.5406761765480042,0.04802786558866501,1.2276502847671509
1667266458467501600,0.75050146484375,0.5199073553085327,0.06757497787475586,1.2374237775802612
1667266458469899300,0.752899169921875,0.503414511680603,0.08162446320056915,1.242310643196106
1667266458472297000,0.755296875,0.48814332485198975,0.09017632901668549,1.2471973896026611
1667266458474695000,0.75769482421875,0.47165045142173767,0.09689565002918243,1.2520841360092163
1667266458477092600,0.760092529296875,0.4576009511947632,0.10361496359109879,1.255749225616455
1667266458479490600,0.762490478515625,0.44721654057502747,0.10972344130277634,1.260025143623352
1667266458481888300,0.76488818359375,0.4392755329608917,0.12010784447193146,1.2636902332305908
1667266458484286000,0.767285888671875,0.43499961495399475,0.1274380087852478,1.2673553228378296
1667266458486684000,0.769683837890625,0.43622130155563354,0.1402658075094223,1.2710204124450684
1667266458489081600,0.77208154296875,0.4411080777645111,0.153704434633255,1.2752963304519653
1667266458491479600,0.7744794921875,0.44843825697898865,0.17386239767074585,1.2820156812667847
1667266458493877200,0.776877197265625,0.4576009511947632,0.19707459211349487,1.2881242036819458
1667266458496275200,0.779275146484375,0.4710395932197571,0.22150848805904388,1.2948434352874756
1667266458498673000,0.7816728515625,0.48753246665000916,0.25143998861312866,1.3027844429016113
1667266458501070600,0.784070556640625,0.5052470564842224,0.2819823622703552,1.3143905401229858
1667266458503468500,0.786468505859375,0.5254049897193909,0.31435728073120117,1.3241641521453857
1667266458505866200,0.7888662109375,0.5449520945549011,0.3491755723953247,1.3369919061660767
1667266458508264200,0.79126416015625,0.5693860054016113,0.38155046105384827,1.3510414361953735
1667266458510662000,0.793661865234375,0.5889331102371216,0.40903860330581665,1.3632583618164062
1667266458513059800,0.796059814453125,0.6115344762802124,0.43469417095184326,1.371199369430542
1667266458515457500,0.79845751953125,0.6323032975196838,0.4530195891857147,1.3821946382522583
1667266458517855200,0.800855224609375,0.6512395143508911,0.4658474028110504,1.3907464742660522
1667266458520253200,0.803253173828125,0.6720083355903625,0.4713450074195862,1.3980766534805298
1667266458522651000,0.80565087890625,0.6909446120262146,0.4713450074195862,1.407239317893982
1667266458525048800,0.808048828125,0.7098808884620667,0.46157145500183105,1.4096827507019043
1667266458527446500,0.810446533203125,0.7275954484939575,0.44752198457717896,1.4139586687088013
1667266458529844500,0.812844482421875,0.743477463722229,0.4267531633377075,1.4188454151153564
1667266458532242200,0.8152421875,0.7605811953544617,0.4053735136985779,1.4255647659301758
1667266458534640000,0.81764013671875,0.775852382183075,0.3778853714466095,1.430451512336731
1667266458537037800,0.820037841796875,0.7868476510047913,0.3510081171989441,1.4377816915512085
1667266458539435500,0.822435546875,0.7996754050254822,0.3210766017436981,1.4499987363815308
1667266458541833500,0.82483349609375,0.8118923902511597,0.29297763109207153,1.4616048336029053
1667266458544231200,0.827231201171875,0.8198333978652954,0.26304611563682556,1.4750434160232544
1667266458546629000,0.829629150390625,0.8271635174751282,0.23006035387516022,1.4897037744522095
1667266458549026800,0.83202685546875,0.8326611518859863,0.20012883841991425,1.505585789680481
1667266458551424500,0.834424560546875,0.8363262414932251,0.17019732296466827,1.5257437229156494
1667266458553822500,0.836822509765625,0.8375479578971863,0.13843326270580292,1.5428475141525269
1667266458556220200,0.83922021484375,0.8351045846939087,0.10789089649915695,1.560562014579773
1667266458558618000,0.8416181640625,0.8332720398902893,0.08467870205640793,1.5788874626159668
1667266458561015800,0.844015869140625,0.8283852338790894,0.07246175408363342,1.598434567451477
1667266458563413800,0.846413818359375,0.8247201442718506,0.06574243307113647,1.617370843887329
1667266458565811500,0.8488115234375,0.8167791366577148,0.06879667192697525,1.634474515914917
1667266458568209200,0.851209228515625,0.8088381290435791,0.08528954535722733,1.6540216207504272
1667266458570607000,0.853607177734375,0.7996754050254822,0.11277767270803452,1.672347068786621
1667266458573004800,0.8560048828125,0.7917343974113464,0.14881765842437744,1.6918941736221313
1667266458575402800,0.85840283203125,0.7825716733932495,0.19585290551185608,1.7102196216583252
1667266458577800400,0.860800537109375,0.7721872925758362,0.2459423840045929,1.7267124652862549
1667266458580198400,0.863198486328125,0.7630245685577393,0.3015294671058655,1.7425944805145264
1667266458582596000,0.86559619140625,0.7544727325439453,0.36017081141471863,1.7554223537445068
1667266458584993800,0.867993896484375,0.7446991801261902,0.417590469121933,1.7658066749572754
1667266458587391700,0.870391845703125,0.7324821949005127,0.47317755222320557,1.7743586301803589
1667266458589789400,0.87278955078125,0.7208760976791382,0.5244887471199036,1.7804670333862305
1667266458592187400,0.8751875,0.7129350900650024,0.5641937851905823,1.7822996377944946
1667266458594585000,0.877585205078125,0.7056049108505249,0.5971795320510864,1.7804670333862305
1667266458596983000,0.879983154296875,0.6964422464370728,0.6216134428977966,1.7786345481872559
1667266458599380700,0.882380615234375,0.6921663284301758,0.6399388313293457,1.7725260257720947
1667266458601778400,0.8847783203125,0.688501238822937,0.6484907269477844,1.7658066749572754
1667266458604176400,0.88717626953125,0.6854469776153564,0.650934100151062,1.7554223537445068
1667266458606574000,0.889573974609375,0.6836144328117371,0.6491015553474426,1.7493138313293457
1667266458608972000,0.891971923828125,0.6823927164077759,0.6423822641372681,1.7395403385162354
1667266458611369700,0.89436962890625,0.6830036044120789,0.627721905708313,1.7334318161010742
1667266458613767700,0.896767578125,0.6799493432044983,0.6087856292724609,1.7254908084869385
1667266458616165400,0.899165283203125,0.6768951416015625,0.5874059796333313,1.718160629272461
1667266458618563000,0.90156298828125,0.6689541339874268,0.5586961507797241,1.7120521068572998
1667266458620961000,0.9039609375,0.660402238368988,0.5293754935264587,1.7065545320510864
1667266458623358700,0.906358642578125,0.6451310515403748,0.493946373462677,1.699835181236267
1667266458625756700,0.908756591796875,0.6261947751045227,0.4560738205909729,1.6943376064300537
1667266458628154400,0.911154296875,0.5974849462509155,0.4157579243183136,1.6894508600234985
1667266458630552300,0.91355224609375,0.5663317441940308,0.36933353543281555,1.6845639944076538
1667266458632950000,0.915949951171875,0.5315134525299072,0.31680065393447876,1.6784555912017822
1667266458635347700,0.91834765625,0.4930301010608673,0.26487863063812256,1.6711254119873047
1667266458637745700,0.92074560546875,0.44965994358062744,0.21112407743930817,1.6650168895721436
1667266458640143400,0.923143310546875,0.4001813232898712,0.15981291234493256,1.657686710357666
1667266458642541300,0.925541259765625,0.3519243896007538,0.11583191156387329,1.6509674787521362
1667266458644939000,0.92793896484375,0.3000023663043976,0.07673768699169159,1.644248127937317
1667266458647337000,0.9303369140625,0.24746949970722198,0.03886515647172928,1.638750433921814
1667266458649734700,0.932734619140625,0.1924932450056076,0.005879404954612255,1.6332528591156006
1667266458652132400,0.93513232421875,0.1393495351076126,-0.020997874438762665,1.6253118515014648
1667266458654530300,0.9375302734375,0.0880383625626564,-0.04421006888151169,1.617370843887329
1667266458656928000,0.939927978515625,0.03733803704380989,-0.06253548711538315,1.6100406646728516
1667266458659326000,0.942325927734375,-0.011529741808772087,-0.07963921129703522,1.6002670526504517
1667266458661723600,0.9447236328125,-0.05734328553080559,-0.09002361446619034,1.589271903038025
1667266458664121600,0.94712158203125,-0.10132429003715515,-0.09613208472728729,1.5788874626159668
1667266458666519300,0.949519287109375,-0.13919681310653687,-0.09246700257062912,1.566670536994934
1667266458668917000,0.9519169921875,-0.1721825748682022,-0.08086090534925461,1.5544536113739014
1667266458671315000,0.95431494140625,-0.20211409032344818,-0.058870404958724976,1.5404040813446045
1667266458673712600,0.956712646484375,-0.2253262847661972,-0.019776180386543274,1.5275763273239136
1667266458676110600,0.959110595703125,-0.24365170300006866,0.03458922728896141,1.514137625694275
1667266458678508300,0.96150830078125,-0.25892287492752075,0.09933903813362122,1.5037531852722168
1667266458680906200,0.96390625,-0.2662530541419983,0.17508409917354584,1.4921470880508423
1667266458683304000,0.966303955078125,-0.26991814374923706,0.26487863063812256,1.4835952520370483
1667266458685701600,0.96870166015625,-0.27419406175613403,0.36811181902885437,1.4762650728225708
1667266458688099600,0.971099609375,-0.2778591513633728,0.4811185598373413,1.4719891548156738
1667266458690497300,0.973497314453125,-0.2754157483577728,0.5977904200553894,1.4677132368087769
1667266458692895200,0.975895263671875,-0.27236151695251465,0.7187381386756897,1.4597722291946411
1667266458695293000,0.97829296875,-0.26991814374923706,0.840296745300293,1.4554963111877441
1667266458697691000,0.98069091796875,-0.2613662779331207,0.9606336951255798,1.4499987363815308
1667266458700088600,0.983088623046875,-0.2528144121170044,1.0834139585494995,1.445111870765686
1667266458702486300,0.985486328125,-0.24548424780368805,1.2037508487701416,1.4377816915512085
1667266458704884200,0.98788427734375,-0.23326729238033295,1.3216444253921509,1.4292298555374146
1667266458707282000,0.990281982421875,-0.2259371280670166,1.4370945692062378,1.4249539375305176
1667266458709679900,0.992679931640625,-0.2143310308456421,1.5464361906051636,1.4145694971084595
1667266458712077600,0.99507763671875,-0.20394663512706757,1.650280237197876,1.404185175895691
1667266458714475500,0.9974755859375,-0.19478392601013184,1.747404932975769,1.3931899070739746
1667266458716873200,0.999873291015625,-0.18073442578315735,1.8335343599319458,1.3785295486450195
1667266458719271000,1.00227099609375,-0.17157171666622162,1.9117228984832764,1.362647533416748
1667266458721668900,1.0046689453125,-0.15630054473876953,1.9758617877960205,1.3449329137802124
1667266458724066600,1.007066650390625,-0.14347274601459503,2.026562213897705,1.3253858089447021
1667266458726464500,1.009464599609375,-0.12942326068878174,2.0619912147521973,1.3040062189102173
1667266458728862200,1.0118623046875,-0.11231953650712967,2.0827600955963135,1.2820156812667847
1667266458731260200,1.01426025390625,-0.09277242422103882,2.090701103210449,1.2594143152236938
1667266458733657900,1.016657958984375,-0.07200361788272858,2.0827600955963135,1.2355912923812866
1667266458736055600,1.0190556640625,-0.05062396824359894,2.0632128715515137,1.2111574411392212
1667266458738453500,1.02145361328125,-0.029855160042643547,2.032059669494629,1.1867234706878662
1667266458740851200,1.023851318359375,-0.009697199799120426,1.9935764074325562,1.162900447845459
1667266458743249200,1.026249267578125,0.015347537584602833,1.9502062797546387,1.1409099102020264
1667266458745646800,1.028646728515625,0.035505495965480804,1.9062252044677734,1.122584581375122
1667266458748044800,1.031044921875,0.056274302303791046,1.8598008155822754,1.1048699617385864
1667266458750442500,1.0334423828125,0.0752105712890625,1.8152090311050415,1.0895987749099731
1667266458752840200,1.035840087890625,0.09170344471931458,1.7700062990188599,1.0743275880813599
1667266458755238100,1.038238037109375,0.10636378079652786,1.7278578281402588,1.061499834060669
1667266458757635800,1.0406357421875,0.11613733321428299,1.6887636184692383,1.051726222038269
1667266458760033800,1.04303369140625,0.12346750497817993,1.6533344984054565,1.042563557624817
1667266458762431500,1.045431396484375,0.1289651244878769,1.617294430732727,1.0352333784103394
1667266458764829200,1.0478291015625,0.13140851259231567,1.5867520570755005,1.0279031991958618
1667266458767227100,1.05022705078125,0.13263021409511566,1.5592639446258545,1.0217947959899902
1667266458769624800,1.052624755859375,0.1277434378862381,1.5354409217834473,1.015686273574829
1667266458772022800,1.055022705078125,0.12102411687374115,1.5152829885482788,1.0126320123672485
1667266458774420500,1.05742041015625,0.11308310180902481,1.4994009733200073,1.0071344375610352
1667266458776818400,1.059818359375,0.10330954194068909,1.4902381896972656,1.0028585195541382
1667266458779216100,1.062216064453125,0.09475768357515335,1.4774104356765747,0.9943066239356995
1667266458781613800,1.06461376953125,0.08437328040599823,1.473745346069336,0.9888089895248413
1667266458784011800,1.06701171875,0.07337802648544312,1.465193510055542,0.982700526714325
1667266458786409500,1.069409423828125,0.05932854115962982,1.455419898033142,0.974148690700531
1667266458788807400,1.071807373046875,0.05016583204269409,1.4456464052200317,0.9643751382827759
1667266458791205000,1.074205078125,0.04100312292575836,1.4346511363983154,0.9521581530570984
1667266458793603000,1.07660302734375,0.03184041380882263,1.4206016063690186,0.9436063170433044
1667266458796000800,1.079000732421875,0.024510245770215988,1.4065521955490112,0.931389331817627
1667266458798398500,1.0813984375,0.0165692325681448,1.3851724863052368,0.9130639433860779
1667266458800796400,1.08379638671875,0.012293301522731781,1.363792896270752,0.8965710401535034
1667266458803194000,1.086194091796875,0.00862821750342846,1.3430240154266357,0.8800781965255737
1667266458805592000,1.088592041015625,0.006184828467667103,1.320422649383545,0.8611419200897217
1667266458807989800,1.09098974609375,0.007406522985547781,1.2965996265411377,0.8385405540466309
1667266458810387700,1.0933876953125,0.01046075951308012,1.2733874320983887,0.8171609044075012
1667266458812785400,1.095785400390625,0.013514995574951172,1.248342752456665,0.793337881565094
1667266458815183000,1.09818310546875,0.01901262067258358,1.2269630432128906,0.765849769115448
1667266458817581000,1.1005810546875,0.026342788711190224,1.2031400203704834,0.737750768661499
1667266458819978800,1.102978759765625,0.03733803704380989,1.1811494827270508,0.7083537578582764
1667266458822376700,1.105376708984375,0.05138752609491348,1.1561048030853271,0.6778113842010498
1667266458824774400,1.1077744140625,0.06971294432878494,1.1353360414505005,0.6448256373405457
1667266458827172400,1.11017236328125,0.0886492058634758,1.1127346754074097,0.6148941516876221
1667266458829570000,1.112570068359375,0.10941801220178604,1.0913549661636353,0.5819083452224731
1667266458831968000,1.114968017578125,0.13385190069675446,1.0656994581222534,0.549533486366272
1667266458834365700,1.11736572265625,0.16134002804756165,1.040043830871582,0.5159368515014648
1667266458836763400,1.119763427734375,0.193104088306427,1.0131665468215942,0.4829511046409607
1667266458839161300,1.122161376953125,0.22608983516693115,0.9826241731643677,0.44996535778045654
1667266458841559000,1.12455908203125,0.2596864402294159,0.9502492547035217,0.42369893193244934
1667266458843957000,1.12695703125,0.2963372766971588,0.9178743362426758,0.39743250608444214
1667266458846354700,1.129354736328125,0.33115556836128235,0.8836669325828552,0.3736094534397125
1667266458848752600,1.131752685546875,0.3671955466270447,0.8488486409187317,0.3546731770038605
1667266458851150300,1.134150390625,0.40140300989151,0.8158628940582275,0.338791161775589
1667266458853548000,1.136548095703125,0.43316707015037537,0.7834879755973816,0.3241308331489563
1667266458855946000,1.138946044921875,0.46309858560562134,0.7517238855361938,0.3149681091308594
1667266458858343700,1.14134375,0.48936501145362854,0.724846601486206,0.308859646320343
1667266458860741600,1.14374169921875,0.5107446908950806,0.7028561234474182,0.30458372831344604
1667266458863139300,1.146139404296875,0.5278483629226685,0.6869741082191467,0.30275118350982666
1667266458865537300,1.148537353515625,0.539454460144043,0.6826981902122498,0.30458372831344604
1667266458867935000,1.15093505859375,0.5492280125617981,0.6875849366188049,0.308859646320343
1667266458870332700,1.153332763671875,0.554114818572998,0.6973584890365601,0.3149681091308594
1667266458872730600,1.155730712890625,0.5547256469726562,0.7169055938720703,0.3210766017436981
1667266458875128300,1.15812841796875,0.5577799081802368,0.7419503331184387,0.33329352736473083
1667266458877526300,1.1605263671875,0.5522822737693787,0.7737144231796265,0.34428879618644714
1667266458879924000,1.162924072265625,0.5449520945549011,0.8121978044509888,0.3546731770038605
1667266458882322000,1.165322021484375,0.5376219153404236,0.8519028425216675,0.36994436383247375
1667266458884719600,1.1677197265625,0.5333459973335266,0.8989381194114685,0.3870480954647064
1667266458887117300,1.170117431640625,0.5241833329200745,0.9453625082969666,0.40598437190055847
1667266458889515300,1.172515380859375,0.5186856985092163,0.993619441986084,0.42125552892684937
1667266458891913000,1.174912841796875,0.5113555192947388,1.0412654876708984,0.440802663564682
1667266458894311000,1.177310791015625,0.5064687132835388,1.08646821975708,0.45912808179855347
1667266458896708600,1.17970849609375,0.5015819668769836,1.1298383474349976,0.47806432843208313
1667266458899106600,1.1821064453125,0.5015819668769836,1.1664892435073853,0.49883314967155457
1667266458901504300,1.184504150390625,0.49913856387138367,1.1988641023635864,0.5177693963050842
1667266458903902000,1.18690185546875,0.49974942207336426,1.22390878200531,0.5360948443412781
1667266458906300000,1.1892998046875,0.5058578848838806,1.239790916442871,0.5550310611724854
1667266458908697600,1.191697509765625,0.5113555192947388,1.248342752456665,0.5739673376083374
1667266458911095600,1.194095458984375,0.5186856985092163,1.2477319240570068,0.5904602408409119
1667266458913493200,1.1964931640625,0.530902624130249,1.2385691404342651,0.6093965172767639
1667266458915891200,1.19889111328125,0.5480063557624817,1.2232979536056519,0.6258893609046936
1667266458918289000,1.201288818359375,0.5657209157943726,1.200696587562561,0.6411605477333069
1667266458920686600,1.2036865234375,0.5877113938331604,1.1719868183135986,0.6564317345619202
1667266458923084500,1.20608447265625,0.6103127598762512,1.1377793550491333,0.6710920929908752
1667266458925482200,1.208482177734375,0.6353574991226196,1.0980743169784546,0.6845307350158691
1667266458927880200,1.210880126953125,0.664678156375885,1.0492064952850342,0.6973584890365601
1667266458930278000,1.21327783203125,0.6933879852294922,0.9954519867897034,0.7083537578582764
1667266458932675800,1.21567578125,0.7214869856834412,0.9361997842788696,0.7205706834793091
1667266458935073500,1.218073486328125,0.7520293593406677,0.8714499473571777,0.7303442358970642
1667266458937471200,1.22047119140625,0.7807391285896301,0.8012025356292725,0.737750768661499
1667266458939869200,1.222869140625,0.8082273006439209,0.729733407497406,0.746913492679596
1667266458942267000,1.225266845703125,0.8357154130935669,0.6521558165550232,0.7554653286933899
1667266458944664800,1.227664794921875,0.8601493239402771,0.572745680809021,0.7640172243118286
1667266458947062500,1.2300625,0.8815289735794067,0.48844873905181885,0.7725690603256226
1667266458949460200,1.232460205078125,0.900465190410614,0.4053735136985779,0.7805100679397583
1667266458951858200,1.234858154296875,0.9151255488395691,0.31985488533973694,0.789061963558197
1667266458954256000,1.237255859375,0.9279533624649048,0.23494713008403778,0.797613799571991
1667266458956653800,1.23965380859375,0.9346726536750793,0.14637427031993866,0.8086090683937073
1667266458959051500,1.242051513671875,0.9377269148826599,0.06085565686225891,0.8171609044075012
1667266458961449500,1.244449462890625,0.9389485716819763,-0.020997874438762665,0.8263236284255981
1667266458963847200,1.24684716796875,0.93284010887146,-0.10101886838674545,0.8348754644393921
1667266458966244900,1.249244873046875,0.9224557280540466,-0.17737478017807007,0.8464815616607666
1667266458968642800,1.251642822265625,0.9084062576293945,-0.24701136350631714,0.8562551736831665
1667266458971040500,1.25404052734375,0.8894699811935425,-0.3080960810184479,0.8666395545005798
1667266458973438500,1.2564384765625,0.8711445331573486,-0.3679591119289398,0.8745805621147156
1667266458975836200,1.258836181640625,0.8503757119178772,-0.422324538230896,0.8825215697288513
1667266458978234000,1.261234130859375,0.8247201442718506,-0.4706578254699707,0.8922951221466064
1667266458980631800,1.2636318359375,0.8002862930297852,-0.5140279531478882,0.899625301361084
1667266458983029800,1.26602978515625,0.7770740985870361,-0.5512896776199341,0.9069554805755615
1667266458985427500,1.268427490234375,0.7569161057472229,-0.5891621708869934,0.9148964881896973
1667266458987825200,1.2708251953125,0.7349256277084351,-0.6215370893478394,0.9197832345962524
1667266458990223000,1.27322314453125,0.7111025452613831,-0.6551336646080017,0.922837495803833
1667266458992620800,1.275620849609375,0.6897228956222534,-0.689341127872467,0.9234483242034912
1667266458995018800,1.278018798828125,0.6671215891838074,-0.72599196434021,0.9240592122077942
1667266458997416400,1.28041650390625,0.6445202231407166,-0.7583668828010559,0.922837495803833
1667266458999814400,1.282814453125,0.6304707527160645,-0.7852441668510437,0.9234483242034912
1667266459002212000,1.285212158203125,0.6127561330795288,-0.8084563612937927,0.9197832345962524
1667266459004609800,1.28760986328125,0.5968741178512573,-0.8316685557365417,0.9179506897926331
1667266459007007700,1.2900078125,0.5785487294197083,-0.8524373769760132,0.9136747717857361
1667266459009405400,1.292405517578125,0.5614449977874756,-0.8713735938072205,0.9087880253791809
1667266459011803400,1.294803466796875,0.5449520945549011,-0.8896990418434143,0.9020686745643616
1667266459014201000,1.297201171875,0.5272375345230103,-0.9043593406677246,0.8965710401535034
1667266459016599000,1.29959912109375,0.5083012580871582,-0.9165763258934021,0.8922951221466064
1667266459018996700,1.301996826171875,0.48997586965560913,-0.9220739603042603,0.8837432861328125
1667266459021394700,1.304394775390625,0.47165045142173767,-0.9263498783111572,0.8758022785186768
1667266459023792400,1.30679248046875,0.4557684063911438,-0.9245173335075378,0.8690829277038574
1667266459026190000,1.309190185546875,0.4417189359664917,-0.9171871542930603,0.8635852932929993
1667266459028588000,1.311588134765625,0.4276694357395172,-0.9055810570716858,0.8538117408752441
1667266459030985700,1.31398583984375,0.4130091071128845,-0.8951966762542725,0.8428165316581726
1667266459033383700,1.3163837890625,0.39773792028427124,-0.8811471462249756,0.8324320912361145
1667266459035781400,1.318781494140625,0.38002336025238037,-0.8646543025970459,0.8238802552223206
1667266459038179300,1.321179443359375,0.3647521734237671,-0.846328854560852,0.8110524415969849
1667266459040577000,1.323576904296875,0.3519243896007538,-0.823116660118103,0.7982246279716492
1667266459042974700,1.325974609375,0.3354314863681793,-0.7962393760681152,0.7853968739509583
1667266459045372700,1.32837255859375,0.31954947113990784,-0.7675296068191528,0.7725690603256226
1667266459047770400,1.330770263671875,0.30549997091293335,-0.7437065243721008,0.7560762166976929
1667266459050168300,1.333168212890625,0.2865637242794037,-0.7192726731300354,0.7395833134651184
1667266459052566000,1.33556591796875,0.2706816792488098,-0.697892963886261,0.724846601486206
1667266459054963700,1.337963623046875,0.25052374601364136,-0.6795675754547119,0.7095754742622375
1667266459057361700,1.340361572265625,0.23586340248584747,-0.6606312990188599,0.6930825710296631
1667266459059759400,1.34275927734375,0.2205922156572342,-0.6410841941833496,0.6765896677970886
1667266459062157300,1.3451572265625,0.20348849892616272,-0.6258130073547363,0.6631510257720947
1667266459064555000,1.347554931640625,0.18760646879673004,-0.6093201637268066,0.6460473537445068
1667266459066953000,1.349952880859375,0.17233528196811676,-0.5952706336975098,0.6265002489089966
1667266459069350700,1.3523505859375,0.15828579664230347,-0.5842754244804382,0.6118398904800415
1667266459071748400,1.354748291015625,0.14484715461730957,-0.5720584392547607,0.5990120768547058
1667266459074146300,1.357146240234375,0.13507360219955444,-0.5604523420333862,0.5849626064300537
1667266459076544000,1.3595439453125,0.12285665422677994,-0.5494571328163147,0.5733565092086792
1667266459078942000,1.36194189453125,0.11247225105762482,-0.5372401475906372,0.5629721283912659
1667266459081339600,1.364339599609375,0.10453123599290848,-0.5231906771659851,0.5544202327728271
1667266459083737600,1.366737548828125,0.09842276573181152,-0.5018110275268555,0.549533486366272
1667266459086135300,1.36913525390625,0.09048175066709518,-0.4822639226913452,0.5428141355514526
1667266459088533000,1.371532958984375,0.08620581775903702,-0.4566083252429962,0.5391490459442139
1667266459090931000,1.373930908203125,0.08437328040599823,-0.43026554584503174,0.5348731279373169
1667266459093328600,1.37632861328125,0.07826480269432068,-0.3978906273841858,0.5330405831336975
1667266459095726600,1.3787265625,0.07765395939350128,-0.3581855595111847,0.5312080383300781
1667266459098124300,1.381124267578125,0.07276718318462372,-0.3148154020309448,0.5318188667297363
1667266459100522200,1.383522216796875,0.06971294432878494,-0.26900187134742737,0.5324297547340393
1667266459102920000,1.385919921875,0.06604786217212677,-0.21891239285469055,0.5305972099304199
1667266459105317600,1.388317626953125,0.06055023521184921,-0.1614927500486374,0.5324297547340393
1667266459107715600,1.390715576171875,0.053830914199352264,-0.09613208472728729,0.5336514115333557
1667266459110113300,1.39311328125,0.04650074616074562,-0.028938889503479004,0.5330405831336975
1667266459112511200,1.39551123046875,0.036727190017700195,0.043141089379787445,0.5342622995376587
1667266459114909000,1.397908935546875,0.026342788711190224,0.12071868777275085,0.5305972099304199
1667266459117307000,1.400306884765625,0.0165692325681448,0.19585290551185608,0.5269321203231812
1667266459119704600,1.40270458984375,0.00129805039614439,0.27648472785949707,0.5232670307159424
1667266459122102500,1.4051025390625,-0.011529741808772087,0.362003356218338,0.5177693963050842
1667266459124500200,1.407500244140625,-0.02557922899723053,0.4560738205909729,0.5110501050949097
1667266459126898000,1.40989794921875,-0.04085041210055351,0.549533486366272,0.5000548362731934
1667266459129296000,1.4122958984375,-0.05428905040025711,0.6399388313293457,0.49028128385543823
1667266459131693600,1.414693603515625,-0.07017108052968979,0.7315659523010254,0.4786751866340637
1667266459134091500,1.417091552734375,-0.08910734206438065,0.8201388120651245,0.4658474028110504
1667266459136489200,1.4194892578125,-0.10560022294521332,0.9026032090187073,0.45118704438209534
1667266459138887200,1.42188720703125,-0.12392564117908478,0.9789590835571289,0.43347248435020447
1667266459141284900,1.424284912109375,-0.14164020121097565,1.052871584892273,0.4163687527179718
1667266459143682800,1.426682861328125,-0.15752223134040833,1.1194539070129395,0.39621078968048096
1667266459146080500,1.42908056640625,-0.1727934181690216,1.182982087135315,0.3760528564453125
1667266459148478200,1.431478271484375,-0.18501035869121552,1.2404017448425293,0.3522298038005829
1667266459150876200,1.433876220703125,-0.19783815741539001,1.2831610441207886,0.3271850645542145
1667266459153273900,1.43627392578125,-0.20577916502952576,1.3210335969924927,0.30275118350982666
1667266459155671800,1.438671875,-0.21066594123840332,1.3485217094421387,0.27831727266311646
1667266459158069500,1.441069580078125,-0.2118876427412033,1.3674579858779907,0.25388339161872864
1667266459160467500,1.443467529296875,-0.21066594123840332,1.378453254699707,0.22761696577072144
1667266459162865200,1.445865234375,-0.20639002323150635,1.3833400011062622,0.20073968172073364
1667266459165262800,1.448262939453125,-0.1990598440170288,1.378453254699707,0.17386239767074585
1667266459167660800,1.450660888671875,-0.1874537467956543,1.3735663890838623,0.14942851662635803
1667266459170058500,1.45305859375,-0.174625962972641,1.3662362098693848,0.126216322183609
1667266459172456400,1.45545654296875,-0.1587439328432083,1.3534084558486938,0.1005607321858406
1667266459174854100,1.457854248046875,-0.13919681310653687,1.3356938362121582,0.0749051421880722
1667266459177251800,1.460251953125,-0.11537377536296844,1.316146731376648,0.05413633957505226
1667266459179649800,1.46264990234375,-0.09032903611660004,1.2978214025497437,0.03092414326965809
1667266459182047500,1.465047607421875,-0.06406260281801224,1.275830864906311,0.007711946498602629
1667266459184445400,1.467445556640625,-0.03229855000972748,1.2507860660552979,-0.013667707331478596
1667266459186843100,1.469843017578125,0.00007635590736754239,1.2275738716125488,-0.03382566571235657
1667266459189241000,1.472240966796875,0.03489464893937111,1.2068051099777222,-0.05215108394622803
1667266459191638800,1.474638671875,0.06971294432878494,1.1903122663497925,-0.07047650218009949
1667266459194036500,1.477036376953125,0.10514208674430847,1.1768735647201538,-0.08819106966257095
1667266459196434400,1.479434326171875,0.14362546801567078,1.1677109003067017,-0.10590564459562302
1667266459198832000,1.48183203125,0.1814979910850525,1.1634349822998047,-0.11995512992143631
1667266459201230000,1.48422998046875,0.22181391716003418,1.1609915494918823,-0.1358371526002884
1667266459203627800,1.486627685546875,0.2602972984313965,1.1652674674987793,-0.15233004093170166
1667266459206025700,1.489025634765625,0.2981698215007782,1.1695433855056763,-0.16454698145389557
1667266459208423400,1.49142333984375,0.3348206579685211,1.1738194227218628,-0.17981816828250885
1667266459210821000,1.493821044921875,0.37086063623428345,1.1762627363204956,-0.19081340730190277
1667266459213219000,1.496218994140625,0.41056570410728455,1.1799278259277344,-0.20486289262771606
1667266459215616800,1.49861669921875,0.4441623091697693,1.178706169128418,-0.21585814654827118
1667266459218014700,1.5010146484375,0.4795914590358734,1.1762627363204956,-0.22990763187408447
1667266459220412400,1.503412353515625,0.5131880640983582,1.1695433855056763,-0.2402920424938202
1667266459222810400,1.505810302734375,0.5431195497512817,1.1634349822998047,-0.24945475161075592
1667266459225208000,1.5082080078125,0.5699968338012695,1.1548831462860107,-0.25983914732933044
1667266459227605800,1.510605712890625,0.5950415730476379,1.1463311910629272,-0.27022355794906616
1667266459230003700,1.513003662109375,0.6188646554946899,1.13228178024292,-0.2781645655632019
1667266459232401400,1.5154013671875,0.6384117603302002,1.1231189966201782,-0.28671643137931824
1667266459234799400,1.51779931640625,0.6542937755584717,1.1072369813919067,-0.29771167039871216
1667266459237197000,1.520197021484375,0.6677324175834656,1.0937983989715576,-0.3068743944168091
1667266459239595000,1.522594970703125,0.6781167984008789,1.0797488689422607,-0.3184804916381836
1667266459241992700,1.52499267578125,0.6866686940193176,1.0626451969146729,-0.3288649022579193
1667266459244390700,1.527390625,0.6921663284301758,1.0449305772781372,-0.341081827878952
1667266459246788400,1.529788330078125,0.692777156829834,1.0272160768508911,-0.35146623849868774
1667266459249186000,1.53218603515625,0.6933879852294922,1.006447196006775,-0.36368319392204285
1667266459251584000,1.534583984375,0.6897228956222534,0.9862892627716064,-0.37712183594703674
1667266459253981700,1.536981689453125,0.6860578060150146,0.961244523525238,-0.38994961977005005
1667266459256379600,1.539379638671875,0.6793385148048401,0.933756411075592,-0.40338826179504395
1667266459258777300,1.54177734375,0.6726191639900208,0.9032140374183655,-0.41927027702331543
1667266459261175300,1.54417529296875,0.6658998727798462,0.864119827747345,-0.4363740086555481
1667266459263573000,1.546572998046875,0.6567371487617493,0.8238039016723633,-0.4504235088825226
1667266459265970700,1.548970703125,0.6469635963439941,0.7749360799789429,-0.4632512927055359
1667266459268368600,1.55136865234375,0.6396334171295166,0.7279008626937866,-0.47974416613578796
1667266459270766300,1.553766357421875,0.6341357827186584,0.6778113842010498,-0.49257194995880127
1667266459273164300,1.556164306640625,0.6286382079124451,0.6283327341079712,-0.505399763584137
1667266459275562000,1.55856201171875,0.6225296854972839,0.5812975168228149,-0.5206709504127502
1667266459277960000,1.5609599609375,0.6158103942871094,0.5354839563369751,-0.5322770476341248
1667266459280357600,1.563357666015625,0.6121453046798706,0.498222291469574,-0.5389963388442993
1667266459282755300,1.56575537109375,0.6084802150726318,0.46157145500183105,-0.5493807792663574
1667266459285153300,1.5681533203125,0.6048151254653931,0.4279748499393463,-0.5554892420768738
1667266459287551000,1.570551025390625,0.6005392074584961,0.3992650508880615,-0.5585434436798096
1667266459289949000,1.572948974609375,0.5944307446479797,0.37299859523773193,-0.5622085332870483
1667266459292346600,1.5753466796875,0.5889331102371216,0.3510081171989441,-0.5634302496910095
1667266459294744600,1.57774462890625,0.5834354758262634,0.33085015416145325,-0.5628194212913513
1667266459297142300,1.580142333984375,0.5754944682121277,0.3137464225292206,-0.5573217868804932
1667266459299540000,1.5825400390625,0.5669426321983337,0.2984752357006073,-0.5542675256729126
1667266459301938000,1.58493798828125,0.5565581917762756,0.285647451877594,-0.5463265180587769
1667266459304335600,1.587335693359375,0.5412870049476624,0.2679328918457031,-0.5347204208374023
1667266459306733600,1.589733642578125,0.5290700793266296,0.25388339161872864,-0.524336040019989
1667266459309131300,1.59213134765625,0.5156314373016357,0.23433628678321838,-0.5102865099906921
1667266459311529200,1.594529296875,0.5003602504730225,0.21295662224292755,-0.49562618136405945
1667266459313927000,1.596927001953125,0.484478235244751,0.19035527110099792,-0.4791333079338074
1667266459316324600,1.59932470703125,0.4649311304092407,0.16347800195217133,-0.4614187479019165
1667266459318722600,1.60172265625,0.44721654057502747,0.1402658075094223,-0.44064992666244507
1667266459321120300,1.604120361328125,0.4295019805431366,0.11644276231527328,-0.4211028218269348
1667266459323518200,1.606518310546875,0.40934401750564575,0.09200886636972427,-0.40155571699142456
1667266459325916000,1.608916015625,0.3885752260684967,0.06940752267837524,-0.37467843294143677
1667266459328313900,1.61131396484375,0.36841726303100586,0.05047125369310379,-0.35146623849868774
1667266459330711600,1.613711669921875,0.348259299993515,0.031534988433122635,-0.3270323574542999
1667266459333109200,1.616109130859375,0.32932302355766296,0.015042114071547985,-0.29954421520233154
1667266459335507200,1.618507080078125,0.30733251571655273,-0.00022906772210262716,-0.27083441615104675
1667266459337905000,1.62090478515625,0.2859528660774231,-0.01122431829571724,-0.24334627389907837
1667266459340302800,1.623302734375,0.26518407464027405,-0.019776180386543274,-0.2121930718421936
1667266459342700500,1.625700439453125,0.24258272349834442,-0.02832804247736931,-0.18409408628940582
1667266459345098500,1.628098388671875,0.2205922156572342,-0.038101598620414734,-0.15660595893859863
1667266459347496200,1.63049609375,0.194325789809227,-0.0429883748292923,-0.12911784648895264
1667266459349894000,1.632893798828125,0.16989189386367798,-0.04787515476346016,-0.10162971168756485
1667266459352291800,1.635291748046875,0.1417929232120514,-0.05276193097233772,-0.07658497244119644
1667266459354689500,1.637689453125,0.11735902726650238,-0.05825955793261528,-0.05031854286789894
1667266459357087500,1.64008740234375,0.0886492058634758,-0.060092099010944366,-0.027717193588614464
1667266459359485200,1.642485107421875,0.06116108223795891,-0.058870404958724976,-0.007559234742075205
1667266459361883100,1.644883056640625,0.03489464893937111,-0.05825955793261528,0.011987877078354359
1667266459364280800,1.64728076171875,0.0067956759594380856,-0.048486001789569855,0.026037365198135376
1667266459366678500,1.649678466796875,-0.01885990984737873,-0.03504735976457596,0.04008685052394867
1667266459369076500,1.652076416015625,-0.04634803533554077,-0.014278554357588291,0.05047125369310379
1667266459371474200,1.65447412109375,-0.07139277458190918,0.009544488042593002,0.059023115783929825
1667266459373872000,1.6568720703125,-0.0946049690246582,0.03825430944561958,0.06574243307113647
1667266459376269800,1.659269775390625,-0.11598462611436844,0.06757497787475586,0.06879667192697525
1667266459378667800,1.661667724609375,-0.1349208950996399,0.09872818738222122,0.06879667192697525
1667266459381065500,1.6640654296875,-0.15202461183071136,0.1268271654844284,0.07001836597919464
1667266459383463400,1.66646337890625,-0.16607409715652466,0.14942851662635803,0.06757497787475586
1667266459385861000,1.668861083984375,-0.17829103767871857,0.1659213900566101,0.060244809836149216
1667266459388258800,1.6712587890625,-0.1868429034948349,0.17569494247436523,0.05291464552283287
1667266459390656800,1.67365673828125,-0.19356222450733185,0.17508409917354584,0.041919391602277756
1667266459393054500,1.676054443359375,-0.1996707022190094,0.16408884525299072,0.030313294380903244
1667266459395452400,1.678452392578125,-0.2015032321214676,0.14270919561386108,0.016874656081199646
1667266459397850000,1.68085009765625,-0.2008923888206482,0.1139993667602539,0.0016034740256145597
1667266459400248000,1.683248046875,-0.1996707022190094,0.08101361989974976,-0.015500249341130257
1667266459402645800,1.685645751953125,-0.19661645591259003,0.041919391602277756,-0.03565821051597595
1667266459405043500,1.68804345703125,-0.19172967970371246,-0.0014507622690871358,-0.05459447205066681
1667266459407441400,1.69044140625,-0.1862320601940155,-0.048486001789569855,-0.07475243508815765
1667266459409839000,1.692839111328125,-0.17706935107707977,-0.09979717433452606,-0.09796462953090668
1667266459412237000,1.695237060546875,-0.16607409715652466,-0.15110833942890167,-0.11995512992143631
1667266459414634800,1.697634765625,-0.15446799993515015,-0.20486289262771606,-0.14194563031196594
1667266459417032700,1.70003271484375,-0.14225105941295624,-0.25983914732933044,-0.1621035933494568
1667266459419430400,1.702430419921875,-0.12942326068878174,-0.31298285722732544,-0.18348324298858643
1667266459421828000,1.704828125,-0.11476293206214905,-0.366737425327301,-0.20669543743133545
1667266459424226000,1.70722607421875,-0.09949174523353577,-0.41743773221969604,-0.22929678857326508
1667266459426623700,1.709623779296875,-0.08483141660690308,-0.4712686538696289,-0.24945475161075592
1667266459429021700,1.712021728515625,-0.07505785673856735,-0.5238015055656433,-0.26900187134742737
1667266459431419400,1.71441943359375,-0.06467345356941223,-0.5726693272590637,-0.2891598343849182
1667266459433817300,1.7168173828125,-0.052456509321928024,-0.6209262609481812,-0.3050418496131897
1667266459436215000,1.719215087890625,-0.04695888236165047,-0.670404851436615,-0.32458895444869995
1667266459438612700,1.72161279296875,-0.0420721061527729,-0.7131641507148743,-0.33924928307533264
1667266459441010700,1.7240107421875,-0.03840702027082443,-0.7553126215934753,-0.35207709670066833
1667266459443408400,1.726408447265625,-0.03901786729693413,-0.7901309132575989,-0.36612656712532043
1667266459445806300,1.728806396484375,-0.043293800204992294,-0.8194515705108643,-0.37956520915031433
1667266459448204000,1.7312041015625,-0.04940227046608925,-0.8420529365539551,-0.38933876156806946
1667266459450602000,1.73360205078125,-0.05795413255691528,-0.8591566681861877,-0.3972797989845276
1667266459452999700,1.735999755859375,-0.06772769242525101,-0.8670976758003235,-0.4064424932003021
1667266459455397400,1.7383974609375,-0.0811663269996643,-0.8719844818115234,-0.41499435901641846
1667266459457795300,1.74079541015625,-0.0958266630768776,-0.8670976758003235,-0.419881135225296
1667266459460193000,1.743193115234375,-0.11170869320631027,-0.8609892129898071,-0.4235462248325348
1667266459462591000,1.745591064453125,-0.13003410398960114,-0.8499939441680908,-0.4253787696361542
1667266459464988700,1.74798876953125,-0.1459161341190338,-0.8353336453437805,-0.42782214283943176
1667266459467386400,1.750386474609375,-0.16363070905208588,-0.818840742111206,-0.42782214283943176
1667266459469784300,1.752784423828125,-0.18134528398513794,-0.8029587268829346,-0.42843300104141235
1667266459472182000,1.75518212890625,-0.1984490007162094,-0.7852441668510437,-0.43026554584503174
1667266459474580000,1.757580078125,-0.21799612045288086,-0.7663078904151917,-0.42782214283943176
1667266459476977700,1.759977783203125,-0.23387815058231354,-0.749204158782959,-0.42782214283943176
1667266459479375600,1.762375732421875,-0.250981867313385,-0.7308787703514099,-0.4259895980358124
1667266459481773300,1.764773193359375,-0.2674747407436371,-0.7143858671188354,-0.42721131443977356
1667266459484171000,1.7671708984375,-0.28396761417388916,-0.6954495906829834,-0.42660045623779297
1667266459486569000,1.76956884765625,-0.3011476993560791,-0.6820109486579895,-0.4253787696361542
1667266459488966700,1.771966552734375,-0.3164188861846924,-0.671015739440918,-0.42660045623779297
1667266459491364600,1.774364501953125,-0.3310792148113251,-0.6600204706192017,-0.42904382944107056
1667266459493762300,1.77676220703125,-0.34940463304519653,-0.647803544998169,-0.4333197772502899
1667266459496160300,1.77916015625,-0.3671191930770874,-0.6368082761764526,-0.4375956952571869
1667266459498558000,1.781557861328125,-0.3830012381076813,-0.6252021789550781,-0.44309332966804504
1667266459500956000,1.783955810546875,-0.40010493993759155,-0.6117635369300842,-0.4492017924785614
1667266459503353600,1.786353515625,-0.41476529836654663,-0.5995466113090515,-0.45531028509140015
1667266459505751300,1.788751220703125,-0.4318690001964569,-0.5836645364761353,-0.4644729793071747
1667266459508149200,1.791149169921875,-0.4477510452270508,-0.5696150660514832,-0.4718031585216522
1667266459510547000,1.793546875,-0.46302223205566406,-0.5537330508232117,-0.48035502433776855
1667266459512945000,1.79594482421875,-0.47768256068229675,-0.536629319190979,-0.4901285767555237
1667266459515342600,1.798342529296875,-0.49417543411254883,-0.5201364159584045,-0.5023455023765564
1667266459517740500,1.800740478515625,-0.5070032477378845,-0.4975350797176361,-0.5108973979949951
1667266459520138200,1.80313818359375,-0.5198310017585754,-0.47737714648246765,-0.5231143236160278
1667266459522536000,1.805535888671875,-0.53143709897995,-0.45172154903411865,-0.5316661596298218
1667266459524934000,1.807933837890625,-0.5430431962013245,-0.4235462248325348,-0.5457156896591187
1667266459527331600,1.81033154296875,-0.5485408306121826,-0.3991123139858246,-0.556100070476532
1667266459529729500,1.8127294921875,-0.5540384650230408,-0.3697916567325592,-0.5640410780906677
1667266459532127200,1.815127197265625,-0.5570927262306213,-0.33863845467567444,-0.5725929737091064
1667266459534525200,1.817525146484375,-0.555260181427002,-0.3080960810184479,-0.583588182926178
1667266459536923000,1.8199228515625,-0.5522059202194214,-0.2769428789615631,-0.5921400785446167
1667266459539320600,1.822320556640625,-0.5448757410049438,-0.24823305010795593,-0.5982485413551331
1667266459541718500,1.824718505859375,-0.5344913601875305,-0.22074492275714874,-0.606800377368927
1667266459544116200,1.8271162109375,-0.5241069197654724,-0.19631104171276093,-0.6086329221725464
1667266459546514200,1.82951416015625,-0.5112791657447815,-0.1730988472700119,-0.6135197281837463
1667266459548911900,1.831911865234375,-0.4953971207141876,-0.15294088423252106,-0.6190173625946045
1667266459551309800,1.834309814453125,-0.47646087408065796,-0.13644801080226898,-0.6196281909942627
1667266459553707500,1.83670751953125,-0.4593571424484253,-0.12300936877727509,-0.6202390193939209
1667266459556105500,1.83910546875,-0.43614494800567627,-0.11140327155590057,-0.6220715641975403
1667266459558503200,1.841503173828125,-0.41415444016456604,-0.10162971168756485,-0.6190173625946045
1667266459560900900,1.84390087890625,-0.393385648727417,-0.09613208472728729,-0.6184064745903015
1667266459563298800,1.846298828125,-0.3658975064754486,-0.09002361446619034,-0.6141305565834045
1667266459565696500,1.848696533203125,-0.3414636254310608,-0.08880192041397095,-0.6080220937728882
1667266459568094500,1.851094482421875,-0.3176405727863312,-0.08941277116537094,-0.6013027429580688
1667266459570492200,1.8534921875,-0.2900761067867279,-0.09246700257062912,-0.5958051681518555
1667266459572890000,1.85589013671875,-0.2656421959400177,-0.0955212414264679,-0.5854207277297974
1667266459575287800,1.858287841796875,-0.24181915819644928,-0.09857547283172607,-0.5774797201156616
1667266459577685500,1.860685546875,-0.22043950855731964,-0.10346225649118423,-0.5664844512939453
1667266459580083500,1.86308349609375,-0.20211409032344818,-0.1077381819486618,-0.5536566972732544
1667266459582481200,1.865481201171875,-0.18317782878875732,-0.11079242080450058,-0.5432722568511963
1667266459584879000,1.867879150390625,-0.16607409715652466,-0.11384665966033936,-0.5310553312301636
1667266459587276800,1.87027685546875,-0.15080291032791138,-0.11262496560811996,-0.5194492340087891
1667266459589674500,1.872674560546875,-0.13858596980571747,-0.1083490327000618,-0.5066214203834534
1667266459592072400,1.875072509765625,-0.13125580549240112,-0.10651648789644241,-0.49684789776802063
1667266459594470100,1.87747021484375,-0.12270393967628479,-0.10224056243896484,-0.48279839754104614
1667266459596868000,1.8798681640625,-0.11598462611436844,-0.0949103906750679,-0.4724139869213104
1667266459599265800,1.882265869140625,-0.11537377536296844,-0.08513683825731277,-0.45775365829467773
1667266459601663700,1.884663818359375,-0.11476293206214905,-0.07719582319259644,-0.4467584192752838
1667266459604061400,1.8870615234375,-0.11720632016658783,-0.06497887521982193,-0.4363740086555481
1667266459606459100,1.889459228515625,-0.11781716346740723,-0.049707695841789246,-0.4235462248325348
1667266459608857000,1.891857177734375,-0.12392564117908478,-0.03443651273846626,-0.41377267241477966
1667266459611254800,1.8942548828125,-0.12820157408714294,-0.017332790419459343,-0.40399911999702454
1667266459613652700,1.89665283203125,-0.1343100368976593,-0.004504998680204153,-0.3972797989845276
1667266459616050400,1.899050537109375,-0.14164020121097565,0.008322793990373611,-0.38933876156806946
1667266459618448400,1.901448486328125,-0.1477486789226532,0.018707197159528732,-0.3838411569595337
1667266459620846000,1.90384619140625,-0.15446799993515015,0.023593975231051445,-0.37773266434669495
1667266459623243800,1.906243896484375,-0.16607409715652466,0.02542651630938053,-0.373456746339798
1667266459625641700,1.908641845703125,-0.17157171666622162,0.022372281178832054,-0.3697916567325592
1667266459628039400,1.911039306640625,-0.17951273918151855,0.016874656081199646,-0.3679591119289398
1667266459630437400,1.913437255859375,-0.18867544829845428,0.010155336000025272,-0.3691807985305786
1667266459632835000,1.9158349609375,-0.19722731411457062,-0.0008399150101467967,-0.3679591119289398
1667266459635233000,1.91823291015625,-0.20577916502952576,-0.016111096367239952,-0.36612656712532043
1667266459637630700,1.920630615234375,-0.2124984860420227,-0.026495499536395073,-0.36612656712532043
1667266459640028400,1.9230283203125,-0.22227205336093903,-0.038101598620414734,-0.366737425327301
1667266459642426400,1.92542626953125,-0.23204560577869415,-0.04665346071124077,-0.36612656712532043
1667266459644824000,1.927823974609375,-0.2393757700920105,-0.050929389894008636,-0.36490488052368164
1667266459647222000,1.930221923828125,-0.24853847920894623,-0.05031854286789894,-0.36368319392204285
1667266459649619700,1.93261962890625,-0.2546469569206238,-0.04665346071124077,-0.36123979091644287
1667266459652017700,1.935017578125,-0.26014456152915955,-0.041766680777072906,-0.3575747013092041
1667266459654415400,1.937415283203125,-0.2668638825416565,-0.03504735976457596,-0.3557421863079071
1667266459656813000,1.93981298828125,-0.27175068855285645,-0.02832804247736931,-0.34841200709342957
1667266459659211000,1.9422109375,-0.27358320355415344,-0.02405211143195629,-0.3423035442829132
1667266459661608700,1.944608642578125,-0.2760266065597534,-0.02405211143195629,-0.33558422327041626
1667266459664006700,1.947006591796875,-0.2748049199581146,-0.028938889503479004,-0.3270323574542999
1667266459666404400,1.949404296875,-0.27358320355415344,-0.03871244564652443,-0.317869633436203
1667266459668802300,1.95180224609375,-0.27297237515449524,-0.050929389894008636,-0.3068743944168091
1667266459671200000,1.954199951171875,-0.26930728554725647,-0.06497887521982193,-0.2940466105937958
1667266459673597700,1.95659765625,-0.2656421959400177,-0.07475243508815765,-0.2818296551704407
1667266459675995600,1.95899560546875,-0.2613662779331207,-0.08330429345369339,-0.2665584683418274
1667266459678393300,1.961393310546875,-0.25770118832588196,-0.09063446521759033,-0.2531198263168335
1667266459680791300,1.963791259765625,-0.255257785320282,-0.09307785332202911,-0.2384594976902008
1667266459683189000,1.96618896484375,-0.255257785320282,-0.09124530851840973,-0.22379916906356812
1667266459685587000,1.9685869140625,-0.2503710091114044,-0.08819106966257095,-0.20791713893413544
1667266459687984600,1.970984619140625,-0.24853847920894623,-0.082082599401474,-0.19447849690914154
1667266459690382300,1.97338232421875,-0.24609509110450745,-0.07169819623231888,-0.17859646677970886
1667266459692780300,1.9757802734375,-0.24487338960170746,-0.060092099010944366,-0.16454698145389557
1667266459695178000,1.978177978515625,-0.24487338960170746,-0.044820915907621384,-0.15049749612808228
1667266459697576000,1.980575927734375,-0.24548424780368805,-0.03077143058180809,-0.13889139890670776
1667266459699973600,1.9829736328125,-0.24365170300006866,-0.019776180386543274,-0.12911784648895264
1667266459702371600,1.98537158203125,-0.24181915819644928,-0.008170082233846188,-0.11873343586921692
1667266459704769300,1.987769287109375,-0.24304085969924927,0.004046862944960594,-0.11018157750368118
1667266459707167000,1.9901669921875,-0.24120831489562988,0.013209572061896324,-0.10040801763534546
1667266459709565000,1.99256494140625,-0.2393757700920105,0.018707197159528732,-0.0949103906750679
1667266459711962600,1.994962646484375,-0.23387815058231354,0.024815669283270836,-0.08819106966257095
1667266459714360600,1.997360595703125,-0.22899135947227478,0.03458922728896141,-0.08452598750591278
1667266459716758300,1.99975830078125,-0.22349373996257782,0.04558447748422623,-0.0814717561006546
1667266459719156200,2.00215625,-0.21738526225090027,0.053525492548942566,-0.07780666649341583
1667266459721554000,2.004553955078125,-0.20822255313396454,0.060244809836149216,-0.07719582319259644
1667266459723951600,2.00695166015625,-0.1990598440170288,0.07185091078281403,-0.07597412914037704
1667266459726349600,2.009349609375,-0.1874537467956543,0.0877329409122467,-0.07414158433675766
1667266459728747300,2.011747314453125,-0.17645850777626038,0.1023932695388794,-0.07658497244119644
1667266459731145200,2.014145263671875,-0.16607409715652466,0.11766445636749268,-0.07841751724481583
1667266459733543000,2.01654296875,-0.15507884323596954,0.13598987460136414,-0.08025006204843521
1667266459735940900,2.01894091796875,-0.13980767130851746,0.1530935913324356,-0.08391514420509338
1667266459738338600,2.021338623046875,-0.12881241738796234,0.1689756214618683,-0.08758022636175156
1667266459740736500,2.023736572265625,-0.11231953650712967,0.1787491738796234,-0.08941277116537094
1667266459743134200,2.02613427734375,-0.09949174523353577,0.1799708753824234,-0.09307785332202911
1667266459745532000,2.028531982421875,-0.08544225990772247,0.17569494247436523,-0.09613208472728729
1667266459747929900,2.030929931640625,-0.06711684167385101,0.16408884525299072,-0.10101886838674545
1667266459750327600,2.03332763671875,-0.05184566229581833,0.14515258371829987,-0.10224056243896484
1667266459752725500,2.0357255859375,-0.03779617324471474,0.12499462068080902,-0.10346225649118423
1667266459755123200,2.038123291015625,-0.02802261710166931,0.10178242623806,-0.10529479384422302
1667266459757521200,2.040521240234375,-0.01763821393251419,0.07979192584753036,-0.10590564459562302
1667266459759918800,2.0429189453125,-0.005421269219368696,0.0626882016658783,-0.10651648789644241
1667266459762316500,2.045316650390625,0.0025197449140250683,0.04558447748422623,-0.10712733864784241
1667266459764714500,2.047714599609375,0.009849912486970425,0.03458922728896141,-0.1077381819486618
1667266459767112200,2.0501123046875,0.015347537584602833,0.02053973823785782,-0.1077381819486618
1667266459769510100,2.05251025390625,0.01779092662036419,0.01626380905508995,-0.10651648789644241
1667266459771907800,2.054907958984375,0.020845163613557816,0.009544488042593002,-0.10590564459562302
1667266459774305500,2.057305419921875,0.02145601063966751,0.007711946498602629,-0.10468395054340363
1667266459776703500,2.059703369140625,0.023288551717996597,0.005268557462841272,-0.10407309979200363
1667266459779101200,2.06210107421875,0.026342788711190224,-0.00022906772210262716,-0.10529479384422302
1667266459781499100,2.0644990234375,0.026342788711190224,-0.0038941511884331703,-0.10468395054340363
1667266459783896800,2.066896728515625,0.02817532978951931,-0.009391776286065578,-0.10468395054340363
