time,seconds_elapsed,z,y,x
1667267006097643300,0.108643310546875,8.599505424499512,0.4812564551830292,0.2273181527853012
1667267006100041000,0.111041015625,8.700303077697754,0.4453641176223755,0.21774685382843018
1667267006102438700,0.113438720703125,8.796015739440918,0.42382872104644775,0.19142581522464752
1667267006104836400,0.11583642578125,8.879764556884766,0.368793785572052,0.18424734473228455
1667267006107234300,0.118234375,8.944371223449707,0.31854450702667236,0.14117653667926788
1667267006109632000,0.120632080078125,8.989834785461426,0.22492532432079315,0.10049854964017868
1667267006112029700,0.12302978515625,9.006584167480469,0.19621145725250244,0.06939185410737991
1667267006114427400,0.125427490234375,9.042476654052734,0.20817556977272034,0.07417750358581543
1667267006116825300,0.127825439453125,9.040083885192871,0.22013968229293823,0.04307080805301666
1667267006119223000,0.13022314453125,9.066405296325684,0.24167509377002716,0.01196411345154047
1667267006121620700,0.132620849609375,9.075976371765137,0.275174617767334,-0.014356935396790504
1667267006124018400,0.135018310546875,9.114261627197266,0.3161516785621643,-0.031106693670153618
1667267006126416100,0.137416015625,9.198010444641113,0.35443684458732605,-0.02153540402650833
1667267006128814000,0.13981396484375,9.274879455566406,0.4166502356529236,-0.014356935396790504
1667267006131211800,0.142211669921875,9.361021041870117,0.45972105860710144,-0.004785645287483931
1667267006133609500,0.144609375,9.437591552734375,0.4980062246322632,0.02632104977965355
1667267006136007200,0.147007080078125,9.51176929473877,0.5410770177841187,0.064606212079525
1667267006138405000,0.149405029296875,9.576375007629395,0.5889334678649902,0.08853443711996078
1667267006140802800,0.151802734375,9.626625061035156,0.6080760359764099,0.11724831163883209
1667267006143200500,0.154200439453125,9.63619613647461,0.6272186636924744,0.14356936514377594
1667267006145598200,0.15659814453125,9.660123825073242,0.6511468887329102,0.16510476171970367
1667267006147996000,0.158995849609375,9.662516593933105,0.6607181429862976,0.1818545162677765
1667267006150393900,0.161393798828125,9.664909362792969,0.675075113773346,0.17706887423992157
1667267006152791600,0.16379150390625,9.679266929626465,0.6774678826332092,0.1698904037475586
1667267006155189200,0.166189208984375,9.674481391906738,0.6535396575927734,0.1579262912273407
1667267006157587000,0.1685869140625,9.667302131652832,0.6607181429862976,0.16031911969184875
1667267006159985000,0.17098486328125,9.640981674194336,0.6631109714508057,0.1459621787071228
1667267006162382600,0.173382568359375,9.621838569641113,0.675075113773346,0.12921242415905
1667267006164780300,0.1757802734375,9.607481956481934,0.6798607110977173,0.11246266216039658
1667267006167178000,0.178177978515625,9.60508918762207,0.6870391964912415,0.10289137065410614
1667267006169576000,0.180575927734375,9.609874725341797,0.6822535395622253,0.08614161610603333
1667267006171973600,0.1829736328125,9.617053031921387,0.6918248534202576,0.08614161610603333
1667267006174371300,0.185371337890625,9.662516593933105,0.6918248534202576,0.11006984114646912
1667267006176769000,0.18776904296875,9.684052467346191,0.6822535395622253,0.1052841991186142
1667267006179167000,0.1901669921875,9.719944953918457,0.701396107673645,0.14835500717163086
1667267006181564700,0.192564697265625,9.770194053649902,0.7277171611785889,0.19381862878799438
1667267006183962400,0.19496240234375,9.796515464782715,0.7444669604301453,0.24406790733337402
1667267006186360000,0.197360107421875,9.856635093688965,0.7636095285415649,0.2946162819862366
1667267006188757800,0.1997578125,9.92124080657959,0.7612167000770569,0.33050861954689026
1667267006191155700,0.20215576171875,9.993025779724121,0.766002357006073,0.37118661403656006
1667267006193553400,0.204553466796875,10.057631492614746,0.7564310431480408,0.40229329466819763
1667267006195951000,0.206951171875,10.141380310058594,0.7468597888946533,0.4262215197086334
1667267006198348800,0.209348876953125,10.208379745483398,0.7229315638542175,0.4262215197086334
1667267006200746800,0.211746826171875,10.244272232055664,0.6870391964912415,0.4286143481731415
1667267006203144400,0.21414453125,10.284950256347656,0.6774678826332092,0.40229329466819763
1667267006205542100,0.216542236328125,10.304092407226562,0.6583253145217896,0.37836506962776184
1667267006207939800,0.21893994140625,10.311270713806152,0.6487540602684021,0.3233301639556885
1667267006210337500,0.221337646484375,10.318449020385742,0.6272186636924744,0.28504499793052673
1667267006212735500,0.223735595703125,10.304092407226562,0.6200401782989502,0.22971096634864807
1667267006215133200,0.22613330078125,10.3016996383667,0.6008976101875305,0.16749759018421173
1667267006217531000,0.22853076171875,10.26341438293457,0.610468864440918,0.12203395366668701
1667267006219928600,0.230928466796875,10.234700202941895,0.6152545213699341,0.08374879509210587
1667267006222326500,0.233326416015625,10.201201438903809,0.6056832075119019,0.05742774158716202
1667267006224724200,0.23572412109375,10.167701721191406,0.5889334678649902,0.038285162299871445
1667267006227122000,0.238121826171875,10.115059852600098,0.5410770177841187,-0.01196411345154047
1667267006229519600,0.24051953125,10.071989059448242,0.5171487927436829,-0.019142581149935722
1667267006231917300,0.242917236328125,10.033703804016113,0.48364928364753723,-0.02632104977965355
1667267006234315300,0.245315185546875,9.997811317443848,0.4334000051021576,-0.02632104977965355
1667267006236713000,0.247712890625,9.959526062011719,0.40707895159721375,0.004785645287483931
1667267006239110700,0.250110595703125,9.916455268859863,0.3735794425010681,0.02871387079358101
1667267006241508400,0.25250830078125,9.856635093688965,0.34725838899612427,0.0526420995593071
1667267006243906300,0.25490625,9.803693771362305,0.32572299242019653,0.07417750358581543
1667267006246304000,0.257303955078125,9.74387264251709,0.2994019389152527,0.11485548317432404
1667267006248701700,0.25970166015625,9.688838005065918,0.28983065485954285,0.10767702013254166
1667267006251099400,0.262099365234375,9.633803367614746,0.30179476737976074,0.12442677468061447
1667267006253497300,0.264497314453125,9.59073257446289,0.31854450702667236,0.14356936514377594
1667267006255895000,0.26689501953125,9.552447319030762,0.33050861954689026,0.1339980661869049
1667267006258292700,0.269292724609375,9.523733139038086,0.3329014480113983,0.12681959569454193
1667267006260690400,0.2716904296875,9.50459098815918,0.3520440459251404,0.13639089465141296
1667267006263088400,0.27408837890625,9.506983757019043,0.385543555021286,0.1339980661869049
1667267006265486000,0.276486083984375,9.550054550170898,0.38793638348579407,0.11724831163883209
1667267006267883800,0.2788837890625,9.564411163330078,0.4142574071884155,0.11724831163883209
1667267006270281500,0.281281494140625,9.566803932189941,0.4142574071884155,0.10049854964017868
1667267006272679200,0.28367919921875,9.571589469909668,0.41904306411743164,0.0933200865983963
1667267006275077000,0.2860771484375,9.559625625610352,0.4573282301425934,0.08614161610603333
1667267006277474800,0.288474853515625,9.562018394470215,0.46450668573379517,0.07896314561367035
1667267006279872500,0.29087255859375,9.581160545349121,0.47168517112731934,0.05503492057323456
1667267006282270200,0.293270263671875,9.571589469909668,0.5027918815612793,0.031106693670153618
1667267006284668000,0.29566796875,9.564411163330078,0.48364928364753723,0.014356935396790504
1667267006287065900,0.29806591796875,9.552447319030762,0.4788636267185211,-0.016749758273363113
1667267006289463600,0.300463623046875,9.559625625610352,0.4788636267185211,-0.040677983313798904
1667267006291861200,0.302861328125,9.573982238769531,0.4812564551830292,-0.06699903309345245
1667267006294259000,0.305259033203125,9.571589469909668,0.4740779995918274,-0.06699903309345245
1667267006296657000,0.307656982421875,9.578767776489258,0.4812564551830292,-0.0933200865983963
1667267006299054600,0.3100546875,9.593125343322754,0.4980062246322632,-0.11246266216039658
1667267006301452300,0.312452392578125,9.607481956481934,0.5291129350662231,-0.12203395366668701
1667267006303850000,0.31485009765625,9.650552749633789,0.5386841893196106,-0.15074782073497772
1667267006306247700,0.31724755859375,9.674481391906738,0.5602195858955383,-0.1866401731967926
1667267006308645600,0.319645751953125,9.710372924804688,0.6032904386520386,-0.20817556977272034
1667267006311043300,0.322043212890625,9.746265411376953,0.6511468887329102,-0.23449662327766418
1667267006313441000,0.32444091796875,9.786943435668945,0.675075113773346,-0.2727817893028259
1667267006315838700,0.326838623046875,9.806086540222168,0.6918248534202576,-0.3161516785621643
1667267006318236700,0.329236572265625,9.818050384521484,0.7085745930671692,-0.37597227096557617
1667267006320634400,0.33163427734375,9.818050384521484,0.7396813035011292,-0.42382872104644775
1667267006323032000,0.334031982421875,9.830313682556152,0.7468597888946533,-0.4621138870716095
1667267006325429800,0.3364296875,9.839884757995605,0.7564310431480408,-0.5147559642791748
1667267006327827700,0.33882763671875,9.873384475708008,0.7516453862190247,-0.5482555031776428
1667267006330225400,0.341225341796875,9.870991706848145,0.7731808423995972,-0.579362154006958
1667267006332623000,0.343623046875,9.863813400268555,0.7851449251174927,-0.6008976101875305
1667267006335020800,0.346020751953125,9.849455833435059,0.7755736112594604,-0.6032904386520386
1667267006337418800,0.348418701171875,9.815657615661621,0.7851449251174927,-0.5889334678649902
1667267006339816400,0.35081640625,9.786943435668945,0.7899305820465088,-0.579362154006958
1667267006342214100,0.353214111328125,9.75344467163086,0.797109067440033,-0.5315057039260864
1667267006344611800,0.35561181640625,9.71515941619873,0.7995018362998962,-0.5027918815612793
1667267006347009500,0.358009521484375,9.672088623046875,0.7851449251174927,-0.48364928364753723
1667267006349407500,0.360407470703125,9.638588905334473,0.7803592681884766,-0.44775694608688354
1667267006351805200,0.36280517578125,9.600303649902344,0.7636095285415649,-0.4262215197086334
1667267006354203000,0.365202880859375,9.588339805603027,0.768395185470581,-0.41904306411743164
1667267006356600600,0.3676005859375,9.59073257446289,0.7923234105110168,-0.4142574071884155
1667267006358998500,0.36999853515625,9.59073257446289,0.8282157182693481,-0.3927220106124878
1667267006361396200,0.372396240234375,9.559625625610352,0.8524430394172668,-0.42382872104644775
1667267006363794000,0.3747939453125,9.542876243591309,0.8715856671333313,-0.4262215197086334
1667267006366191600,0.377191650390625,9.535696983337402,0.8955138921737671,-0.4094717800617218
1667267006368589300,0.37958935546875,9.521340370178223,0.9146564602851868,-0.40229329466819763
1667267006370987300,0.3819873046875,9.50459098815918,0.8955138921737671,-0.41186460852622986
1667267006373385000,0.384385009765625,9.463912963867188,0.9050851464271545,-0.41186460852622986
1667267006375782700,0.38678271484375,9.439984321594238,0.893121063709259,-0.4214358925819397
1667267006378180400,0.389180419921875,9.416056632995605,0.8668000102043152,-0.43100717663764954
1667267006380578300,0.391578369140625,9.413662910461426,0.8500502705574036,-0.4668995141983032
1667267006382976000,0.39397607421875,9.4088773727417,0.8500502705574036,-0.5027918815612793
1667267006385373700,0.396373779296875,9.406484603881836,0.8401798605918884,-0.5673980712890625
1667267006387771400,0.398771484375,9.38016414642334,0.8401798605918884,-0.6248258352279663
1667267006390169000,0.401169189453125,9.36341381072998,0.8234301209449768,-0.6726822853088379
1667267006392567000,0.403567138671875,9.332307815551758,0.8042874932289124,-0.7133602499961853
1667267006394964700,0.40596484375,9.310771942138672,0.7923234105110168,-0.7516453862190247
1667267006397362400,0.408362548828125,9.28445053100586,0.7636095285415649,-0.7995018362998962
1667267006399760100,0.410760009765625,9.272486686706543,0.7468597888946533,-0.8282157182693481
1667267006402158000,0.413157958984375,9.27009391784668,0.7444669604301453,-0.8500502705574036
1667267006404555800,0.4155556640625,9.255437850952148,0.7492526173591614,-0.8883354067802429
1667267006406953500,0.417953369140625,9.286844253540039,0.7396813035011292,-0.8763712644577026
1667267006409351200,0.42035107421875,9.286844253540039,0.7444669604301453,-0.8644071817398071
1667267006411749000,0.4227490234375,9.294022560119629,0.7444669604301453,-0.8452646136283875
1667267006414146800,0.425146728515625,9.303593635559082,0.7516453862190247,-0.8258228898048401
1667267006416544500,0.42754443359375,9.301200866699219,0.7636095285415649,-0.8042874932289124
1667267006418942200,0.429942138671875,9.305986404418945,0.7803592681884766,-0.7803592681884766
1667267006421340200,0.432340087890625,9.310771942138672,0.7731808423995972,-0.7612167000770569
1667267006423737900,0.43473779296875,9.346664428710938,0.7851449251174927,-0.7420741319656372
1667267006426135600,0.437135498046875,9.396913528442383,0.8186444640159607,-0.7133602499961853
1667267006428533200,0.439533203125,9.428020477294922,0.8377870321273804,-0.6798607110977173
1667267006430931000,0.441930908203125,9.478269577026367,0.8620143532752991,-0.675075113773346
1667267006433329000,0.444328857421875,9.50459098815918,0.8811569213867188,-0.6391827464103699
1667267006435726600,0.4467265625,9.497411727905273,0.8739784955978394,-0.5985047817230225
1667267006438124300,0.449124267578125,9.46630573272705,0.859621524810791,-0.5650052428245544
1667267006440522000,0.45152197265625,9.432806015014648,0.8186444640159607,-0.5386841893196106
1667267006442920000,0.453919921875,9.377771377563477,0.7923234105110168,-0.5506483316421509
1667267006445317600,0.456317626953125,9.346664428710938,0.7755736112594604,-0.5530411601066589
1667267006447715300,0.45871533203125,9.291629791259766,0.7444669604301453,-0.5673980712890625
1667267006450113000,0.461113037109375,9.236295700073242,0.7277171611785889,-0.5985047817230225
1667267006452510700,0.4635107421875,9.205188751220703,0.6990033388137817,-0.6367899179458618
1667267006454908700,0.46590869140625,9.17886734008789,0.6894320249557495,-0.6846463680267334
1667267006457306400,0.468306396484375,9.131011009216309,0.6726822853088379,-0.7396813035011292
1667267006459704000,0.4707041015625,9.116654396057129,0.6511468887329102,-0.7277171611785889
1667267006462101800,0.473101806640625,9.107083320617676,0.6607181429862976,-0.7229315638542175
1667267006464499500,0.47549951171875,9.09272575378418,0.675075113773346,-0.675075113773346
1667267006466897400,0.4778974609375,9.07119083404541,0.6966105103492737,-0.5961119532585144
1667267006469295000,0.480295166015625,9.056833267211914,0.7229315638542175,-0.49322056770324707
1667267006471692800,0.48269287109375,9.030512809753418,0.768395185470581,-0.4094717800617218
1667267006474090500,0.485090576171875,9.004191398620605,0.8066803216934204,-0.28983065485954285
1667267006476488400,0.487488525390625,8.97787094116211,0.8524430394172668,-0.17946170270442963
1667267006478886100,0.48988623046875,8.920442581176758,0.8739784955978394,-0.08374879509210587
1667267006481283800,0.492283935546875,8.865407943725586,0.8715856671333313,0.009571290574967861
1667267006483681500,0.494681640625,8.82951545715332,0.8715856671333313,0.15314064919948578
1667267006486079500,0.49707958984375,8.791230201721191,0.8859425783157349,0.24167509377002716
1667267006488477200,0.499477294921875,8.740981101989746,0.890728235244751,0.32572299242019653
1667267006490875000,0.501875,8.66889762878418,0.859621524810791,0.4046861231327057
1667267006493272600,0.5042724609375,8.594719886779785,0.8210372924804688,0.45254257321357727
1667267006495670500,0.50667041015625,8.494221687316895,0.7827520966529846,0.4860421121120453
1667267006498068200,0.509068115234375,8.379365921020508,0.732502818107605,0.5171487927436829
1667267006500466000,0.5114658203125,8.286046028137207,0.6846463680267334,0.5099703073501587
1667267006502863600,0.513863525390625,8.223832130432129,0.610468864440918,0.5099703073501587
1667267006505261600,0.516261474609375,8.144868850708008,0.5362913608551025,0.5027918815612793
1667267006507659300,0.5186591796875,8.056035995483398,0.47647079825401306,0.490827739238739
1667267006510057000,0.521056884765625,7.974679470062256,0.41186460852622986,0.4788636267185211
1667267006512454700,0.52345458984375,7.948358535766602,0.2874378263950348,0.4381856322288513
1667267006514852400,0.525852294921875,7.9244303703308105,0.1818545162677765,0.368793785572052
1667267006517250300,0.528250244140625,7.8382887840271,0.0933200865983963,0.31375887989997864
1667267006519648000,0.53064794921875,7.677969455718994,-0.004785645287483931,0.2560320198535919
1667267006522045700,0.533045654296875,7.538887023925781,-0.064606212079525,0.20338992774486542
1667267006524443400,0.535443359375,7.402495861053467,-0.12921242415905,0.16749759018421173
1667267006526841000,0.537841064453125,7.316354274749756,-0.17706887423992157,0.12681959569454193
1667267006529239000,0.540239013671875,7.290033340454102,-0.23210379481315613,0.08374879509210587
1667267006531636700,0.54263671875,7.261319637298584,-0.2727817893028259,0.04307080805301666
1667267006534034400,0.545034423828125,7.256533622741699,-0.3089732229709625,0.02153540402650833
1667267006536432000,0.54743212890625,7.294818878173828,-0.3329014480113983,-0.01196411345154047
1667267006538830000,0.549830078125,7.361817836761475,-0.3209373354911804,-0.04785645380616188
1667267006541227800,0.552227783203125,7.450352191925049,-0.3161516785621643,-0.10049854964017868
1667267006543625500,0.55462548828125,7.526922702789307,-0.3233301639556885,-0.17946170270442963
1667267006546023200,0.557023193359375,7.6253275871276855,-0.33529427647590637,-0.25363919138908386
1667267006548420900,0.5594208984375,7.7353973388671875,-0.3568296730518341,-0.3233301639556885
1667267006550818800,0.56181884765625,7.8765740394592285,-0.3496512174606323,-0.44297128915786743
1667267006553216500,0.564216552734375,8.058428764343262,-0.368793785572052,-0.5889334678649902
1667267006555614200,0.5666142578125,8.180761337280273,-0.4094717800617218,-0.6367899179458618
1667267006558012000,0.569011962890625,8.245368003845215,-0.43579283356666565,-0.6224330067634583
1667267006560409900,0.571409912109375,8.417651176452637,-0.4501497745513916,-0.5961119532585144
1667267006562807600,0.5738076171875,8.640183448791504,-0.4262215197086334,-0.5650052428245544
1667267006565205200,0.576205322265625,8.865407943725586,-0.39032918214797974,-0.4812564551830292
1667267006567603000,0.57860302734375,9.073583602905273,-0.34247273206710815,-0.3927220106124878
1667267006570001000,0.5810009765625,9.286844253540039,-0.24406790733337402,-0.2679961323738098
1667267006572398600,0.583398681640625,9.516554832458496,-0.14117653667926788,-0.14117653667926788
1667267006574796300,0.58579638671875,9.739087104797363,-0.004785645287483931,-0.0023928226437419653
1667267006577194000,0.588194091796875,9.954740524291992,0.10767702013254166,0.15314064919948578
1667267006579592000,0.590592041015625,10.186843872070312,0.20578274130821228,0.2679961323738098
1667267006581989600,0.59298974609375,10.38066291809082,0.2946162819862366,0.37836506962776184
1667267006584387300,0.59538720703125,10.536495208740234,0.3496512174606323,0.5099703073501587
1667267006586785000,0.597784912109375,10.6657075881958,0.385543555021286,0.6200401782989502
1667267006589183000,0.600182861328125,10.806884765625,0.43579283356666565,0.6870391964912415
1667267006591580700,0.60258056640625,10.897811889648438,0.42382872104644775,0.7301099896430969
1667267006593978400,0.604978271484375,10.993824005126953,0.4334000051021576,0.7037889361381531
1667267006596376000,0.6073759765625,11.029715538024902,0.4166502356529236,0.6559324860572815
1667267006598773800,0.609773681640625,11.036894798278809,0.35443684458732605,0.5554339289665222
1667267006601171700,0.612171630859375,11.053644180297852,0.29700911045074463,0.41904306411743164
1667267006603569400,0.6145693359375,11.075180053710938,0.23688943684101105,0.2799602448940277
1667267006605967000,0.616967041015625,11.051251411437988,0.15074782073497772,0.12442677468061447
1667267006608364800,0.61936474609375,11.003395080566406,0.07657032459974289,-0.04307080805301666
1667267006610762800,0.6217626953125,10.953145980834961,0.009571290574967861,-0.17706887423992157
1667267006613160400,0.624160400390625,10.93848991394043,-0.04785645380616188,-0.3089732229709625
1667267006615558100,0.62655810546875,10.926525115966797,-0.08853443711996078,-0.39511483907699585
1667267006617955800,0.628955810546875,10.933704376220703,-0.11724831163883209,-0.45972105860710144
1667267006620353500,0.631353515625,10.936097145080566,-0.10767702013254166,-0.521934449672699
1667267006622751500,0.63375146484375,10.902597427368164,-0.11485548317432404,-0.5482555031776428
1667267006625149200,0.636149169921875,10.873883247375488,-0.11006984114646912,-0.5602195858955383
1667267006627547000,0.638546875,10.861919403076172,-0.10767702013254166,-0.5841478109359741
1667267006629944600,0.640944580078125,10.852348327636719,-0.1052841991186142,-0.6008976101875305
1667267006632342500,0.643342529296875,10.885847091674805,-0.14835500717163086,-0.7085745930671692
1667267006634740200,0.645740234375,10.885847091674805,-0.13878370821475983,-0.7899305820465088
1667267006637138000,0.648137939453125,10.852348327636719,-0.12681959569454193,-0.8644071817398071
1667267006639535600,0.65053564453125,10.833205223083496,-0.12442677468061447,-0.9696913957595825
1667267006641933300,0.652933349609375,10.818848609924316,-0.08374879509210587,-1.079761266708374
1667267006644331300,0.655331298828125,10.83559799194336,-0.02871387079358101,-1.1443674564361572
1667267006646729000,0.65772900390625,10.837990760803223,0.03349951654672623,-1.2352946996688843
1667267006649126700,0.660126708984375,10.837990760803223,0.064606212079525,-1.311864972114563
1667267006651524400,0.6625244140625,10.861919403076172,0.11964113265275955,-1.3286148309707642
1667267006653922300,0.66492236328125,10.90738296508789,0.15553347766399384,-1.342971682548523
1667267006656320000,0.667320068359375,10.92173957824707,0.17946170270442963,-1.319043517112732
1667267006658717700,0.6697177734375,10.933704376220703,0.21774685382843018,-1.292722463607788
1667267006661115400,0.672115478515625,10.92173957824707,0.23449662327766418,-1.2616157531738281
1667267006663513000,0.67451318359375,10.919346809387207,0.24406790733337402,-1.2424731254577637
1667267006665911000,0.6769111328125,10.857133865356445,0.3233301639556885,-1.220937728881836
1667267006668308700,0.679308837890625,10.816455841064453,0.2994019389152527,-1.1754741668701172
1667267006670706400,0.68170654296875,10.785348892211914,0.23210379481315613,-1.1108678579330444
1667267006673104400,0.6841044921875,10.725528717041016,0.20578274130821228,-1.0295119285583496
1667267006675502000,0.686502197265625,10.6657075881958,0.1698904037475586,-0.9649057388305664
1667267006677899800,0.688899658203125,10.629815101623535,0.1579262912273407,-0.9170492887496948
1667267006680297500,0.69129736328125,10.613065719604492,0.11724831163883209,-0.8668000102043152
1667267006682695400,0.6936953125,10.584351539611816,0.07896314561367035,-0.8282157182693481
1667267006685093000,0.696093017578125,10.562816619873047,0.059820566326379776,-0.7875377535820007
1667267006687490800,0.69849072265625,10.541280746459961,0.019142581149935722,-0.8018946647644043
1667267006689888500,0.700888427734375,10.493424415588379,-0.004785645287483931,-0.797109067440033
1667267006692286200,0.7032861328125,10.438389778137207,-0.062213387340307236,-0.7947162389755249
1667267006694684200,0.70568408203125,10.356734275817871,-0.08374879509210587,-0.7899305820465088
1667267006697081900,0.708081787109375,10.27059268951416,-0.1459621787071228,-0.8138588070869446
1667267006699479600,0.7104794921875,10.18445110321045,-0.21774685382843018,-0.8401798605918884
1667267006701877200,0.712877197265625,10.088738441467285,-0.24167509377002716,-0.8691928386688232
1667267006704275200,0.715275146484375,10.016953468322754,-0.2874378263950348,-0.8883354067802429
1667267006706673000,0.7176728515625,9.940383911132812,-0.35443684458732605,-0.9409775137901306
1667267006709070600,0.720070556640625,9.873384475708008,-0.37597227096557617,-0.9768698215484619
1667267006711468300,0.72246826171875,9.815657615661621,-0.4262215197086334,-1.0103694200515747
1667267006713866000,0.724865966796875,9.784550666809082,-0.4788636267185211,-1.0271191596984863
1667267006716264000,0.727263916015625,9.767801284790039,-0.5195416212081909,-1.0079765319824219
1667267006718661600,0.72966162109375,9.763015747070312,-0.5745765566825867,-1.0055837631225586
1667267006721059300,0.732059326171875,9.741479873657227,-0.6200401782989502,-0.9936196208000183
1667267006723457000,0.73445703125,9.746265411376953,-0.6607181429862976,-0.9672985672950745
1667267006725855000,0.73685498046875,9.774979591369629,-0.7157530784606934,-0.9625129103660583
1667267006728252700,0.739252685546875,9.777372360229492,-0.768395185470581,-0.9864411354064941
1667267006730650400,0.741650390625,9.810872077941895,-0.8452646136283875,-0.9984052777290344
1667267006733048000,0.744048095703125,9.882955551147461,-0.9026923179626465,-1.0342975854873657
1667267006735446000,0.746446044921875,9.971489906311035,-0.9601200819015503,-1.0630114078521729
1667267006737843700,0.74884375,10.064809799194336,-1.0414760112762451,-1.074975609779358
1667267006740241400,0.751241455078125,10.179665565490723,-1.0773683786392212,-1.079761266708374
1667267006742639000,0.75363916015625,10.296914100646973,-1.0845468044281006,-1.0606186389923096
1667267006745036800,0.756036865234375,10.435997009277344,-1.0845468044281006,-1.0295119285583496
1667267006747434800,0.758434814453125,10.555638313293457,-1.079761266708374,-0.9672985672950745
1667267006749832400,0.76083251953125,10.68245792388916,-1.0534402132034302,-0.8955138921737671
1667267006752230100,0.763230224609375,10.82841968536377,-1.036690354347229,-0.8377870321273804
1667267006754627800,0.7656279296875,10.965109825134277,-1.0342975854873657,-0.7636095285415649
1667267006757025800,0.76802587890625,11.079965591430664,-1.0295119285583496,-0.6702894568443298
1667267006759423500,0.770423583984375,11.175678253173828,-1.036690354347229,-0.6008976101875305
1667267006761821200,0.7728212890625,11.266605377197266,-1.0390832424163818,-0.579362154006958
1667267006764219000,0.775218994140625,11.331212043762207,-1.0534402132034302,-0.5673980712890625
1667267006766616800,0.777616943359375,11.326425552368164,-1.098903775215149,-0.5913262963294983
1667267006769014500,0.7800146484375,11.312068939208984,-1.1276177167892456,-0.6296114325523376
1667267006771412200,0.782412109375,11.273783683776855,-1.165902853012085,-0.675075113773346
1667267006773810000,0.784809814453125,11.230712890625,-1.1850453615188599,-0.7277171611785889
1667267006776208000,0.787207763671875,11.178071022033691,-1.2329018115997314,-0.734895646572113
1667267006778605600,0.78960546875,11.125429153442383,-1.2664014101028442,-0.7181459069252014
1667267006781003300,0.792003173828125,11.075180053710938,-1.287936806678772,-0.7205387353897095
1667267006783401000,0.79440087890625,11.00578784942627,-1.2951152324676514,-0.701396107673645
1667267006785799000,0.796798828125,10.91456127166748,-1.3022937774658203,-0.6870391964912415
1667267006788196600,0.799196533203125,10.852348327636719,-1.3310075998306274,-0.6918248534202576
1667267006790594300,0.80159423828125,10.775777816772461,-1.3310075998306274,-0.6846463680267334
1667267006792992000,0.803991943359375,10.71117115020752,-1.3405789136886597,-0.6990033388137817
1667267006795389700,0.8063896484375,10.610672950744629,-1.3525429964065552,-0.7181459069252014
1667267006797787600,0.80878759765625,10.519745826721191,-1.350150227546692,-0.7133602499961853
1667267006800185300,0.811185302734375,10.438389778137207,-1.347757339477539,-0.6990033388137817
1667267006802583000,0.8135830078125,10.378270149230957,-1.3405789136886597,-0.6894320249557495
1667267006804980700,0.815980712890625,10.304092407226562,-1.347757339477539,-0.6511468887329102
1667267006807378700,0.818378662109375,10.239486694335938,-1.3334003686904907,-0.6224330067634583
1667267006809776400,0.8207763671875,10.203594207763672,-1.3286148309707642,-0.6248258352279663
1667267006812174000,0.823174072265625,10.174880027770996,-1.3381860256195068,-0.6511468887329102
1667267006814571800,0.82557177734375,10.14616584777832,-1.316650629043579,-0.6559324860572815
1667267006816969700,0.8279697265625,10.076774597167969,-1.3094722032546997,-0.646361231803894
1667267006819367400,0.830367431640625,10.043274879455566,-1.3022937774658203,-0.5865406394004822
1667267006821765000,0.83276513671875,10.01456069946289,-1.311864972114563,-0.5267201066017151
1667267006824162800,0.835162841796875,9.981060981750488,-1.3022937774658203,-0.43579283356666565
1667267006826560500,0.837560546875,9.947562217712402,-1.3046865463256836,-0.30658039450645447
1667267006828958500,0.83995849609375,9.92124080657959,-1.3046865463256836,-0.16031911969184875
1667267006831356200,0.842356201171875,9.894919395446777,-1.2975081205368042,-0.064606212079525
1667267006833753900,0.84475390625,9.887741088867188,-1.3094722032546997,0.0023928226437419653
1667267006836151600,0.847151611328125,9.851848602294922,-1.3310075998306274,0.05503492057323456
1667267006838549500,0.849549560546875,9.8207426071167,-1.3262219429016113,0.10049854964017868
1667267006840947200,0.851947265625,9.789336204528809,-1.3022937774658203,0.16271193325519562
1667267006843345000,0.854344970703125,9.813264846801758,-1.2711870670318604,0.2392822653055191
1667267006845742600,0.85674267578125,9.8207426071167,-1.2424731254577637,0.3209373354911804
1667267006848140300,0.859140380859375,9.854242324829102,-1.2089736461639404,0.37836506962776184
1667267006850538200,0.861538330078125,9.873384475708008,-1.1635099649429321,0.3927220106124878
1667267006852936000,0.86393603515625,9.870991706848145,-1.134796142578125,0.36640095710754395
1667267006855333600,0.866333740234375,9.873384475708008,-1.1180464029312134,0.29700911045074463
1667267006857731300,0.8687314453125,9.882955551147461,-1.0869396924972534,0.19142581522464752
1667267006860129300,0.87112939453125,9.849455833435059,-1.0654042959213257,0.07417750358581543
1667267006862527000,0.87352685546875,9.827920913696289,-1.0319048166275024,-0.035892341285943985
1667267006864924700,0.875924560546875,9.798908233642578,-1.0295119285583496,-0.11246266216039658
1667267006867322400,0.878322265625,9.758230209350586,-1.0151549577713013,-0.17706887423992157
1667267006869720300,0.88072021484375,9.72233772277832,-1.0103694200515747,-0.27756741642951965
1667267006872118000,0.883117919921875,9.679266929626465,-1.017547845840454,-0.37118661403656006
1667267006874515700,0.885515625,9.652945518493652,-1.0223335027694702,-0.4788636267185211
1667267006876913400,0.887913330078125,9.595518112182617,-1.0247262716293335,-0.6320042610168457
1667267006879311400,0.890311279296875,9.581160545349121,-1.0630114078521729,-0.7540382146835327
1667267006881709000,0.892708984375,9.554840087890625,-1.098903775215149,-0.8787640929222107
1667267006884106800,0.895106689453125,9.528518676757812,-1.1515458822250366,-1.0079765319824219
1667267006886504400,0.89750439453125,9.502198219299316,-1.201795220375061,-1.1228320598602295
1667267006888902400,0.89990234375,9.47348403930664,-1.256830096244812,-1.252044439315796
1667267006891300000,0.902300048828125,9.492626190185547,-1.3334003686904907,-1.3836497068405151
1667267006893697800,0.90469775390625,9.499805450439453,-1.3956137895584106,-1.4844473600387573
1667267006896095500,0.907095458984375,9.530911445617676,-1.470090389251709,-1.5849459171295166
1667267006898493400,0.909493408203125,9.562018394470215,-1.5155540704727173,-1.695015788078308
1667267006900891100,0.91189111328125,9.585947036743164,-1.5777673721313477,-1.7859430313110352
1667267006903288800,0.914288818359375,9.61944580078125,-1.5825530290603638,-1.86729896068573
1667267006905686500,0.9166865234375,9.61944580078125,-1.5849459171295166,-1.9079769849777222
1667267006908084500,0.91908447265625,9.60508918762207,-1.572981834411621,-1.92951238155365
1667267006910482200,0.921482177734375,9.617053031921387,-1.5418751239776611,-1.9366908073425293
1667267006912879900,0.9238798828125,9.61944580078125,-1.4796617031097412,-1.89840567111969
1667267006915277600,0.926277587890625,9.63619613647461,-1.4174482822418213,-1.831406593322754
1667267006917675500,0.928675537109375,9.660123825073242,-1.2999008893966675,-1.7668004035949707
1667267006920073200,0.9310732421875,9.688838005065918,-1.194616675376892,-1.7021942138671875
1667267006922471000,0.933470947265625,9.698409080505371,-1.0869396924972534,-1.6423736810684204
1667267006924868600,0.93586865234375,9.748658180236816,-0.9720842242240906,-1.5801602602005005
1667267006927266300,0.938266357421875,9.786943435668945,-0.8377870321273804,-1.5538392066955566
1667267006929664300,0.940664306640625,9.842277526855469,-0.7468597888946533,-1.4892330169677734
1667267006932062000,0.94306201171875,9.892526626586914,-0.6535396575927734,-1.4318052530288696
1667267006934459600,0.945459716796875,9.923633575439453,-0.5841478109359741,-1.3812568187713623
1667267006936857300,0.947857421875,9.911669731140137,-0.5291129350662231,-1.347757339477539
1667267006939255300,0.95025537109375,9.92841911315918,-0.4980062246322632,-1.311864972114563
1667267006941653000,0.952653076171875,9.918848037719727,-0.46450668573379517,-1.316650629043579
1667267006944050700,0.95505078125,9.909276962280273,-0.4214358925819397,-1.3310075998306274
1667267006946448400,0.957448486328125,9.885348320007324,-0.3975076675415039,-1.347757339477539
1667267006948846300,0.959846435546875,9.870991706848145,-0.3807578980922699,-1.3836497068405151
1667267006951244000,0.962244140625,9.849455833435059,-0.3329014480113983,-1.438983678817749
1667267006953641700,0.964641845703125,9.813264846801758,-0.2922234535217285,-1.5131611824035645
1667267006956039400,0.967039306640625,9.763015747070312,-0.2946162819862366,-1.6399807929992676
1667267006958437000,0.96943701171875,9.707980155944824,-0.3209373354911804,-1.7907286882400513
1667267006960835000,0.9718349609375,9.672088623046875,-0.33529427647590637,-1.9630118608474731
1667267006963232800,0.974232666015625,9.609874725341797,-0.33529427647590637,-2.1236300468444824
1667267006965630500,0.97663037109375,9.540482521057129,-0.32572299242019653,-2.3030917644500732
1667267006968028200,0.979028076171875,9.516554832458496,-0.3089732229709625,-2.475374937057495
1667267006970426000,0.981426025390625,9.475876808166504,-0.30179476737976074,-2.6168506145477295
1667267006972823800,0.98382373046875,9.46630573272705,-0.3209373354911804,-2.7364916801452637
1667267006975221500,0.986221435546875,9.509376525878906,-0.33529427647590637,-2.8154549598693848
1667267006977619200,0.988619140625,9.566803932189941,-0.3616153299808502,-2.8513472080230713
1667267006980017200,0.99101708984375,9.6433744430542,-0.3640081584453583,-2.8298118114471436
1667267006982414800,0.993414794921875,9.734301567077637,-0.38793638348579407,-2.7580273151397705
1667267006984812500,0.9958125,9.839884757995605,-0.43579283356666565,-2.6503500938415527
1667267006987210200,0.998210205078125,9.969097137451172,-0.4573282301425934,-2.4993033409118652
1667267006989608200,1.000608154296875,10.103095054626465,-0.4405784606933594,-2.307877540588379
1667267006992006000,1.003005859375,10.282557487487793,-0.4453641176223755,-2.066202402114868
1667267006994403600,1.005403564453125,10.457531929016113,-0.43100717663764954,-1.776371717453003
1667267006996801300,1.00780126953125,10.636994361877441,-0.39511483907699585,-1.446162223815918
1667267006999199000,1.010198974609375,10.847562789916992,-0.35922250151634216,-1.1156535148620605
1667267007001597000,1.012596923828125,11.094322204589844,-0.2994019389152527,-0.7492526173591614
1667267007003994600,1.01499462890625,11.338390350341797,-0.23210379481315613,-0.385543555021286
1667267007006392300,1.017392333984375,11.568400382995605,-0.14835500717163086,0.062213387340307236
1667267007008790000,1.0197900390625,11.719147682189941,-0.031106693670153618,0.6296114325523376
1667267007011188000,1.02218798828125,11.89861011505127,0.12203395366668701,1.1132607460021973
1667267007013585700,1.024585693359375,12.162118911743164,0.2994019389152527,1.4916257858276367
1667267007015983400,1.0269833984375,12.466008186340332,0.4573282301425934,1.800299882888794
1667267007018381300,1.02938134765625,12.803694725036621,0.6559324860572815,2.118844509124756
1667267007020779000,1.031779052734375,13.141082763671875,0.8644071817398071,2.441875457763672
1667267007023176700,1.0341767578125,13.48594856262207,1.0558329820632935,2.746062994003296
1667267007025574400,1.036574462890625,13.864313125610352,1.2640085220336914,2.9925239086151123
1667267007027972400,1.038972412109375,14.273486137390137,1.4844473600387573,3.1866414546966553
1667267007030370000,1.0413701171875,14.730813980102539,1.6710875034332275,3.3613176345825195
1667267007032767700,1.043767822265625,15.183357238769531,1.8409779071807861,3.521636724472046
1667267007035165400,1.04616552734375,15.640685081481934,2.0207388401031494,3.7420754432678223
1667267007037563100,1.048563232421875,16.100406646728516,2.118844509124756,3.967000722885132
1667267007039961000,1.050961181640625,16.572092056274414,2.1954147815704346,4.170390605926514
1667267007042358800,1.05335888671875,16.974084854125977,2.23848557472229,4.376472473144531
1667267007044756500,1.055756591796875,17.27827262878418,2.2480568885803223,4.591826438903809
1667267007047154200,1.058154296875,17.560626983642578,2.1954147815704346,4.77876615524292
1667267007049552100,1.06055224609375,17.831314086914062,2.111665964126587,4.912764072418213
1667267007051949800,1.06294970703125,18.104095458984375,1.9920248985290527,5.046761989593506
1667267007054347500,1.065347412109375,18.312570571899414,1.8505492210388184,5.116153717041016
1667267007056745200,1.0677451171875,18.410676956176758,1.6734803915023804,5.137689113616943
1667267007059143200,1.07014306640625,18.427425384521484,1.4892330169677734,5.108975410461426
1667267007061540900,1.072540771484375,18.324535369873047,1.2376874685287476,4.982155799865723
1667267007063938600,1.0749384765625,18.149559020996094,0.9768698215484619,4.836193561553955
1667267007066336300,1.077336181640625,17.90788459777832,0.7253243923187256,4.610969066619873
1667267007068734200,1.079734130859375,17.5582332611084,0.48843491077423096,4.405186653137207
1667267007071132000,1.0821318359375,17.110477447509766,0.2584248483181,4.053142547607422
1667267007073529600,1.084529541015625,16.624732971191406,0.035892341285943985,3.6726837158203125
1667267007075927300,1.08692724609375,16.040586471557617,-0.21296121180057526,3.3230323791503906
1667267007078325200,1.0893251953125,15.444474220275879,-0.5027918815612793,2.9159533977508545
1667267007080723000,1.091722900390625,14.83370590209961,-0.7899305820465088,2.4777679443359375
1667267007083120600,1.09412060546875,14.15145206451416,-1.0606186389923096,2.1379871368408203
1667267007085518300,1.096518310546875,13.473984718322754,-1.3764712810516357,1.8337994813919067
1667267007087916300,1.098916259765625,12.863515853881836,-1.6639090776443481,1.4270195960998535
1667267007090314000,1.10131396484375,12.250653266906738,-1.9247267246246338,1.0701899528503418
1667267007092711700,1.103711669921875,11.666505813598633,-2.1786649227142334,0.7205387353897095
1667267007095109400,1.106109375,11.158928871154785,-2.417947292327881,0.368793785572052
1667267007097507000,1.108507080078125,10.593923568725586,-2.6383860111236572,0.11724831163883209
1667267007099905000,1.110905029296875,10.0073823928833,-2.832204818725586,-0.11485548317432404
1667267007102302700,1.113302734375,9.454340934753418,-3.004487991333008,-0.35443684458732605
1667267007104700400,1.115700439453125,8.908478736877441,-3.1722846031188965,-0.5554339289665222
1667267007107098000,1.11809814453125,8.44157886505127,-3.2991042137145996,-0.4334000051021576
1667267007109496000,1.12049609375,8.058428764343262,-3.411566972732544,-0.19142581522464752
1667267007111893800,1.122893798828125,7.7353973388671875,-3.538386583328247,0.22971096634864807
1667267007114291500,1.12529150390625,7.670791149139404,-3.684647798538208,-0.1579262912273407
1667267007116689200,1.127689208984375,7.6636128425598145,-3.809074640274048,-0.6224330067634583
1667267007119087000,1.130087158203125,7.608577728271484,-3.8688950538635254,-0.9098708033561707
1667267007121484800,1.13248486328125,7.4862446784973145,-3.8545382022857666,-1.0271191596984863
1667267007123882500,1.134882568359375,7.357032299041748,-3.7971103191375732,-1.0845468044281006
1667267007126280200,1.1372802734375,7.249355316162109,-3.7205400466918945,-1.1419745683670044
1667267007128678100,1.13967822265625,7.1249284744262695,-3.6125640869140625,-1.189831018447876
1667267007131075800,1.142075927734375,7.017251491546631,-3.4857444763183594,-1.2233306169509888
1667267007133473500,1.1444736328125,6.990631580352783,-3.3708889484405518,-1.2376874685287476
1667267007135871200,1.146871337890625,7.026822566986084,-3.2344980239868164,-1.1994023323059082
1667267007138269000,1.14926904296875,7.194320201873779,-3.1172497272491455,-1.1874382495880127
1667267007140667000,1.1516669921875,7.438388347625732,-2.98295259475708,-1.1300104856491089
1667267007143064600,1.154064697265625,7.72104024887085,-2.8824539184570312,-1.0295119285583496
1667267007145462300,1.156462158203125,8.041678428649902,-2.808276414871216,-0.8763712644577026
1667267007147860000,1.15885986328125,8.372187614440918,-2.714956283569336,-0.7229315638542175
1667267007150258000,1.1612578125,8.738588333129883,-2.588136672973633,-0.6678966283798218
1667267007152655600,1.163655517578125,9.08554744720459,-2.5232315063476562,-0.5410770177841187
1667267007155053300,1.16605322265625,9.439984321594238,-2.513660192489624,-0.34725838899612427
1667267007157451000,1.168450927734375,9.859027862548828,-2.4993033409118652,-0.1579262912273407
1667267007159849000,1.170848876953125,10.275378227233887,-2.5232315063476562,0.08135596662759781
1667267007162246700,1.17324658203125,10.71834945678711,-2.5522444248199463,0.2922234535217285
1667267007164644400,1.175644287109375,11.182856559753418,-2.5522444248199463,0.47168517112731934
1667267007167042000,1.1780419921875,11.61864948272705,-2.5689942836761475,0.610468864440918
1667267007169440000,1.18043994140625,12.097513198852539,-2.5594229698181152,0.7061817646026611
1667267007171837700,1.182837646484375,12.576077461242676,-2.5283162593841553,0.7755736112594604
1667267007174235400,1.1852353515625,13.028619766235352,-2.5088746547698975,0.8114659786224365
1667267007176633300,1.18763330078125,13.50030517578125,-2.513660192489624,0.8428717851638794
1667267007179031000,1.190031005859375,14.031810760498047,-2.472982168197632,0.8500502705574036
1667267007181428700,1.1924287109375,14.458032608032227,-2.4562325477600098,0.857228696346283
1667267007183826400,1.194826416015625,14.682957649230957,-2.465803623199463,0.857228696346283
1667267007186224400,1.197224365234375,14.848062515258789,-2.513660192489624,0.8476574420928955
1667267007188622000,1.1996220703125,14.98714542388916,-2.566601276397705,0.7899305820465088
1667267007191019800,1.202019775390625,15.149857521057129,-2.6240291595458984,0.6918248534202576
1667267007193417500,1.20441748046875,15.396318435668945,-2.6503500938415527,0.5434698462486267
1667267007195815400,1.2068154296875,15.647863388061523,-2.659921407699585,0.385543555021286
1667267007198213000,1.209213134765625,15.753148078918457,-2.667099952697754,0.24646073579788208
1667267007200610800,1.21161083984375,15.820146560668945,-2.691028118133545,0.09571290761232376
1667267007203008500,1.214008544921875,15.829718589782715,-2.731706142425537,-0.05742774158716202
1667267007205406200,1.21640625,15.815361022949219,-2.762812852859497,-0.21774685382843018
1667267007207804200,1.21880419921875,15.79382610321045,-2.8298118114471436,-0.3735794425010681
1667267007210201900,1.221201904296875,15.745969772338867,-2.8944180011749268,-0.5362913608551025
1667267007212599600,1.223599609375,15.688541412353516,-2.9614171981811523,-0.6726822853088379
1667267007214997200,1.225997314453125,15.664613723754883,-2.997309446334839,-0.7923234105110168
1667267007217395200,1.228395263671875,15.573686599731445,-2.999702215194702,-0.9194421172142029
1667267007219793000,1.23079296875,15.475580215454102,-3.0092735290527344,-0.9768698215484619
1667267007222190600,1.233190673828125,15.386747360229492,-3.004487991333008,-1.0223335027694702
1667267007224588300,1.23558837890625,15.24317741394043,-2.9925239086151123,-1.048654556274414
1667267007226986200,1.237986328125,15.12592887878418,-2.9470601081848145,-1.0654042959213257
1667267007229384000,1.240384033203125,14.97278881072998,-2.8944180011749268,-1.0414760112762451
1667267007231781600,1.24278173828125,14.81934928894043,-2.832204818725586,-1.0055837631225586
1667267007234179300,1.245179443359375,14.673386573791504,-2.738884687423706,-0.9433703422546387
1667267007236577300,1.247577392578125,14.520245552062988,-2.643171787261963,-0.8644071817398071
1667267007238975000,1.24997509765625,14.395819664001465,-2.5160529613494873,-0.7731808423995972
1667267007241372700,1.25237255859375,14.362319946289062,-2.379662036895752,-0.6343970894813538
1667267007243770400,1.254770263671875,14.326427459716797,-2.2265214920043945,-0.5003990530967712
1667267007246168300,1.257168212890625,14.225629806518555,-2.059023857116699,-0.3281157910823822
1667267007248566000,1.25956591796875,14.127524375915527,-1.8744773864746094,-0.17706887423992157
1667267007250963700,1.261963623046875,14.05095386505127,-1.695015788078308,-0.019142581149935722
1667267007253361400,1.264361328125,14.029417991638184,-1.5083755254745483,0.13160525262355804
1667267007255759400,1.26675927734375,14.02702522277832,-1.311864972114563,0.26081767678260803
1667267007258157000,1.269156982421875,14.024632453918457,-1.1276177167892456,0.41186460852622986
1667267007260554800,1.2715546875,14.015061378479004,-0.9481559991836548,0.5554339289665222
1667267007262952400,1.273952392578125,13.967205047607422,-0.7875377535820007,0.7516453862190247
1667267007265350400,1.276350341796875,13.90977668762207,-0.6559324860572815,0.9577272534370422
1667267007267748000,1.278748046875,13.869099617004395,-0.5362913608551025,1.170688509941101
1667267007270145800,1.281145751953125,13.82363510131836,-0.43579283356666565,1.350150227546692
1667267007272543500,1.28354345703125,13.77817153930664,-0.31854450702667236,1.5203397274017334
1667267007274941200,1.285941162109375,13.749458312988281,-0.22492532432079315,1.6806588172912598
1667267007277339100,1.288339111328125,13.72762393951416,-0.15074782073497772,1.8242281675338745
1667267007279736800,1.29073681640625,13.686945915222168,-0.064606212079525,1.9247267246246338
1667267007282134500,1.293134521484375,13.62473201751709,-0.03349951654672623,1.994417667388916
1667267007284532200,1.2955322265625,13.564911842346191,-0.031106693670153618,2.0207388401031494
1667267007286930200,1.29793017578125,13.483555793762207,-0.02392822690308094,2.0135602951049805
1667267007289327900,1.300327880859375,13.39262866973877,-0.04307080805301666,1.9848463535308838
1667267007291725600,1.3027255859375,13.296915054321289,-0.0933200865983963,1.9390836954116821
1667267007294123300,1.305123291015625,13.165011405944824,-0.18424734473228455,1.8577276468276978
1667267007296521200,1.307521240234375,13.086048126220703,-0.27756741642951965,1.7572290897369385
1667267007298919000,1.3099189453125,13.081262588500977,-0.3496512174606323,1.6471593379974365
1667267007301316600,1.312316650390625,13.07647705078125,-0.3807578980922699,1.501197099685669
1667267007303714300,1.31471435546875,13.095619201660156,-0.41904306411743164,1.3764712810516357
1667267007306112300,1.3171123046875,13.069297790527344,-0.49322056770324707,1.2376874685287476
1667267007308510000,1.319510009765625,13.057333946228027,-0.5602195858955383,1.0965110063552856
1667267007310907600,1.32190771484375,13.038191795349121,-0.6415755748748779,0.9984052777290344
1667267007313305300,1.324305419921875,13.021441459655762,-0.7109674215316772,0.9050851464271545
1667267007315703300,1.326703369140625,12.990335464477539,-0.8282157182693481,0.8090731501579285
1667267007318101000,1.32910107421875,12.94247817993164,-0.9098708033561707,0.6870391964912415
1667267007320498700,1.331498779296875,12.861122131347656,-1.012762188911438,0.5769693851470947
1667267007322896400,1.333896484375,12.772587776184082,-1.1132607460021973,0.4860421121120453
1667267007325294300,1.33629443359375,12.667304039001465,-1.220937728881836,0.40229329466819763
1667267007327692000,1.338692138671875,12.537792205810547,-1.3310075998306274,0.31375887989997864
1667267007330089700,1.34108984375,12.3942232131958,-1.407876968383789,0.1986042857170105
1667267007332487400,1.3434873046875,12.243474960327148,-1.470090389251709,0.11724831163883209
1667267007334885400,1.345885498046875,12.07358455657959,-1.5275181531906128,0.02632104977965355
1667267007337283000,1.348282958984375,11.90578842163086,-1.5873386859893799,-0.04546362906694412
1667267007339680800,1.3506806640625,11.759825706481934,-1.6375880241394043,-0.09571290761232376
1667267007342078500,1.353078369140625,11.611471176147461,-1.6734803915023804,-0.1579262912273407
1667267007344476400,1.355476318359375,11.469995498657227,-1.7021942138671875,-0.2273181527853012
1667267007346874000,1.3578740234375,11.343175888061523,-1.7309080362319946,-0.2560320198535919
1667267007349271800,1.360271728515625,11.21635627746582,-1.7715860605239868,-0.27756741642951965
1667267007351669500,1.36266943359375,11.118250846862793,-1.7883358001708984,-0.2946162819862366
1667267007354067500,1.3650673828125,11.022537231445312,-1.7883358001708984,-0.29700911045074463
1667267007356465200,1.367465087890625,10.926525115966797,-1.77397882938385,-0.3089732229709625
1667267007358862800,1.36986279296875,10.864312171936035,-1.7668004035949707,-0.3568296730518341
1667267007361260500,1.372260498046875,10.804491996765137,-1.7644076347351074,-0.37597227096557617
1667267007363658500,1.374658447265625,10.749456405639648,-1.7333009243011475,-0.39990049600601196
1667267007366056200,1.37705615234375,10.708778381347656,-1.6974085569381714,-0.4453641176223755
1667267007368454000,1.379453857421875,10.656136512756348,-1.6686947345733643,-0.4740779995918274
1667267007370851600,1.3818515625,10.610672950744629,-1.6375880241394043,-0.5171487927436829
1667267007373249500,1.38424951171875,10.59631633758545,-1.599302887916565,-0.5338985323905945
1667267007375647200,1.386647216796875,10.546066284179688,-1.55623197555542,-0.5626124143600464
1667267007378045000,1.389044921875,10.512567520141602,-1.4988043308258057,-0.5673980712890625
1667267007380442600,1.391442626953125,10.445568084716797,-1.4820544719696045,-0.5554339289665222
1667267007382840600,1.393840576171875,10.351948738098145,-1.4581263065338135,-0.5267201066017151
1667267007385238300,1.39623828125,10.244272232055664,-1.438983678817749,-0.5195416212081909
1667267007387636000,1.398635986328125,10.112667083740234,-1.4318052530288696,-0.48843491077423096
1667267007390033700,1.40103369140625,9.990633010864258,-1.3908281326293945,-0.4621138870716095
1667267007392431600,1.403431640625,9.844670295715332,-1.378864049911499,-0.4286143481731415
1667267007394829300,1.405829345703125,9.707980155944824,-1.374078392982483,-0.3975076675415039
1667267007397227000,1.40822705078125,9.573982238769531,-1.3597214221954346,-0.37597227096557617
1667267007399624700,1.410624755859375,9.454340934753418,-1.3692927360534668,-0.33529427647590637
1667267007402022700,1.413022705078125,9.337093353271484,-1.3597214221954346,-0.2799602448940277
1667267007404420400,1.41542041015625,9.233902931213379,-1.347757339477539,-0.22971096634864807
1667267007406818000,1.417818115234375,9.147761344909668,-1.3381860256195068,-0.18903298676013947
1667267007409215700,1.4202158203125,9.049654960632324,-1.3286148309707642,-0.16271193325519562
1667267007411613700,1.42261376953125,8.973084449768066,-1.3310075998306274,-0.12921242415905
1667267007414011400,1.425011474609375,8.915657043457031,-1.2975081205368042,-0.09092725813388824
1667267007416409000,1.4274091796875,8.891729354858398,-1.292722463607788,-0.04546362906694412
1667267007418806800,1.429806884765625,8.86780071258545,-1.2759727239608765,0.019142581149935722
1667267007421204700,1.432204833984375,8.882157325744629,-1.2376874685287476,0.059820566326379776
1667267007423602400,1.4346025390625,8.889336585998535,-1.225723385810852,0.08853443711996078
1667267007426000100,1.437000244140625,8.908478736877441,-1.2233306169509888,0.10289137065410614
1667267007428397800,1.439397705078125,8.922835350036621,-1.2065808773040771,0.13639089465141296
1667267007430795800,1.441795654296875,8.94676399230957,-1.197009563446045,0.12921242415905
1667267007433193500,1.444193359375,8.949156761169434,-1.158724308013916,0.13160525262355804
1667267007435591200,1.446591064453125,8.973084449768066,-1.1443674564361572,0.12442677468061447
1667267007437988900,1.44898876953125,8.992227554321289,-1.1204391717910767,0.14356936514377594
1667267007440386800,1.45138671875,9.018548965454102,-1.0701899528503418,0.13878370821475983
1667267007442784500,1.453784423828125,9.061619758605957,-1.0558329820632935,0.11485548317432404
1667267007445182200,1.45618212890625,9.08554744720459,-1.048654556274414,0.06939185410737991
1667267007447580000,1.458579833984375,9.123832702636719,-1.0342975854873657,0.02153540402650833
1667267007449977900,1.460977783203125,9.157332420349121,-1.036690354347229,-0.02632104977965355
1667267007452375600,1.46337548828125,9.190832138061523,-1.0319048166275024,-0.07417750358581543
1667267007454773200,1.465773193359375,9.20997428894043,-1.0199406147003174,-0.13878370821475983
1667267007457171000,1.4681708984375,9.212367057800293,-1.0199406147003174,-0.20817556977272034
1667267007459569000,1.47056884765625,9.22433090209961,-1.036690354347229,-0.27756741642951965
1667267007461966600,1.472966552734375,9.221938133239746,-1.048654556274414,-0.33050861954689026
1667267007464364300,1.4753642578125,9.207581520080566,-1.0630114078521729,-0.3807578980922699
1667267007466762000,1.477761962890625,9.176474571228027,-1.0965110063552856,-0.39990049600601196
1667267007469159700,1.48015966796875,9.10229778289795,-1.1180464029312134,-0.4453641176223755
1667267007471557600,1.4825576171875,9.056833267211914,-1.1371889114379883,-0.4812564551830292
1667267007473955300,1.484955322265625,9.016156196594238,-1.1395817995071411,-0.5147559642791748
1667267007476353000,1.48735302734375,8.951549530029297,-1.1754741668701172,-0.5530411601066589
1667267007478750700,1.489750732421875,8.865407943725586,-1.2089736461639404,-0.5697908997535706
1667267007481148700,1.492148681640625,8.774480819702148,-1.2305090427398682,-0.5889334678649902
1667267007483546400,1.49454638671875,8.707481384277344,-1.2400803565979004,-0.5865406394004822
1667267007485944000,1.496944091796875,8.623434066772461,-1.2711870670318604,-0.579362154006958
1667267007488341800,1.499341796875,8.55164909362793,-1.287936806678772,-0.6056832075119019
1667267007490739700,1.50173974609375,8.506185531616211,-1.3046865463256836,-0.6272186636924744
1667267007493137400,1.504137451171875,8.460721969604492,-1.3357932567596436,-0.6487540602684021
1667267007495535000,1.50653515625,8.43440055847168,-1.3716856241226196,-0.6415755748748779
1667267007497932800,1.508932861328125,8.415258407592773,-1.3956137895584106,-0.6559324860572815
1667267007500330800,1.511330810546875,8.436793327331543,-1.3836497068405151,-0.6248258352279663
1667267007502728400,1.513728515625,8.458329200744629,-1.3525429964065552,-0.5817549824714661
1667267007505126100,1.516126220703125,8.510971069335938,-1.347757339477539,-0.5315057039260864
1667267007507523800,1.51852392578125,8.570791244506836,-1.3573286533355713,-0.47168517112731934
1667267007509921800,1.520921875,8.65214729309082,-1.347757339477539,-0.41186460852622986
1667267007512319500,1.523319580078125,8.73619556427002,-1.3310075998306274,-0.34725838899612427
1667267007514717200,1.52571728515625,8.827122688293457,-1.319043517112732,-0.28504499793052673
1667267007517115000,1.528114990234375,8.884550094604492,-1.2855439186096191,-0.28504499793052673
1667267007519512800,1.530512939453125,8.930013656616211,-1.2711870670318604,-0.22971096634864807
1667267007521910500,1.53291064453125,8.965906143188477,-1.2783654928207397,-0.1339980661869049
1667267007524308200,1.53530810546875,8.997013092041016,-1.2735798358917236,-0.040677983313798904
1667267007526706000,1.537705810546875,9.037691116333008,-1.2903295755386353,0.03349951654672623
1667267007529104000,1.540103759765625,9.049654960632324,-1.2711870670318604,0.0933200865983963
1667267007531501600,1.54250146484375,9.042476654052734,-1.2448660135269165,0.11246266216039658
1667267007533899300,1.544899169921875,9.028120040893555,-1.2376874685287476,0.13878370821475983
1667267007536297000,1.547296875,9.018548965454102,-1.2065808773040771,0.12921242415905
1667267007538695000,1.54969482421875,9.011369705200195,-1.194616675376892,0.08853443711996078
1667267007541092600,1.552092529296875,8.997013092041016,-1.1778669357299805,0.07417750358581543
1667267007543490300,1.554490234375,8.992227554321289,-1.1635099649429321,0.016749758273363113
1667267007545888000,1.556887939453125,9.001798629760742,-1.1611171960830688,-0.02632104977965355
1667267007548286000,1.559285888671875,9.020941734313965,-1.1563315391540527,-0.059820566326379776
1667267007550683600,1.56168359375,9.037691116333008,-1.1611171960830688,-0.14117653667926788
1667267007553081300,1.564081298828125,9.059226989746094,-1.1850453615188599,-0.19381862878799438
1667267007555479000,1.56647900390625,9.104690551757812,-1.1850453615188599,-0.2392822653055191
1667267007557877000,1.568876953125,9.123832702636719,-1.2065808773040771,-0.2874378263950348
1667267007560274700,1.571274658203125,9.126225471496582,-1.225723385810852,-0.3041875660419464
1667267007562672400,1.57367236328125,9.075976371765137,-1.2496516704559326,-0.3329014480113983
1667267007565070000,1.576070068359375,9.028120040893555,-1.2496516704559326,-0.36640095710754395
1667267007567468000,1.578468017578125,8.970691680908203,-1.252044439315796,-0.44775694608688354
1667267007569865700,1.58086572265625,8.903693199157715,-1.2735798358917236,-0.5267201066017151
1667267007572263400,1.583263427734375,8.834300994873047,-1.287936806678772,-0.5817549824714661
1667267007574661000,1.5856611328125,8.72183895111084,-1.2951152324676514,-0.643968403339386
1667267007577059000,1.58805908203125,8.618648529052734,-1.2903295755386353,-0.6678966283798218
1667267007579456800,1.590456787109375,8.510971069335938,-1.2759727239608765,-0.701396107673645
1667267007581854500,1.5928544921875,8.393722534179688,-1.2951152324676514,-0.7061817646026611
1667267007584252200,1.595252197265625,8.269295692443848,-1.3022937774658203,-0.6894320249557495
1667267007586650000,1.597650146484375,8.161619186401367,-1.3046865463256836,-0.6726822853088379
1667267007589047800,1.6000478515625,8.060821533203125,-1.311864972114563,-0.6631109714508057
1667267007591445500,1.602445556640625,7.979465484619141,-1.3046865463256836,-0.6391827464103699
1667267007593843200,1.60484326171875,7.902894973754883,-1.3094722032546997,-0.6008976101875305
1667267007596241200,1.6072412109375,7.8454670906066895,-1.3381860256195068,-0.5769693851470947
1667267007598638800,1.609638916015625,7.800003528594971,-1.347757339477539,-0.5458626747131348
1667267007601036500,1.61203662109375,7.749754428863525,-1.3668999671936035,-0.5147559642791748
1667267007603434200,1.614434326171875,7.697112083435059,-1.3860424757003784,-0.5003990530967712
1667267007605832200,1.616832275390625,7.642077445983887,-1.378864049911499,-0.4668995141983032
1667267007608230000,1.61922998046875,7.606184959411621,-1.347757339477539,-0.43100717663764954
1667267007610627600,1.621627685546875,7.632505893707275,-1.2951152324676514,-0.39032918214797974
1667267007613025300,1.624025390625,7.742575645446777,-1.2041879892349243,-0.3496512174606323
1667267007615423200,1.62642333984375,7.668398380279541,-1.1467602252960205,-0.23449662327766418
1667267007617821000,1.628821044921875,7.5173516273498535,-1.103689432144165,-0.08374879509210587
1667267007620218600,1.631218505859375,7.421638488769531,-1.072582721710205,0.038285162299871445
1667267007622616300,1.6336162109375,7.361817836761475,-1.0342975854873657,0.11246266216039658
1667267007625014300,1.63601416015625,7.345067977905273,-0.9840483069419861,0.16271193325519562
1667267007627412000,1.638411865234375,7.366603374481201,-0.9194421172142029,0.1818545162677765
1667267007629809700,1.6408095703125,7.4240312576293945,-0.8524430394172668,0.20578274130821228
1667267007632207400,1.643207275390625,7.493422985076904,-0.7875377535820007,0.21774685382843018
1667267007634605300,1.645605224609375,7.562815189361572,-0.7372884750366211,0.2225325107574463
1667267007637003000,1.6480029296875,7.634898662567139,-0.6702894568443298,0.22971096634864807
1667267007639400700,1.650400634765625,7.699504852294922,-0.6224330067634583,0.26081767678260803
1667267007641798400,1.65279833984375,7.761718273162842,-0.5865406394004822,0.29700911045074463
1667267007644196400,1.6551962890625,7.77607536315918,-0.5410770177841187,0.33768710494041443
1667267007646594000,1.657593994140625,7.7593255043029785,-0.5123631358146667,0.36640095710754395
1667267007648991700,1.65999169921875,7.733004570007324,-0.47168517112731934,0.3616153299808502
1667267007651389400,1.662389404296875,7.704290866851807,-0.4501497745513916,0.37118661403656006
1667267007653787400,1.664787353515625,7.673183917999268,-0.4381856322288513,0.33529427647590637
1667267007656185000,1.66718505859375,7.632505893707275,-0.4334000051021576,0.25363919138908386
1667267007658582800,1.669582763671875,7.558029651641846,-0.4621138870716095,0.1698904037475586
1667267007660980500,1.67198046875,7.469494819641113,-0.45972105860710144,0.15314064919948578
1667267007663378400,1.67437841796875,7.409674644470215,-0.4381856322288513,0.15553347766399384
1667267007665776000,1.676776123046875,7.333104133605957,-0.41904306411743164,0.15074782073497772
1667267007668173800,1.679173828125,7.292426109313965,-0.3975076675415039,0.15553347766399384
1667267007670571500,1.681571533203125,7.239784240722656,-0.37836506962776184,0.16271193325519562
1667267007672969500,1.683969482421875,7.206284523010254,-0.3496512174606323,0.15314064919948578
1667267007675367200,1.6863671875,7.160820960998535,-0.3329014480113983,0.16271193325519562
1667267007677764900,1.688764892578125,7.122535705566406,-0.30179476737976074,0.19381862878799438
1667267007680162600,1.69116259765625,7.069893836975098,-0.28504499793052673,0.16749759018421173
1667267007682560500,1.693560546875,7.0292158126831055,-0.26560330390930176,0.19381862878799438
1667267007684958200,1.695958251953125,6.957131862640381,-0.2392822653055191,0.23449662327766418
1667267007687356000,1.69835595703125,6.856633186340332,-0.2584248483181,0.275174617767334
1667267007689753600,1.700753662109375,6.729813575744629,-0.24167509377002716,0.31375887989997864
1667267007692151600,1.703151611328125,6.6006011962890625,-0.22492532432079315,0.3209373354911804
1667267007694549200,1.70554931640625,6.485745906829834,-0.22971096634864807,0.3113660514354706
1667267007696947000,1.707947021484375,6.3825554847717285,-0.2225325107574463,0.2512463629245758
1667267007699344600,1.7103447265625,6.296413898468018,-0.21296121180057526,0.20817556977272034
1667267007701742600,1.71274267578125,6.21266508102417,-0.22013968229293823,0.14356936514377594
1667267007704140300,1.715140380859375,6.143272876739502,-0.22492532432079315,0.07896314561367035
1667267007706538000,1.7175380859375,6.073881149291992,-0.20578274130821228,0.08374879509210587
1667267007708935700,1.719935791015625,6.0523457527160645,-0.18903298676013947,0.064606212079525
1667267007711333600,1.722333740234375,6.071488380432129,-0.1866401731967926,-0.01196411345154047
1667267007713731300,1.7247314453125,6.1073808670043945,-0.13878370821475983,-0.07178468257188797
1667267007716129000,1.72712890625,6.160022735595703,-0.10049854964017868,-0.12681959569454193
1667267007718526700,1.729526611328125,6.224628925323486,-0.09571290761232376,-0.1818545162677765
1667267007720924700,1.731924560546875,6.298806667327881,-0.07657032459974289,-0.22492532432079315
1667267007723322400,1.734322265625,6.356234073638916,-0.05742774158716202,-0.26081767678260803
1667267007725720000,1.736719970703125,6.411269187927246,-0.02632104977965355,-0.2799602448940277
1667267007728117800,1.73911767578125,6.488138675689697,-0.007178467698395252,-0.24885354936122894
1667267007730515700,1.741515625,6.531209468841553,0.01196411345154047,-0.2153540402650833
1667267007732913400,1.743913330078125,6.535995006561279,0.016749758273363113,-0.20099709928035736
1667267007735311000,1.74631103515625,6.535995006561279,0.019142581149935722,-0.1986042857170105
1667267007737708800,1.748708740234375,6.504888534545898,0.01196411345154047,-0.1818545162677765
1667267007740106800,1.751106689453125,6.531209468841553,0.014356935396790504,-0.14117653667926788
1667267007742504400,1.75350439453125,6.62213659286499,0.04307080805301666,-0.11724831163883209
1667267007744902100,1.755902099609375,6.7345991134643555,0.08614161610603333,-0.07896314561367035
1667267007747299800,1.7582998046875,6.904489517211914,0.13160525262355804,-0.016749758273363113
1667267007749697800,1.76069775390625,7.103393077850342,0.20578274130821228,0.062213387340307236
1667267007752095500,1.763095458984375,7.297211647033691,0.24885354936122894,0.1339980661869049
1667267007754493200,1.7654931640625,7.512565612792969,0.29700911045074463,0.21774685382843018
1667267007756891000,1.767890869140625,7.728219032287598,0.3520440459251404,0.29700911045074463
1667267007759288600,1.77028857421875,7.907680511474609,0.41904306411743164,0.35443684458732605
1667267007761686500,1.7726865234375,8.108677864074707,0.4501497745513916,0.37597227096557617
1667267007764084200,1.775084228515625,8.300402641296387,0.4812564551830292,0.385543555021286
1667267007766482000,1.77748193359375,8.479864120483398,0.4788636267185211,0.38315072655677795
1667267007768879600,1.779879638671875,8.623434066772461,0.4621138870716095,0.3640081584453583
1667267007771277600,1.782277587890625,8.724231719970703,0.4621138870716095,0.3233301639556885
1667267007773675300,1.78467529296875,8.827122688293457,0.4549354016780853,0.2679961323738098
1667267007776073000,1.787072998046875,8.901300430297852,0.41186460852622986,0.19621145725250244
1667267007778470700,1.789470703125,8.96112060546875,0.3568296730518341,0.12442677468061447
1667267007780868600,1.79186865234375,8.992227554321289,0.2874378263950348,0.07417750358581543
1667267007783266300,1.794266357421875,9.025727272033691,0.20099709928035736,0.0023928226437419653
1667267007785664000,1.7966640625,9.020941734313965,0.14356936514377594,-0.08374879509210587
1667267007788061700,1.799061767578125,8.992227554321289,0.0526420995593071,-0.1579262912273407
1667267007790459600,1.801459716796875,8.951549530029297,-0.016749758273363113,-0.22971096634864807
1667267007792857300,1.803857421875,8.901300430297852,-0.08853443711996078,-0.275174617767334
1667267007795255000,1.806255126953125,8.855836868286133,-0.16510476171970367,-0.3448655605316162
1667267007797652700,1.80865283203125,8.805587768554688,-0.2153540402650833,-0.4142574071884155
1667267007800050700,1.81105078125,8.752944946289062,-0.24646073579788208,-0.4692923426628113
1667267007802448400,1.813448486328125,8.72901725769043,-0.3041875660419464,-0.5027918815612793
1667267007804846000,1.81584619140625,8.695218086242676,-0.3400799036026001,-0.5291129350662231
1667267007807243800,1.818243896484375,8.67607593536377,-0.35443684458732605,-0.5506483316421509
1667267007809641700,1.820641845703125,8.68325424194336,-0.37836506962776184,-0.5578267574310303
1667267007812039400,1.823039306640625,8.714659690856934,-0.3927220106124878,-0.5554339289665222
1667267007814437000,1.82543701171875,8.776873588562012,-0.4166502356529236,-0.5530411601066589
1667267007816834800,1.827834716796875,8.841479301452637,-0.43579283356666565,-0.5506483316421509
1667267007819232800,1.830232666015625,8.908478736877441,-0.47168517112731934,-0.5626124143600464
1667267007821630500,1.83263037109375,9.028120040893555,-0.47647079825401306,-0.5554339289665222
1667267007824028200,1.835028076171875,9.1716890335083,-0.5147559642791748,-0.5386841893196106
1667267007826425900,1.83742578125,9.298808097839355,-0.5578267574310303,-0.5267201066017151
1667267007828823800,1.83982373046875,9.406484603881836,-0.6008976101875305,-0.5027918815612793
1667267007831221500,1.842221435546875,9.521340370178223,-0.6559324860572815,-0.47647079825401306
1667267007833619200,1.844619140625,9.640981674194336,-0.7037889361381531,-0.4692923426628113
1667267007836017000,1.847016845703125,9.772586822509766,-0.7109674215316772,-0.4788636267185211
1667267007838414800,1.849414794921875,9.904491424560547,-0.7396813035011292,-0.5027918815612793
1667267007840812500,1.8518125,10.04566764831543,-0.7540382146835327,-0.5147559642791748
1667267007843210200,1.854210205078125,10.203594207763672,-0.7277171611785889,-0.5506483316421509
1667267007845608000,1.85660791015625,10.368699073791504,-0.7061817646026611,-0.5865406394004822
1667267007848006000,1.859005859375,10.569994926452637,-0.6918248534202576,-0.6152545213699341
1667267007850403600,1.861403564453125,10.759027481079102,-0.6655037999153137,-0.6272186636924744
1667267007852801300,1.86380126953125,10.977073669433594,-0.6391827464103699,-0.6152545213699341
1667267007855199000,1.866198974609375,11.230712890625,-0.6056832075119019,-0.5745765566825867
1667267007857597000,1.868596923828125,11.391032218933105,-0.5745765566825867,-0.5195416212081909
1667267007859994600,1.87099462890625,11.496315956115723,-0.5291129350662231,-0.4214358925819397
1667267007862392300,1.873392333984375,11.585149765014648,-0.5099703073501587,-0.3089732229709625
1667267007864790000,1.8757900390625,11.700005531311035,-0.47647079825401306,-0.2153540402650833
1667267007867188000,1.87818798828125,11.838788986206055,-0.4166502356529236,-0.1459621787071228
1667267007869585700,1.880585693359375,11.989537239074707,-0.3735794425010681,-0.08135596662759781
1667267007871983400,1.8829833984375,12.078370094299316,-0.3089732229709625,-0.004785645287483931
1667267007874381300,1.88538134765625,12.164511680603027,-0.23210379481315613,0.035892341285943985
1667267007876779000,1.887779052734375,12.19801139831543,-0.16031911969184875,0.08135596662759781
1667267007879176700,1.8901767578125,12.226725578308105,-0.09092725813388824,0.11006984114646912
1667267007881574400,1.892574462890625,12.214761734008789,0.0023928226437419653,0.15553347766399384
1667267007883972400,1.894972412109375,12.19801139831543,0.08135596662759781,0.21774685382843018
1667267007886370000,1.8973701171875,12.142976760864258,0.1746760457754135,0.26560330390930176
1667267007888767700,1.899767822265625,12.08315658569336,0.24167509377002716,0.27756741642951965
1667267007891165400,1.90216552734375,11.98475170135498,0.3089732229709625,0.31375887989997864
1667267007893563400,1.9045634765625,11.826825141906738,0.35443684458732605,0.31375887989997864
1667267007895961000,1.906961181640625,11.676076889038086,0.4166502356529236,0.2874378263950348
1667267007898358800,1.90935888671875,11.53968620300293,0.46450668573379517,0.24646073579788208
1667267007900756500,1.911756591796875,11.35513973236084,0.5171487927436829,0.19381862878799438
1667267007903154400,1.914154541015625,11.144571304321289,0.5530411601066589,0.14356936514377594
1667267007905552100,1.91655224609375,10.902597427368164,0.579362154006958,0.12203395366668701
1667267007907949800,1.91894970703125,10.644172668457031,0.5913262963294983,0.1052841991186142
1667267007910347500,1.921347412109375,10.359127044677734,0.6008976101875305,0.11724831163883209
1667267007912745500,1.923745361328125,10.083952903747559,0.5937191247940063,0.12203395366668701
1667267007915143200,1.92614306640625,9.784550666809082,0.579362154006958,0.14835500717163086
1667267007917540900,1.928540771484375,9.521340370178223,0.5602195858955383,0.16749759018421173
1667267007919938600,1.9309384765625,9.294022560119629,0.5099703073501587,0.22971096634864807
1667267007922336500,1.93333642578125,9.032905578613281,0.46450668573379517,0.2392822653055191
1667267007924734200,1.935734130859375,8.731410026550293,0.4214358925819397,0.23210379481315613
1667267007927132000,1.9381318359375,8.477471351623535,0.3640081584453583,0.20338992774486542
1667267007929529600,1.940529541015625,8.235795974731445,0.30658039450645447,0.15074782073497772
1667267007931927300,1.94292724609375,8.015357971191406,0.26560330390930176,0.08374879509210587
1667267007934325200,1.9453251953125,7.821538925170898,0.22013968229293823,-0.01196411345154047
1667267007936723000,1.947722900390625,7.632505893707275,0.19621145725250244,-0.1052841991186142
1667267007939120600,1.95012060546875,7.455138206481934,0.1698904037475586,-0.1866401731967926
1667267007941518300,1.952518310546875,7.290033340454102,0.16749759018421173,-0.24885354936122894
1667267007943916300,1.954916259765625,7.184749126434326,0.18424734473228455,-0.28504499793052673
1667267007946314000,1.95731396484375,7.081857681274414,0.20338992774486542,-0.35443684458732605
1667267007948711700,1.959711669921875,7.031608581542969,0.23449662327766418,-0.38793638348579407
1667267007951109400,1.962109375,6.894918441772461,0.2922234535217285,-0.29700911045074463
1667267007953507300,1.96450732421875,6.823133945465088,0.34725838899612427,-0.24646073579788208
1667267007955905000,1.966905029296875,6.8279194831848145,0.368793785572052,-0.3041875660419464
1667267007958302700,1.969302734375,6.80877685546875,0.37836506962776184,-0.3807578980922699
1667267007960700400,1.971700439453125,6.794419765472412,0.37597227096557617,-0.4262215197086334
1667267007963098400,1.974098388671875,6.720242500305176,0.385543555021286,-0.4381856322288513
1667267007965496000,1.97649609375,6.636493682861328,0.40707895159721375,-0.4334000051021576
1667267007967893800,1.978893798828125,6.514459609985352,0.4046861231327057,-0.4214358925819397
1667267007970291500,1.98129150390625,6.3825554847717285,0.39990049600601196,-0.41186460852622986
1667267007972689400,1.983689453125,6.2413787841796875,0.40707895159721375,-0.3520440459251404
1667267007975087000,1.986087158203125,6.08823823928833,0.4094717800617218,-0.31375887989997864
1667267007977484800,1.98848486328125,5.9566330909729,0.3975076675415039,-0.2799602448940277
1667267007979882500,1.990882568359375,5.839085578918457,0.37118661403656006,-0.2392822653055191
1667267007982280400,1.993280517578125,5.743372440338135,0.3496512174606323,-0.1866401731967926
1667267007984678100,1.99567822265625,5.640480995178223,0.3329014480113983,-0.16510476171970367
1667267007987075800,1.998075927734375,5.556732177734375,0.3496512174606323,-0.12921242415905
1667267007989473500,2.0004736328125,5.468197822570801,0.34725838899612427,-0.08614161610603333
1667267007991871500,2.00287158203125,5.391627788543701,0.37597227096557617,-0.03349951654672623
1667267007994269200,2.005269287109375,5.346164226531982,0.40707895159721375,0.040677983313798904
1667267007996667000,2.0076669921875,5.298008441925049,0.47647079825401306,0.08614161610603333
1667267007999064600,2.010064697265625,5.254937648773193,0.5530411601066589,0.1339980661869049
1667267008001462500,2.012462646484375,5.233402252197266,0.6080760359764099,0.1986042857170105
1667267008003860200,2.014860107421875,5.25254487991333,0.6966105103492737,0.26560330390930176
1667267008006258000,2.0172578125,5.2716875076293945,0.7612167000770569,0.30658039450645447
1667267008008655600,2.019655517578125,5.2956156730651855,0.8548358678817749,0.33050861954689026
1667267008011053600,2.022053466796875,5.353342533111572,0.9337990283966064,0.3640081584453583
1667267008013451300,2.024451171875,5.413163185119629,0.9840483069419861,0.3616153299808502
1667267008015849000,2.026848876953125,5.501697540283203,1.0271191596984863,0.35922250151634216
1667267008018246700,2.02924658203125,5.5758748054504395,1.1060823202133179,0.34247273206710815
1667267008020644600,2.03164453125,5.657230854034424,1.1539387702941895,0.30658039450645447
1667267008023042300,2.034042236328125,5.714658737182617,1.1994023323059082,0.2946162819862366
1667267008025440000,2.03643994140625,5.803193092346191,1.2329018115997314,0.23449662327766418
1667267008027837700,2.038837646484375,5.903990745544434,1.2735798358917236,0.16031911969184875
1667267008030235600,2.041235595703125,5.997310638427734,1.3022937774658203,0.09571290761232376
1667267008032633300,2.04363330078125,6.064310073852539,1.311864972114563,0.02153540402650833
1667267008035031000,2.046031005859375,6.126523494720459,1.323829174041748,-0.040677983313798904
1667267008037428700,2.0484287109375,6.174379825592041,1.3070793151855469,-0.08374879509210587
1667267008039826700,2.05082666015625,6.207879066467285,1.2975081205368042,-0.10767702013254166
1667267008042224400,2.053224365234375,6.238986015319824,1.256830096244812,-0.16031911969184875
1667267008044622000,2.0556220703125,6.267699718475342,1.2281162738800049,-0.19381862878799438
1667267008047019800,2.058019775390625,6.28205680847168,1.1994023323059082,-0.20817556977272034
1667267008049417700,2.060417724609375,6.303592205047607,1.1850453615188599,-0.2225325107574463
1667267008051815400,2.0628154296875,6.322734832763672,1.1994023323059082,-0.24406790733337402
1667267008054213000,2.065213134765625,6.329913139343262,1.1874382495880127,-0.2632105052471161
1667267008056610800,2.06761083984375,6.315556049346924,1.189831018447876,-0.2560320198535919
1667267008059008800,2.0700087890625,6.298806667327881,1.170688509941101,-0.28504499793052673
1667267008061406500,2.072406494140625,6.267699718475342,1.1730812788009644,-0.3041875660419464
1667267008063804200,2.07480419921875,6.238986015319824,1.165902853012085,-0.28983065485954285
1667267008066201900,2.077201904296875,6.186343669891357,1.1850453615188599,-0.2679961323738098
1667267008068599800,2.079599853515625,6.148058891296387,1.170688509941101,-0.24646073579788208
1667267008070997500,2.08199755859375,6.116951942443848,1.2089736461639404,-0.23210379481315613
1667267008073395200,2.084395263671875,6.085845470428467,1.2233306169509888,-0.22492532432079315
1667267008075793000,2.08679296875,6.049952983856201,1.2281162738800049,-0.1986042857170105
1667267008078190600,2.089190673828125,6.021239280700684,1.2496516704559326,-0.20338992774486542
1667267008080588500,2.091588623046875,5.994917869567871,1.2664014101028442,-0.22013968229293823
1667267008082986200,2.093986328125,5.968596935272217,1.2855439186096191,-0.20817556977272034
1667267008085384000,2.096384033203125,5.961418628692627,1.3022937774658203,-0.23688943684101105
1667267008087781600,2.09878173828125,5.9662041664123535,1.3022937774658203,-0.2679961323738098
1667267008090179600,2.1011796875,5.985346794128418,1.2975081205368042,-0.3161516785621643
1667267008092577300,2.103577392578125,6.004489421844482,1.287936806678772,-0.368793785572052
1667267008094975000,2.10597509765625,6.0523457527160645,1.287936806678772,-0.4334000051021576
1667267008097372700,2.10837255859375,6.114559173583984,1.252044439315796,-0.47168517112731934
1667267008099770600,2.1107705078125,6.188736438751221,1.2065808773040771,-0.5099703073501587
1667267008102168300,2.113168212890625,6.28205680847168,1.1778669357299805,-0.5578267574310303
