time,seconds_elapsed,z,y,x
1667267006080329000,0.091328857421875,-0.04085041210055351,0.012598725035786629,0.19646374881267548
1667267006082726700,0.0937265625,-0.04390464723110199,0.0358109213411808,0.153704434633255
1667267006085124400,0.096124267578125,-0.04634803533554077,0.05657972767949104,0.11033428460359573
1667267006087522000,0.09852197265625,-0.04695888236165047,0.07307260483503342,0.07062921673059464
1667267006089920000,0.100919921875,-0.04940227046608925,0.08651123940944672,0.033978380262851715
1667267006092317700,0.103317626953125,-0.05184566229581833,0.09872818738222122,0.00038177953683771193
1667267006094715400,0.10571533203125,-0.05673243850469589,0.10972344130277634,-0.02832804247736931
1667267006097113000,0.108113037109375,-0.05856497958302498,0.11949699372053146,-0.05459447205066681
1667267006099511000,0.110510986328125,-0.06284090876579285,0.13049224019050598,-0.07414158433675766
1667267006101908700,0.11290869140625,-0.06772769242525101,0.1408766508102417,-0.09307785332202911
1667267006104306400,0.115306396484375,-0.06711684167385101,0.15065020322799683,-0.10957072675228119
1667267006106704100,0.1177041015625,-0.0689493864774704,0.16347800195217133,-0.1217876747250557
1667267006109102000,0.12010205078125,-0.0689493864774704,0.17202985286712646,-0.13156123459339142
1667267006111499800,0.122499755859375,-0.06772769242525101,0.18180342018604279,-0.13950224220752716
1667267006113897500,0.1248974609375,-0.06650599837303162,0.18791188299655914,-0.14438901841640472
1667267006116295200,0.127295166015625,-0.06345175951719284,0.18730103969573975,-0.1474432498216629
1667267006118693000,0.129693115234375,-0.06039752438664436,0.18974442780017853,-0.15110833942890167
1667267006121090800,0.1320908203125,-0.054899897426366806,0.18607935309410095,-0.14988665282726288
1667267006123488500,0.134488525390625,-0.04879142343997955,0.1787491738796234,-0.1474432498216629
1667267006125886200,0.13688623046875,-0.04695888236165047,0.1653105467557907,-0.1474432498216629
1667267006128284000,0.139283935546875,-0.04146125912666321,0.15736952424049377,-0.14133478701114655
1667267006130681900,0.141681884765625,-0.03779617324471474,0.14881765842437744,-0.13766969740390778
1667267006133079600,0.14407958984375,-0.03474193811416626,0.13904410600662231,-0.1327829211950302
1667267006135477200,0.146477294921875,-0.031076854094862938,0.13476817309856415,-0.12789614498615265
1667267006137875000,0.148875,-0.028633465990424156,0.1280488520860672,-0.1217876747250557
1667267006140273000,0.15127294921875,-0.02557922899723053,0.12132953852415085,-0.11690089106559753
1667267006142670600,0.153670654296875,-0.019470756873488426,0.11705360561609268,-0.11262496560811996
1667267006145068300,0.156068359375,-0.019470756873488426,0.11277767270803452,-0.10712733864784241
1667267006147466000,0.158466064453125,-0.017027366906404495,0.10850174725055695,-0.10224056243896484
1667267006149863700,0.16086376953125,-0.013362283818423748,0.10666920244693756,-0.10224056243896484
1667267006152261600,0.16326171875,-0.011529741808772087,0.10789089649915695,-0.10162971168756485
1667267006154659300,0.165659423828125,-0.00786465872079134,0.10728005319833755,-0.09918632358312607
1667267006157057000,0.16805712890625,-0.005421269219368696,0.11094513535499573,-0.09918632358312607
1667267006159454700,0.170454833984375,-0.0005344913806766272,0.10972344130277634,-0.10101886838674545
1667267006161852700,0.172852783203125,0.0019088976550847292,0.10850174725055695,-0.10285140573978424
1667267006164250400,0.17525048828125,0.004963133949786425,0.10361496359109879,-0.10529479384422302
1667267006166648000,0.17764794921875,0.011682453565299511,0.1005607321858406,-0.10895988345146179
1667267006169045800,0.180045654296875,0.013514995574951172,0.09384141117334366,-0.11018157750368118
1667267006171443500,0.182443359375,0.01779092662036419,0.08712209016084671,-0.11262496560811996
1667267006173841400,0.18484130859375,0.019623467698693275,0.07734853774309158,-0.11384665966033936
1667267006176239000,0.187239013671875,0.02145601063966751,0.07062921673059464,-0.11262496560811996
1667267006178636800,0.18963671875,0.023288551717996597,0.06574243307113647,-0.11262496560811996
1667267006181034500,0.192034423828125,0.022677704691886902,0.0626882016658783,-0.11201411485671997
1667267006183432400,0.194432373046875,0.020845163613557816,0.06146650388836861,-0.10957072675228119
1667267006185830100,0.196830078125,0.02023431472480297,0.060244809836149216,-0.10651648789644241
1667267006188227800,0.199227783203125,0.015347537584602833,0.06635328382253647,-0.10346225649118423
1667267006190625500,0.20162548828125,0.009849912486970425,0.07307260483503342,-0.10040801763534546
1667267006193023500,0.2040234375,0.0067956759594380856,0.08162446320056915,-0.09613208472728729
1667267006195421200,0.206421142578125,-0.0005344913806766272,0.09384141117334366,-0.09185615926980972
1667267006197819000,0.20881884765625,-0.004199574701488018,0.10728005319833755,-0.08635853230953217
1667267006200216600,0.211216552734375,-0.007253811229020357,0.12377292662858963,-0.08086090534925461
1667267006202614300,0.2136142578125,-0.012140588834881783,0.1414874941110611,-0.07597412914037704
1667267006205012200,0.21601220703125,-0.017027366906404495,0.15614783763885498,-0.0692548081278801
1667267006207410000,0.218409912109375,-0.01763821393251419,0.16958646476268768,-0.06314633786678314
1667267006209807600,0.2208076171875,-0.019470756873488426,0.18302510678768158,-0.05337277799844742
1667267006212205300,0.223205322265625,-0.020692450925707817,0.18913358449935913,-0.044820915907621384
1667267006214603300,0.225603271484375,-0.02008160389959812,0.1934095174074173,-0.03749075159430504
1667267006217001000,0.2280009765625,-0.02008160389959812,0.1934095174074173,-0.03077143058180809
1667267006219398700,0.230398681640625,-0.021303297951817513,0.18913358449935913,-0.020997874438762665
1667267006221796400,0.23279638671875,-0.01885990984737873,0.1805817186832428,-0.01122431829571724
1667267006224194000,0.235194091796875,-0.018249060958623886,0.17080816626548767,-0.002672456670552492
1667267006226592000,0.237592041015625,-0.017027366906404495,0.15981291234493256,0.0028251686599105597
1667267006228989700,0.23998974609375,-0.015194825828075409,0.153704434633255,0.009544488042593002
1667267006231387400,0.242387451171875,-0.013362283818423748,0.15003935992717743,0.016874656081199646
1667267006233785000,0.24478515625,-0.012751436792314053,0.14881765842437744,0.02298312820494175
1667267006236183000,0.24718310546875,-0.009697199799120426,0.15065020322799683,0.02664821222424507
1667267006238580700,0.249580810546875,-0.00786465872079134,0.1555369794368744,0.028480753302574158
1667267006240978400,0.251978515625,-0.006032116711139679,0.16347800195217133,0.030313294380903244
1667267006243376000,0.254376220703125,-0.004199574701488018,0.17569494247436523,0.031534988433122635
1667267006245773800,0.25677392578125,-0.0023670331574976444,0.18363595008850098,0.03092414326965809
1667267006248171800,0.259171875,0.000687203137204051,0.19524206221103668,0.028480753302574158
1667267006250569500,0.261569580078125,0.00007635590736754239,0.20257222652435303,0.024815669283270836
1667267006252967200,0.26396728515625,0.00007635590736754239,0.20990239083766937,0.02298312820494175
1667267006255364900,0.26636474609375,0.0025197449140250683,0.21478916704654694,0.018096350133419037
1667267006257762800,0.2687626953125,0.0025197449140250683,0.2184542566537857,0.01382041908800602
1667267006260160500,0.271160400390625,0.00129805039614439,0.22211933135986328,0.008322793990373611
1667267006262558200,0.27355810546875,0.0019088976550847292,0.22334103286266327,0.005268557462841272
1667267006264956000,0.275955810546875,0.0025197449140250683,0.22456271946430206,0.0034360159188508987
1667267006267353900,0.278353759765625,0.004963133949786425,0.22700610756874084,-0.00022906772210262716
1667267006269751600,0.28075146484375,0.006184828467667103,0.22944949567317963,-0.002061609411612153
1667267006272149200,0.283149169921875,0.0067956759594380856,0.22883865237236023,-0.0014507622690871358
1667267006274547000,0.285546875,0.0067956759594380856,0.22944949567317963,-0.002061609411612153
1667267006276945000,0.28794482421875,0.008017370477318764,0.231282040476799,-0.0032833039294928312
1667267006279342600,0.290342529296875,0.0067956759594380856,0.23006035387516022,-0.002061609411612153
1667267006281740300,0.292740234375,0.009849912486970425,0.22883865237236023,-0.0014507622690871358
1667267006284138000,0.295137939453125,0.01046075951308012,0.22639526426792145,-0.0008399150101467967
1667267006286535700,0.29753564453125,0.011071606539189816,0.22395187616348267,0.0028251686599105597
1667267006288933600,0.29993359375,0.014125842601060867,0.22150848805904388,0.007101099472492933
1667267006291331300,0.302331298828125,0.0165692325681448,0.21784339845180511,0.008933641016483307
1667267006293729000,0.30472900390625,0.0165692325681448,0.20806984603405,0.011377030052244663
1667267006296126700,0.307126708984375,0.019623467698693275,0.20012883841991425,0.014431266114115715
1667267006298524700,0.309524658203125,0.022066857665777206,0.1934095174074173,0.018096350133419037
1667267006300922400,0.31192236328125,0.024510245770215988,0.18241426348686218,0.02420482225716114
1667267006303320000,0.314320068359375,0.025731941685080528,0.17080816626548767,0.027259059250354767
1667267006305717800,0.3167177734375,0.026342788711190224,0.15614783763885498,0.033978380262851715
1667267006308115500,0.319115478515625,0.0293970238417387,0.14332003891468048,0.039476003497838974
1667267006310513400,0.321513427734375,0.028786176815629005,0.1292705535888672,0.04619532451033592
1667267006312911000,0.3239111328125,0.030007870867848396,0.11583191156387329,0.05047125369310379
1667267006315308800,0.326308837890625,0.031229566782712936,0.10544750839471817,0.05657972767949104
1667267006317706500,0.32870654296875,0.03061871975660324,0.09445225447416306,0.06085565686225891
1667267006320104400,0.3311044921875,0.03061871975660324,0.08284615725278854,0.06757497787475586
1667267006322502100,0.333502197265625,0.031229566782712936,0.07429429888725281,0.07246175408363342
1667267006324899800,0.33589990234375,0.03245126083493233,0.06390989571809769,0.07734853774309158
1667267006327297500,0.338297607421875,0.03184041380882263,0.05413633957505226,0.08406785130500793
1667267006329695200,0.3406953125,0.03184041380882263,0.04680617153644562,0.0883437842130661
1667267006332093200,0.34309326171875,0.030007870867848396,0.03764346241950989,0.09200886636972427
1667267006334491000,0.345490966796875,0.0293970238417387,0.027259059250354767,0.09689565002918243
1667267006336888600,0.347888671875,0.023288551717996597,0.01748550310730934,0.09933903813362122
1667267006339286300,0.350286376953125,0.018401773646473885,0.008322793990373611,0.1005607321858406
1667267006341684200,0.352684326171875,0.014736690558493137,-0.0008399150101467967,0.10361496359109879
1667267006344082000,0.35508203125,0.0037414394319057465,-0.010613471269607544,0.10789089649915695
1667267006346479600,0.357479736328125,-0.005421269219368696,-0.017332790419459343,0.10789089649915695
1667267006348877300,0.359877197265625,-0.017027366906404495,-0.022219568490982056,0.10850174725055695
1667267006351275300,0.362275146484375,-0.02802261710166931,-0.023441264405846596,0.10605835169553757
1667267006353673000,0.3646728515625,-0.03840702027082443,-0.02160872146487236,0.10483665764331818
1667267006356070700,0.367070556640625,-0.050013117492198944,-0.020997874438762665,0.10361496359109879
1667267006358468400,0.36946826171875,-0.05978667363524437,-0.016111096367239952,0.10178242623806
1667267006360866000,0.371865966796875,-0.07139277458190918,-0.010613471269607544,0.09811734408140182
1667267006363264000,0.374263916015625,-0.0823880210518837,-0.0032833039294928312,0.09567394852638245
1667267006365661700,0.37666162109375,-0.09155073016881943,0.007101099472492933,0.09323056042194366
1667267006368059400,0.379059326171875,-0.10193513333797455,0.01626380905508995,0.0877329409122467
1667267006370457000,0.38145703125,-0.10987614840269089,0.028480753302574158,0.08406785130500793
1667267006372855000,0.38385498046875,-0.11781716346740723,0.040697697550058365,0.08223531395196915
1667267006375252700,0.386252685546875,-0.12331479042768478,0.05230379477143288,0.07918107509613037
1667267006377650400,0.388650390625,-0.12881241738796234,0.06635328382253647,0.07429429888725281
1667267006380048100,0.391048095703125,-0.1330883502960205,0.07857023179531097,0.06940752267837524
1667267006382445800,0.39344580078125,-0.13736428320407867,0.09139802306890488,0.06574243307113647
1667267006384843800,0.39584375,-0.13736428320407867,0.10117157548666,0.0626882016658783
1667267006387241500,0.398241455078125,-0.13736428320407867,0.11094513535499573,0.05841226875782013
1667267006389639200,0.40063916015625,-0.1361425817012787,0.11705360561609268,0.05474718660116196
1667267006392036900,0.403036865234375,-0.1330883502960205,0.12316207587718964,0.049860406666994095
1667267006394434800,0.405434814453125,-0.13003410398960114,0.12377292662858963,0.04619532451033592
1667267006396832500,0.40783251953125,-0.12270393967628479,0.12377292662858963,0.04375193640589714
1667267006399230200,0.410230224609375,-0.11659546941518784,0.12010784447193146,0.03703261539340019
1667267006401628000,0.4126279296875,-0.1074327602982521,0.1146102175116539,0.0358109213411808
1667267006404025600,0.415025634765625,-0.09827005118131638,0.10789089649915695,0.033978380262851715
1667267006406423600,0.417423583984375,-0.08971819281578064,0.10117157548666,0.030313294380903244
1667267006408821200,0.4198212890625,-0.07811209559440613,0.09506310522556305,0.027259059250354767
1667267006411219000,0.422218994140625,-0.06650599837303162,0.08651123940944672,0.027259059250354767
1667267006413616600,0.42461669921875,-0.053678203374147415,0.07918107509613037,0.027259059250354767
1667267006416014600,0.4270146484375,-0.04085041210055351,0.07307260483503342,0.02970244735479355
1667267006418412300,0.429412353515625,-0.031076854094862938,0.06146650388836861,0.03092414326965809
1667267006420810000,0.43181005859375,-0.01885990984737873,0.05413633957505226,0.032756682485342026
1667267006423207700,0.434207763671875,-0.00786465872079134,0.04375193640589714,0.03703261539340019
1667267006425605600,0.436605712890625,0.004963133949786425,0.03703261539340019,0.03886515647172928
1667267006428003300,0.43900341796875,0.015347537584602833,0.03214583545923233,0.04497363045811653
1667267006430401000,0.441401123046875,0.02817532978951931,0.027869906276464462,0.048638712614774704
1667267006432798700,0.443798828125,0.037948887795209885,0.02298312820494175,0.05535803362727165
1667267006435196700,0.44619677734375,0.0489441379904747,0.02420482225716114,0.05963396281003952
1667267006437594400,0.448594482421875,0.057496000081300735,0.022372281178832054,0.06329904496669769
1667267006439992000,0.450991943359375,0.06849125027656555,0.019928891211748123,0.06574243307113647
1667267006442389800,0.4533896484375,0.07826480269432068,0.01626380905508995,0.06818582862615585
1667267006444787500,0.455787353515625,0.08681666851043701,0.010766183026134968,0.07307260483503342
1667267006447185400,0.458185302734375,0.09414683282375336,0.0028251686599105597,0.07368344813585281
1667267006449583000,0.4605830078125,0.10453123599290848,-0.0032833039294928312,0.07429429888725281
1667267006451980800,0.462980712890625,0.11552648991346359,-0.008780929259955883,0.07429429888725281
1667267006454378500,0.46537841796875,0.12530004978179932,-0.016721943393349648,0.0749051421880722
1667267006456776400,0.4677763671875,0.13629528880119324,-0.02160872146487236,0.07429429888725281
1667267006459174100,0.470174072265625,0.14545799791812897,-0.023441264405846596,0.07062921673059464
1667267006461571800,0.47257177734375,0.1552315652370453,-0.02405211143195629,0.06818582862615585
1667267006463969500,0.474969482421875,0.16439427435398102,-0.01916533336043358,0.06513158977031708
1667267006466367200,0.4773671875,0.17111359536647797,-0.01122431829571724,0.06146650388836861
1667267006468765200,0.47976513671875,0.1796654462814331,-0.002061609411612153,0.05474718660116196
1667267006471163000,0.482162841796875,0.18394137918949127,0.008322793990373611,0.04741701856255531
1667267006473560600,0.484560546875,0.18699561059474945,0.01626380905508995,0.03886515647172928
1667267006475958300,0.486958251953125,0.18699561059474945,0.023593975231051445,0.032756682485342026
1667267006478356200,0.489356201171875,0.18638476729393005,0.031534988433122635,0.022372281178832054
1667267006480754000,0.49175390625,0.18394137918949127,0.04008685052394867,0.011987877078354359
1667267006483151600,0.494151611328125,0.17783290147781372,0.048638712614774704,0.0016034740256145597
1667267006485549300,0.49654931640625,0.17233528196811676,0.059023115783929825,-0.01122431829571724
1667267006487947000,0.498947021484375,0.16439427435398102,0.07429429888725281,-0.02710634656250477
1667267006490345000,0.501344970703125,0.15645325183868408,0.08956547826528549,-0.04115583375096321
1667267006492742700,0.50374267578125,0.14729054272174835,0.10728005319833755,-0.06131379306316376
1667267006495140400,0.506140380859375,0.1393495351076126,0.12316207587718964,-0.082082599401474
1667267006497538000,0.5085380859375,0.13324105739593506,0.13660071790218353,-0.10529479384422302
1667267006499936000,0.51093603515625,0.12346750497817993,0.15187190473079681,-0.1333937644958496
1667267006502333700,0.513333740234375,0.11674818396568298,0.1677539348602295,-0.1621035933494568
1667267006504731400,0.5157314453125,0.10880716890096664,0.18424680829048157,-0.19447849690914154
1667267006507129000,0.518129150390625,0.10514208674430847,0.20257222652435303,-0.2250208556652069
1667267006509527000,0.520527099609375,0.10025530308485031,0.2184542566537857,-0.25800660252571106
1667267006511924700,0.5229248046875,0.09597937762737274,0.23800136148929596,-0.2934357523918152
1667267006514322400,0.525322509765625,0.09475768357515335,0.2612135708332062,-0.3288649022579193
1667267006516720000,0.52772021484375,0.09414683282375336,0.2880908250808716,-0.3673482835292816
1667267006519118000,0.5301181640625,0.09720107167959213,0.308859646320343,-0.4070533514022827
1667267006521515800,0.532515869140625,0.1008661538362503,0.33146098256111145,-0.4467584192752838
1667267006523913500,0.53491357421875,0.10453123599290848,0.3491755723953247,-0.4901285767555237
1667267006526311200,0.537311279296875,0.11125055700540543,0.3650575876235962,-0.5298336148262024
1667267006528708900,0.539708984375,0.11674818396568298,0.38093963265419006,-0.5713712573051453
1667267006531106800,0.54210693359375,0.12224581092596054,0.39498910307884216,-0.6122980117797852
1667267006533504500,0.54450439453125,0.1271325796842575,0.4065952003002167,-0.6544464826583862
1667267006535902200,0.546902099609375,0.13079766929149628,0.4188121557235718,-0.690486490726471
1667267006538300000,0.5492998046875,0.13446275889873505,0.4291965663433075,-0.7259156107902527
1667267006540697900,0.55169775390625,0.1393495351076126,0.4328616261482239,-0.760123074054718
1667267006543095600,0.554095458984375,0.139960378408432,0.43591588735580444,-0.7931088209152222
1667267006545493200,0.5564931640625,0.1424037665128708,0.43713757395744324,-0.81998610496521
1667267006547891000,0.558890869140625,0.14301460981369019,0.4285857081413269,-0.8438091278076172
1667267006550288600,0.56128857421875,0.14545799791812897,0.42308807373046875,-0.8670213222503662
1667267006552686600,0.5636865234375,0.14912308752536774,0.4182012975215912,-0.8829033374786377
1667267006555084300,0.566084228515625,0.15217731893062592,0.40964943170547485,-0.9000070691108704
1667267006557482000,0.56848193359375,0.1546207070350647,0.39621078968048096,-0.912834882736206
1667267006559879700,0.570879638671875,0.15645325183868408,0.38216131925582886,-0.9238301515579224
1667267006562277600,0.573277587890625,0.15645325183868408,0.3656684458255768,-0.9323819875717163
1667267006564675300,0.57567529296875,0.15645325183868408,0.3534514904022217,-0.9397121667861938
1667267006567073000,0.578072998046875,0.1527881771326065,0.34245625138282776,-0.940322995185852
1667267006569470700,0.580470703125,0.14667969942092896,0.33329352736473083,-0.9384904503822327
1667267006571868400,0.582868408203125,0.13690614700317383,0.3241308331489563,-0.9305494427680969
1667267006574266400,0.585266357421875,0.12407834827899933,0.31557896733283997,-0.9201650619506836
1667267006576664000,0.5876640625,0.10880716890096664,0.3076379597187042,-0.9055047035217285
1667267006579061800,0.590061767578125,0.09048175066709518,0.3009186387062073,-0.8859575986862183
1667267006581459500,0.59245947265625,0.07093463838100433,0.2972535490989685,-0.8615236878395081
1667267006583857400,0.594857421875,0.048333290964365005,0.29053422808647156,-0.8395332098007202
1667267006586255000,0.597255126953125,0.023899398744106293,0.2850365936756134,-0.8126559257507324
1667267006588652800,0.59965283203125,0.0025197449140250683,0.27892813086509705,-0.7863894701004028
1667267006591050500,0.602050537109375,-0.0231358390301466,0.27892813086509705,-0.7607339024543762
1667267006593448400,0.604448486328125,-0.04818057641386986,0.27709558606147766,-0.7338566184043884
1667267006595846100,0.60684619140625,-0.0689493864774704,0.27648472785949707,-0.7124769687652588
1667267006598243800,0.609243896484375,-0.08849649876356125,0.27770644426345825,-0.690486490726471
1667267006600641500,0.6116416015625,-0.10376767814159393,0.27648472785949707,-0.6727718710899353
1667267006603039500,0.61403955078125,-0.11598462611436844,0.27770644426345825,-0.653835654258728
1667267006605437200,0.616437255859375,-0.1220930963754654,0.28014981746673584,-0.639175295829773
1667267006607835000,0.6188349609375,-0.12575818598270416,0.27770644426345825,-0.6287909150123596
1667267006610232600,0.621232666015625,-0.12514732778072357,0.27648472785949707,-0.6202390193939209
1667267006612630500,0.623630615234375,-0.1220930963754654,0.2752630412578583,-0.6122980117797852
1667267006615028200,0.6260283203125,-0.11293038725852966,0.2703762650489807,-0.6055787205696106
1667267006617426000,0.628426025390625,-0.10498937219381332,0.26548948884010315,-0.6006919145584106
1667267006619823600,0.63082373046875,-0.09338327497243881,0.2587701678276062,-0.5927509069442749
1667267006622221300,0.63322119140625,-0.08055548369884491,0.2465532273054123,-0.5872532725334167
1667267006624619300,0.635619384765625,-0.07322531193494797,0.231282040476799,-0.5805339813232422
1667267006627017000,0.638016845703125,-0.06345175951719284,0.21723255515098572,-0.5732038021087646
1667267006629414700,0.64041455078125,-0.053678203374147415,0.20257222652435303,-0.5652627944946289
1667267006631812400,0.642812255859375,-0.04879142343997955,0.1915769726037979,-0.5567108988761902
1667267006634210300,0.645210205078125,-0.0426829531788826,0.18791188299655914,-0.5506024360656738
1667267006636608000,0.64760791015625,-0.03779617324471474,0.18302510678768158,-0.5432722568511963
1667267006639005700,0.650005615234375,-0.03168770298361778,0.17141900956630707,-0.5389963388442993
1667267006641403400,0.6524033203125,-0.024968381971120834,0.15675868093967438,-0.5298336148262024
1667267006643801000,0.654801025390625,-0.014583977870643139,0.1408766508102417,-0.5206709504127502
1667267006646199000,0.657198974609375,-0.004199574701488018,0.12377292662858963,-0.5121190547943115
1667267006648596700,0.6595966796875,0.0031305921729654074,0.10422581434249878,-0.5029563903808594
1667267006650994400,0.661994384765625,0.011071606539189816,0.0883437842130661,-0.4913502633571625
1667267006653392100,0.66439208984375,0.02145601063966751,0.06757497787475586,-0.48096585273742676
1667267006655790000,0.6667900390625,0.027564482763409615,0.04741701856255531,-0.4656946659088135
1667267006658187800,0.669187744140625,0.03184041380882263,0.024815669283270836,-0.4479801058769226
1667267006660585500,0.67158544921875,0.03978142887353897,0.0022143214009702206,-0.4345414638519287
1667267006662983200,0.673983154296875,0.043446511030197144,-0.017332790419459343,-0.4186594486236572
1667267006665380900,0.676380859375,0.047111593186855316,-0.039323292672634125,-0.40277740359306335
1667267006667778800,0.67877880859375,0.05016583204269409,-0.058870404958724976,-0.38933876156806946
1667267006670176500,0.681176513671875,0.05199837312102318,-0.07536327838897705,-0.37406760454177856
1667267006672574200,0.68357421875,0.055052608251571655,-0.09307785332202911,-0.36123979091644287
1667267006674972000,0.685971923828125,0.05322006717324257,-0.11018157750368118,-0.34963369369506836
1667267006677369900,0.688369873046875,0.05566345527768135,-0.13095037639141083,-0.33802759647369385
1667267006679767600,0.690767578125,0.056274302303791046,-0.1480541080236435,-0.3288649022579193
1667267006682165200,0.693165283203125,0.055052608251571655,-0.1621035933494568,-0.320313036441803
1667267006684563000,0.69556298828125,0.05810684710741043,-0.17554223537445068,-0.31359371542930603
1667267006686960600,0.697960693359375,0.05810684710741043,-0.18226155638694763,-0.3080960810184479
1667267006689358600,0.700358642578125,0.056274302303791046,-0.1865374743938446,-0.3013767600059509
1667267006691756300,0.70275634765625,0.05566345527768135,-0.19203510880470276,-0.29832252860069275
1667267006694154000,0.705154052734375,0.05688514932990074,-0.19753272831439972,-0.29526829719543457
1667267006696552000,0.707552001953125,0.056274302303791046,-0.1999761164188385,-0.29587915539741516
1667267006698949600,0.70994970703125,0.05932854115962982,-0.1999761164188385,-0.29771167039871216
1667267006701347300,0.712347412109375,0.0623827762901783,-0.20241950452327728,-0.30015507340431213
1667267006703745000,0.7147451171875,0.06604786217212677,-0.20547375082969666,-0.3038201630115509
1667267006706143000,0.71714306640625,0.06971294432878494,-0.20852798223495483,-0.31176117062568665
1667267006708540700,0.719540771484375,0.0758214145898819,-0.2134147584438324,-0.320313036441803
1667267006710938400,0.7219384765625,0.08254073560237885,-0.21524730324745178,-0.32519981265068054
1667267006713336000,0.724336181640625,0.09170344471931458,-0.22074492275714874,-0.3337516784667969
1667267006715733800,0.726733642578125,0.09964445978403091,-0.22318831086158752,-0.3404709994792938
1667267006718131700,0.729131591796875,0.10697462409734726,-0.2250208556652069,-0.34902286529541016
1667267006720529400,0.731529296875,0.1149156391620636,-0.2268534004688263,-0.3539096415042877
1667267006722927000,0.733927001953125,0.12041326612234116,-0.22868594527244568,-0.36185064911842346
1667267006725324800,0.73632470703125,0.1289651244878769,-0.22868594527244568,-0.3685699701309204
1667267006727722800,0.73872265625,0.13751699030399323,-0.22807510197162628,-0.371013343334198
1667267006730120400,0.741120361328125,0.14729054272174835,-0.22868594527244568,-0.37590011954307556
1667267006732518100,0.74351806640625,0.1540098637342453,-0.22807510197162628,-0.37773266434669495
1667267006734915800,0.745915771484375,0.16317257285118103,-0.22379916906356812,-0.3801760673522949
1667267006737313800,0.748313720703125,0.17538951337337494,-0.21891239285469055,-0.3820086121559143
1667267006739711500,0.75071142578125,0.18516308069229126,-0.212803915143013,-0.37712183594703674
1667267006742109200,0.753109130859375,0.19738002121448517,-0.20608459413051605,-0.37651097774505615
1667267006744507000,0.7555068359375,0.2059318870306015,-0.1987544298171997,-0.371013343334198
1667267006746904600,0.757904541015625,0.21448373794555664,-0.19325679540634155,-0.36185064911842346
1667267006749302500,0.760302490234375,0.22181391716003418,-0.19203510880470276,-0.35207709670066833
1667267006751700200,0.7627001953125,0.22792237997055054,-0.19386765360832214,-0.33986014127731323
1667267006754098000,0.765097900390625,0.2340308576822281,-0.19570018351078033,-0.32336726784706116
1667267006756495600,0.76749560546875,0.23647424578666687,-0.1999761164188385,-0.3056527078151703
1667267006758893600,0.7698935546875,0.24075017869472504,-0.20180866122245789,-0.28732728958129883
1667267006761291300,0.772291259765625,0.24197186529636383,-0.20425204932689667,-0.2653367817401886
1667267006763689000,0.77468896484375,0.2444152534008026,-0.20303036272525787,-0.24334627389907837
1667267006766086700,0.777086669921875,0.24746949970722198,-0.19753272831439972,-0.22135578095912933
1667267006768484400,0.779484375,0.25235626101493835,-0.19325679540634155,-0.1999761164188385
1667267006770882300,0.78188232421875,0.2596864402294159,-0.19020256400108337,-0.17798562347888947
1667267006773280000,0.784280029296875,0.26640576124191284,-0.1859266310930252,-0.15782766044139862
1667267006775677700,0.786677734375,0.2712925374507904,-0.1847049444913864,-0.13950224220752716
1667267006778075400,0.789075439453125,0.27862271666526794,-0.18409408628940582,-0.11995512992143631
1667267006780473300,0.791473388671875,0.2847311794757843,-0.1877591758966446,-0.10162971168756485
1667267006782871000,0.79387109375,0.28961795568466187,-0.18898087739944458,-0.08330429345369339
1667267006785268700,0.796268798828125,0.29511559009552,-0.18898087739944458,-0.06620056927204132
1667267006787666400,0.79866650390625,0.2957264184951782,-0.18898087739944458,-0.048486001789569855
1667267006790064400,0.801064453125,0.3006131947040558,-0.19203510880470276,-0.03321481868624687
1667267006792462000,0.803462158203125,0.30305659770965576,-0.18959172070026398,-0.017332790419459343
1667267006794859800,0.80585986328125,0.30611082911491394,-0.1847049444913864,-0.0038941511884331703
1667267006797257500,0.808257568359375,0.3085542321205139,-0.17798562347888947,0.004046862944960594
1667267006799655400,0.810655517578125,0.3097759187221527,-0.16882291436195374,0.014431266114115715
1667267006802053000,0.81305322265625,0.3091650605201721,-0.15294088423252106,0.018707197159528732
1667267006804450800,0.815450927734375,0.30733251571655273,-0.13644801080226898,0.02298312820494175
1667267006806848500,0.8178486328125,0.3085542321205139,-0.1205659806728363,0.02420482225716114
1667267006809246500,0.82024658203125,0.3079433739185333,-0.10468395054340363,0.026037365198135376
1667267006811644200,0.82264404296875,0.30672168731689453,-0.09063446521759033,0.022372281178832054
1667267006814041900,0.825041748046875,0.30672168731689453,-0.07475243508815765,0.019318044185638428
1667267006816439600,0.827439453125,0.30611082911491394,-0.06192464008927345,0.012598725035786629
1667267006818837500,0.82983740234375,0.30488914251327515,-0.05276193097233772,0.004046862944960594
1667267006821235200,0.832235107421875,0.30366745591163635,-0.04543176665902138,-0.002672456670552492
1667267006823633000,0.8346328125,0.2981698215007782,-0.04787515476346016,-0.0051158457063138485
1667267006826030600,0.837030517578125,0.29145050048828125,-0.053983625024557114,-0.01122431829571724
1667267006828428300,0.83942822265625,0.2841203212738037,-0.06192464008927345,-0.014889402315020561
1667267006830826200,0.841826171875,0.27617931365966797,-0.07108735293149948,-0.019776180386543274
1667267006833224000,0.844223876953125,0.26640576124191284,-0.07841751724481583,-0.022219568490982056
1667267006835621600,0.84662158203125,0.2566322088241577,-0.08758022636175156,-0.024662958458065987
1667267006838019300,0.849019287109375,0.2444152534008026,-0.09063446521759033,-0.02832804247736931
1667267006840417300,0.851417236328125,0.23036576807498932,-0.09002361446619034,-0.028938889503479004
1667267006842815000,0.85381494140625,0.21142950654029846,-0.08696937561035156,-0.03443651273846626
1667267006845212700,0.856212646484375,0.19127154350280762,-0.08025006204843521,-0.040544986724853516
1667267006847610400,0.8586103515625,0.1662268042564392,-0.07169819623231888,-0.04665346071124077
1667267006850008300,0.86100830078125,0.1424037665128708,-0.05948125198483467,-0.053983625024557114
1667267006852406000,0.863406005859375,0.11552648991346359,-0.044820915907621384,-0.06436803191900253
1667267006854803700,0.8658037109375,0.08742751181125641,-0.026495499536395073,-0.07841751724481583
1667267006857201400,0.868201416015625,0.062993623316288,-0.004504998680204153,-0.09246700257062912
1667267006859599000,0.87059912109375,0.03733803704380989,0.019318044185638428,-0.1083490327000618
1667267006861997000,0.8729970703125,0.013514995574951172,0.041919391602277756,-0.12667444348335266
1667267006864394800,0.875394775390625,-0.010918894782662392,0.06696412712335587,-0.14499986171722412
1667267006866792400,0.87779248046875,-0.031076854094862938,0.08651123940944672,-0.16454698145389557
1667267006869190100,0.880190185546875,-0.04879142343997955,0.10789089649915695,-0.1847049444913864
1667267006871588000,0.882588134765625,-0.0689493864774704,0.12499462068080902,-0.20608459413051605
1667267006873985800,0.88498583984375,-0.08360971510410309,0.13782241940498352,-0.2250208556652069
1667267006876383500,0.887383544921875,-0.09643751382827759,0.1530935913324356,-0.24517881870269775
1667267006878781200,0.88978125,-0.10682191699743271,0.16225630044937134,-0.2653367817401886
1667267006881179100,0.89217919921875,-0.11598462611436844,0.17202985286712646,-0.28549474477767944
1667267006883576800,0.894576904296875,-0.1220930963754654,0.17447324097156525,-0.3032093048095703
1667267006885974500,0.896974609375,-0.12331479042768478,0.17813833057880402,-0.3209238648414612
1667267006888372200,0.899372314453125,-0.12331479042768478,0.17752748727798462,-0.3404709994792938
1667267006890770000,0.90177001953125,-0.11964970827102661,0.17752748727798462,-0.3575747013092041
1667267006893167900,0.90416796875,-0.11415208131074905,0.17691664397716522,-0.3722350597381592
1667267006895565600,0.906565673828125,-0.10376767814159393,0.179360032081604,-0.38811707496643066
1667267006897963300,0.90896337890625,-0.09155073016881943,0.17813833057880402,-0.40338826179504395
1667267006900361000,0.91136083984375,-0.07933378964662552,0.1811925619840622,-0.41743773221969604
1667267006902759000,0.913759033203125,-0.06284090876579285,0.18363595008850098,-0.42965468764305115
1667267006905156600,0.916156494140625,-0.0420721061527729,0.18607935309410095,-0.44431501626968384
1667267006907554300,0.91855419921875,-0.02557922899723053,0.18913358449935913,-0.45714282989501953
1667267006909952000,0.920951904296875,-0.00786465872079134,0.19096612930297852,-0.47119230031967163
1667267006912350000,0.923349853515625,0.00862821750342846,0.19096612930297852,-0.48157671093940735
1667267006914747600,0.92574755859375,0.026342788711190224,0.1927986592054367,-0.49257194995880127
1667267006917145300,0.928145263671875,0.043446511030197144,0.1934095174074173,-0.5023455023765564
1667267006919543000,0.93054296875,0.05810684710741043,0.19768545031547546,-0.5121190547943115
1667267006921941000,0.93294091796875,0.07276718318462372,0.20135052502155304,-0.5188384056091309
1667267006924338700,0.935338623046875,0.08437328040599823,0.20379391312599182,-0.524336040019989
1667267006926736400,0.937736328125,0.09597937762737274,0.2050156146287918,-0.528001070022583
1667267006929134000,0.940134033203125,0.10636378079652786,0.20868068933486938,-0.5322770476341248
1667267006931532000,0.942531982421875,0.1143047958612442,0.21234577894210815,-0.5334987044334412
1667267006933929700,0.9449296875,0.12224581092596054,0.21478916704654694,-0.5322770476341248
1667267006936327400,0.947327392578125,0.1277434378862381,0.2184542566537857,-0.5298336148262024
1667267006938725000,0.94972509765625,0.13629528880119324,0.21662171185016632,-0.5261685848236084
1667267006941123000,0.952123046875,0.14362546801567078,0.20990239083766937,-0.5225034952163696
1667267006943520800,0.954520751953125,0.15095563232898712,0.19829629361629486,-0.5176166892051697
1667267006945918500,0.95691845703125,0.16072918474674225,0.1811925619840622,-0.5157841444015503
1667267006948316200,0.959316162109375,0.168670192360878,0.15736952424049377,-0.5108973979949951
1667267006950714000,0.961714111328125,0.17783290147781372,0.1292705535888672,-0.504788875579834
1667267006953111800,0.96411181640625,0.18516308069229126,0.09506310522556305,-0.49745872616767883
1667267006955509500,0.966509521484375,0.19615831971168518,0.05474718660116196,-0.4913502633571625
1667267006957907200,0.9689072265625,0.21142950654029846,0.011377030052244663,-0.4876851737499237
1667267006960305000,0.971304931640625,0.22731153666973114,-0.03565821051597595,-0.48402008414268494
1667267006962702800,0.973702880859375,0.2450261116027832,-0.08574768155813217,-0.48340925574302673
1667267006965100500,0.9761005859375,0.26457321643829346,-0.13889139890670776,-0.4846309423446655
1667267006967498200,0.978498291015625,0.2853420376777649,-0.18959172070026398,-0.4852418005466461
1667267006969896000,0.98089599609375,0.3085542321205139,-0.24456797540187836,-0.4864634871482849
1667267006972294000,0.9832939453125,0.33115556836128235,-0.29954421520233154,-0.4901285767555237
1667267006974691600,0.985691650390625,0.35436776280403137,-0.3539096415042877,-0.49440449476242065
1667267006977089300,0.98808935546875,0.3794125020503998,-0.4076641798019409,-0.49623703956604004
1667267006979487000,0.990487060546875,0.4050680994987488,-0.46332764625549316,-0.50112384557724
1667267006981885000,0.992885009765625,0.4295019805431366,-0.5128062963485718,-0.5066214203834534
1667267006984282600,0.99528271484375,0.4527141749858856,-0.5604523420333862,-0.5108973979949951
1667267006986680300,0.997680419921875,0.47592636942863464,-0.6026008129119873,-0.5163949728012085
1667267006989078000,1.000078125,0.4954734742641449,-0.6435275673866272,-0.5188384056091309
1667267006991476000,1.00247607421875,0.5131880640983582,-0.6765133142471313,-0.523725152015686
1667267006993873700,1.004873779296875,0.526626706123352,-0.7021689414978027,-0.5298336148262024
1667267006996271400,1.007271240234375,0.535178542137146,-0.7229377031326294,-0.5341095924377441
1667267006998669000,1.0096689453125,0.5418978929519653,-0.7357655167579651,-0.5426614284515381
1667267007001066800,1.012066650390625,0.5418978929519653,-0.7382088899612427,-0.5512133240699768
1667267007003464700,1.014464599609375,0.5345677137374878,-0.7345438003540039,-0.5615977048873901
1667267007005862400,1.0168623046875,0.5235724449157715,-0.7192726731300354,-0.5768688917160034
1667267007008260000,1.019260009765625,0.5009710788726807,-0.7070556879043579,-0.5927509069442749
1667267007010657800,1.02165771484375,0.4673745036125183,-0.6930062174797058,-0.6098546385765076
1667267007013055700,1.0240556640625,0.4276694357395172,-0.6783458590507507,-0.6287909150123596
1667267007015453400,1.026453369140625,0.3910185992717743,-0.6594096422195435,-0.6483380198478699
1667267007017851100,1.02885107421875,0.3531460762023926,-0.6398624777793884,-0.6654417514801025
1667267007020248800,1.031248779296875,0.3128301501274109,-0.6209262609481812,-0.681323766708374
1667267007022646800,1.033646728515625,0.2712925374507904,-0.6019899845123291,-0.6947624087333679
1667267007025044500,1.03604443359375,0.22792237997055054,-0.587329626083374,-0.7020925879478455
1667267007027442200,1.038442138671875,0.1802763044834137,-0.5732801556587219,-0.7094227075576782
1667267007029840000,1.04083984375,0.13568444550037384,-0.5586197972297668,-0.70881187915802
1667267007032237800,1.04323779296875,0.0886492058634758,-0.5402944087982178,-0.7002600431442261
1667267007034635500,1.045635498046875,0.039170581847429276,-0.5219689607620239,-0.6837671399116516
1667267007037033200,1.048033203125,-0.012751436792314053,-0.5030327439308167,-0.6605549454689026
1667267007039431000,1.050430908203125,-0.06772769242525101,-0.47615543007850647,-0.6269583702087402
1667267007041828900,1.052828857421875,-0.12697987258434296,-0.4450022280216217,-0.5866424441337585
1667267007044226600,1.0552265625,-0.18989713490009308,-0.4119401276111603,-0.5371637940406799
1667267007046624300,1.057624267578125,-0.2546469569206238,-0.3844519853591919,-0.48279839754104614
1667267007049022000,1.06002197265625,-0.31947311758995056,-0.3557421863079071,-0.41804859042167664
1667267007051420000,1.062419921875,-0.3817795515060425,-0.3215347230434418,-0.3453577756881714
1667267007053817600,1.064817626953125,-0.4453076422214508,-0.28305134177207947,-0.2622825503349304
1667267007056215300,1.06721533203125,-0.5033381581306458,-0.2384594976902008,-0.1743205338716507
1667267007058613000,1.069613037109375,-0.5583143830299377,-0.19020256400108337,-0.08025006204843521
1667267007061011000,1.072010986328125,-0.6096255779266357,-0.14377817511558533,0.019928891211748123
1667267007063408600,1.07440869140625,-0.6542174220085144,-0.09674293547868729,0.11766445636749268
1667267007065806300,1.076806396484375,-0.6927008032798767,-0.049707695841789246,0.2184542566537857
1667267007068204000,1.0792041015625,-0.7250757217407227,-0.0130568603053689,0.31802234053611755
1667267007070602000,1.08160205078125,-0.7513421177864075,0.013209572061896324,0.4163687527179718
1667267007072999700,1.083999755859375,-0.7751652002334595,0.0364217683672905,0.5098283886909485
1667267007075397400,1.0863974609375,-0.7879929542541504,0.04497363045811653,0.5984012484550476
1667267007077795000,1.088795166015625,-0.7977665066719055,0.044362783432006836,0.6820873022079468
1667267007080193000,1.091193115234375,-0.7971556782722473,0.03336753323674202,0.7560762166976929
1667267007082590700,1.0935908203125,-0.7941014170646667,0.012598725035786629,0.8226585388183594
1667267007084988400,1.095988525390625,-0.7873821258544922,-0.019776180386543274,0.8800781965255737
1667267007087386000,1.09838623046875,-0.7745543122291565,-0.06070294603705406,0.9295567870140076
1667267007089783800,1.10078369140625,-0.7580614686012268,-0.10468395054340363,0.9637642502784729
1667267007092181800,1.103181640625,-0.7415685653686523,-0.1462215632200241,0.9888089895248413
1667267007094579500,1.105579345703125,-0.7165238261222839,-0.1859266310930252,1.006523609161377
1667267007096977200,1.10797705078125,-0.6914790868759155,-0.22013407945632935,1.0101886987686157
1667267007099374800,1.110374755859375,-0.6621584296226501,-0.25678491592407227,1.005301833152771
1667267007101772800,1.112772705078125,-0.6310052275657654,-0.30015507340431213,0.9918632507324219
1667267007104170500,1.11517041015625,-0.5967977643013,-0.34719032049179077,0.9668185114860535
1667267007106568200,1.117568115234375,-0.5607577562332153,-0.40277740359306335,0.9350544214248657
1667267007108966000,1.1199658203125,-0.5308262705802917,-0.49020493030548096,0.8965710401535034
1667267007111363800,1.12236376953125,-0.5082249045372009,-0.5726693272590637,0.8513683676719666
1667267007113761500,1.124761474609375,-0.48989951610565186,-0.6533011198043823,0.8037222623825073
1667267007116159200,1.1271591796875,-0.46729815006256104,-0.7137750387191772,0.7536327838897705
1667267007118557000,1.129556884765625,-0.4416425824165344,-0.7528692483901978,0.7004127502441406
1667267007120955000,1.131954833984375,-0.41232189536094666,-0.7718055248260498,0.6417713761329651
1667267007123352600,1.1343525390625,-0.3817795515060425,-0.772416353225708,0.5794649720191956
1667267007125750300,1.136750244140625,-0.34451785683631897,-0.7601994276046753,0.5104392170906067
1667267007128148000,1.13914794921875,-0.3023693859577179,-0.7437065243721008,0.4389701187610626
1667267007130546000,1.1415458984375,-0.25953373312950134,-0.7235485911369324,0.3656684458255768
1667267007132943600,1.143943603515625,-0.20944425463676453,-0.7027797698974609,0.283204048871994
1667267007135341300,1.14634130859375,-0.15752223134040833,-0.6777350306510925,0.19890713691711426
1667267007137739000,1.148739013671875,-0.10254598408937454,-0.6465818285942078,0.11216682940721512
1667267007140137000,1.151136962890625,-0.04512634128332138,-0.6080984473228455,0.024815669283270836
1667267007142534700,1.15353466796875,0.014736690558493137,-0.5622848868370056,-0.06497887521982193
1667267007144932400,1.155932373046875,0.07276718318462372,-0.5170822143554688,-0.15233004093170166
1667267007147330000,1.158330078125,0.13385190069675446,-0.4688252806663513,-0.237237811088562
1667267007149727700,1.160727783203125,0.1949366331100464,-0.41743773221969604,-0.3215347230434418
1667267007152125700,1.163125732421875,0.25357797741889954,-0.366737425327301,-0.3978906273841858
1667267007154523400,1.1655234375,0.3122192919254303,-0.32275640964508057,-0.4718031585216522
1667267007156921000,1.167921142578125,0.3653630316257477,-0.28427302837371826,-0.5389963388442993
1667267007159318800,1.17031884765625,0.4178958833217621,-0.2500655949115753,-0.5982485413551331
1667267007161716700,1.172716796875,0.4661528170108795,-0.22013407945632935,-0.6507813930511475
1667267007164114400,1.175114501953125,0.5101338028907776,-0.18898087739944458,-0.6947624087333679
1667267007166512000,1.17751220703125,0.5516714453697205,-0.16332527995109558,-0.7301915287971497
1667267007168909800,1.179909912109375,0.5919873714447021,-0.13889139890670776,-0.7546254396438599
1667267007171307800,1.182307861328125,0.6286382079124451,-0.1083490327000618,-0.7692857384681702
1667267007173705500,1.18470556640625,0.6634564995765686,-0.07414158433675766,-0.7723399996757507
1667267007176103200,1.187103271484375,0.6958313584327698,-0.031382277607917786,-0.7680640816688538
1667267007178500900,1.1895009765625,0.7214869856834412,0.02176143415272236,-0.7564579844474792
1667267007180898800,1.19189892578125,0.7404232621192932,0.09078717231750488,-0.7265264391899109
1667267007183296500,1.194296630859375,0.7563052773475647,0.15614783763885498,-0.6880430579185486
1667267007185694200,1.196694091796875,0.7746306657791138,0.20073968172073364,-0.6428403854370117
1667267007188092000,1.199091796875,0.799064576625824,0.22150848805904388,-0.5896966457366943
1667267007190489900,1.20148974609375,0.8253310322761536,0.21784339845180511,-0.5298336148262024
1667267007192887600,1.203887451171875,0.8552625179290771,0.20379391312599182,-0.4608078896999359
1667267007195285200,1.20628515625,0.8864157199859619,0.18974442780017853,-0.3875062167644501
1667267007197683000,1.208682861328125,0.9163472652435303,0.179360032081604,-0.3080960810184479
1667267007200081000,1.211080810546875,0.9481112957000732,0.15798036754131317,-0.2262425571680069
1667267007202478600,1.213478515625,0.9774319529533386,0.13782241940498352,-0.14011308550834656
1667267007204876300,1.215876220703125,1.00797438621521,0.11338852345943451,-0.05215108394622803
1667267007207274000,1.21827392578125,1.0379058122634888,0.08162446320056915,0.03825430944561958
1667267007209672000,1.220671875,1.0702807903289795,0.04741701856255531,0.1280488520860672
1667267007212069600,1.223069580078125,1.100823163986206,0.005879404954612255,0.21601086854934692
1667267007214467300,1.22546728515625,1.1301437616348267,-0.038101598620414734,0.3009186387062073
1667267007216865000,1.227864990234375,1.160075306892395,-0.08574768155813217,0.38155046105384827
1667267007219263000,1.230262939453125,1.1863417625427246,-0.13644801080226898,0.4542413055896759
1667267007221660700,1.23266064453125,1.2113864421844482,-0.1859266310930252,0.5202127695083618
1667267007224058400,1.235058349609375,1.2358204126358032,-0.23662695288658142,0.5800758004188538
1667267007226456000,1.2374560546875,1.2559783458709717,-0.28793811798095703,0.6301652789115906
1667267007228854000,1.23985400390625,1.275525450706482,-0.3337516784667969,0.6692595481872559
1667267007231251700,1.242251708984375,1.2926291227340698,-0.37528929114341736,0.6967476606369019
1667267007233649400,1.2446494140625,1.3054569959640503,-0.4119401276111603,0.7144622206687927
1667267007236047000,1.247047119140625,1.3115653991699219,-0.43767204880714417,0.7205706834793091
1667267007238445000,1.249445068359375,1.3127870559692383,-0.4584408700466156,0.7162947654724121
1667267007240842800,1.2518427734375,1.3158413171768188,-0.4682144224643707,0.6991910338401794
1667267007243240400,1.254240478515625,1.3097329139709473,-0.46210595965385437,0.6698703765869141
1667267007245638100,1.25663818359375,1.3005701303482056,-0.4443913698196411,0.6313869953155518
1667267007248036000,1.2590361328125,1.2914074659347534,-0.4259895980358124,0.5819083452224731
1667267007250433800,1.261433837890625,1.2761362791061401,-0.40583163499832153,0.526321291923523
1667267007252831500,1.26383154296875,1.2596434354782104,-0.37956520915031433,0.46340399980545044
1667267007255229200,1.266229248046875,1.2419288158416748,-0.3453577756881714,0.39621078968048096
1667267007257627100,1.268627197265625,1.2187166213989258,-0.29832252860069275,0.3222982883453369
1667267007260024800,1.27102490234375,1.1942827701568604,-0.24517881870269775,0.2434989959001541
1667267007262422500,1.273422607421875,1.168627142906189,-0.188370019197464,0.16408884525299072
1667267007264820200,1.2758203125,1.1374739408493042,-0.12911784648895264,0.08162446320056915
1667267007267218200,1.27821826171875,1.1069315671920776,-0.0686439573764801,0.00038177953683771193
1667267007269615900,1.280615966796875,1.0678373575210571,-0.00022906772210262716,-0.07902836054563522
1667267007272013600,1.283013671875,1.0293539762496948,0.06696412712335587,-0.1590493619441986
1667267007274411300,1.285411376953125,0.9859838485717773,0.1396549493074417,-0.237237811088562
1667267007276809000,1.28780908203125,0.9389485716819763,0.21662171185016632,-0.31115031242370605
1667267007279207000,1.29020703125,0.8900808095932007,0.29053422808647156,-0.3801760673522949
1667267007281604600,1.2926044921875,0.8369371294975281,0.362003356218338,-0.44248247146606445
1667267007284002300,1.295002197265625,0.7856259346008301,0.4304182529449463,-0.4999021291732788
1667267007286400000,1.29739990234375,0.7312605381011963,0.4927246570587158,-0.5493807792663574
1667267007288798000,1.2997978515625,0.6762842535972595,0.5519768595695496,-0.5933617353439331
1667267007291195600,1.302195556640625,0.6237514019012451,0.5965687036514282,-0.630623459815979
1667267007293593300,1.30459326171875,0.5712185502052307,0.6332195401191711,-0.6575007438659668
1667267007295991000,1.306990966796875,0.5205182433128357,0.6613185405731201,-0.6788803935050964
1667267007298389000,1.309388916015625,0.47165045142173767,0.6808656454086304,-0.6923190355300903
1667267007300786700,1.31178662109375,0.42461520433425903,0.697969377040863,-0.6984274983406067
1667267007303184400,1.314184326171875,0.3794125020503998,0.7132405042648315,-0.6959841251373291
1667267007305582000,1.31658203125,0.3335989713668823,0.7266791462898254,-0.6886539459228516
1667267007307980000,1.31897998046875,0.29083964228630066,0.7358418703079224,-0.6733827590942383
1667267007310377700,1.321377685546875,0.25357797741889954,0.7395069599151611,-0.6526139378547668
1667267007312775400,1.323775390625,0.21509459614753723,0.7376744151115417,-0.6269583702087402
1667267007315173000,1.326173095703125,0.1808871477842331,0.7352310419082642,-0.5945834517478943
1667267007317571000,1.328571044921875,0.14790138602256775,0.7303442358970642,-0.5567108988761902
1667267007319968800,1.33096875,0.11919157207012177,0.7217923998832703,-0.5151733160018921
1667267007322366500,1.333366455078125,0.09231429547071457,0.7071320414543152,-0.46935975551605225
1667267007324764200,1.33576416015625,0.06543701142072678,0.6881957650184631,-0.4186594486236572
1667267007327162000,1.338162109375,0.043446511030197144,0.6625401973724365,-0.366737425327301
1667267007329559800,1.340559814453125,0.023899398744106293,0.6338303685188293,-0.31359371542930603
1667267007331957500,1.34295751953125,0.004963133949786425,0.6020663380622864,-0.2543415129184723
1667267007334355200,1.345355224609375,-0.010918894782662392,0.5666372179985046,-0.19692188501358032
1667267007336753200,1.347753173828125,-0.02557922899723053,0.5305972099304199,-0.14255647361278534
1667267007339150800,1.35015087890625,-0.03962871432304382,0.48905959725379944,-0.08758022636175156
1667267007341548500,1.352548583984375,-0.0555107444524765,0.44752198457717896,-0.028938889503479004
1667267007343946200,1.3549462890625,-0.06528430432081223,0.4017084240913391,0.02420482225716114
1667267007346344200,1.35734423828125,-0.07750124484300613,0.35528403520584106,0.07795938104391098
1667267007348742000,1.359741943359375,-0.08849649876356125,0.30641624331474304,0.13049224019050598
1667267007351139600,1.3621396484375,-0.09765920788049698,0.25449424982070923,0.1805817186832428
1667267007353537300,1.364537353515625,-0.1080436110496521,0.2050156146287918,0.2318928837776184
1667267007355935000,1.36693505859375,-0.11598462611436844,0.15736952424049377,0.27953898906707764
1667267007358333000,1.3693330078125,-0.12575818598270416,0.11277767270803452,0.32779592275619507
1667267007360730600,1.371730712890625,-0.1330883502960205,0.07001836597919464,0.37299859523773193
1667267007363128300,1.37412841796875,-0.14225105941295624,0.031534988433122635,0.42064470052719116
1667267007365526000,1.376526123046875,-0.14897038042545319,-0.0008399150101467967,0.46340399980545044
1667267007367924000,1.378924072265625,-0.15385715663433075,-0.03382566571235657,0.5037199258804321
1667267007370321700,1.38132177734375,-0.15752223134040833,-0.053983625024557114,0.544646680355072
1667267007372719400,1.38371923828125,-0.1611873209476471,-0.07169819623231888,0.5825192332267761
1667267007375117000,1.386116943359375,-0.16363070905208588,-0.08513683825731277,0.6161158084869385
1667267007377515000,1.388514892578125,-0.16668494045734406,-0.09185615926980972,0.6472690105438232
1667267007379912700,1.39091259765625,-0.17035003006458282,-0.0942995473742485,0.6753680109977722
1667267007382310400,1.393310302734375,-0.17096087336540222,-0.09246700257062912,0.6985802054405212
1667267007384708000,1.3957080078125,-0.17584764957427979,-0.09063446521759033,0.7181273102760315
1667267007387106000,1.39810595703125,-0.17829103767871857,-0.08452598750591278,0.7346965670585632
1667267007389503700,1.400503662109375,-0.17829103767871857,-0.08025006204843521,0.7463026642799377
1667267007391901400,1.4029013671875,-0.18439951539039612,-0.07291989028453827,0.7554653286933899
1667267007394299100,1.405299072265625,-0.19050799310207367,-0.06558972597122192,0.7603521347045898
1667267007396697000,1.407697021484375,-0.19722731411457062,-0.06131379306316376,0.7621846795082092
1667267007399094800,1.4100947265625,-0.20455747842788696,-0.05031854286789894,0.7627955079078674
1667267007401492500,1.412492431640625,-0.2118876427412033,-0.04115583375096321,0.7603521347045898
1667267007403890200,1.41489013671875,-0.22043950855731964,-0.031382277607917786,0.7560762166976929
1667267007406288100,1.4172880859375,-0.23265644907951355,-0.02160872146487236,0.7481352090835571
1667267007408685800,1.419685791015625,-0.2405974566936493,-0.009391776286065578,0.7401941418647766
1667267007411083500,1.42208349609375,-0.2528144121170044,0.0022143214009702206,0.7309551239013672
1667267007413481200,1.424481201171875,-0.2638096511363983,0.01626380905508995,0.7181273102760315
1667267007415879200,1.426879150390625,-0.2748049199581146,0.032756682485342026,0.7046886682510376
1667267007418276900,1.42927685546875,-0.28763270378112793,0.048638712614774704,0.6930825710296631
1667267007420674600,1.431674560546875,-0.29862794280052185,0.06940752267837524,0.6814764738082886
1667267007423072300,1.434072265625,-0.31031039357185364,0.0883437842130661,0.6668161153793335
1667267007425470200,1.43647021484375,-0.32191649079322815,0.10850174725055695,0.6539883613586426
1667267007427868000,1.438867919921875,-0.33169007301330566,0.12560546398162842,0.6417713761329651
1667267007430265600,1.441265625,-0.3402419090270996,0.14270919561386108,0.6295544505119324
1667267007432663600,1.44366357421875,-0.3512371778488159,0.154926136136055,0.619170069694519
1667267007435061200,1.446061279296875,-0.35856732726097107,0.16042375564575195,0.6075639724731445
1667267007437459000,1.448458984375,-0.3646758198738098,0.1671430766582489,0.5971795320510864
1667267007439856600,1.450856689453125,-0.37200596928596497,0.17080816626548767,0.5867951512336731
1667267007442254600,1.453254638671875,-0.3799470067024231,0.17569494247436523,0.5745782256126404
1667267007444652300,1.45565234375,-0.38544461131095886,0.17630578577518463,0.5629721283912659
1667267007447050000,1.458050048828125,-0.3921639323234558,0.17508409917354584,0.5544202327728271
1667267007449447700,1.46044775390625,-0.39827242493629456,0.17447324097156525,0.5434249639511108
1667267007451845600,1.462845703125,-0.40010493993759155,0.17447324097156525,0.5354839563369751
1667267007454243300,1.465243408203125,-0.40132665634155273,0.17264071106910706,0.5269321203231812
1667267007456641000,1.46764111328125,-0.40132665634155273,0.17141900956630707,0.5177693963050842
1667267007459038700,1.470038818359375,-0.40010493993759155,0.17141900956630707,0.5086066722869873
1667267007461436700,1.472436767578125,-0.40010493993759155,0.16958646476268768,0.49944397807121277
1667267007463834400,1.47483447265625,-0.40132665634155273,0.1653105467557907,0.4908921420574188
1667267007466232000,1.477232177734375,-0.39888325333595276,0.15920206904411316,0.4805077314376831
1667267007468629800,1.479629638671875,-0.39827242493629456,0.14881765842437744,0.470734179019928
1667267007471027500,1.48202734375,-0.40071579813957214,0.13354648649692535,0.45973891019821167
1667267007473425400,1.48442529296875,-0.39949411153793335,0.11766445636749268,0.44813281297683716
1667267007475823000,1.486822998046875,-0.40193748474121094,0.09689565002918243,0.43713757395744324
1667267007478220800,1.489220703125,-0.4062134325504303,0.07673768699169159,0.42430979013442993
1667267007480618500,1.491618408203125,-0.4080459773540497,0.06085565686225891,0.40903860330581665
1667267007483016400,1.494016357421875,-0.41048935055732727,0.040697697550058365,0.39437827467918396
1667267007485414100,1.4964140625,-0.41293275356292725,0.022372281178832054,0.3784962296485901
1667267007487811800,1.498811767578125,-0.4159869849681854,0.004046862944960594,0.3626142144203186
1667267007490209500,1.50120947265625,-0.4190412163734436,-0.01122431829571724,0.34673216938972473
1667267007492607500,1.503607421875,-0.4190412163734436,-0.023441264405846596,0.33146098256111145
1667267007495005200,1.506005126953125,-0.4202629029750824,-0.03321481868624687,0.3149681091308594
1667267007497403000,1.50840283203125,-0.4220954477787018,-0.039323292672634125,0.3015294671058655
1667267007499800600,1.510800537109375,-0.4178195297718048,-0.0429883748292923,0.2862583100795746
1667267007502198500,1.513198486328125,-0.41537612676620483,-0.0429883748292923,0.2728196680545807
1667267007504596200,1.51559619140625,-0.41293275356292725,-0.04359922185540199,0.26243525743484497
1667267007506994000,1.517993896484375,-0.41048935055732727,-0.039323292672634125,0.25266170501708984
1667267007509391600,1.5203916015625,-0.4080459773540497,-0.03993413969874382,0.24899661540985107
1667267007511789600,1.52278955078125,-0.40193748474121094,-0.03626905754208565,0.24044474959373474
1667267007514187300,1.525187255859375,-0.40010493993759155,-0.030160583555698395,0.23800136148929596
1667267007516585000,1.5275849609375,-0.40010493993759155,-0.02038702741265297,0.23861220479011536
1667267007518982700,1.529982666015625,-0.3939964771270752,-0.006337540224194527,0.24105559289455414
1667267007521380600,1.532380615234375,-0.390942245721817,0.005879404954612255,0.2441098392009735
1667267007523778300,1.5347783203125,-0.38666632771492004,0.015042114071547985,0.2465532273054123
1667267007526176000,1.537176025390625,-0.38422292470932007,0.02664821222424507,0.25327253341674805
1667267007528573700,1.53957373046875,-0.38422292470932007,0.04253023862838745,0.25449424982070923
1667267007530971600,1.5419716796875,-0.3830012381076813,0.057801421731710434,0.26243525743484497
1667267007533369300,1.544369384765625,-0.3817795515060425,0.0755159929394722,0.26854372024536133
1667267007535767000,1.54676708984375,-0.3830012381076813,0.0889546349644661,0.27648472785949707
1667267007538164700,1.549164794921875,-0.3836120665073395,0.10300412029027939,0.2825932204723358
1667267007540562700,1.551562744140625,-0.3836120665073395,0.1152210608124733,0.2880908250808716
1667267007542960400,1.55396044921875,-0.38483378291130066,0.12988139688968658,0.2978644073009491
1667267007545358000,1.556358154296875,-0.3811686933040619,0.14270919561386108,0.3076379597187042
1667267007547755800,1.558755859375,-0.3805578351020813,0.154926136136055,0.32046574354171753
1667267007550153700,1.56115380859375,-0.3799470067024231,0.1689756214618683,0.32962843775749207
1667267007552551400,1.563551513671875,-0.37506023049354553,0.18241426348686218,0.34367793798446655
1667267007554949000,1.56594921875,-0.3701734244823456,0.19707459211349487,0.35833826661109924
1667267007557346800,1.568346923828125,-0.3646758198738098,0.2068481594324112,0.3736094534397125
1667267007559744800,1.570744873046875,-0.3573456406593323,0.21234577894210815,0.3907131850719452
1667267007562142500,1.573142578125,-0.3530697226524353,0.21173493564128876,0.40903860330581665
1667267007564540200,1.5755400390625,-0.34696123003959656,0.20257222652435303,0.4285857081413269
1667267007566937900,1.577937744140625,-0.33718767762184143,0.18241426348686218,0.44691112637519836
1667267007569335800,1.580335693359375,-0.3292466700077057,0.15736952424049377,0.4664582312107086
1667267007571733500,1.5827333984375,-0.32252734899520874,0.13110309839248657,0.48539450764656067
1667267007574131200,1.585131103515625,-0.3139754831790924,0.09628479927778244,0.5055524706840515
1667267007576529000,1.58752880859375,-0.30603447556495667,0.060244809836149216,0.5226562023162842
1667267007578926800,1.5899267578125,-0.29679539799690247,0.022372281178832054,0.5428141355514526
1667267007581324500,1.592324462890625,-0.2882435619831085,-0.018554486334323883,0.5586961507797241
1667267007583722200,1.59472216796875,-0.280913382768631,-0.057648710906505585,0.5782433152198792
1667267007586120000,1.597119873046875,-0.2748049199581146,-0.0942995473742485,0.595346987247467
1667267007588517600,1.599517578125,-0.2686964273452759,-0.13095037639141083,0.6124507188796997
1667267007590915600,1.60191552734375,-0.2631988227367401,-0.16271443665027618,0.6295544505119324
1667267007593313300,1.604313232421875,-0.25831204652786255,-0.19203510880470276,0.6429930925369263
1667267007595711000,1.6067109375,-0.255257785320282,-0.21585814654827118,0.6576534509658813
1667267007598108700,1.609108642578125,-0.24914932250976562,-0.23174017667770386,0.6704812049865723
1667267007600506600,1.611506591796875,-0.24548424780368805,-0.24212458729743958,0.6839198470115662
1667267007602904300,1.613904296875,-0.2399866133928299,-0.24823305010795593,0.6943042874336243
1667267007605302000,1.616302001953125,-0.23632153868675232,-0.2512872815132141,0.6998018622398376
1667267007607699700,1.61869970703125,-0.23509983718395233,-0.2506764531135559,0.7083537578582764
1667267007610097700,1.62109765625,-0.23265644907951355,-0.24578966200351715,0.7187381386756897
1667267007612495400,1.623495361328125,-0.23326729238033295,-0.22868594527244568,0.7272900342941284
1667267007614893000,1.62589306640625,-0.2375432252883911,-0.1987544298171997,0.7395833134651184
1667267007617290800,1.628290771484375,-0.24487338960170746,-0.188370019197464,0.7493568658828735
1667267007619688700,1.630688720703125,-0.250981867313385,-0.1871483325958252,0.7585195899009705
1667267007622086400,1.63308642578125,-0.25647950172424316,-0.19570018351078033,0.7640172243118286
1667267007624484000,1.635484130859375,-0.26014456152915955,-0.211582213640213,0.7664605975151062
1667267007626881800,1.6378818359375,-0.2625879645347595,-0.22868594527244568,0.770125687122345
1667267007629279700,1.64027978515625,-0.2674747407436371,-0.24334627389907837,0.7768449783325195
1667267007631677400,1.642677490234375,-0.2680855989456177,-0.2512872815132141,0.7811209559440613
1667267007634075100,1.6450751953125,-0.27052897214889526,-0.2543415129184723,0.7878402471542358
1667267007636472800,1.647472900390625,-0.27358320355415344,-0.2525089979171753,0.7915053367614746
1667267007638870800,1.649870849609375,-0.2760266065597534,-0.24212458729743958,0.7970029711723328
1667267007641268500,1.6522685546875,-0.2790808379650116,-0.2244100123643875,0.8049439787864685
1667267007643666200,1.654666259765625,-0.2821350693702698,-0.20547375082969666,0.8092198967933655
1667267007646063900,1.65706396484375,-0.28580015897750854,-0.18409408628940582,0.8141067028045654
1667267007648461800,1.6594619140625,-0.28702184557914734,-0.16515782475471497,0.8171609044075012
1667267007650859500,1.661859619140625,-0.2882435619831085,-0.15110833942890167,0.8189934492111206
1667267007653257200,1.66425732421875,-0.28518930077552795,-0.13766969740390778,0.816550076007843
1667267007655655000,1.666655029296875,-0.2821350693702698,-0.12239851802587509,0.8128849864006042
1667267007658052900,1.669052978515625,-0.278469979763031,-0.10040801763534546,0.8079982399940491
1667267007660450600,1.671450439453125,-0.27236151695251465,-0.07536327838897705,0.7988355159759521
1667267007662848300,1.67384814453125,-0.2674747407436371,-0.05825955793261528,0.7915053367614746
1667267007665246200,1.67624609375,-0.2644205093383789,-0.03993413969874382,0.7835643291473389
1667267007667644000,1.678643798828125,-0.2644205093383789,-0.02710634656250477,0.7719582319259644
1667267007670041600,1.68104150390625,-0.2613662779331207,-0.009391776286065578,0.7603521347045898
1667267007672439300,1.683439208984375,-0.26014456152915955,0.011377030052244663,0.746913492679596
1667267007674837200,1.685837158203125,-0.25647950172424316,0.03458922728896141,0.7327876687049866
1667267007677235000,1.68823486328125,-0.255257785320282,0.060244809836149216,0.7150730490684509
1667267007679632600,1.690632568359375,-0.25709033012390137,0.08956547826528549,0.6967476606369019
1667267007682030300,1.6930302734375,-0.25709033012390137,0.12255123257637024,0.678422212600708
1667267007684428300,1.69542822265625,-0.25892287492752075,0.15798036754131317,0.6570425629615784
1667267007686826000,1.697825927734375,-0.26075541973114014,0.19524206221103668,0.6332195401191711
1667267007689223700,1.7002236328125,-0.2644205093383789,0.23067119717597961,0.6075639724731445
1667267007691621400,1.702621337890625,-0.2686964273452759,0.2581593096256256,0.5782433152198792
1667267007694019300,1.705019287109375,-0.27236151695251465,0.28076067566871643,0.5458683967590332
1667267007696417000,1.7074169921875,-0.276637464761734,0.2996969223022461,0.5067741274833679
1667267007698814700,1.709814697265625,-0.28518930077552795,0.31741151213645935,0.4701233208179474
1667267007701212400,1.71221240234375,-0.2912977933883667,0.32901760935783386,0.4310291111469269
1667267007703610400,1.7146103515625,-0.3011476993560791,0.33268269896507263,0.3870480954647064
1667267007706008000,1.717008056640625,-0.31031039357185364,0.33023929595947266,0.3473430275917053
1667267007708405800,1.71940576171875,-0.31886225938796997,0.3210766017436981,0.30336201190948486
1667267007710803500,1.721803466796875,-0.33230090141296387,0.30702710151672363,0.259991854429245
1667267007713201400,1.724201416015625,-0.3402419090270996,0.29053422808647156,0.22211933135986328
1667267007715599000,1.72659912109375,-0.3518480062484741,0.27892813086509705,0.18546849489212036
1667267007717996800,1.728996826171875,-0.36039987206459045,0.26548948884010315,0.15065020322799683
1667267007720394500,1.73139453125,-0.3695625960826874,0.25143998861312866,0.11644276231527328
1667267007722792400,1.73379248046875,-0.3793361485004425,0.23922306299209595,0.08528954535722733
1667267007725190100,1.736190185546875,-0.38666632771492004,0.22761696577072144,0.05596888065338135
1667267007727587800,1.738587890625,-0.39643988013267517,0.21784339845180511,0.031534988433122635
1667267007729985500,1.740985595703125,-0.4037700295448303,0.21173493564128876,0.011377030052244663
1667267007732383500,1.743383544921875,-0.41537612676620483,0.20318306982517242,-0.0130568603053689
1667267007734781200,1.74578125,-0.42453885078430176,0.19524206221103668,-0.03443651273846626
1667267007737179000,1.748178955078125,-0.4337015450000763,0.1921878159046173,-0.05948125198483467
1667267007739576600,1.75057666015625,-0.44103172421455383,0.18974442780017853,-0.082082599401474
1667267007741974500,1.752974609375,-0.4489727318286896,0.18607935309410095,-0.1083490327000618
1667267007744372200,1.755372314453125,-0.4587462842464447,0.18607935309410095,-0.13156123459339142
1667267007746770000,1.75777001953125,-0.46363306045532227,0.18546849489212036,-0.15233004093170166
1667267007749167600,1.760167724609375,-0.4715740978717804,0.19035527110099792,-0.16637952625751495
1667267007751565600,1.762565673828125,-0.47646087408065796,0.19646374881267548,-0.18103985488414764
1667267007753963300,1.76496337890625,-0.48073679208755493,0.2056264579296112,-0.1877591758966446
1667267007756361000,1.76736083984375,-0.4825693368911743,0.21784339845180511,-0.19142426550388336
1667267007758758700,1.769758544921875,-0.4831801950931549,0.231282040476799,-0.19325679540634155
1667267007761156400,1.77215625,-0.4819584786891937,0.2465532273054123,-0.19142426550388336
1667267007763554300,1.77455419921875,-0.48012593388557434,0.26548948884010315,-0.1865374743938446
1667267007765952000,1.776951904296875,-0.47646087408065796,0.2887016832828522,-0.17798562347888947
1667267007768349700,1.779349609375,-0.4721849262714386,0.3082487881183624,-0.16576866805553436
1667267007770747400,1.781747314453125,-0.46302223205566406,0.33268269896507263,-0.15110833942890167
1667267007773145300,1.784145263671875,-0.45324867963790894,0.3510081171989441,-0.14133478701114655
1667267007775543000,1.78654296875,-0.4416425824165344,0.36811181902885437,-0.12423106282949448
1667267007777940700,1.788940673828125,-0.4294256269931793,0.38521555066108704,-0.10651648789644241
1667267007780338400,1.79133837890625,-0.41354358196258545,0.4004867374897003,-0.09063446521759033
1667267007782736400,1.793736328125,-0.40071579813957214,0.4133145213127136,-0.07597412914037704
1667267007785134000,1.796134033203125,-0.3811686933040619,0.42430979013442993,-0.06192464008927345
1667267007787531800,1.79853173828125,-0.363454133272171,0.4310291111469269,-0.04604261368513107
1667267007789929500,1.800929443359375,-0.34512871503829956,0.4316399395465851,-0.03321481868624687
1667267007792327400,1.803327392578125,-0.3298575282096863,0.4291965663433075,-0.020997874438762665
1667267007794725000,1.80572509765625,-0.3139754831790924,0.42186638712882996,-0.006948387715965509
1667267007797122800,1.808122802734375,-0.29740625619888306,0.41026028990745544,0.005268557462841272
1667267007799520500,1.8105205078125,-0.28335678577423096,0.3925457298755646,0.013209572061896324
1667267007801918500,1.81291845703125,-0.27113983035087585,0.36750099062919617,0.019928891211748123
1667267007804316200,1.815316162109375,-0.25892287492752075,0.3339043855667114,0.023593975231051445
1667267007806713900,1.8177138671875,-0.24426254630088806,0.2887016832828522,0.029091600328683853
1667267007809111600,1.820111572265625,-0.23265644907951355,0.231282040476799,0.035200074315071106
1667267007811509500,1.822509521484375,-0.22349373996257782,0.1653105467557907,0.040697697550058365
1667267007813907200,1.8249072265625,-0.2143310308456421,0.09139802306890488,0.04497363045811653
1667267007816305000,1.827304931640625,-0.21005509793758392,0.011987877078354359,0.04741701856255531
1667267007818702600,1.82970263671875,-0.20700086653232574,-0.07291989028453827,0.05230379477143288
1667267007821100500,1.8321005859375,-0.20883341133594513,-0.1621035933494568,0.05963396281003952
1667267007823498200,1.834498291015625,-0.2112767994403839,-0.2518981397151947,0.06635328382253647
1667267007825896000,1.83689599609375,-0.21677441895008087,-0.33986014127731323,0.07307260483503342
1667267007828293600,1.839293701171875,-0.22349373996257782,-0.42843300104141235,0.08284615725278854
1667267007830691600,1.841691650390625,-0.23143476247787476,-0.5146388411521912,0.09384141117334366
1667267007833089300,1.84408935546875,-0.24181915819644928,-0.6038225293159485,0.10361496359109879
1667267007835487000,1.846487060546875,-0.250981867313385,-0.6856760382652283,0.11094513535499573
1667267007837884700,1.848884765625,-0.25953373312950134,-0.7632536292076111,0.11949699372053146
1667267007840282600,1.85128271484375,-0.2656421959400177,-0.8408312797546387,0.13049224019050598
1667267007842680300,1.853680419921875,-0.27297237515449524,-0.9104678630828857,0.13843326270580292
1667267007845078000,1.856078125,-0.2760266065597534,-0.9727742671966553,0.14881765842437744
1667267007847475700,1.858475830078125,-0.2754157483577728,-1.0295830965042114,0.15798036754131317
1667267007849873700,1.860873779296875,-0.2748049199581146,-1.0772291421890259,0.1659213900566101
1667267007852271400,1.863271240234375,-0.27052897214889526,-1.1157125234603882,0.17630578577518463
1667267007854669000,1.8656689453125,-0.2662530541419983,-1.1389247179031372,0.18730103969573975
1667267007857066800,1.868066650390625,-0.2638096511363983,-1.1389247179031372,0.19707459211349487
1667267007859464700,1.870464599609375,-0.26197710633277893,-1.1364812850952148,0.20929154753684998
1667267007861862400,1.8728623046875,-0.26014456152915955,-1.1303728818893433,0.2202867865562439
1667267007864260000,1.875260009765625,-0.25770118832588196,-1.1199884414672852,0.22944949567317963
1667267007866657800,1.87765771484375,-0.255257785320282,-1.101052165031433,0.23861220479011536
1667267007869055700,1.8800556640625,-0.25709033012390137,-1.073564052581787,0.24899661540985107
1667267007871453400,1.882453369140625,-0.25709033012390137,-1.0363023281097412,0.2587701678276062
1667267007873851100,1.88485107421875,-0.25709033012390137,-0.9917105436325073,0.2740413546562195
1667267007876248800,1.887248779296875,-0.25770118832588196,-0.9410101771354675,0.28992336988449097
1667267007878646800,1.889646728515625,-0.25709033012390137,-0.8884773254394531,0.308859646320343
1667267007881044500,1.89204443359375,-0.25647950172424316,-0.8273926377296448,0.33268269896507263
1667267007883442200,1.894442138671875,-0.253425270318985,-0.7632536292076111,0.3534514904022217
1667267007885840000,1.89683984375,-0.250981867313385,-0.6972821354866028,0.3784962296485901
1667267007888237800,1.89923779296875,-0.24548424780368805,-0.6233696341514587,0.4065952003002167
1667267007890635500,1.901635498046875,-0.2399866133928299,-0.5500679612159729,0.4322507977485657
1667267007893033200,1.904033203125,-0.23265644907951355,-0.4712686538696289,0.46096062660217285
1667267007895431000,1.906430908203125,-0.22349373996257782,-0.3954472541809082,0.48905959725379944
1667267007897828900,1.908828857421875,-0.2149418741464615,-0.320313036441803,0.5196019411087036
1667267007900226600,1.9112265625,-0.20394663512706757,-0.24517881870269775,0.548922598361969
1667267007902624300,1.913624267578125,-0.19172967970371246,-0.16637952625751495,0.5794649720191956
1667267007905022000,1.91602197265625,-0.17890189588069916,-0.08880192041397095,0.6057314276695251
1667267007907420000,1.918419921875,-0.16729579865932465,-0.011835165321826935,0.6326087117195129
1667267007909817600,1.920817626953125,-0.15691138803958893,0.06085565686225891,0.6588751077651978
1667267007912215300,1.92321533203125,-0.14469444751739502,0.12438376992940903,0.683309018611908
1667267007914613000,1.925613037109375,-0.1349208950996399,0.1811925619840622,0.7034669518470764
1667267007917011000,1.928010986328125,-0.12820157408714294,0.23739051818847656,0.7217923998832703
1667267007919408600,1.93040869140625,-0.12270393967628479,0.2880908250808716,0.737750768661499
1667267007921806300,1.932806396484375,-0.11720632016658783,0.336347758769989,0.7524111270904541
1667267007924204000,1.9352041015625,-0.11720632016658783,0.3772745430469513,0.7634063363075256
1667267007926602000,1.93760205078125,-0.11598462611436844,0.41026028990745544,0.7725690603256226
1667267007928999700,1.939999755859375,-0.11476293206214905,0.4267531633377075,0.7805100679397583
1667267007931397400,1.9423974609375,-0.11476293206214905,0.4285857081413269,0.7878402471542358
1667267007933795000,1.944795166015625,-0.11170869320631027,0.42186638712882996,0.793337881565094
1667267007936193000,1.947193115234375,-0.1080436110496521,0.4017084240913391,0.7988355159759521
1667267007938590700,1.9495908203125,-0.10376767814159393,0.3760528564453125,0.8043331503868103
1667267007940988400,1.951988525390625,-0.10010259598493576,0.3394020199775696,0.8086090683937073
1667267007943386000,1.95438623046875,-0.09643751382827759,0.2984752357006073,0.8128849864006042
1667267007945784000,1.9567841796875,-0.08788564801216125,0.25205084681510925,0.82082599401474
1667267007948181800,1.959181640625,-0.0817771777510643,0.2050156146287918,0.8269344568252563
1667267007950579500,1.961579345703125,-0.07383616268634796,0.15675868093967438,0.8354863524436951
1667267007952977200,1.96397705078125,-0.07017108052968979,0.1023932695388794,0.844649076461792
1667267007955375000,1.966375,-0.06772769242525101,0.051082100719213486,0.8507575392723083
1667267007957772800,1.968772705078125,-0.06406260281801224,0.010766183026134968,0.8623636364936829
1667267007960170500,1.97117041015625,-0.05978667363524437,-0.02283041551709175,0.8703046441078186
1667267007962568200,1.973568115234375,-0.05734328553080559,-0.05154023692011833,0.8806890249252319
1667267007964966100,1.975966064453125,-0.05306735634803772,-0.07230904698371887,0.89107346534729
1667267007967363800,1.97836376953125,-0.050013117492198944,-0.08696937561035156,0.9045121073722839
1667267007969761500,1.980761474609375,-0.04634803533554077,-0.10040801763534546,0.9130639433860779
1667267007972159200,1.9831591796875,-0.045737188309431076,-0.10590564459562302,0.9179506897926331
1667267007974557200,1.98555712890625,-0.0426829531788826,-0.11079242080450058,0.9240592122077942
1667267007976955000,1.987954833984375,-0.04023956134915352,-0.10895988345146179,0.9265025854110718
1667267007979352600,1.9903525390625,-0.03779617324471474,-0.10651648789644241,0.9301676750183105
1667267007981750300,1.992750244140625,-0.03596363216638565,-0.09613208472728729,0.9258917570114136
1667267007984148200,1.995148193359375,-0.035352785140275955,-0.08269345015287399,0.9222266674041748
1667267007986546000,1.9975458984375,-0.036574479192495346,-0.06253548711538315,0.9179506897926331
1667267007988943600,1.999943603515625,-0.03352024406194687,-0.041766680777072906,0.9100096821784973
1667267007991341300,2.00234130859375,-0.03168770298361778,-0.016111096367239952,0.9020686745643616
1667267007993739300,2.0047392578125,-0.03229855000972748,0.008933641016483307,0.8898517489433289
1667267007996137000,2.007136962890625,-0.03229855000972748,0.035200074315071106,0.8770239353179932
1667267007998534700,2.00953466796875,-0.03229855000972748,0.06390989571809769,0.8635852932929993
1667267008000932400,2.011932373046875,-0.03474193811416626,0.0883437842130661,0.8495358228683472
1667267008003330300,2.014330322265625,-0.03779617324471474,0.11155597865581512,0.8367080092430115
1667267008005728000,2.01672802734375,-0.04085041210055351,0.13171394169330597,0.8202151656150818
1667267008008125700,2.019125732421875,-0.0420721061527729,0.14881765842437744,0.8067765235900879
1667267008010523400,2.0215234375,-0.045737188309431076,0.16225630044937134,0.793337881565094
1667267008012921300,2.02392138671875,-0.050013117492198944,0.17080816626548767,0.7823426127433777
1667267008015319000,2.026319091796875,-0.05062396824359894,0.1805817186832428,0.7689039707183838
1667267008017716700,2.028716796875,-0.053678203374147415,0.18913358449935913,0.7572978734970093
1667267008020114400,2.031114501953125,-0.05428905040025711,0.19646374881267548,0.7487460374832153
1667267008022512400,2.033512451171875,-0.054899897426366806,0.20012883841991425,0.7389724850654602
1667267008024910000,2.03591015625,-0.05428905040025711,0.20257222652435303,0.7309551239013672
1667267008027307800,2.038307861328125,-0.0561215914785862,0.20012883841991425,0.7260683178901672
1667267008029705500,2.04070556640625,-0.053678203374147415,0.20012883841991425,0.7217923998832703
1667267008032103400,2.043103515625,-0.05123481526970863,0.19951798021793365,0.7156839370727539
1667267008034501000,2.045501220703125,-0.04818057641386986,0.19890713691711426,0.7089645862579346
1667267008036898800,2.04789892578125,-0.04512634128332138,0.20135052502155304,0.7040778398513794
1667267008039296500,2.050296630859375,-0.03901786729693413,0.20135052502155304,0.7010235786437988
1667267008041694500,2.052694580078125,-0.034131091088056564,0.2044047713279724,0.6973584890365601
1667267008044092200,2.055092041015625,-0.028633465990424156,0.2062373012304306,0.6918608546257019
1667267008046489900,2.05748974609375,-0.022524992004036903,0.21234577894210815,0.6912500262260437
1667267008048887600,2.059887451171875,-0.018249060958623886,0.21478916704654694,0.6888066530227661
1667267008051285500,2.062285400390625,-0.012751436792314053,0.21784339845180511,0.6869741082191467
1667267008053683200,2.06468310546875,-0.010918894782662392,0.22700610756874084,0.6851415634155273
1667267008056081000,2.067080810546875,-0.009697199799120426,0.2318928837776184,0.6820873022079468
1667267008058478600,2.069478515625,-0.007253811229020357,0.23861220479011536,0.6796439290046692
1667267008060876500,2.07187646484375,-0.0035887276753783226,0.2447206825017929,0.6723137497901917
1667267008063274200,2.074274169921875,-0.004810422193259001,0.25082916021347046,0.6662052869796753
1667267008065672000,2.076671875,-0.006032116711139679,0.2587701678276062,0.6594859957695007
1667267008068069600,2.079069580078125,-0.008475505746901035,0.26610034704208374,0.646658182144165
1667267008070467600,2.081467529296875,-0.008475505746901035,0.2734304964542389,0.6326087117195129
1667267008072865300,2.083865234375,-0.011529741808772087,0.27892813086509705,0.6136724352836609
1667267008075263000,2.086262939453125,-0.013362283818423748,0.2844257652759552,0.5947361588478088
1667267008077660700,2.08866064453125,-0.015805672854185104,0.2862583100795746,0.5715239644050598
1667267008080058400,2.091058349609375,-0.01885990984737873,0.2868691384792328,0.544646680355072
1667267008082456300,2.093456298828125,-0.022524992004036903,0.283204048871994,0.5153260231018066
1667267008084854000,2.09585400390625,-0.0231358390301466,0.2734304964542389,0.4835619628429413
