time,seconds_elapsed,z,y,x
1667266158716837400,0.08783740234375,0.06971294432878494,-0.2751103341579437,0.10850174725055695
1667266158719235000,0.090235107421875,0.07887565344572067,-0.26167169213294983,0.13110309839248657
1667266158721632800,0.0926328125,0.0880383625626564,-0.2512872815132141,0.15126104652881622
1667266158724030700,0.09503076171875,0.09659022092819214,-0.2402920424938202,0.17264071106910706
1667266158726428400,0.097428466796875,0.10269869863986969,-0.23174017667770386,0.19096612930297852
1667266158728826400,0.099826416015625,0.10575293004512787,-0.22807510197162628,0.20868068933486938
1667266158731224000,0.10222412109375,0.11125055700540543,-0.2274642437696457,0.22150848805904388
1667266158733621800,0.104621826171875,0.11552648991346359,-0.22868594527244568,0.2331145852804184
1667266158736019700,0.107019775390625,0.12163496017456055,-0.22868594527244568,0.24166645109653473
1667266158738417400,0.10941748046875,0.13018682599067688,-0.22868594527244568,0.2477749139070511
1667266158740815000,0.111815185546875,0.13568444550037384,-0.23112933337688446,0.25021830201148987
1667266158743213000,0.114213134765625,0.14423631131649017,-0.23296187818050385,0.24899661540985107
1667266158745610800,0.11661083984375,0.1540098637342453,-0.2378486543893814,0.24899661540985107
1667266158748008700,0.1190087890625,0.16134002804756165,-0.24395711719989777,0.2441098392009735
1667266158750406400,0.121406494140625,0.1680593490600586,-0.2531198263168335,0.23861220479011536
1667266158752804000,0.12380419921875,0.17722205817699432,-0.25739577412605286,0.2318928837776184
1667266158755202000,0.1262021484375,0.19004985690116882,-0.26045000553131104,0.22211933135986328
1667266158757599700,0.128599853515625,0.20409934222698212,-0.26900187134742737,0.21051323413848877
1667266158759997400,0.13099755859375,0.21448373794555664,-0.2781645655632019,0.19768545031547546
1667266158762395400,0.1333955078125,0.22486814856529236,-0.28549474477767944,0.18241426348686218
1667266158764793000,0.13579296875,0.2315874695777893,-0.2922140657901764,0.1659213900566101
1667266158767191000,0.13819091796875,0.23647424578666687,-0.29954421520233154,0.14759597182273865
1667266158769588700,0.140588623046875,0.24197186529636383,-0.3056527078151703,0.1292705535888672
1667266158771986400,0.142986328125,0.24380441009998322,-0.31237202882766724,0.11094513535499573
1667266158774384400,0.14538427734375,0.2450261116027832,-0.320313036441803,0.09139802306890488
1667266158776782000,0.147781982421875,0.24380441009998322,-0.3294757306575775,0.07001836597919464
1667266158779179800,0.1501796875,0.24258272349834442,-0.33680590987205505,0.05047125369310379
1667266158781577700,0.15257763671875,0.23769593238830566,-0.3447469174861908,0.03092414326965809
1667266158783975400,0.154975341796875,0.2321983128786087,-0.35329878330230713,0.011377030052244663
1667266158786373400,0.157373291015625,0.22670069336891174,-0.3581855595111847,-0.008780929259955883
1667266158788771000,0.15977099609375,0.2212030589580536,-0.36368319392204285,-0.027717193588614464
1667266158791169000,0.1621689453125,0.21387289464473724,-0.3685699701309204,-0.04604261368513107
1667266158793566700,0.164566650390625,0.2053210288286209,-0.373456746339798,-0.05948125198483467
1667266158795964400,0.16696435546875,0.19738002121448517,-0.37590011954307556,-0.07353074103593826
1667266158798362000,0.169362060546875,0.18516308069229126,-0.37467843294143677,-0.08574768155813217
1667266158800760000,0.171760009765625,0.17661121487617493,-0.3691807985305786,-0.09307785332202911
1667266158803157800,0.17415771484375,0.17172443866729736,-0.36185064911842346,-0.10162971168756485
1667266158805555700,0.1765556640625,0.1656159609556198,-0.34963369369506836,-0.1083490327000618
1667266158807953400,0.178953369140625,0.16195088624954224,-0.33802759647369385,-0.11506835371255875
1667266158810351400,0.181351318359375,0.16072918474674225,-0.32214558124542236,-0.11690089106559753
1667266158812749000,0.1837490234375,0.15889663994312286,-0.3056527078151703,-0.11873343586921692
1667266158815146800,0.186146728515625,0.16439427435398102,-0.28488388657569885,-0.11934428662061691
1667266158817544700,0.188544677734375,0.17172443866729736,-0.2659476399421692,-0.1205659806728363
1667266158819942400,0.1909423828125,0.17538951337337494,-0.24762220680713654,-0.1205659806728363
1667266158822340000,0.193340087890625,0.18333053588867188,-0.23112933337688446,-0.11934428662061691
1667266158824738000,0.195738037109375,0.19066070020198822,-0.21036052703857422,-0.11934428662061691
1667266158827135700,0.1981357421875,0.20287764072418213,-0.19081340730190277,-0.11995512992143631
1667266158829533700,0.20053369140625,0.21448373794555664,-0.1730988472700119,-0.12239851802587509
1667266158831931400,0.202931396484375,0.22914408147335052,-0.15660595893859863,-0.1205659806728363
1667266158834329000,0.2053291015625,0.24380441009998322,-0.14133478701114655,-0.11934428662061691
1667266158836727000,0.20772705078125,0.2615189850330353,-0.12789614498615265,-0.1205659806728363
1667266158839124700,0.210124755859375,0.27740100026130676,-0.11262496560811996,-0.11934428662061691
1667266158841522400,0.2125224609375,0.2969481348991394,-0.09796462953090668,-0.11629004776477814
1667266158843920400,0.21492041015625,0.3134410083293915,-0.08086090534925461,-0.11384665966033936
1667266158846318000,0.217318115234375,0.32993388175964355,-0.06742226332426071,-0.10957072675228119
1667266158848716000,0.219716064453125,0.34520506858825684,-0.050929389894008636,-0.10529479384422302
1667266158851113700,0.22211376953125,0.35803285241127014,-0.03321481868624687,-0.10224056243896484
1667266158853511400,0.224511474609375,0.36963894963264465,-0.017332790419459343,-0.09918632358312607
1667266158855909400,0.226909423828125,0.3806341886520386,-0.002061609411612153,-0.09307785332202911
1667266158858307000,0.22930712890625,0.3879643678665161,0.014431266114115715,-0.09002361446619034
1667266158860704800,0.231704833984375,0.39468368887901306,0.027259059250354767,-0.08758022636175156
1667266158863102700,0.234102783203125,0.39834877848625183,0.039476003497838974,-0.08330429345369339
1667266158865500400,0.23650048828125,0.4020138382911682,0.0492495596408844,-0.0814717561006546
1667266158867898400,0.2388984375,0.4007921516895294,0.05596888065338135,-0.07902836054563522
1667266158870296000,0.241296142578125,0.4020138382911682,0.06635328382253647,-0.07719582319259644
1667266158872693800,0.24369384765625,0.4001813232898712,0.07429429888725281,-0.07658497244119644
1667266158875091700,0.246091796875,0.39773792028427124,0.08284615725278854,-0.07475243508815765
1667266158877489400,0.248489501953125,0.39407283067703247,0.08406785130500793,-0.07780666649341583
1667266158879887400,0.250887451171875,0.3904077410697937,0.0883437842130661,-0.07841751724481583
1667266158882285000,0.25328515625,0.3879643678665161,0.08956547826528549,-0.082082599401474
1667266158884682800,0.255682861328125,0.3806341886520386,0.08590039610862732,-0.08635853230953217
1667266158887080700,0.258080810546875,0.37208232283592224,0.08162446320056915,-0.09307785332202911
1667266158889478400,0.260478515625,0.3665847182273865,0.07857023179531097,-0.10040801763534546
1667266158891876000,0.2628759765625,0.35925453901290894,0.06757497787475586,-0.1077381819486618
1667266158894274000,0.265274169921875,0.3507026731967926,0.05657972767949104,-0.11812258511781693
1667266158896671700,0.267671630859375,0.34215080738067627,0.04375193640589714,-0.12728530168533325
1667266158899069700,0.270069580078125,0.3348206579685211,0.027259059250354767,-0.14072394371032715
1667266158901467400,0.27246728515625,0.3274904787540436,0.007711946498602629,-0.15355172753334045
1667266158903865000,0.274864990234375,0.31710609793663025,-0.007559234742075205,-0.16699036955833435
1667266158906263000,0.277262939453125,0.3079433739185333,-0.024662958458065987,-0.1853157877922058
1667266158908660700,0.27966064453125,0.2969481348991394,-0.040544986724853516,-0.1993652731180191
1667266158911058400,0.282058349609375,0.2865637242794037,-0.056427016854286194,-0.21524730324745178
1667266158913456400,0.284456298828125,0.2731250822544098,-0.07108735293149948,-0.23235101997852325
1667266158915854000,0.28685400390625,0.2596864402294159,-0.08635853230953217,-0.2512872815132141
1667266158918252000,0.289251953125,0.246247798204422,-0.10285140573978424,-0.267169326543808
1667266158920649700,0.291649658203125,0.2334200143814087,-0.11812258511781693,-0.28305134177207947
1667266158923047400,0.29404736328125,0.2187596708536148,-0.1358371526002884,-0.29954421520233154
1667266158925445400,0.2964453125,0.2059318870306015,-0.15233004093170166,-0.31237202882766724
1667266158927843000,0.298843017578125,0.18882815539836884,-0.16882291436195374,-0.32519981265068054
1667266158930240800,0.30124072265625,0.17416782677173615,-0.1847049444913864,-0.33986014127731323
1667266158932638700,0.303638671875,0.15828579664230347,-0.1981435865163803,-0.35207709670066833
1667266158935036400,0.306036376953125,0.141182079911232,-0.20852798223495483,-0.36551573872566223
1667266158937434400,0.308434326171875,0.1271325796842575,-0.21830153465270996,-0.37773266434669495
1667266158939832000,0.31083203125,0.11308310180902481,-0.23112933337688446,-0.38811707496643066
1667266158942229800,0.313229736328125,0.10025530308485031,-0.2378486543893814,-0.3954472541809082
1667266158944627700,0.315627685546875,0.09048175066709518,-0.24762220680713654,-0.40338826179504395
1667266158947025400,0.318025390625,0.07643226534128189,-0.25556322932243347,-0.4113292694091797
1667266158949423000,0.320423095703125,0.06910209357738495,-0.264725923538208,-0.41743773221969604
1667266158951821000,0.322821044921875,0.06055023521184921,-0.27205610275268555,-0.4235462248325348
1667266158954218800,0.32521875,0.05077667906880379,-0.28305134177207947,-0.42782214283943176
1667266158956616700,0.32761669921875,0.04650074616074562,-0.2916032075881958,-0.42904382944107056
1667266158959014400,0.330014404296875,0.04161396995186806,-0.29954421520233154,-0.43148723244667053
1667266158961412000,0.332412109375,0.035505495965480804,-0.3050418496131897,-0.4320980906486511
1667266158963810000,0.33481005859375,0.03245126083493233,-0.31237202882766724,-0.4320980906486511
1667266158966207700,0.337207763671875,0.03245126083493233,-0.3197021782398224,-0.43087637424468994
1667266158968605400,0.33960546875,0.03184041380882263,-0.32642149925231934,-0.43026554584503174
1667266158971003400,0.34200341796875,0.03184041380882263,-0.3325299620628357,-0.42660045623779297
1667266158973401000,0.344401123046875,0.03489464893937111,-0.33802759647369385,-0.4235462248325348
1667266158975799000,0.346799072265625,0.036727190017700195,-0.3423035442829132,-0.4186594486236572
1667266158978196700,0.34919677734375,0.03855973482131958,-0.3447469174861908,-0.4119401276111603
1667266158980594400,0.351594482421875,0.04100312292575836,-0.3416926860809326,-0.40522080659866333
1667266158982992400,0.353992431640625,0.04405735805630684,-0.33741676807403564,-0.40094485878944397
1667266158985390000,0.35639013671875,0.045889899134635925,-0.33619505167007446,-0.394225537776947
1667266158987788000,0.3587880859375,0.04772244393825531,-0.3319191336631775,-0.3856737017631531
1667266158990185700,0.361185791015625,0.05016583204269409,-0.32519981265068054,-0.37590011954307556
1667266158992583400,0.36358349609375,0.05016583204269409,-0.3184804916381836,-0.3691807985305786
1667266158994981400,0.3659814453125,0.05138752609491348,-0.3080960810184479,-0.36185064911842346
1667266158997379000,0.368379150390625,0.05077667906880379,-0.29648998379707336,-0.3563530147075653
1667266158999776800,0.37077685546875,0.05077667906880379,-0.28610557317733765,-0.347801148891449
1667266159002174700,0.3731748046875,0.05077667906880379,-0.27266693115234375,-0.3416926860809326
1667266159004572400,0.375572509765625,0.05199837312102318,-0.25922831892967224,-0.33680590987205505
1667266159006970400,0.377970458984375,0.052609220147132874,-0.24884390830993652,-0.3319191336631775
1667266159009368000,0.3803681640625,0.055052608251571655,-0.237237811088562,-0.3288649022579193
1667266159011765800,0.382765869140625,0.057496000081300735,-0.22807510197162628,-0.32519981265068054
1667266159014163700,0.385163818359375,0.061771929264068604,-0.21830153465270996,-0.32214558124542236
1667266159016561400,0.3875615234375,0.06543701142072678,-0.21036052703857422,-0.3184804916381836
1667266159018959000,0.389958984375,0.06849125027656555,-0.20425204932689667,-0.3172588050365448
1667266159021357000,0.392357177734375,0.0752105712890625,-0.19753272831439972,-0.3154262602329254
1667266159023754800,0.394754638671875,0.08192989230155945,-0.19570018351078033,-0.3154262602329254
1667266159026152700,0.397152587890625,0.0892600566148758,-0.19203510880470276,-0.3160370886325836
1667266159028550400,0.39955029296875,0.09720107167959213,-0.19264595210552216,-0.3142045736312866
1667266159030948000,0.401947998046875,0.1014770045876503,-0.19386765360832214,-0.31359371542930603
1667266159033346000,0.404345947265625,0.10758547484874725,-0.1993652731180191,-0.31359371542930603
1667266159035743700,0.40674365234375,0.11247225105762482,-0.20486289262771606,-0.31298285722732544
1667266159038141400,0.409141357421875,0.1149156391620636,-0.21524730324745178,-0.31115031242370605
1667266159040539400,0.411539306640625,0.11796987801790237,-0.2262425571680069,-0.31115031242370605
1667266159042937000,0.41393701171875,0.11980241537094116,-0.2378486543893814,-0.3068743944168091
1667266159045335000,0.4163349609375,0.11919157207012177,-0.2525089979171753,-0.3038201630115509
1667266159047732700,0.418732666015625,0.1149156391620636,-0.2665584683418274,-0.3019876182079315
1667266159050130400,0.42113037109375,0.11063970625400543,-0.2787754237651825,-0.29771167039871216
1667266159052528400,0.4235283203125,0.10453123599290848,-0.28671643137931824,-0.29587915539741516
1667266159054926000,0.425926025390625,0.09720107167959213,-0.290381520986557,-0.290381520986557
1667266159057323800,0.42832373046875,0.0880383625626564,-0.294657438993454,-0.28427302837371826
1667266159059721700,0.4307216796875,0.08070819079875946,-0.29832252860069275,-0.2775537371635437
1667266159062119400,0.433119384765625,0.07276718318462372,-0.29771167039871216,-0.27022355794906616
1667266159064517400,0.435517333984375,0.0623827762901783,-0.29648998379707336,-0.26106083393096924
1667266159066915000,0.4379150390625,0.05322006717324257,-0.290381520986557,-0.2506764531135559
1667266159069312800,0.440312744140625,0.044668205082416534,-0.2812187969684601,-0.2396811991930008
1667266159071710700,0.442710693359375,0.036727190017700195,-0.267169326543808,-0.2274642437696457
1667266159074108400,0.4451083984375,0.0293970238417387,-0.2561740577220917,-0.21646900475025177
1667266159076506400,0.44750634765625,0.022066857665777206,-0.24334627389907837,-0.20608459413051605
1667266159078904000,0.449904052734375,0.015958385542035103,-0.22929678857326508,-0.19325679540634155
1667266159081301800,0.4523017578125,0.012904148548841476,-0.21646900475025177,-0.17920731008052826
1667266159083699700,0.45469970703125,0.0067956759594380856,-0.20608459413051605,-0.16637952625751495
1667266159086097400,0.457097412109375,0.0019088976550847292,-0.19386765360832214,-0.15538427233695984
1667266159088495000,0.4594951171875,-0.0023670331574976444,-0.1865374743938446,-0.14438901841640472
1667266159090893000,0.46189306640625,-0.00786465872079134,-0.17859646677970886,-0.13217207789421082
1667266159093290800,0.464290771484375,-0.012140588834881783,-0.1743205338716507,-0.1217876747250557
1667266159095688700,0.466688720703125,-0.019470756873488426,-0.1730988472700119,-0.11323580890893936
1667266159098086400,0.46908642578125,-0.02557922899723053,-0.16943375766277313,-0.10529479384422302
1667266159100484000,0.471484130859375,-0.03596363216638565,-0.16943375766277313,-0.09613208472728729
1667266159102882000,0.473882080078125,-0.045737188309431076,-0.17065545916557312,-0.08941277116537094
1667266159105279700,0.47627978515625,-0.052456509321928024,-0.1737096905708313,-0.08330429345369339
1667266159107677400,0.478677490234375,-0.06223006546497345,-0.17981816828250885,-0.0814717561006546
1667266159110075400,0.481075439453125,-0.07200361788272858,-0.1871483325958252,-0.07719582319259644
1667266159112473000,0.48347314453125,-0.07872293889522552,-0.19142426550388336,-0.07719582319259644
1667266159114871000,0.48587109375,-0.08788564801216125,-0.1987544298171997,-0.07597412914037704
1667266159117268700,0.488268798828125,-0.09643751382827759,-0.20364120602607727,-0.07536327838897705
1667266159119666400,0.49066650390625,-0.10193513333797455,-0.211582213640213,-0.07597412914037704
1667266159122064400,0.493064453125,-0.10682191699743271,-0.22013407945632935,-0.07658497244119644
1667266159124462000,0.495462158203125,-0.11170869320631027,-0.2244100123643875,-0.07719582319259644
1667266159126859800,0.49785986328125,-0.11537377536296844,-0.2274642437696457,-0.07963921129703522
1667266159129257700,0.5002578125,-0.11598462611436844,-0.22807510197162628,-0.082082599401474
1667266159131655400,0.502655517578125,-0.11476293206214905,-0.22318831086158752,-0.08330429345369339
1667266159134053400,0.505053466796875,-0.11598462611436844,-0.21830153465270996,-0.08513683825731277
1667266159136451000,0.507451171875,-0.11109784245491028,-0.2121930718421936,-0.08513683825731277
1667266159138848800,0.509848876953125,-0.1074327602982521,-0.1993652731180191,-0.08452598750591278
1667266159141246700,0.512246826171875,-0.10254598408937454,-0.17981816828250885,-0.08696937561035156
1667266159143644400,0.51464453125,-0.0952158197760582,-0.16332527995109558,-0.08941277116537094
1667266159146042000,0.5170419921875,-0.08849649876356125,-0.14377817511558533,-0.08941277116537094
1667266159148440000,0.519440185546875,-0.07994463294744492,-0.12667444348335266,-0.09063446521759033
1667266159150837800,0.521837646484375,-0.07261446863412857,-0.1083490327000618,-0.0949103906750679
1667266159153235700,0.524235595703125,-0.061619218438863754,-0.09063446521759033,-0.09674293547868729
1667266159155633400,0.52663330078125,-0.05062396824359894,-0.07414158433675766,-0.10040801763534546
1667266159158031000,0.529031005859375,-0.03901786729693413,-0.06070294603705406,-0.10224056243896484
1667266159160429000,0.531428955078125,-0.02680092304944992,-0.049707695841789246,-0.1077381819486618
1667266159162826800,0.53382666015625,-0.014583977870643139,-0.039323292672634125,-0.11384665966033936
1667266159165224700,0.536224609375,-0.0035887276753783226,-0.03321481868624687,-0.11690089106559753
1667266159167622400,0.538622314453125,0.011071606539189816,-0.030160583555698395,-0.12300936877727509
1667266159170020000,0.54102001953125,0.022677704691886902,-0.0295497365295887,-0.12728530168533325
1667266159172418000,0.54341796875,0.034283801913261414,-0.03199312463402748,-0.13705885410308838
1667266159174815700,0.545815673828125,0.04650074616074562,-0.03321481868624687,-0.14194563031196594
1667266159177213400,0.54821337890625,0.05688514932990074,-0.03687990456819534,-0.1480541080236435
1667266159179611400,0.550611328125,0.062993623316288,-0.04359922185540199,-0.15355172753334045
1667266159182009000,0.553009033203125,0.07215633243322372,-0.050929389894008636,-0.1602710485458374
1667266159184407000,0.555406982421875,0.0758214145898819,-0.056427016854286194,-0.16699036955833435
1667266159186804700,0.5578046875,0.07948649674654007,-0.06314633786678314,-0.17187714576721191
1667266159189202400,0.560202392578125,0.08254073560237885,-0.0692548081278801,-0.17676392197608948
1667266159191600000,0.56260009765625,0.07948649674654007,-0.07597412914037704,-0.17859646677970886
1667266159193998000,0.564998046875,0.07826480269432068,-0.07780666649341583,-0.18348324298858643
1667266159196395800,0.567395751953125,0.0745997205376625,-0.08086090534925461,-0.1871483325958252
1667266159198793700,0.569793701171875,0.06726955622434616,-0.08391514420509338,-0.19020256400108337
1667266159201191400,0.57219140625,0.061771929264068604,-0.08452598750591278,-0.19325679540634155
1667266159203589000,0.574589111328125,0.05444176122546196,-0.08330429345369339,-0.19692188501358032
1667266159205987000,0.576987060546875,0.044668205082416534,-0.07902836054563522,-0.2005869746208191
1667266159208384800,0.579384765625,0.040392275899648666,-0.07169819623231888,-0.2011978179216385
1667266159210782700,0.58178271484375,0.031229566782712936,-0.06375718116760254,-0.20547375082969666
1667266159213180400,0.584180419921875,0.025731941685080528,-0.053983625024557114,-0.20547375082969666
1667266159215578000,0.586578125,0.023288551717996597,-0.0429883748292923,-0.211582213640213
1667266159217976000,0.58897607421875,0.019623467698693275,-0.03199312463402748,-0.2140256017446518
1667266159220373800,0.591373779296875,0.017180079594254494,-0.019776180386543274,-0.21707984805107117
1667266159222771500,0.593771484375,0.0165692325681448,-0.010002624243497849,-0.22074492275714874
1667266159225169400,0.59616943359375,0.019623467698693275,-0.0008399150101467967,-0.2268534004688263
1667266159227567000,0.598567138671875,0.022677704691886902,0.007711946498602629,-0.22929678857326508
1667266159229965000,0.600965087890625,0.026342788711190224,0.015652960166335106,-0.23112933337688446
1667266159232362800,0.60336279296875,0.0293970238417387,0.022372281178832054,-0.23601610958576202
1667266159234760400,0.605760498046875,0.03306210786104202,0.027869906276464462,-0.2402920424938202
1667266159237158400,0.608158447265625,0.0361163429915905,0.035200074315071106,-0.24456797540187836
1667266159239556000,0.61055615234375,0.03978142887353897,0.039476003497838974,-0.2506764531135559
1667266159241953800,0.612953857421875,0.04405735805630684,0.044362783432006836,-0.2549523711204529
1667266159244351700,0.615351806640625,0.045889899134635925,0.0492495596408844,-0.26167169213294983
1667266159246749400,0.61774951171875,0.047111593186855316,0.051082100719213486,-0.2659476399421692
1667266159249147400,0.6201474609375,0.045889899134635925,0.05535803362727165,-0.27083441615104675
1667266159251545000,0.622545166015625,0.04527905210852623,0.0620773509144783,-0.2757211923599243
1667266159253942800,0.62494287109375,0.04405735805630684,0.06879667192697525,-0.2787754237651825
1667266159256340700,0.6273408203125,0.039170581847429276,0.07857023179531097,-0.28610557317733765
1667266159258738400,0.629738525390625,0.0361163429915905,0.09017632901668549,-0.28793811798095703
1667266159261136100,0.63213623046875,0.030007870867848396,0.10178242623806,-0.2922140657901764
1667266159263534000,0.6345341796875,0.023288551717996597,0.11766445636749268,-0.29832252860069275
1667266159265931800,0.636931884765625,0.01901262067258358,0.13415732979774475,-0.3032093048095703
1667266159268329700,0.639329833984375,0.012904148548841476,0.15003935992717743,-0.31176117062568665
1667266159270727400,0.6417275390625,0.004352286923676729,0.1671430766582489,-0.3160370886325836
1667266159273125000,0.644125,0.000687203137204051,0.18180342018604279,-0.32397812604904175
1667266159275523000,0.646523193359375,-0.0035887276753783226,0.19096612930297852,-0.3306974470615387
1667266159277920800,0.648920654296875,-0.008475505746901035,0.20012883841991425,-0.33863845467567444
1667266159280318500,0.651318359375,-0.010308047756552696,0.20196136832237244,-0.34719032049179077
1667266159282716400,0.65371630859375,-0.012751436792314053,0.20012883841991425,-0.3594072461128235
1667266159285114000,0.656114013671875,-0.012140588834881783,0.1946312040090561,-0.3673482835292816
1667266159287512000,0.658511962890625,-0.010918894782662392,0.1799708753824234,-0.37956520915031433
1667266159289909800,0.66090966796875,-0.007253811229020357,0.16225630044937134,-0.39056047797203064
1667266159292307500,0.663307373046875,-0.004199574701488018,0.13904410600662231,-0.40094485878944397
1667266159294705400,0.665705322265625,0.00007635590736754239,0.10972344130277634,-0.4113292694091797
1667266159297103000,0.66810302734375,0.007406522985547781,0.0755159929394722,-0.4204919934272766
1667266159299501000,0.6705009765625,0.011071606539189816,0.03886515647172928,-0.42843300104141235
1667266159301898800,0.672898681640625,0.018401773646473885,0.00038177953683771193,-0.4351523220539093
1667266159304296400,0.67529638671875,0.025121092796325684,-0.03871244564652443,-0.4375956952571869
1667266159306694400,0.6776943359375,0.02695363573729992,-0.07475243508815765,-0.4394282400608063
1667266159309092000,0.680092041015625,0.0293970238417387,-0.10895988345146179,-0.44003909826278687
1667266159311489800,0.68248974609375,0.03306210786104202,-0.1358371526002884,-0.4369848668575287
1667266159313887700,0.6848876953125,0.035505495965480804,-0.15660595893859863,-0.4327089190483093
1667266159316285400,0.687285400390625,0.03245126083493233,-0.17004460096359253,-0.4259895980358124
1667266159318683400,0.689683349609375,0.03367295488715172,-0.17554223537445068,-0.41743773221969604
1667266159321081000,0.6920810546875,0.03306210786104202,-0.1749313771724701,-0.4094967246055603
1667266159323478800,0.694478759765625,0.031229566782712936,-0.16515782475471497,-0.3997231721878052
1667266159325876700,0.696876708984375,0.031229566782712936,-0.1486649513244629,-0.3862845301628113
1667266159328274400,0.6992744140625,0.03061871975660324,-0.12300936877727509,-0.3716242015361786
1667266159330672000,0.701672119140625,0.03184041380882263,-0.09307785332202911,-0.3594072461128235
1667266159333070000,0.704070068359375,0.03489464893937111,-0.06192464008927345,-0.3453577756881714
1667266159335467800,0.7064677734375,0.03978142887353897,-0.025884652510285378,-0.3313082754611969
1667266159337865700,0.70886572265625,0.04650074616074562,0.013209572061896324,-0.3166479468345642
1667266159340263400,0.711263427734375,0.053830914199352264,0.049860406666994095,-0.3038201630115509
1667266159342661000,0.7136611328125,0.06421531736850739,0.08223531395196915,-0.2916032075881958
1667266159345059000,0.71605908203125,0.07704310864210129,0.11338852345943451,-0.2787754237651825
1667266159347456800,0.718456787109375,0.09109259396791458,0.1414874941110611,-0.267169326543808
1667266159349854500,0.7208544921875,0.10575293004512787,0.1653105467557907,-0.2561740577220917
1667266159352252400,0.72325244140625,0.11919157207012177,0.18363595008850098,-0.2506764531135559
1667266159354650000,0.725650146484375,0.13568444550037384,0.19768545031547546,-0.24151372909545898
1667266159357048000,0.728048095703125,0.1533990204334259,0.2056264579296112,-0.23296187818050385
1667266159359445800,0.73044580078125,0.16928105056285858,0.21173493564128876,-0.2268534004688263
1667266159361843500,0.732843505859375,0.18516308069229126,0.2068481594324112,-0.22135578095912933
1667266159364241400,0.735241455078125,0.20165595412254333,0.20073968172073364,-0.21524730324745178
1667266159366639000,0.73763916015625,0.21570543944835663,0.18913358449935913,-0.20852798223495483
1667266159369036800,0.740036865234375,0.22914408147335052,0.17447324097156525,-0.20486289262771606
1667266159371434800,0.742434814453125,0.23952847719192505,0.15736952424049377,-0.1981435865163803
1667266159373832400,0.74483251953125,0.25052374601364136,0.1396549493074417,-0.19386765360832214
1667266159376230400,0.74723046875,0.2602972984313965,0.12377292662858963,-0.188370019197464
1667266159378628000,0.749628173828125,0.2700708508491516,0.10728005319833755,-0.1853157877922058
1667266159381025800,0.75202587890625,0.27740100026130676,0.08712209016084671,-0.18165069818496704
1667266159383423700,0.754423828125,0.2853420376777649,0.06940752267837524,-0.17920731008052826
1667266159385821400,0.756821533203125,0.29328304529190063,0.051082100719213486,-0.17920731008052826
1667266159388219400,0.759219482421875,0.299391508102417,0.035200074315071106,-0.1737096905708313
1667266159390617000,0.7616171875,0.30672168731689453,0.018096350133419037,-0.17065545916557312
1667266159393014800,0.764014892578125,0.3140518367290497,-0.0008399150101467967,-0.17126630246639252
1667266159395412700,0.766412841796875,0.3213820159435272,-0.022219568490982056,-0.16760121285915375
1667266159397810400,0.768810546875,0.32810133695602417,-0.04359922185540199,-0.1614927500486374
1667266159400208100,0.7712080078125,0.3378748893737793,-0.06742226332426071,-0.1590493619441986
1667266159402606000,0.773606201171875,0.34215080738067627,-0.08880192041397095,-0.15538427233695984
1667266159405003800,0.776003662109375,0.34581589698791504,-0.11262496560811996,-0.15171918272972107
1667266159407401700,0.778401611328125,0.3500918447971344,-0.1358371526002884,-0.1474432498216629
1667266159409799400,0.78079931640625,0.35497862100601196,-0.1608818918466568,-0.14377817511558533
1667266159412197000,0.783197021484375,0.35558944940567017,-0.188370019197464,-0.13705885410308838
1667266159414595000,0.785594970703125,0.35497862100601196,-0.21830153465270996,-0.13156123459339142
1667266159416992800,0.78799267578125,0.3531460762023926,-0.24945475161075592,-0.12545275688171387
1667266159419390500,0.790390380859375,0.3470376133918762,-0.2812187969684601,-0.11690089106559753
1667266159421788400,0.792788330078125,0.3403182923793793,-0.31298285722732544,-0.10712733864784241
1667266159424186000,0.79518603515625,0.33298811316490173,-0.3404709994792938,-0.09613208472728729
1667266159426584000,0.797583984375,0.322603702545166,-0.36307233572006226,-0.08452598750591278
1667266159428981800,0.799981689453125,0.3109976053237915,-0.37956520915031433,-0.07230904698371887
1667266159431379500,0.80237939453125,0.3000023663043976,-0.394225537776947,-0.05825955793261528
1667266159433777400,0.80477734375,0.2877854108810425,-0.40155571699142456,-0.0429883748292923
1667266159436175000,0.807175048828125,0.2749576270580292,-0.40338826179504395,-0.0295497365295887
1667266159438572800,0.80957275390625,0.26457321643829346,-0.40216657519340515,-0.014889402315020561
1667266159440970800,0.811970703125,0.25418880581855774,-0.396668940782547,0.0009926267666742206
1667266159443368400,0.814368408203125,0.24869118630886078,-0.39178216457366943,0.01626380905508995
1667266159445766400,0.816766357421875,0.2450261116027832,-0.3820086121559143,0.031534988433122635
1667266159448164000,0.8191640625,0.24136102199554443,-0.37406760454177856,0.04558447748422623
1667266159450562000,0.82156201171875,0.24319356679916382,-0.3691807985305786,0.05841226875782013
1667266159452959700,0.823959716796875,0.24869118630886078,-0.36612656712532043,0.07246175408363342
1667266159455357400,0.826357421875,0.2554105222225189,-0.36612656712532043,0.08406785130500793
1667266159457755100,0.828755126953125,0.26457321643829346,-0.3691807985305786,0.09567394852638245
1667266159460153000,0.831153076171875,0.27923354506492615,-0.37956520915031433,0.10361496359109879
1667266159462550800,0.83355078125,0.2975589632987976,-0.394225537776947,0.11094513535499573
1667266159464948700,0.83594873046875,0.3134410083293915,-0.41560521721839905,0.11827529966831207
1667266159467346400,0.838346435546875,0.3348206579685211,-0.44133713841438293,0.12194038182497025
1667266159469744400,0.840744384765625,0.35803285241127014,-0.4688252806663513,0.12988139688968658
1667266159472142000,0.84314208984375,0.38246673345565796,-0.5024218559265137,0.13354648649692535
1667266159474539800,0.845539794921875,0.40751147270202637,-0.540905237197876,0.13721156120300293
1667266159476937700,0.847937744140625,0.4325562119483948,-0.5818319916725159,0.13721156120300293
1667266159479335400,0.85033544921875,0.4576009511947632,-0.6252021789550781,0.1396549493074417
1667266159481733000,0.852733154296875,0.4826456904411316,-0.670404851436615,0.14332003891468048
1667266159484131000,0.855131103515625,0.5058578848838806,-0.7180509567260742,0.14759597182273865
1667266159486528800,0.85752880859375,0.526626706123352,-0.7650861740112305,0.1543152928352356
1667266159488926700,0.8599267578125,0.5437304377555847,-0.8078454732894897,0.16408884525299072
1667266159491324400,0.862324462890625,0.559001624584198,-0.8487722873687744,0.17508409917354584
1667266159493722000,0.86472216796875,0.5742727518081665,-0.8921424150466919,0.18913358449935913
1667266159496120000,0.8671201171875,0.585878849029541,-0.9306257963180542,0.20379391312599182
1667266159498517800,0.869517822265625,0.5938199162483215,-0.9678874611854553,0.22150848805904388
1667266159500915500,0.87191552734375,0.5993174910545349,-1.0020949840545654,0.23800136148929596
1667266159503313400,0.8743134765625,0.6005392074584961,-1.031415581703186,0.2575484812259674
1667266159505711000,0.876711181640625,0.6011500358581543,-1.0576820373535156,0.27770644426345825
1667266159508109000,0.879109130859375,0.5993174910545349,-1.0851701498031616,0.2990860939025879
1667266159510506800,0.8815068359375,0.5956524610519409,-1.110825777053833,0.31741151213645935
1667266159512904400,0.883904541015625,0.5889331102371216,-1.1352596282958984,0.3375694751739502
1667266159515302400,0.886302490234375,0.5773270130157471,-1.161526083946228,0.35711658000946045
1667266159517700000,0.8887001953125,0.5681642889976501,-1.1859599351882935,0.3772745430469513
1667266159520097800,0.891097900390625,0.559001624584198,-1.2134480476379395,0.39376741647720337
1667266159522495700,0.893495849609375,0.5486171841621399,-1.2421579360961914,0.41209283471107483
1667266159524893400,0.8958935546875,0.5376219153404236,-1.2702568769454956,0.4322507977485657
1667266159527291400,0.89829150390625,0.5278483629226685,-1.2977449893951416,0.45057621598243713
1667266159529689000,0.900689208984375,0.5192965269088745,-1.3215680122375488,0.468290776014328
1667266159532086800,0.903086669921875,0.5125772356987,-1.345391035079956,0.48661619424819946
1667266159534484700,0.905484619140625,0.5046361684799194,-1.364327311515808,0.5061632990837097
1667266159536882400,0.90788232421875,0.4966951906681061,-1.3795984983444214,0.5269321203231812
1667266159539280100,0.910280029296875,0.48753246665000916,-1.391204595565796,0.548922598361969
1667266159541678000,0.912677978515625,0.47409382462501526,-1.3979239463806152,0.5690805912017822
1667266159544075800,0.91507568359375,0.46248772740364075,-1.4009782075881958,0.5904602408409119
1667266159546473700,0.9174736328125,0.44721654057502747,-1.4003673791885376,0.6167266368865967
1667266159548871400,0.919871337890625,0.4276694357395172,-1.391815423965454,0.6442148089408875
1667266159551269000,0.92226904296875,0.40690064430236816,-1.3820419311523438,0.6692595481872559
1667266159553667000,0.9246669921875,0.3806341886520386,-1.3679924011230469,0.6985802054405212
1667266159556064800,0.927064697265625,0.3519243896007538,-1.345391035079956,0.7260683178901672
1667266159558462700,0.929462646484375,0.3219928741455078,-1.3215680122375488,0.7560762166976929
1667266159560860400,0.9318603515625,0.28961795568466187,-1.294690728187561,0.7872294187545776
1667266159563258000,0.934258056640625,0.25479966402053833,-1.2562073469161987,0.8214368224143982
1667266159565656000,0.936656005859375,0.21631628274917603,-1.2158914804458618,0.8513683676719666
1667266159568053800,0.9390537109375,0.1790546029806137,-1.1706887483596802,0.8855758309364319
1667266159570451500,0.941451416015625,0.141182079911232,-1.1212100982666016,0.9173398613929749
1667266159572849400,0.943849365234375,0.09903360903263092,-1.0650122165679932,0.946049690246582
1667266159575247000,0.9462470703125,0.06055023521184921,-1.0063709020614624,0.9729269742965698
1667266159577645000,0.94864501953125,0.02023431472480297,-0.9440644383430481,0.996749997138977
1667266159580042800,0.951042724609375,-0.0164165198802948,-0.8805363178253174,1.015686273574829
1667266159582440400,0.9534404296875,-0.05062396824359894,-0.8182299137115479,1.0346225500106812
1667266159584838400,0.95583837890625,-0.08360971510410309,-0.7595885396003723,1.047450304031372
1667266159587236000,0.958236083984375,-0.11231953650712967,-0.7027797698974609,1.0566130876541138
1667266159589633800,0.9606337890625,-0.13919681310653687,-0.6484143733978271,1.0633323192596436
1667266159592031700,0.96303173828125,-0.16363070905208588,-0.5971031785011292,1.0633323192596436
1667266159594429400,0.965429443359375,-0.18439951539039612,-0.5500679612159729,1.0639432668685913
1667266159596827400,0.967827392578125,-0.2015032321214676,-0.5012001991271973,1.061499834060669
1667266159599225000,0.97022509765625,-0.21799612045288086,-0.45416492223739624,1.0566130876541138
1667266159601622800,0.972622802734375,-0.23082390427589417,-0.4119401276111603,1.0480611324310303
1667266159604020700,0.975020751953125,-0.2393757700920105,-0.3722350597381592,1.0388984680175781
1667266159606418400,0.97741845703125,-0.24731677770614624,-0.33619505167007446,1.0272923707962036
1667266159608816000,0.979816162109375,-0.2522035539150238,-0.3050418496131897,1.0114103555679321
1667266159611214000,0.982214111328125,-0.2546469569206238,-0.27449947595596313,0.9943066239356995
1667266159613611800,0.98461181640625,-0.25953373312950134,-0.2537306845188141,0.9765920639038086
1667266159616009700,0.987009765625,-0.25892287492752075,-0.23296187818050385,0.954601526260376
1667266159618407400,0.989407470703125,-0.25770118832588196,-0.2121930718421936,0.9301676750183105
1667266159620805400,0.991805419921875,-0.2546469569206238,-0.19325679540634155,0.9069554805755615
1667266159623203000,0.994203125,-0.2540360987186432,-0.17615307867527008,0.8806890249252319
1667266159625600800,0.996600830078125,-0.24853847920894623,-0.15538427233695984,0.8513683676719666
1667266159627998500,0.99899853515625,-0.24426254630088806,-0.13095037639141083,0.8214368224143982
1667266159630396400,1.001396484375,-0.2387649267911911,-0.1077381819486618,0.793337881565094
1667266159632794000,1.003794189453125,-0.23204560577869415,-0.07414158433675766,0.7646280527114868
1667266159635192000,1.006192138671875,-0.2259371280670166,-0.03443651273846626,0.7359182238578796
1667266159637589800,1.00858984375,-0.21799612045288086,0.010766183026134968,0.710797131061554
1667266159639987700,1.01098779296875,-0.20944425463676453,0.059023115783929825,0.6869741082191467
1667266159642385400,1.013385498046875,-0.1996707022190094,0.11338852345943451,0.6674270033836365
1667266159644783000,1.015783203125,-0.1862320601940155,0.1689756214618683,0.6491015553474426
1667266159647181000,1.01818115234375,-0.173404261469841,0.22517357766628265,0.6326087117195129
1667266159649578800,1.020578857421875,-0.1599656194448471,0.27831727266311646,0.6185591816902161
1667266159651976400,1.0229765625,-0.14408360421657562,0.32779592275619507,0.6038988828659058
1667266159654374400,1.02537451171875,-0.12697987258434296,0.36994436383247375,0.5892385244369507
1667266159656772000,1.027772216796875,-0.1086544543504715,0.4053735136985779,0.5757998824119568
1667266159659170000,1.030170166015625,-0.09093988686800003,0.43713757395744324,0.5623612403869629
1667266159661567700,1.032567626953125,-0.07078192383050919,0.46157145500183105,0.5458683967590332
1667266159663965400,1.03496533203125,-0.04879142343997955,0.4835619628429413,0.5342622995376587
1667266159666363400,1.03736328125,-0.028633465990424156,0.49883314967155457,0.5183802843093872
1667266159668761000,1.039760986328125,-0.004810422193259001,0.5073850154876709,0.5037199258804321
1667266159671158800,1.04215869140625,0.01901262067258358,0.5104392170906067,0.48783788084983826
1667266159673556700,1.044556640625,0.04527905210852623,0.512882649898529,0.47623178362846375
1667266159675954400,1.046954345703125,0.07398887723684311,0.5098283886909485,0.46340399980545044
1667266159678352400,1.049352294921875,0.1008661538362503,0.5049416422843933,0.4536304473876953
1667266159680750000,1.05175,0.13324105739593506,0.4951680600643158,0.44568943977355957
1667266159683147800,1.054147705078125,0.16439427435398102,0.48783788084983826,0.43652671575546265
1667266159685545700,1.056545654296875,0.194325789809227,0.4786751866340637,0.4304182529449463
1667266159687943400,1.058943359375,0.22731153666973114,0.4676799178123474,0.4279748499393463
1667266159690341000,1.061341064453125,0.2609081268310547,0.4517979025840759,0.42492061853408813
1667266159692739000,1.063739013671875,0.29206135869026184,0.4310291111469269,0.4255314767360687
1667266159695136800,1.06613671875,0.325047105550766,0.40598437190055847,0.4298073947429657
1667266159697534700,1.06853466796875,0.36047622561454773,0.3766636848449707,0.43408334255218506
1667266159699932400,1.070932373046875,0.39407283067703247,0.34184539318084717,0.445078581571579
1667266159702330000,1.073330078125,0.4282802939414978,0.30275118350982666,0.4585172235965729
1667266159704728000,1.07572802734375,0.46065518260002136,0.259991854429245,0.47806432843208313
1667266159707125800,1.078125732421875,0.4960843324661255,0.21356746554374695,0.5006656646728516
1667266159709523700,1.080523681640625,0.5321243405342102,0.17569494247436523,0.5287646651268005
1667266159711921400,1.08292138671875,0.5687751770019531,0.13782241940498352,0.5635829567909241
1667266159714319000,1.085319091796875,0.6042042970657349,0.10422581434249878,0.6051205396652222
1667266159716717000,1.087717041015625,0.6396334171295166,0.07795938104391098,0.6503232717514038
1667266159719114800,1.09011474609375,0.6750625967979431,0.06329904496669769,0.701634407043457
1667266159721512400,1.092512451171875,0.7129350900650024,0.05230379477143288,0.7579087615013123
1667266159723910400,1.094910400390625,0.7465317249298096,0.05047125369310379,0.8183826208114624
1667266159726308000,1.09730810546875,0.7831825613975525,0.05535803362727165,0.8788564801216125
1667266159728706000,1.0997060546875,0.8167791366577148,0.06513158977031708,0.9442171454429626
1667266159731103700,1.102103759765625,0.8460997939109802,0.07857023179531097,1.010799527168274
1667266159733501400,1.10450146484375,0.8760313391685486,0.09628479927778244,1.0773818492889404
1667266159735899400,1.1068994140625,0.900465190410614,0.11338852345943451,1.1421316862106323
1667266159738297000,1.109297119140625,0.9230665564537048,0.13171394169330597,1.2062705755233765
1667266159740695000,1.111695068359375,0.9438353776931763,0.14576342701911926,1.2704095840454102
1667266159743092700,1.1140927734375,0.9609391093254089,0.15614783763885498,1.330883502960205
1667266159745490400,1.116490478515625,0.9774319529533386,0.16286714375019073,1.3907464742660522
1667266159747888400,1.118888427734375,0.9945356845855713,0.16408884525299072,1.4426685571670532
1667266159750286000,1.1212861328125,1.0061417818069458,0.16103461384773254,1.4933688640594482
1667266159752683800,1.123683837890625,1.0159153938293457,0.1543152928352356,1.5367389917373657
1667266159755081700,1.126081787109375,1.0293539762496948,0.1414874941110611,1.5746115446090698
1667266159757479400,1.1284794921875,1.039738416671753,0.1286597102880478,1.6075972318649292
1667266159759877400,1.13087744140625,1.0507336854934692,0.1139993667602539,1.6375287771224976
1667266159762275000,1.133275146484375,1.0605071783065796,0.09750649333000183,1.6607409715652466
1667266159764672800,1.1356728515625,1.0708916187286377,0.08284615725278854,1.685174822807312
1667266159767070700,1.13807080078125,1.086162805557251,0.07307260483503342,1.7047220468521118
1667266159769468400,1.140468505859375,1.0965471267700195,0.06574243307113647,1.7248799800872803
1667266159771866400,1.142866455078125,1.109375,0.06635328382253647,1.7450379133224487
1667266159774264000,1.14526416015625,1.1258678436279297,0.07673768699169159,1.7658066749572754
1667266159776661800,1.147661865234375,1.1393065452575684,0.10361496359109879,1.7890188694000244
1667266159779059700,1.150059814453125,1.1551885604858398,0.14698512852191925,1.8103985786437988
1667266159781457400,1.15245751953125,1.1722922325134277,0.20990239083766937,1.8311673402786255
1667266159783855000,1.154855224609375,1.1900068521499634,0.29175591468811035,1.8556013107299805
1667266159786253000,1.157253173828125,1.215051531791687,0.387658953666687,1.8794243335723877
1667266159788650800,1.159650634765625,1.2370420694351196,0.4970006048679352,1.9063016176223755
1667266159791048700,1.162048583984375,1.261475920677185,0.623445987701416,1.9301246404647827
1667266159793446400,1.1644462890625,1.290185809135437,0.7566106915473938,1.9545584917068481
1667266159795844000,1.166843994140625,1.3201172351837158,0.9019923210144043,1.9777706861495972
1667266159798242000,1.169241943359375,1.353713870048523,1.0504282712936401,2.002204656600952
1667266159800639700,1.1716396484375,1.3928080797195435,1.2043616771697998,2.0260276794433594
1667266159803037400,1.174037353515625,1.4349565505981445,1.363792896270752,2.050461530685425
1667266159805435400,1.176435302734375,1.479548454284668,1.5146721601486206,2.077338933944702
1667266159807833000,1.1788330078125,1.5284161567687988,1.663718819618225,2.1011619567871094
1667266159810231000,1.18123095703125,1.5785056352615356,1.8048245906829834,2.1280391216278076
1667266159812628700,1.183628662109375,1.6304277181625366,1.9428761005401611,2.1500296592712402
1667266159815026400,1.1860263671875,1.6841822862625122,2.069321393966675,2.1701877117156982
1667266159817424400,1.18842431640625,1.738547682762146,2.18538236618042,2.1885130405426025
1667266159819822000,1.190822021484375,1.7953563928604126,2.2862486839294434,2.2056167125701904
1667266159822219800,1.1932197265625,1.84850013256073,2.3729889392852783,2.219055414199829
1667266159824617700,1.19561767578125,1.9071414470672607,2.4365170001983643,2.2263855934143066
1667266159827015400,1.198015380859375,1.9663937091827393,2.4682810306549072,2.227607250213623
1667266159829413400,1.200413330078125,2.0244240760803223,2.487217426300049,2.2239420413970947
1667266159831811000,1.20281103515625,2.0769569873809814,2.4976017475128174,2.221498727798462
1667266159834209000,1.205208984375,2.127046585083008,2.4957692623138428,2.216001033782959
1667266159836606700,1.207606689453125,2.174081802368164,2.4859955310821533,2.2117252349853516
1667266159839004400,1.21000439453125,2.2156193256378174,2.4688918590545654,2.2080600261688232
1667266159841402400,1.21240234375,2.2504377365112305,2.4456796646118164,2.204395055770874
1667266159843800000,1.214800048828125,2.2822017669677734,2.4163589477539062,2.2025625705718994
1667266159846197800,1.21719775390625,2.306635618209839,2.380319118499756,2.2001190185546875
1667266159848595700,1.219595703125,2.321906805038452,2.3424465656280518,2.201340913772583
1667266159850993400,1.221993408203125,2.333512783050537,2.2984654903411865,2.2025625705718994
1667266159853391400,1.224391357421875,2.338399648666382,2.250819444656372,2.2062275409698486
1667266159855789000,1.2267890625,2.3377888202667236,2.2037079334259033,2.209892749786377
1667266159858186800,1.229186767578125,2.3286261558532715,2.153618335723877,2.2178337574005127
1667266159860584700,1.231584716796875,2.312744140625,2.099252939224243,2.2263855934143066
1667266159862982400,1.233982421875,2.2938077449798584,2.0485527515411377,2.2373807430267334
1667266159865380000,1.236380126953125,2.2712063789367676,2.0015172958374023,2.2514302730560303
1667266159867778000,1.238778076171875,2.2424967288970947,1.955703854560852,2.2660906314849854
1667266159870175700,1.24117578125,2.211954355239868,1.917831301689148,2.2813618183135986
1667266159872573700,1.24357373046875,2.1789684295654297,1.8836238384246826,2.302130699157715
1667266159874971400,1.245971435546875,2.1459827423095703,1.8591899871826172,2.3241209983825684
1667266159877369000,1.248369140625,2.1117753982543945,1.839642882347107,2.3448898792266846
1667266159879767000,1.25076708984375,2.075735330581665,1.8194849491119385,2.369934558868408
1667266159882164700,1.253164794921875,2.0427496433258057,1.8072680234909058,2.3943686485290527
1667266159884562400,1.2555625,2.006098747253418,1.7968835830688477,2.4200241565704346
1667266159886960400,1.25796044921875,1.9712804555892944,1.7877209186553955,2.445068836212158
1667266159889358000,1.260358154296875,1.9376838207244873,1.7858883142471313,2.4688918590545654
1667266159891756000,1.262756103515625,1.9022547006607056,1.7742822170257568,2.493936538696289
1667266159894153700,1.26515380859375,1.8692690134048462,1.7541242837905884,2.5183706283569336
1667266159896551400,1.267551513671875,1.8375048637390137,1.7235819101333618,2.5360851287841797
1667266159898949400,1.269949462890625,1.806351661682129,1.6857093572616577,2.54891300201416
1667266159901347000,1.27234716796875,1.77642023563385,1.6289005279541016,2.556854009628296
1667266159903744800,1.274744873046875,1.7434344291687012,1.5568206310272217,2.566016674041748
1667266159906142700,1.277142822265625,1.7128920555114746,1.4822971820831299,2.5666275024414062
1667266159908540400,1.27954052734375,1.6829605102539062,1.4096064567565918,2.5617406368255615
1667266159910938400,1.2819384765625,1.6566941738128662,1.336304783821106,2.5586864948272705
1667266159913336000,1.284336181640625,1.6292059421539307,1.2636139392852783,2.554410457611084
1667266159915734000,1.286734130859375,1.598052740097046,1.1939773559570312,2.54585862159729
1667266159918131700,1.289131591796875,1.5675103664398193,1.1261732578277588,2.539750099182129
1667266159920529400,1.291529296875,1.538800597190857,1.067531943321228,2.5324199199676514
1667266159922927400,1.29392724609375,1.5033714771270752,1.0095014572143555,2.520203113555908
1667266159925325000,1.296324951171875,1.4673315286636353,0.9526926279067993,2.5092077255249023
1667266159927722800,1.29872265625,1.4300698041915894,0.9007706642150879,2.4927148818969727
1667266159930120700,1.30112060546875,1.389753818511963,0.8555679321289062,2.476222038269043
1667266159932518400,1.303518310546875,1.3500487804412842,0.8067001700401306,2.4597291946411133
1667266159934916400,1.305916259765625,1.307289481163025,0.7590540647506714,2.4432363510131836
1667266159937314000,1.30831396484375,1.2620867490768433,0.7156839370727539,2.4249110221862793
1667266159939711700,1.310711669921875,1.219327449798584,0.6765896677970886,2.4047529697418213
1667266159942109700,1.313109619140625,1.1765681505203247,0.6448256373405457,2.3821516036987305
1667266159944507400,1.31550732421875,1.1374739408493042,0.623445987701416,2.3534417152404785
1667266159946905000,1.317905029296875,1.100823163986206,0.6014555096626282,2.3247320652008057
1667266159949303000,1.320302978515625,1.062950611114502,0.5880168676376343,2.2954113483428955
1667266159951700700,1.32270068359375,1.0287431478500366,0.5782433152198792,2.2642581462860107
1667266159954098700,1.3250986328125,0.9963682293891907,0.567858874797821,2.230050563812256
1667266159956496400,1.327496337890625,0.9658258557319641,0.5635829567909241,2.1964540481567383
1667266159958894000,1.32989404296875,0.9389485716819763,0.5586961507797241,2.1591923236846924
1667266159961292000,1.3322919921875,0.9132930040359497,0.549533486366272,2.117043972015381
1667266159963689700,1.334689697265625,0.8900808095932007,0.5354839563369751,2.0761170387268066
1667266159966087400,1.33708740234375,0.868701159954071,0.5183802843093872,2.0327470302581787
1667266159968485400,1.3394853515625,0.845488965511322,0.493946373462677,1.9893767833709717
1667266159970883000,1.341883056640625,0.8234984874725342,0.4658474028110504,1.9490609169006348
1667266159973281000,1.344281005859375,0.803340494632721,0.43774840235710144,1.909355878829956
1667266159975678700,1.3466787109375,0.7813500165939331,0.40964943170547485,1.8708724975585938
1667266159978076400,1.349076416015625,0.7575269341468811,0.38521555066108704,1.8348324298858643
1667266159980474400,1.351474365234375,0.7324821949005127,0.3626142144203186,1.800624966621399
1667266159982872000,1.3538720703125,0.7068266272544861,0.34367793798446655,1.7737476825714111
1667266159985270000,1.35627001953125,0.6787276864051819,0.33207184076309204,1.7450379133224487
1667266159987667700,1.358667724609375,0.6463527679443359,0.31985488533973694,1.7206040620803833
1667266159990065400,1.3610654296875,0.61397784948349,0.3119138777256012,1.6955592632293701
1667266159992463400,1.36346337890625,0.5797703862190247,0.30275118350982666,1.6747905015945435
1667266159994861000,1.365861083984375,0.5455629825592041,0.29175591468811035,1.6503565311431885
1667266159997259000,1.368259033203125,0.5083012580871582,0.27648472785949707,1.6265335083007812
1667266159999656700,1.37065673828125,0.47287213802337646,0.25266170501708984,1.6002670526504517
1667266160002054400,1.373054443359375,0.4325562119483948,0.22578442096710205,1.575222373008728
1667266160004452400,1.375452392578125,0.39346200227737427,0.1940203607082367,1.5489559173583984
1667266160006850000,1.37785009765625,0.35497862100601196,0.15920206904411316,1.5239112377166748
1667266160009247700,1.380247802734375,0.3116084635257721,0.12499462068080902,1.5006990432739258
1667266160011645700,1.382645751953125,0.2712925374507904,0.09139802306890488,1.478097677230835
1667266160014043400,1.38504345703125,0.22792237997055054,0.0626882016658783,1.4542746543884277
1667266160016441300,1.38744140625,0.1796654462814331,0.033978380262851715,1.4298406839370728
1667266160018839000,1.389839111328125,0.13446275889873505,0.009544488042593002,1.4066284894943237
1667266160021236700,1.39223681640625,0.08376242965459824,-0.014889402315020561,1.3828054666519165
1667266160023634700,1.394634765625,0.03245126083493233,-0.038101598620414734,1.3577607870101929
1667266160026032400,1.397032470703125,-0.02008160389959812,-0.06192464008927345,1.3278292417526245
1667266160028430000,1.39943017578125,-0.07505785673856735,-0.08330429345369339,1.297286868095398
1667266160030828000,1.401828125,-0.12759071588516235,-0.10162971168756485,1.264301061630249
1667266160033225700,1.404225830078125,-0.17951273918151855,-0.11690089106559753,1.228261113166809
1667266160035623700,1.406623779296875,-0.22960221767425537,-0.13156123459339142,1.1885560750961304
1667266160038021400,1.409021484375,-0.2772482931613922,-0.1468324065208435,1.145796775817871
1667266160040419000,1.411419189453125,-0.31886225938796997,-0.15843850374221802,1.1030374765396118
1667266160042817000,1.413817138671875,-0.3567348122596741,-0.16821207106113434,1.0590564012527466
1667266160045214700,1.416214599609375,-0.3903313875198364,-0.17065545916557312,1.0169079303741455
1667266160047612700,1.41861279296875,-0.416597843170166,-0.16454698145389557,0.9717052578926086
1667266160050010400,1.42101025390625,-0.4337015450000763,-0.15538427233695984,0.9320002198219299
1667266160052408000,1.423407958984375,-0.44042086601257324,-0.14133478701114655,0.8886300325393677
1667266160054806000,1.425805908203125,-0.43797749280929565,-0.12545275688171387,0.8513683676719666
1667266160057203700,1.42820361328125,-0.42881476879119873,-0.11201411485671997,0.8159392476081848
1667266160059601700,1.4306015625,-0.4074351191520691,-0.09368869662284851,0.7817317843437195
1667266160061999400,1.432999267578125,-0.38544461131095886,-0.07719582319259644,0.7548545002937317
1667266160064397000,1.43539697265625,-0.3573456406593323,-0.06620056927204132,0.729733407497406
1667266160066795000,1.437794921875,-0.32191649079322815,-0.06497887521982193,0.706521213054657
1667266160069192700,1.440192626953125,-0.28274592757225037,-0.07047650218009949,0.6851415634155273
1667266160071590400,1.44259033203125,-0.23571068048477173,-0.09124530851840973,0.6649835705757141
1667266160073988400,1.44498828125,-0.18317782878875732,-0.11934428662061691,0.6478798985481262
1667266160076386000,1.447385986328125,-0.12820157408714294,-0.15294088423252106,0.63199782371521
1667266160078784000,1.449783935546875,-0.06711684167385101,-0.1877591758966446,0.6197808980941772
1667266160081181700,1.452181640625,-0.004810422193259001,-0.21891239285469055,0.6130616068840027
1667266160083579400,1.454579345703125,0.056274302303791046,-0.24273543059825897,0.6106181740760803
1667266160085977300,1.456977294921875,0.11674818396568298,-0.2561740577220917,0.6112290620803833
1667266160088375000,1.459375,0.17538951337337494,-0.2635042369365692,0.619170069694519
1667266160090772700,1.461772705078125,0.22670069336891174,-0.25800660252571106,0.6307761669158936
1667266160093170700,1.464170654296875,0.2725142240524292,-0.2402920424938202,0.6497124433517456
1667266160095568400,1.466568359375,0.3116084635257721,-0.21463645994663239,0.6717029213905334
1667266160097966300,1.46896630859375,0.34520506858825684,-0.17615307867527008,0.6991910338401794
1667266160100364000,1.471364013671875,0.3653630316257477,-0.12911784648895264,0.7291225790977478
1667266160102761700,1.47376171875,0.3769691288471222,-0.07475243508815765,0.7627955079078674
1667266160105159700,1.47615966796875,0.3788016438484192,-0.0130568603053689,0.7988355159759521
1667266160107557400,1.478557373046875,0.3733040392398834,0.05230379477143288,0.8360971808433533
1667266160109955300,1.480955322265625,0.35803285241127014,0.11888615041971207,0.8727480173110962
1667266160112353000,1.48335302734375,0.3360423445701599,0.18974442780017853,0.9130639433860779
1667266160114750700,1.485750732421875,0.3091650605201721,0.259991854429245,0.9521581530570984
1667266160117148700,1.488148681640625,0.2731250822544098,0.32840675115585327,0.9894198179244995
1667266160119546400,1.49054638671875,0.23464170098304749,0.39865419268608093,1.0266815423965454
1667266160121944000,1.492944091796875,0.193104088306427,0.46340399980545044,1.0645540952682495
1667266160124342000,1.495342041015625,0.14729054272174835,0.526321291923523,1.1012048721313477
1667266160126739700,1.49773974609375,0.10025530308485031,0.5861843228340149,1.1341906785964966
1667266160129137700,1.5001376953125,0.05566345527768135,0.6405497193336487,1.1696197986602783
1667266160131535400,1.502535400390625,0.013514995574951172,0.6943042874336243,1.2013838291168213
1667266160133933000,1.50493310546875,-0.027411770075559616,0.7382852435112,1.2300937175750732
1667266160136331000,1.5073310546875,-0.0689493864774704,0.7663842439651489,1.2575818300247192
1667266160138728700,1.509728759765625,-0.10376767814159393,0.7902072668075562,1.284459114074707
1667266160141126400,1.51212646484375,-0.14102935791015625,0.8067001700401306,1.3095037937164307
1667266160143524400,1.5145244140625,-0.1721825748682022,0.8115869164466858,1.329050898551941
1667266160145922000,1.516922119140625,-0.2015032321214676,0.8115869164466858,1.347987174987793
1667266160148320000,1.519320068359375,-0.22349373996257782,0.804256796836853,1.3663126230239868
1667266160150717700,1.5217177734375,-0.2387649267911911,0.7975374460220337,1.3815838098526
1667266160153115400,1.524115478515625,-0.24914932250976562,0.7828771471977234,1.3956332206726074
1667266160155513300,1.526513427734375,-0.25709033012390137,0.7596648931503296,1.408461093902588
1667266160157911000,1.5289111328125,-0.25770118832588196,0.7358418703079224,1.4182345867156982
1667266160160309000,1.53130908203125,-0.2522035539150238,0.7040778398513794,1.42739737033844
1667266160162706700,1.533706787109375,-0.24548424780368805,0.674146294593811,1.4353383779525757
1667266160165104400,1.5361044921875,-0.23509983718395233,0.6411605477333069,1.4402251243591309
1667266160167502300,1.53850244140625,-0.22410458326339722,0.6100073456764221,1.445111870765686
1667266160169900000,1.540900146484375,-0.2112767994403839,0.5800758004188538,1.450609564781189
1667266160172298000,1.543298095703125,-0.1996707022190094,0.5556419491767883,1.4524420499801636
1667266160174695700,1.54569580078125,-0.1880646049976349,0.5305972099304199,1.4542746543884277
1667266160177093400,1.54809326171875,-0.18012358248233795,0.5122717618942261,1.4542746543884277
1667266160179491300,1.5504912109375,-0.174625962972641,0.493946373462677,1.4554963111877441
1667266160181889000,1.552888916015625,-0.16851748526096344,0.4805077314376831,1.4524420499801636
1667266160184286700,1.55528662109375,-0.16485241055488586,0.470734179019928,1.450609564781189
1667266160186684700,1.5576845703125,-0.16301986575126648,0.46279314160346985,1.4469444751739502
1667266160189082400,1.560082275390625,-0.15691138803958893,0.46157145500183105,1.4426685571670532
1667266160191480300,1.562480224609375,-0.14958122372627258,0.47439923882484436,1.4359492063522339
1667266160193878000,1.5648779296875,-0.14347274601459503,0.48783788084983826,1.4267865419387817
1667266160196275700,1.567275634765625,-0.14102935791015625,0.5018873810768127,1.4194563627243042
1667266160198673700,1.569673583984375,-0.14041851460933685,0.5159368515014648,1.4060176610946655
1667266160201071400,1.5720712890625,-0.14164020121097565,0.5275429487228394,1.394411563873291
1667266160203469000,1.574468994140625,-0.15019206702709198,0.5367056727409363,1.3815838098526
1667266160205867000,1.576866943359375,-0.15691138803958893,0.5409815907478333,1.3681451082229614
1667266160208264700,1.5792646484375,-0.16790664196014404,0.5428141355514526,1.3516522645950317
1667266160210662700,1.58166259765625,-0.18134528398513794,0.5458683967590332,1.333937644958496
1667266160213060400,1.584060302734375,-0.1996707022190094,0.5470900535583496,1.3156123161315918
1667266160215458000,1.5864580078125,-0.22288289666175842,0.549533486366272,1.2997303009033203
1667266160217856000,1.58885595703125,-0.24731677770614624,0.5483117699623108,1.28018319606781
1667266160220253700,1.591253662109375,-0.27175068855285645,0.5513660311698914,1.2624685764312744
1667266160222651400,1.5936513671875,-0.29984965920448303,0.5525876879692078,1.2441431283950806
1667266160225049300,1.59604931640625,-0.3310792148113251,0.5501443147659302,1.228261113166809
1667266160227447000,1.598447021484375,-0.365286648273468,0.549533486366272,1.2117682695388794
1667266160229845000,1.600844970703125,-0.39827242493629456,0.5477009415626526,1.195886254310608
1667266160232242700,1.60324267578125,-0.4318690001964569,0.5483117699623108,1.1812258958816528
1667266160234640600,1.605640625,-0.4618005156517029,0.5531985759735107,1.1653438806533813
1667266160237038300,1.608038330078125,-0.48806697130203247,0.5556419491767883,1.1494618654251099
1667266160239436000,1.61043603515625,-0.5143333673477173,0.5586961507797241,1.1360231637954712
1667266160241834000,1.612833984375,-0.5338805317878723,0.5623612403869629,1.1256388425827026
1667266160244231700,1.615231689453125,-0.5509842038154602,0.5611395835876465,1.1134217977523804
1667266160246629400,1.61762939453125,-0.5650337338447571,0.5593070387840271,1.1054807901382446
1667266160249027300,1.62002734375,-0.5729747414588928,0.5593070387840271,1.0944855213165283
1667266160251425000,1.622425048828125,-0.577861487865448,0.5525876879692078,1.0834903717041016
1667266160253823000,1.624822998046875,-0.5790832042694092,0.5464792251586914,1.074938416481018
1667266160256220700,1.627220703125,-0.577861487865448,0.540370762348175,1.0651649236679077
1667266160258618400,1.629618408203125,-0.573585569858551,0.5342622995376587,1.0584455728530884
1667266160261016300,1.632016357421875,-0.5644228458404541,0.5244887471199036,1.052947998046875
1667266160263414000,1.6344140625,-0.5515950918197632,0.5134934782981873,1.042563557624817
1667266160265811700,1.636811767578125,-0.5375455617904663,0.49944397807121277,1.0370659828186035
1667266160268209700,1.639209716796875,-0.522885262966156,0.4841728210449219,1.0279031991958618
1667266160270607400,1.641607421875,-0.5027272701263428,0.46340399980545044,1.0230164527893066
1667266160273005300,1.64400537109375,-0.48012593388557434,0.4414134919643402,1.0175188779830933
1667266160275403000,1.646403076171875,-0.4593571424484253,0.417590469121933,1.0126320123672485
1667266160277800700,1.64880078125,-0.4337015450000763,0.39376741647720337,1.0077452659606934
1667266160280198700,1.65119873046875,-0.41171106696128845,0.37116608023643494,1.0046910047531128
1667266160282596400,1.653596435546875,-0.38666632771492004,0.3479538559913635,0.9979717135429382
1667266160284994000,1.655994140625,-0.36223241686820984,0.3235199749469757,0.996749997138977
1667266160287392000,1.65839208984375,-0.3414636254310608,0.30275118350982666,0.9943066239356995
1667266160289789700,1.660789794921875,-0.3158080279827118,0.283204048871994,0.9881981611251831
1667266160292187600,1.663187744140625,-0.2919086217880249,0.2587701678276062,0.9881981611251831
1667266160294585300,1.66558544921875,-0.26930728554725647,0.231282040476799,0.9875873327255249
1667266160296983000,1.667983154296875,-0.24670593440532684,0.20379391312599182,0.9875873327255249
1667266160299381000,1.670381103515625,-0.2253262847661972,0.17386239767074585,0.9863656163215637
1667266160301778700,1.67277880859375,-0.20516832172870636,0.14393088221549988,0.9900307059288025
1667266160304176400,1.67517626953125,-0.18501035869121552,0.1139993667602539,0.9924740791320801
1667266160306574300,1.67757421875,-0.16729579865932465,0.08284615725278854,0.9961391687393188
1667266160308972000,1.679971923828125,-0.15019206702709198,0.05596888065338135,0.9991934299468994
1667266160311370000,1.682369873046875,-0.1336991935968399,0.030313294380903244,1.00224769115448
1667266160313767700,1.684767578125,-0.1220930963754654,0.0064902519807219505,1.005301833152771
1667266160316165600,1.68716552734375,-0.11048699915409088,-0.014278554357588291,1.010799527168274
1667266160318563300,1.689563232421875,-0.10132429003715515,-0.031382277607917786,1.0144646167755127
1667266160320961000,1.6919609375,-0.09704835712909698,-0.044820915907621384,1.0175188779830933
1667266160323359000,1.69435888671875,-0.08971819281578064,-0.05276193097233772,1.025459885597229
1667266160325756700,1.696756591796875,-0.08544225990772247,-0.058870404958724976,1.02851402759552
1667266160328154400,1.699154296875,-0.08666395395994186,-0.06070294603705406,1.0334008932113647
1667266160330552300,1.70155224609375,-0.08849649876356125,-0.06070294603705406,1.0395092964172363
1667266160332950000,1.703949951171875,-0.09155073016881943,-0.057648710906505585,1.042563557624817
1667266160335348000,1.706347900390625,-0.0946049690246582,-0.0558161698281765,1.0450069904327393
1667266160337745700,1.70874560546875,-0.10132429003715515,-0.04909684881567955,1.0443960428237915
1667266160340143400,1.711143310546875,-0.1080436110496521,-0.040544986724853516,1.0450069904327393
1667266160342541300,1.713541259765625,-0.11170869320631027,-0.032603971660137177,1.042563557624817
1667266160344939000,1.71593896484375,-0.11964970827102661,-0.025884652510285378,1.0419527292251587
1667266160347336700,1.718336669921875,-0.12697987258434296,-0.025884652510285378,1.043174386024475
1667266160349734700,1.720734619140625,-0.1330883502960205,-0.03077143058180809,1.0437852144241333
1667266160352132400,1.72313232421875,-0.13919681310653687,-0.040544986724853516,1.0419527292251587
1667266160354530300,1.7255302734375,-0.14469444751739502,-0.0558161698281765,1.043174386024475
1667266160356928000,1.727927978515625,-0.1477486789226532,-0.07658497244119644,1.0456178188323975
1667266160359325700,1.73032568359375,-0.14958122372627258,-0.10101886838674545,1.0468394756317139
1667266160361723600,1.7327236328125,-0.15080291032791138,-0.12728530168533325,1.0498937368392944
1667266160364121300,1.735121337890625,-0.15263545513153076,-0.15171918272972107,1.0535588264465332
1667266160366519000,1.73751904296875,-0.15568970143795013,-0.17737478017807007,1.056002140045166
1667266160368917000,1.7399169921875,-0.15691138803958893,-0.20486289262771606,1.056002140045166
1667266160371314700,1.742314697265625,-0.1605764776468277,-0.2244100123643875,1.056002140045166
1667266160373712600,1.744712646484375,-0.16485241055488586,-0.2390703409910202,1.057223916053772
1667266160376110300,1.7471103515625,-0.17157171666622162,-0.2531198263168335,1.0547804832458496
1667266160378508000,1.749508056640625,-0.18012358248233795,-0.26106083393096924,1.0523371696472168
1667266160380906000,1.751906005859375,-0.18928629159927368,-0.264725923538208,1.047450304031372
1667266160383303700,1.7543037109375,-0.2008923888206482,-0.2641150951385498,1.0413419008255005
1667266160385701400,1.756701416015625,-0.21616357564926147,-0.25800660252571106,1.0334008932113647
1667266160388099300,1.759099365234375,-0.23265644907951355,-0.24334627389907837,1.0211838483810425
1667266160390497000,1.7614970703125,-0.2515927255153656,-0.22257746756076813,1.006523609161377
1667266160392895000,1.76389501953125,-0.27113983035087585,-0.19692188501358032,0.9906415343284607
1667266160395292700,1.766292724609375,-0.2937411665916443,-0.16454698145389557,0.9723161458969116
1667266160397690600,1.768690673828125,-0.3151971995830536,-0.12972868978977203,0.9478822350502014
1667266160400088300,1.77108837890625,-0.3396310806274414,-0.0949103906750679,0.9240592122077942
1667266160402486000,1.773486083984375,-0.36039987206459045,-0.06131379306316376,0.9002361297607422
1667266160404884000,1.775884033203125,-0.3836120665073395,-0.026495499536395073,0.8745805621147156
1667266160407281700,1.77828173828125,-0.4074351191520691,0.0064902519807219505,0.8452599048614502
1667266160409679400,1.780679443359375,-0.42759308218955994,0.04130854457616806,0.8134958148002625
1667266160412077300,1.783077392578125,-0.4459185004234314,0.07246175408363342,0.7780666947364807
1667266160414475000,1.78547509765625,-0.46363306045532227,0.10178242623806,0.7456917762756348
1667266160416873000,1.787873046875,-0.47890424728393555,0.13293562829494476,0.7101863026618958
1667266160419270700,1.790270751953125,-0.49295374751091003,0.16103461384773254,0.6692595481872559
1667266160421668400,1.79266845703125,-0.5070032477378845,0.18669019639492035,0.6326087117195129
1667266160424066300,1.79506640625,-0.5149442553520203,0.21601086854934692,0.5929036140441895
1667266160426464000,1.797464111328125,-0.5234960913658142,0.2477749139070511,0.549533486366272
1667266160428861700,1.79986181640625,-0.5277720093727112,0.2715979516506195,0.5061632990837097
1667266160431259600,1.802259765625,-0.5296045541763306,0.29297763109207153,0.46340399980545044
1667266160433657300,1.8046572265625,-0.53143709897995,0.31435728073120117,0.42003384232521057
1667266160436055300,1.80705517578125,-0.5326588153839111,0.33085015416145325,0.3760528564453125
1667266160438453000,1.809452880859375,-0.5296045541763306,0.34123456478118896,0.33023929595947266
1667266160440850700,1.8118505859375,-0.5253286361694336,0.3528406620025635,0.2868691384792328
1667266160443248600,1.81424853515625,-0.5216635465621948,0.3638359010219574,0.24288813769817352
1667266160445646300,1.816646240234375,-0.518609344959259,0.3748311400413513,0.19951798021793365
1667266160448044300,1.819044189453125,-0.5155550837516785,0.39498910307884216,0.15675868093967438
1667266160450442000,1.82144189453125,-0.5137225389480591,0.4139253795146942,0.11705360561609268
1667266160452839700,1.823839599609375,-0.5167768001556396,0.43713757395744324,0.0749051421880722
1667266160455237600,1.826237548828125,-0.5234960913658142,0.46096062660217285,0.03703261539340019
1667266160457635300,1.82863525390625,-0.5326588153839111,0.48844873905181885,-0.0008399150101467967
1667266160460033000,1.831032958984375,-0.5436540842056274,0.5147151947021484,-0.03993413969874382
1667266160462431000,1.833430908203125,-0.5601469278335571,0.5507551431655884,-0.08025006204843521
1667266160464828700,1.83582861328125,-0.5821374654769897,0.5886276960372925,-0.1205659806728363
1667266160467226600,1.8382265625,-0.6084038615226746,0.6265002489089966,-0.16515782475471497
1667266160469624300,1.840624267578125,-0.6401679515838623,0.655210018157959,-0.20669543743133545
1667266160472022000,1.84302197265625,-0.6762079000473022,0.6765896677970886,-0.2506764531135559
1667266160474420000,1.845419921875,-0.7165238261222839,0.6918608546257019,-0.290381520986557
1667266160476817700,1.847817626953125,-0.7592831254005432,0.6949151158332825,-0.3331408202648163
1667266160479215400,1.85021533203125,-0.8044858574867249,0.6869741082191467,-0.37467843294143677
1667266160481613300,1.85261328125,-0.8509102463722229,0.6662052869796753,-0.41621604561805725
1667266160484011000,1.855010986328125,-0.896723747253418,0.6356629133224487,-0.4492017924785614
1667266160486409000,1.857408935546875,-0.9376505613327026,0.6038988828659058,-0.48279839754104614
1667266160488806700,1.859806640625,-0.9804098606109619,0.5635829567909241,-0.5145624876022339
1667266160491204400,1.862204345703125,-1.0188932418823242,0.5238778591156006,-0.5426614284515381
1667266160493602300,1.864602294921875,-1.0537115335464478,0.48722705245018005,-0.5689278841018677
1667266160496000000,1.867,-1.0891406536102295,0.44813281297683716,-0.5909183621406555
1667266160498397700,1.869397705078125,-1.1184613704681396,0.4169796109199524,-0.6129088401794434
1667266160500795600,1.871795654296875,-1.1453386545181274,0.391934871673584,-0.6324560046195984
1667266160503193300,1.874193359375,-1.1697725057601929,0.3632250428199768,-0.6513922214508057
1667266160505591300,1.87659130859375,-1.1893196105957031,0.3400128483772278,-0.6733827590942383
1667266160507989000,1.878989013671875,-1.2070342302322388,0.31985488533973694,-0.6910973191261292
1667266160510387000,1.881386962890625,-1.221083641052246,0.2990860939025879,-0.70881187915802
1667266160512784600,1.88378466796875,-1.2302464246749878,0.28014981746673584,-0.7265264391899109
1667266160515182300,1.886182373046875,-1.2363548278808594,0.2593810260295868,-0.7448518872261047
1667266160517580300,1.888580322265625,-1.2357439994812012,0.23739051818847656,-0.760123074054718
1667266160519978000,1.89097802734375,-1.2333005666732788,0.21356746554374695,-0.7747833728790283
1667266160522375700,1.893375732421875,-1.2247487306594849,0.19829629361629486,-0.7900545597076416
1667266160524773600,1.895773681640625,-1.2168077230453491,0.18424680829048157,-0.8077691197395325
1667266160527171300,1.89817138671875,-1.2045907974243164,0.17325155436992645,-0.8260945677757263
1667266160529569300,1.9005693359375,-1.1856545209884644,0.1665322333574295,-0.8444199562072754
1667266160531967000,1.902967041015625,-1.1642749309539795,0.1555369794368744,-0.8645779490470886
1667266160534364700,1.90536474609375,-1.1416735649108887,0.14820681512355804,-0.8829033374786377
1667266160536762600,1.9077626953125,-1.113574504852295,0.14576342701911926,-0.9030613303184509
1667266160539160300,1.910160400390625,-1.0805888175964355,0.1396549493074417,-0.9250518083572388
1667266160541558000,1.91255810546875,-1.0469921827316284,0.1280488520860672,-0.9458206295967102
1667266160543956000,1.9149560546875,-1.0109522342681885,0.1152210608124733,-0.9623134732246399
1667266160546353700,1.917353759765625,-0.9706363081932068,0.09567394852638245,-0.9830822944641113
1667266160548751600,1.919751708984375,-0.9284878373146057,0.06757497787475586,-1.0001860857009888
1667266160551149300,1.9221494140625,-0.8832851648330688,0.03458922728896141,-1.014235496520996
1667266160553547000,1.924547119140625,-0.837471604347229,-0.005726693198084831,-1.0301175117492676
1667266160555945000,1.926945068359375,-0.7879929542541504,-0.0552053228020668,-1.0405019521713257
1667266160558342700,1.9293427734375,-0.7385143637657166,-0.1083490327000618,-1.0508863925933838
1667266160560740400,1.931740234375,-0.6884248852729797,-0.16882291436195374,-1.0582165718078613
1667266160563138300,1.93413818359375,-0.6371136903762817,-0.23235101997852325,-1.0606598854064941
1667266160565536000,1.936535888671875,-0.5845808386802673,-0.29893338680267334,-1.0594382286071777
1667266160567934000,1.938933837890625,-0.5363239049911499,-0.3728458881378174,-1.0576056241989136
1667266160570331600,1.94133154296875,-0.4868452548980713,-0.4462239146232605,-1.0508863925933838
1667266160572729300,1.943729248046875,-0.43858832120895386,-0.5213581323623657,-1.038669466972351
1667266160575127300,1.946127197265625,-0.393385648727417,-0.5903838872909546,-1.0233982801437378
1667266160577525000,1.94852490234375,-0.34573954343795776,-0.6575770974159241,-1.005072832107544
1667266160579922700,1.950922607421875,-0.3042019307613373,-0.7198835015296936,-0.9836931824684143
1667266160582320600,1.953320556640625,-0.2650313675403595,-0.7718055248260498,-0.9580375552177429
1667266160584718300,1.95571826171875,-0.2271588295698166,-0.8115105628967285,-0.9336037039756775
1667266160587116300,1.9581162109375,-0.19172967970371246,-0.8383878469467163,-0.9085589647293091
1667266160589514000,1.960513916015625,-0.15691138803958893,-0.8542698621749878,-0.8816816806793213
1667266160591911700,1.96291162109375,-0.120871402323246,-0.859767496585846,-0.8566369414329529
1667266160594309600,1.9653095703125,-0.08727480471134186,-0.8591566681861877,-0.8297596573829651
1667266160596707300,1.967707275390625,-0.05123481526970863,-0.851215660572052,-0.8041040897369385
1667266160599105000,1.97010498046875,-0.015805672854185104,-0.8408312797546387,-0.7760050892829895
1667266160601503000,1.9725029296875,0.018401773646473885,-0.8267817497253418,-0.7491278052330017
1667266160603900700,1.974900634765625,0.056274302303791046,-0.8121214509010315,-0.7234722375869751
1667266160606298600,1.977298583984375,0.09109259396791458,-0.7925743460655212,-0.6996491551399231
1667266160608696300,1.9796962890625,0.12346750497817993,-0.7779139876365662,-0.6776586771011353
1667266160611094300,1.98209423828125,0.15706409513950348,-0.7675296068191528,-0.6556681990623474
1667266160613492000,1.984491943359375,0.19004985690116882,-0.7565343379974365,-0.634899377822876
1667266160615889700,1.9868896484375,0.2193705290555954,-0.7498149871826172,-0.6153522729873657
1667266160618287600,1.98928759765625,0.24808034300804138,-0.7467607855796814,-0.5982485413551331
1667266160620685300,1.991685302734375,0.2755684554576874,-0.749204158782959,-0.584199070930481
1667266160623083000,1.9940830078125,0.299391508102417,-0.7504258751869202,-0.5713712573051453
1667266160625481000,1.99648095703125,0.325047105550766,-0.7608102560043335,-0.5579326152801514
1667266160627878700,1.998878662109375,0.348259299993515,-0.7718055248260498,-0.5469373464584351
1667266160630276600,2.001276611328125,0.37086063623428345,-0.7828007340431213,-0.5383855104446411
1667266160632674300,2.00367431640625,0.3891860544681549,-0.7950177192687988,-0.5316661596298218
1667266160635072000,2.006072021484375,0.40873315930366516,-0.8066238164901733,-0.5255576968193054
1667266160637470000,2.008469970703125,0.4258368909358978,-0.8139539957046509,-0.5176166892051697
1667266160639867600,2.01086767578125,0.43866467475891113,-0.8261709213256836,-0.5102865099906921
1667266160642265300,2.013265380859375,0.45210331678390503,-0.8365553021430969,-0.504788875579834
1667266160644663300,2.015663330078125,0.46187686920166016,-0.8432746529579163,-0.49623703956604004
1667266160647061000,2.01806103515625,0.4679853618144989,-0.8499939441680908,-0.4882960319519043
1667266160649459000,2.020458984375,0.4722612798213959,-0.8561024069786072,-0.48096585273742676
1667266160651856600,2.022856689453125,0.47531551122665405,-0.8585458397865295,-0.473024845123291
1667266160654254300,2.02525439453125,0.47348299622535706,-0.859767496585846,-0.4608078896999359
1667266160656652300,2.02765234375,0.4685961902141571,-0.8548807501792908,-0.4479801058769226
1667266160659050000,2.030050048828125,0.46309858560562134,-0.8457180261611938,-0.4363740086555481
1667266160661447700,2.03244775390625,0.4514924883842468,-0.8310576677322388,-0.419881135225296
1667266160663845600,2.034845703125,0.43866467475891113,-0.8133431077003479,-0.40277740359306335
1667266160666243300,2.037243408203125,0.42217180132865906,-0.7876875400543213,-0.38811707496643066
1667266160668641300,2.039641357421875,0.4032355546951294,-0.7577560544013977,-0.3679591119289398
1667266160671039000,2.0420390625,0.38246673345565796,-0.7211052179336548,-0.3459686040878296
1667266160673436700,2.044436767578125,0.35803285241127014,-0.6795675754547119,-0.32519981265068054
1667266160675834600,2.046834716796875,0.3366532027721405,-0.638029932975769,-0.3050418496131897
1667266160678232300,2.049232421875,0.31527355313301086,-0.5909947156906128,-0.28305134177207947
1667266160680630300,2.05163037109375,0.29206135869026184,-0.5415160655975342,-0.2622825503349304
1667266160683028000,2.054028076171875,0.271903395652771,-0.49264830350875854,-0.237237811088562
1667266160685425700,2.05642578125,0.25235626101493835,-0.4450022280216217,-0.21097137033939362
1667266160687823600,2.05882373046875,0.23647424578666687,-0.396668940782547,-0.1877591758966446
1667266160690221300,2.06122119140625,0.2212030589580536,-0.35207709670066833,-0.16393613815307617
1667266160692619000,2.063618896484375,0.20898611843585968,-0.30931776762008667,-0.13828055560588837
1667266160695017000,2.066016845703125,0.20043425261974335,-0.26961269974708557,-0.11384665966033936
1667266160697414700,2.06841455078125,0.193104088306427,-0.23174017667770386,-0.08819106966257095
1667266160699812600,2.0708125,0.18760646879673004,-0.19631104171276093,-0.06436803191900253
1667266160702210300,2.073210205078125,0.18577392399311066,-0.16332527995109558,-0.04115583375096321
1667266160704608000,2.07560791015625,0.18577392399311066,-0.13095037639141083,-0.020997874438762665
1667266160707006000,2.078005859375,0.18455222249031067,-0.10346225649118423,-0.002061609411612153
1667266160709403600,2.080403564453125,0.18577392399311066,-0.07169819623231888,0.010766183026134968
1667266160711801300,2.08280126953125,0.18882815539836884,-0.044820915907621384,0.02298312820494175
1667266160714199300,2.08519921875,0.19127154350280762,-0.023441264405846596,0.0358109213411808
1667266160716597000,2.087596923828125,0.1937149316072464,-0.010002624243497849,0.04619532451033592
1667266160718995000,2.089994873046875,0.19676917791366577,0.008322793990373611,0.057801421731710434
1667266160721392600,2.092392578125,0.19738002121448517,0.029091600328683853,0.06329904496669769
