time,seconds_elapsed,z,y,x
1667824500837995300,0.006995361328125,-0.8337554931640625,-0.382904052734375,-0.177703857421875
1667824500848002300,0.017002197265625,-0.8507232666015625,-0.3759002685546875,-0.16802978515625
1667824500858010400,0.02701025390625,-0.869049072265625,-0.3668975830078125,-0.1512603759765625
1667824500868018400,0.037018310546875,-0.8934173583984375,-0.363006591796875,-0.1329803466796875
1667824500878025200,0.047025146484375,-0.91973876953125,-0.3605804443359375,-0.111328125
1667824500888033300,0.057033203125,-0.94219970703125,-0.3601226806640625,-0.0866851806640625
1667824500898041300,0.067041259765625,-0.9643096923828125,-0.3574066162109375,-0.0605926513671875
1667824500908048400,0.07704833984375,-0.9886474609375,-0.3481292724609375,-0.0334625244140625
1667824500918056200,0.08705615234375,-1.010040283203125,-0.3377838134765625,-0.0115203857421875
1667824500928063500,0.0970634765625,-1.0273895263671875,-0.333221435546875,0.0045318603515625
1667824500938071300,0.1070712890625,-1.0367431640625,-0.3301849365234375,0.0181427001953125
1667824500948079400,0.117079345703125,-1.0370330810546875,-0.32867431640625,0.0263824462890625
1667824500958086100,0.127086181640625,-1.028564453125,-0.3327178955078125,0.0269317626953125
1667824500968094500,0.137094482421875,-1.0181732177734375,-0.3406524658203125,0.015838623046875
1667824500978102300,0.147102294921875,-0.9913177490234375,-0.3409271240234375,-0.0004730224609375
1667824500988109300,0.157109375,-0.9480133056640625,-0.340179443359375,-0.016326904296875
1667824500998117000,0.1671171875,-0.906524658203125,-0.350067138671875,-0.0396728515625
1667824501008125200,0.177125244140625,-0.8765411376953125,-0.3662872314453125,-0.06427001953125
1667824501018132200,0.18713232421875,-0.8560333251953125,-0.388641357421875,-0.0858917236328125
1667824501028140300,0.197140380859375,-0.8445587158203125,-0.4126739501953125,-0.106170654296875
1667824501038147300,0.207147216796875,-0.8397979736328125,-0.4334716796875,-0.124176025390625
1667824501048155400,0.2171552734375,-0.8432769775390625,-0.44439697265625,-0.133087158203125
1667824501058163500,0.22716357421875,-0.8511505126953125,-0.443603515625,-0.1254425048828125
1667824501068170200,0.237170166015625,-0.864105224609375,-0.43280029296875,-0.106048583984375
1667824501078178300,0.24717822265625,-0.891754150390625,-0.4149017333984375,-0.07977294921875
1667824501088186400,0.257186279296875,-0.9317169189453125,-0.398040771484375,-0.0520477294921875
1667824501098193400,0.267193359375,-0.9729156494140625,-0.3850250244140625,-0.0135498046875
1667824501108201200,0.277201171875,-1.0344390869140625,-0.37884521484375,0.025299072265625
1667824501118209300,0.287209228515625,-1.0906982421875,-0.36859130859375,0.02874755859375
1667824501128216300,0.29721630859375,-1.1182403564453125,-0.3446807861328125,0.090850830078125
1667824501138224400,0.307224365234375,-1.151336669921875,-0.2524871826171875,0.0874786376953125
1667824501148231200,0.317231201171875,-1.1580657958984375,-0.1661376953125,0.068267822265625
1667824501158239500,0.327239501953125,-1.1350555419921875,-0.11846923828125,0.0337066650390625
1667824501168247300,0.337247314453125,-1.0646820068359375,-0.1155548095703125,0.010955810546875
1667824501178254300,0.34725439453125,-0.977691650390625,-0.13470458984375,-0.0063934326171875
1667824501188262100,0.35726220703125,-0.890045166015625,-0.1511688232421875,-0.0318145751953125
1667824501198270200,0.367270263671875,-0.822479248046875,-0.143798828125,-0.0715484619140625
1667824501208277200,0.37727734375,-0.78106689453125,-0.12298583984375,-0.1063385009765625
1667824501218285300,0.387285400390625,-0.7892303466796875,-0.114776611328125,-0.0975189208984375
1667824501228293400,0.39729345703125,-0.8456573486328125,-0.113525390625,-0.06695556640625
1667824501238300400,0.407300537109375,-0.90814208984375,-0.11260986328125,-0.035736083984375
1667824501248308500,0.41730859375,-0.93890380859375,-0.113433837890625,-0.02740478515625
1667824501258315300,0.427315185546875,-1.133270263671875,-0.102508544921875,-0.0536651611328125
1667824501268323300,0.4373232421875,-1.0941162109375,-0.093292236328125,-0.060302734375
1667824501278331400,0.447331298828125,-0.8875274658203125,-0.1061248779296875,-0.0590362548828125
1667824501288338400,0.45733837890625,-0.9379425048828125,-0.1528167724609375,-0.1253509521484375
1667824501298346200,0.46734619140625,-0.9293975830078125,-0.1873626708984375,-0.1270294189453125
1667824501308354300,0.477354248046875,-0.94976806640625,-0.19952392578125,-0.0455322265625
1667824501318361300,0.487361328125,-0.9632568359375,-0.1668701171875,0.0210723876953125
1667824501328369400,0.497369384765625,-0.92901611328125,-0.118011474609375,0.069915771484375
1667824501338377200,0.507377197265625,-0.9652557373046875,-0.1058807373046875,0.05096435546875
1667824501348384300,0.51738427734375,-0.9945068359375,-0.1566009521484375,0.0257720947265625
1667824501358392300,0.527392333984375,-0.9668121337890625,-0.21527099609375,0.0645751953125
1667824501368399400,0.5373994140625,-0.957000732421875,-0.23162841796875,0.113861083984375
1667824501378407200,0.5474072265625,-1.036041259765625,-0.192657470703125,0.1674652099609375
1667824501388415200,0.557415283203125,-1.079132080078125,-0.1339569091796875,0.2381744384765625
1667824501398422300,0.56742236328125,-1.14849853515625,-0.1543426513671875,0.19512939453125
1667824501408430300,0.577430419921875,-1.2619171142578125,-0.2304229736328125,0.0487060546875
1667824501418438100,0.587438232421875,-1.1076507568359375,-0.267333984375,-0.0177154541015625
1667824501428445400,0.597445556640625,-0.9848175048828125,-0.2640533447265625,0.002593994140625
1667824501438453200,0.607453369140625,-0.8677215576171875,-0.2213134765625,0.0769805908203125
1667824501448461300,0.61746142578125,-0.793914794921875,-0.1848907470703125,0.1039886474609375
1667824501458468000,0.627468017578125,-0.779754638671875,-0.1940765380859375,0.083831787109375
1667824501468476400,0.637476318359375,-0.7808380126953125,-0.228790283203125,0.063232421875
1667824501478484500,0.647484375,-0.7769012451171875,-0.2635650634765625,0.063201904296875
1667824501488491300,0.6574912109375,-0.788360595703125,-0.28216552734375,0.0874176025390625
1667824501498499300,0.667499267578125,-0.942413330078125,-0.2787933349609375,0.1488800048828125
1667824501508506400,0.67750634765625,-0.8841552734375,-0.2357940673828125,0.1913909912109375
1667824501518514400,0.687514404296875,-0.895904541015625,-0.2243804931640625,0.1888580322265625
1667824501528522200,0.697522216796875,-0.9487457275390625,-0.2551422119140625,0.177398681640625
1667824501538529300,0.707529296875,-1.0486602783203125,-0.2583465576171875,0.209625244140625
1667824501548537300,0.717537353515625,-1.1161651611328125,-0.2596282958984375,0.2756195068359375
1667824501558545400,0.72754541015625,-1.1607666015625,-0.308258056640625,0.307098388671875
1667824501568552200,0.73755224609375,-1.1714935302734375,-0.3746490478515625,0.3188934326171875
1667824501578560300,0.747560302734375,-1.20550537109375,-0.4240570068359375,0.32568359375
1667824501588567300,0.7575673828125,-1.3070068359375,-0.4624481201171875,0.3428955078125
1667824501598575400,0.767575439453125,-1.39886474609375,-0.4648895263671875,0.396697998046875
1667824501608583200,0.777583251953125,-1.4516143798828125,-0.3910369873046875,0.485382080078125
1667824501618590500,0.787590576171875,-1.4654083251953125,-0.337554931640625,0.5389404296875
1667824501628598300,0.797598388671875,-1.4020538330078125,-0.3702392578125,0.490814208984375
1667824501638606300,0.8076064453125,-1.2922821044921875,-0.4470062255859375,0.3858642578125
1667824501648613000,0.817613037109375,-1.206573486328125,-0.50830078125,0.3211517333984375
1667824501658621200,0.82762109375,-1.2098388671875,-0.5173797607421875,0.297332763671875
1667824501668628200,0.837628173828125,-1.224517822265625,-0.5191192626953125,0.2963104248046875
1667824501678636300,0.84763623046875,-1.2000579833984375,-0.552398681640625,0.308441162109375
1667824501688644400,0.857644287109375,-1.2304840087890625,-0.5778045654296875,0.307830810546875
1667824501698651400,0.8676513671875,-1.3013763427734375,-0.5973052978515625,0.3193511962890625
1667824501708659500,0.877659423828125,-1.366455078125,-0.609466552734375,0.3642578125
1667824501718667300,0.887667236328125,-1.453765869140625,-0.5959320068359375,0.4287261962890625
1667824501728674300,0.89767431640625,-1.53094482421875,-0.5805511474609375,0.4879913330078125
1667824501738682400,0.907682373046875,-1.5007476806640625,-0.5890960693359375,0.5197296142578125
1667824501748690400,0.9176904296875,-1.4110870361328125,-0.650299072265625,0.5152740478515625
1667824501758697200,0.927697265625,-1.3466796875,-0.7734222412109375,0.459442138671875
1667824501768705300,0.937705322265625,-1.279205322265625,-0.78216552734375,0.4213104248046875
1667824501778712300,0.94771240234375,-1.1855621337890625,-0.696533203125,0.4605255126953125
1667824501788720400,0.957720458984375,-1.0857696533203125,-0.625518798828125,0.451812744140625
1667824501798728200,0.967728271484375,-0.9781646728515625,-0.586151123046875,0.3915863037109375
1667824501808735500,0.977735595703125,-0.8858184814453125,-0.5701751708984375,0.313934326171875
1667824501818740000,0.987739990234375,-0.799102783203125,-0.5956573486328125,0.3347625732421875
1667824501828747800,0.997747802734375,-0.7407073974609375,-0.6154022216796875,0.4134063720703125
1667824501838754800,1.0077548828125,-0.747314453125,-0.6053466796875,0.42901611328125
1667824501848762600,1.0177626953125,-0.785797119140625,-0.5607452392578125,0.419036865234375
1667824501858771000,1.02777099609375,-0.7771759033203125,-0.5221405029296875,0.3992156982421875
1667824501868777700,1.03777783203125,-0.698272705078125,-0.505157470703125,0.44512939453125
1667824501878785800,1.047785888671875,-0.5869598388671875,-0.4504241943359375,0.5110015869140625
1667824501888792800,1.057792724609375,-0.516937255859375,-0.3560028076171875,0.5165252685546875
1667824501898801000,1.06780078125,-0.4649658203125,-0.3146820068359375,0.398406982421875
1667824501908809000,1.07780908203125,-0.458221435546875,-0.321807861328125,0.2373809814453125
1667824501918815700,1.087815673828125,-0.3954620361328125,-0.3351593017578125,0.0650482177734375
1667824501928824000,1.097823974609375,-0.2495880126953125,-0.31134033203125,-0.020782470703125
1667824501938832000,1.107831787109375,-0.14642333984375,-0.2154541015625,-0.0244598388671875
1667824501948839000,1.1178388671875,-0.098175048828125,-0.132720947265625,-0.0670318603515625
1667824501958846700,1.1278466796875,-0.1083526611328125,-0.111083984375,-0.1347503662109375
1667824501968854000,1.13785400390625,-0.17010498046875,-0.09857177734375,-0.146636962890625
1667824501978861800,1.14786181640625,-0.2351837158203125,-0.1012725830078125,-0.1463623046875
1667824501988870000,1.157869873046875,-0.2384490966796875,-0.1467742919921875,-0.144866943359375
1667824501998877000,1.167876953125,-0.1678314208984375,-0.244781494140625,-0.1748809814453125
1667824502008885000,1.177885009765625,-0.06158447265625,-0.3344268798828125,-0.2262115478515625
1667824502018892800,1.187892822265625,0.08447265625,-0.3954925537109375,-0.305023193359375
1667824502028899800,1.19789990234375,0.2718658447265625,-0.4602203369140625,-0.3662567138671875
1667824502038907600,1.20790771484375,0.265167236328125,-0.4600372314453125,-0.3938140869140625
1667824502048916000,1.217916015625,0.178741455078125,-0.4254608154296875,-0.39935302734375
1667824502058922800,1.2279228515625,0.1087188720703125,-0.44622802734375,-0.3968048095703125
1667824502068930800,1.237930908203125,0.0937042236328125,-0.456329345703125,-0.3984222412109375
1667824502078937900,1.247937744140625,0.1256561279296875,-0.496246337890625,-0.45184326171875
1667824502088946000,1.25794580078125,0.1985015869140625,-0.5333404541015625,-0.437896728515625
1667824502098954000,1.2679541015625,0.171630859375,-0.555908203125,-0.36712646484375
1667824502108960800,1.277960693359375,0.241058349609375,-0.6336822509765625,-0.3986358642578125
1667824502118969000,1.287968994140625,0.4344940185546875,-0.710540771484375,-0.4196929931640625
1667824502128977000,1.297976806640625,0.418426513671875,-0.72943115234375,-0.3366241455078125
1667824502138984000,1.30798388671875,0.260162353515625,-0.7472076416015625,-0.2910308837890625
1667824502148991700,1.31799169921875,0.193756103515625,-0.7497100830078125,-0.3038787841796875
1667824502158999800,1.327999755859375,0.1511383056640625,-0.726898193359375,-0.3569488525390625
1667824502169006800,1.3380068359375,0.2105560302734375,-0.7751922607421875,-0.4196319580078125
1667824502179015000,1.348014892578125,0.30523681640625,-0.8997955322265625,-0.513031005859375
1667824502189022000,1.35802197265625,0.35064697265625,-0.896209716796875,-0.4788665771484375
1667824502199030000,1.368030029296875,0.448333740234375,-0.8576202392578125,-0.449432373046875
1667824502209037800,1.378037841796875,0.2926788330078125,-0.810028076171875,-0.454803466796875
1667824502219044900,1.388044921875,0.3729248046875,-0.8426055908203125,-0.428924560546875
1667824502229052700,1.398052734375,0.3402252197265625,-0.927459716796875,-0.4157257080078125
1667824502239061000,1.40806103515625,0.2935943603515625,-0.955841064453125,-0.46136474609375
1667824502249067800,1.41806787109375,0.3426513671875,-0.995758056640625,-0.503692626953125
1667824502259075800,1.428075927734375,0.3688812255859375,-1.014251708984375,-0.5387420654296875
1667824502269083000,1.438082763671875,0.378997802734375,-0.9832611083984375,-0.5572662353515625
1667824502279091000,1.448091064453125,0.3520660400390625,-0.933502197265625,-0.559234619140625
1667824502289098800,1.4580986328125,0.2764892578125,-0.878021240234375,-0.5330657958984375
1667824502299105800,1.468105712890625,0.1596221923828125,-0.83258056640625,-0.4995269775390625
1667824502309113900,1.47811376953125,0.115020751953125,-0.8282318115234375,-0.5384674072265625
1667824502319122000,1.488121826171875,0.1023101806640625,-0.92144775390625,-0.670318603515625
1667824502329128700,1.498128662109375,0.1285858154296875,-1.0077972412109375,-0.75775146484375
1667824502339136800,1.50813671875,0.2485504150390625,-1.0003814697265625,-0.80657958984375
1667824502349144800,1.518144775390625,0.3556976318359375,-0.973876953125,-0.8344573974609375
1667824502359151900,1.52815185546875,0.4127044677734375,-0.9645538330078125,-0.8616790771484375
1667824502369160000,1.538159912109375,0.4486846923828125,-0.937744140625,-0.8448486328125
1667824502379166700,1.548166748046875,0.425567626953125,-0.90252685546875,-0.7758941650390625
1667824502389175000,1.558175048828125,0.355194091796875,-0.884796142578125,-0.732940673828125
1667824502399182800,1.568182861328125,0.2906646728515625,-0.8636016845703125,-0.6883544921875
1667824502409190000,1.57818994140625,0.2943878173828125,-0.815185546875,-0.6476898193359375
1667824502419197700,1.58819775390625,0.3399200439453125,-0.7482757568359375,-0.62298583984375
1667824502429206000,1.5982060546875,0.3012237548828125,-0.780487060546875,-0.6544036865234375
1667824502439212800,1.608212890625,0.274993896484375,-0.8169403076171875,-0.65399169921875
1667824502449220900,1.618220947265625,0.29217529296875,-0.7989959716796875,-0.6014251708984375
1667824502459228000,1.628227783203125,0.322021484375,-0.7671356201171875,-0.544677734375
1667824502469236000,1.638236083984375,0.3325958251953125,-0.7391815185546875,-0.50372314453125
1667824502479243800,1.648243896484375,0.30560302734375,-0.7100677490234375,-0.4691162109375
1667824502489250800,1.658250732421875,0.2722320556640625,-0.69427490234375,-0.4546661376953125
1667824502499259000,1.6682587890625,0.248870849609375,-0.6839599609375,-0.4392547607421875
1667824502509267000,1.678266845703125,0.22308349609375,-0.665130615234375,-0.42901611328125
1667824502519273700,1.688273681640625,0.212646484375,-0.6427764892578125,-0.450775146484375
1667824502529281800,1.69828173828125,0.1951904296875,-0.617950439453125,-0.46868896484375
1667824502539289900,1.708289794921875,0.181549072265625,-0.5872039794921875,-0.47039794921875
1667824502549297000,1.718296875,0.1802978515625,-0.5716094970703125,-0.4781646728515625
1667824502559305000,1.728304931640625,0.1999969482421875,-0.57196044921875,-0.4658660888671875
1667824502569311700,1.738311767578125,0.1975860595703125,-0.590179443359375,-0.450225830078125
1667824502579320000,1.748320068359375,0.1636962890625,-0.6067352294921875,-0.426025390625
1667824502589328000,1.758327880859375,0.1414642333984375,-0.6087799072265625,-0.40472412109375
1667824502599335000,1.7683349609375,0.141937255859375,-0.6012420654296875,-0.3992462158203125
1667824502609342700,1.7783427734375,0.1667022705078125,-0.60272216796875,-0.41363525390625
1667824502619350800,1.788350830078125,0.20526123046875,-0.6244964599609375,-0.4407958984375
1667824502629357800,1.79835791015625,0.2265777587890625,-0.645416259765625,-0.452392578125
1667824502639366000,1.808365966796875,0.20703125,-0.6510467529296875,-0.4549713134765625
1667824502649373700,1.818373779296875,0.175811767578125,-0.6360321044921875,-0.4446563720703125
1667824502659381000,1.828381103515625,0.153839111328125,-0.626708984375,-0.4295654296875
1667824502669388800,1.838388916015625,0.1401214599609375,-0.6434478759765625,-0.426177978515625
1667824502679395800,1.848395751953125,0.1467437744140625,-0.668212890625,-0.444915771484375
1667824502689403600,1.858403564453125,0.1657867431640625,-0.68389892578125,-0.485107421875
1667824502699412000,1.868411865234375,0.167999267578125,-0.6758575439453125,-0.51727294921875
1667824502709418800,1.878418701171875,0.1738739013671875,-0.657562255859375,-0.53936767578125
1667824502719426800,1.8884267578125,0.212066650390625,-0.6662750244140625,-0.54248046875
1667824502729435000,1.898434814453125,0.205963134765625,-0.68231201171875,-0.553375244140625
1667824502739442000,1.90844189453125,0.1767730712890625,-0.683135986328125,-0.578765869140625
1667824502749450000,1.918449951171875,0.1426544189453125,-0.69854736328125,-0.612762451171875
1667824502759457800,1.928457763671875,0.1303253173828125,-0.737274169921875,-0.652374267578125
1667824502769465000,1.938465087890625,0.153961181640625,-0.782928466796875,-0.696563720703125
1667824502779473000,1.948472900390625,0.2243499755859375,-0.817779541015625,-0.750823974609375
1667824502789480000,1.95847998046875,0.301239013671875,-0.8244476318359375,-0.756988525390625
1667824502799487700,1.96848779296875,0.3291473388671875,-0.8319549560546875,-0.7660675048828125
1667824502809495800,1.978495849609375,0.310028076171875,-0.8419189453125,-0.74407958984375
1667824502819502600,1.988502685546875,0.3120880126953125,-0.854095458984375,-0.7048492431640625
1667824502829510400,1.998510498046875,0.3278656005859375,-0.850799560546875,-0.6918487548828125
1667824502839518500,2.0085185546875,0.3062286376953125,-0.793426513671875,-0.667388916015625
1667824502849525500,2.018525390625,0.2843780517578125,-0.7332763671875,-0.6383056640625
1667824502859533600,2.028533447265625,0.272705078125,-0.7179107666015625,-0.6305389404296875
1667824502869540400,2.038540283203125,0.29766845703125,-0.7474517822265625,-0.615447998046875
1667824502879548700,2.048548583984375,0.3592529296875,-0.7952728271484375,-0.6061859130859375
1667824502889556700,2.058556640625,0.3875579833984375,-0.8031005859375,-0.6278228759765625
1667824502899563500,2.0685634765625,0.42425537109375,-0.79034423828125,-0.635650634765625
1667824502909571600,2.078571533203125,0.4866790771484375,-0.8132781982421875,-0.6740264892578125
1667824502919579400,2.088579345703125,0.53912353515625,-0.8476409912109375,-0.7043609619140625
1667824502929586700,2.098586669921875,0.5133056640625,-0.8699188232421875,-0.7209930419921875
1667824502939594500,2.108594482421875,0.4554595947265625,-0.8953094482421875,-0.7093505859375
1667824502949602600,2.1186025390625,0.4150543212890625,-0.9234619140625,-0.6821136474609375
1667824502959609600,2.128609619140625,0.3600311279296875,-0.9383087158203125,-0.6809539794921875
1667824502969617700,2.13861767578125,0.3396759033203125,-0.9331817626953125,-0.6992034912109375
1667824502979625500,2.14862548828125,0.3862762451171875,-0.9205780029296875,-0.6949005126953125
1667824502989632500,2.158632568359375,0.424285888671875,-0.9064178466796875,-0.69403076171875
1667824502999640600,2.168640625,0.435089111328125,-0.8968505859375,-0.6833038330078125
1667824503009647600,2.178647705078125,0.4268646240234375,-0.899871826171875,-0.6554718017578125
1667824503019655400,2.188655517578125,0.40447998046875,-0.9019775390625,-0.6204071044921875
1667824503029663500,2.19866357421875,0.354522705078125,-0.8836822509765625,-0.5700836181640625
1667824503039670500,2.20867041015625,0.3055419921875,-0.8556671142578125,-0.546966552734375
1667824503049678600,2.2186787109375,0.28472900390625,-0.81689453125,-0.5423126220703125
1667824503059686700,2.228686767578125,0.2942047119140625,-0.7914886474609375,-0.552825927734375
1667824503069693400,2.238693359375,0.293914794921875,-0.770233154296875,-0.5574188232421875
1667824503079701800,2.24870166015625,0.2722625732421875,-0.747955322265625,-0.560333251953125
1667824503089708500,2.25870849609375,0.271514892578125,-0.739532470703125,-0.5485382080078125
1667824503099716600,2.268716552734375,0.286834716796875,-0.7409515380859375,-0.5362396240234375
1667824503109724400,2.278724365234375,0.2733612060546875,-0.7283172607421875,-0.5165557861328125
1667824503119731700,2.288731689453125,0.25054931640625,-0.7118988037109375,-0.490875244140625
1667824503129739500,2.298739501953125,0.2033233642578125,-0.701812744140625,-0.4837646484375
1667824503139747600,2.30874755859375,0.163787841796875,-0.6745147705078125,-0.472564697265625
1667824503149754600,2.318754638671875,0.162567138671875,-0.6597900390625,-0.4680633544921875
1667824503159762700,2.3287626953125,0.2157745361328125,-0.665740966796875,-0.481658935546875
1667824503169769500,2.33876953125,0.294158935546875,-0.681488037109375,-0.4870758056640625
1667824503179777500,2.348777587890625,0.3591156005859375,-0.7125244140625,-0.4983673095703125
1667824503189785600,2.35878564453125,0.3825836181640625,-0.7384490966796875,-0.509735107421875
1667824503199792600,2.368792724609375,0.3787689208984375,-0.7375335693359375,-0.5062713623046875
1667824503209800400,2.378800537109375,0.37017822265625,-0.7331085205078125,-0.497528076171875
1667824503219808500,2.38880859375,0.32025146484375,-0.729034423828125,-0.4742889404296875
1667824503229815600,2.398815673828125,0.23736572265625,-0.7153472900390625,-0.4485626220703125
1667824503239823600,2.40882373046875,0.19573974609375,-0.7079315185546875,-0.4265289306640625
1667824503249831700,2.418831787109375,0.2188873291015625,-0.7265167236328125,-0.4314727783203125
1667824503259838500,2.42883837890625,0.2808990478515625,-0.7530059814453125,-0.4290924072265625
1667824503269846800,2.4388466796875,0.3256988525390625,-0.7738800048828125,-0.43182373046875
1667824503279854600,2.4488544921875,0.3301239013671875,-0.7712860107421875,-0.417877197265625
1667824503289861600,2.458861572265625,0.3834075927734375,-0.7687225341796875,-0.4122467041015625
1667824503299869400,2.468869384765625,0.333831787109375,-0.7581939697265625,-0.4155731201171875
1667824503309876700,2.478876708984375,0.298797607421875,-0.7373046875,-0.4001007080078125
1667824503319884500,2.488884521484375,0.29095458984375,-0.729522705078125,-0.412628173828125
1667824503329892600,2.498892578125,0.304229736328125,-0.7368316650390625,-0.4371337890625
1667824503339899600,2.508899658203125,0.340911865234375,-0.7478790283203125,-0.4651336669921875
1667824503349907700,2.51890771484375,0.3953399658203125,-0.750396728515625,-0.4861907958984375
1667824503359915500,2.52891552734375,0.4703521728515625,-0.7578582763671875,-0.5174102783203125
1667824503369922600,2.538922607421875,0.553314208984375,-0.758575439453125,-0.547393798828125
1667824503379930600,2.5489306640625,0.59075927734375,-0.732879638671875,-0.5678863525390625
1667824503389937700,2.558937744140625,0.5989837646484375,-0.692718505859375,-0.5326080322265625
1667824503399945500,2.568945556640625,0.63134765625,-0.71771240234375,-0.479736328125
1667824503409953500,2.57895361328125,0.679412841796875,-0.76068115234375,-0.4512939453125
1667824503419960600,2.588960693359375,0.68902587890625,-0.7487640380859375,-0.4347076416015625
1667824503429968600,2.59896875,0.6260833740234375,-0.6992034912109375,-0.4618988037109375
1667824503439976400,2.6089765625,0.5434417724609375,-0.6321868896484375,-0.454925537109375
1667824503449983500,2.6189833984375,0.500518798828125,-0.605224609375,-0.4536285400390625
1667824503459991600,2.628991455078125,0.4858551025390625,-0.607269287109375,-0.4918670654296875
1667824503469999600,2.63899951171875,0.467529296875,-0.598236083984375,-0.5177001953125
1667824503480006400,2.64900634765625,0.46307373046875,-0.564727783203125,-0.524139404296875
1667824503490014500,2.659014404296875,0.4682464599609375,-0.5388031005859375,-0.54345703125
1667824503500021500,2.669021484375,0.4553680419921875,-0.5375518798828125,-0.5681304931640625
1667824503510029600,2.679029541015625,0.4419708251953125,-0.5433197021484375,-0.5745391845703125
1667824503520037600,2.68903759765625,0.4381256103515625,-0.52825927734375,-0.561309814453125
1667824503530044700,2.699044677734375,0.4372711181640625,-0.4832916259765625,-0.53570556640625
1667824503540052700,2.709052734375,0.4282684326171875,-0.4425048828125,-0.5254974365234375
1667824503550060500,2.719060546875,0.4015045166015625,-0.40789794921875,-0.5238189697265625
1667824503560067600,2.729067626953125,0.346893310546875,-0.37860107421875,-0.5295867919921875
1667824503570075400,2.739075439453125,0.279266357421875,-0.3557586669921875,-0.529266357421875
1667824503580083700,2.749083740234375,0.2207794189453125,-0.332366943359375,-0.5140838623046875
1667824503590090500,2.759090576171875,0.188873291015625,-0.3167877197265625,-0.4884185791015625
1667824503600098600,2.7690986328125,0.16522216796875,-0.3204498291015625,-0.468658447265625
1667824503610105600,2.779105712890625,0.11175537109375,-0.317230224609375,-0.45892333984375
1667824503620113700,2.78911376953125,0.04986572265625,-0.2921142578125,-0.41241455078125
1667824503630121500,2.79912158203125,0.002777099609375,-0.269622802734375,-0.337738037109375
1667824503640128500,2.80912841796875,-0.0516357421875,-0.26495361328125,-0.274444580078125
1667824503650136600,2.819136474609375,-0.1283111572265625,-0.2752685546875,-0.230560302734375
1667824503660144600,2.82914453125,-0.20806884765625,-0.2790679931640625,-0.1900177001953125
1667824503670151400,2.8391513671875,-0.278839111328125,-0.2667083740234375,-0.1426239013671875
1667824503680159500,2.849159423828125,-0.339874267578125,-0.237762451171875,-0.0794677734375
1667824503690167600,2.85916748046875,-0.4082794189453125,-0.1885223388671875,-0.002166748046875
1667824503700174600,2.869174560546875,-0.491912841796875,-0.1328277587890625,0.0786895751953125
1667824503710182700,2.8791826171875,-0.624542236328125,-0.0833587646484375,0.1545867919921875
1667824503720189700,2.889189697265625,-0.782379150390625,-0.060302734375,0.213348388671875
1667824503730197800,2.89919775390625,-0.8938140869140625,-0.0814361572265625,0.2245330810546875
1667824503740205600,2.90920556640625,-0.9318084716796875,-0.1261444091796875,0.22772216796875
1667824503750212600,2.919212646484375,-0.9255523681640625,-0.1676177978515625,0.253570556640625
1667824503760220400,2.929220458984375,-0.9708099365234375,-0.194488525390625,0.2907257080078125
1667824503770228700,2.939228759765625,-1.0626068115234375,-0.2022552490234375,0.341705322265625
1667824503780235500,2.949235595703125,-1.16900634765625,-0.2059478759765625,0.394927978515625
1667824503790243600,2.95924365234375,-1.25775146484375,-0.2152862548828125,0.4376373291015625
1667824503800250600,2.969250732421875,-1.3359527587890625,-0.2494049072265625,0.4713592529296875
1667824503810258700,2.9792587890625,-1.4176788330078125,-0.323974609375,0.4775848388671875
1667824503820267000,2.98926708984375,-1.4701995849609375,-0.4055938720703125,0.4335174560546875
1667824503830274000,2.999274169921875,-1.459564208984375,-0.4487152099609375,0.417236328125
1667824503840281900,3.00928173828125,-1.4474945068359375,-0.4930877685546875,0.41998291015625
1667824503850290200,3.019290283203125,-1.4375152587890625,-0.548828125,0.40313720703125
1667824503860297000,3.029296875,-1.4179840087890625,-0.5805816650390625,0.386871337890625
1667824503870305000,3.039304931640625,-1.3844757080078125,-0.5761260986328125,0.388397216796875
1667824503880313000,3.04931298828125,-1.3782501220703125,-0.5760498046875,0.4020843505859375
1667824503890320100,3.059320068359375,-1.386749267578125,-0.5751800537109375,0.4257965087890625
1667824503900328200,3.069328125,-1.4091796875,-0.5826416015625,0.4189910888671875
1667824503910335000,3.0793349609375,-1.426025390625,-0.6047821044921875,0.3796844482421875
1667824503920343000,3.089343017578125,-1.3920135498046875,-0.6319427490234375,0.334808349609375
1667824503930351000,3.09935107421875,-1.3746185302734375,-0.6636810302734375,0.28302001953125
1667824503940358100,3.109358154296875,-1.397613525390625,-0.6568756103515625,0.25408935546875
1667824503950366000,3.119365966796875,-1.40020751953125,-0.6248779296875,0.2810821533203125
1667824503960374000,3.1293740234375,-1.368743896484375,-0.6223907470703125,0.325775146484375
1667824503970381000,3.139381103515625,-1.3392791748046875,-0.64520263671875,0.3416748046875
1667824503980389000,3.14938916015625,-1.325653076171875,-0.6697998046875,0.343536376953125
1667824503990397000,3.15939697265625,-1.322113037109375,-0.6840972900390625,0.3499603271484375
1667824504000404200,3.169404296875,-1.33892822265625,-0.68634033203125,0.3723297119140625
1667824504010412000,3.179412109375,-1.37200927734375,-0.6685791015625,0.4034576416015625
1667824504020419000,3.189419189453125,-1.381317138671875,-0.6154327392578125,0.434661865234375
1667824504030427000,3.199427001953125,-1.3505401611328125,-0.539154052734375,0.444915771484375
1667824504040435200,3.209435302734375,-1.2840118408203125,-0.4468994140625,0.4427947998046875
1667824504050442000,3.21944189453125,-1.21795654296875,-0.35968017578125,0.4272613525390625
1667824504060450000,3.229449951171875,-1.1510467529296875,-0.2866363525390625,0.4072113037109375
1667824504070458000,3.2394580078125,-1.06951904296875,-0.229339599609375,0.3994598388671875
1667824504080465200,3.249465087890625,-0.99652099609375,-0.1987152099609375,0.3808746337890625
1667824504090473200,3.25947314453125,-0.94586181640625,-0.2014312744140625,0.346771240234375
1667824504100480000,3.26947998046875,-0.9100494384765625,-0.22784423828125,0.3035125732421875
1667824504110488000,3.279488037109375,-0.8743896484375,-0.2482452392578125,0.270843505859375
1667824504120496000,3.28949609375,-0.8568572998046875,-0.246490478515625,0.2722320556640625
1667824504130503200,3.299503173828125,-0.8823394775390625,-0.2607269287109375,0.261627197265625
1667824504140511000,3.309510986328125,-0.8645477294921875,-0.2936248779296875,0.2646636962890625
1667824504150519000,3.31951904296875,-0.857330322265625,-0.3285064697265625,0.2975921630859375
1667824504160526000,3.329526123046875,-0.896240234375,-0.3571319580078125,0.3504791259765625
1667824504170534100,3.3395341796875,-0.957672119140625,-0.3678436279296875,0.41973876953125
1667824504180542000,3.3495419921875,-1.020751953125,-0.3590087890625,0.497589111328125
1667824504190549200,3.35954931640625,-1.0839080810546875,-0.344268798828125,0.561279296875
1667824504200557000,3.36955712890625,-1.1398773193359375,-0.32666015625,0.60833740234375
1667824504210564000,3.379564208984375,-1.1696319580078125,-0.2978973388671875,0.6385650634765625
1667824504220572000,3.389572021484375,-1.1515350341796875,-0.2676239013671875,0.6392364501953125
1667824504230580000,3.399580078125,-1.093109130859375,-0.2509613037109375,0.6088104248046875
1667824504240587000,3.4095869140625,-1.016815185546875,-0.2509307861328125,0.5592193603515625
1667824504250595000,3.419594970703125,-0.911651611328125,-0.2558135986328125,0.49932861328125
1667824504260603000,3.429602783203125,-0.799224853515625,-0.26141357421875,0.447357177734375
1667824504270610200,3.439610107421875,-0.6942291259765625,-0.2696533203125,0.3977813720703125
1667824504280618000,3.449617919921875,-0.6085205078125,-0.28961181640625,0.348846435546875
1667824504290626000,3.4596259765625,-0.550445556640625,-0.316864013671875,0.3087005615234375
1667824504300632800,3.4696328125,-0.5159912109375,-0.3413543701171875,0.2816314697265625
1667824504310641200,3.47964111328125,-0.4994964599609375,-0.36572265625,0.272857666015625
1667824504320648000,3.48964794921875,-0.4972381591796875,-0.3865203857421875,0.2859039306640625
1667824504330656000,3.499656005859375,-0.5035552978515625,-0.4065399169921875,0.3060760498046875
1667824504340664000,3.5096640625,-0.513092041015625,-0.423187255859375,0.3183441162109375
1667824504350671000,3.519671142578125,-0.5411376953125,-0.433074951171875,0.3184661865234375
1667824504360679200,3.52967919921875,-0.6060791015625,-0.4290771484375,0.3075103759765625
1667824504370687000,3.53968701171875,-0.6615142822265625,-0.40069580078125,0.327880859375
1667824504380694300,3.5496943359375,-0.667022705078125,-0.3693695068359375,0.3643951416015625
1667824504390702000,3.5597021484375,-0.6540374755859375,-0.35772705078125,0.37042236328125
1667824504400710100,3.569710205078125,-0.6434173583984375,-0.3629150390625,0.341796875
1667824504410717000,3.579717041015625,-0.6118011474609375,-0.3755645751953125,0.3038330078125
1667824504420725000,3.58972509765625,-0.57464599609375,-0.3836517333984375,0.2684326171875
1667824504430733000,3.599733154296875,-0.54632568359375,-0.379791259765625,0.242523193359375
1667824504440740000,3.609739990234375,-0.5437164306640625,-0.3797760009765625,0.2384033203125
1667824504450748000,3.619747802734375,-0.5644683837890625,-0.3859100341796875,0.24530029296875
1667824504460755200,3.629755126953125,-0.6045684814453125,-0.3930206298828125,0.2563629150390625
1667824504470763000,3.639762939453125,-0.6503753662109375,-0.4080810546875,0.28790283203125
1667824504480771000,3.64977099609375,-0.6874237060546875,-0.428436279296875,0.3318023681640625
1667824504490777900,3.65977783203125,-0.7292938232421875,-0.4521331787109375,0.3605804443359375
1667824504500786200,3.6697861328125,-0.761993408203125,-0.4588470458984375,0.36572265625
1667824504510794200,3.679794189453125,-0.8051910400390625,-0.450439453125,0.377593994140625
1667824504520801000,3.689801025390625,-0.85955810546875,-0.435699462890625,0.3966064453125
1667824504530809000,3.69980908203125,-0.9136810302734375,-0.4201812744140625,0.4236602783203125
1667824504540816100,3.709816162109375,-0.959381103515625,-0.4125518798828125,0.4571533203125
1667824504550824200,3.71982421875,-0.99041748046875,-0.4062042236328125,0.4922332763671875
1667824504560832000,3.72983203125,-1.0074005126953125,-0.3957061767578125,0.523956298828125
1667824504570839000,3.739839111328125,-1.025848388671875,-0.3857574462890625,0.55499267578125
1667824504580847000,3.74984716796875,-1.0703582763671875,-0.382080078125,0.5926513671875
1667824504590855200,3.759855224609375,-1.100555419921875,-0.3855438232421875,0.6260833740234375
1667824504600862000,3.769862060546875,-1.0901947021484375,-0.383514404296875,0.648529052734375
1667824504610870000,3.7798701171875,-1.0645294189453125,-0.368682861328125,0.669464111328125
1667824504620878000,3.789878173828125,-1.0420684814453125,-0.3446197509765625,0.69171142578125
1667824504630885000,3.799885009765625,-1.0181732177734375,-0.3114013671875,0.700927734375
1667824504640893000,3.809892822265625,-0.9984283447265625,-0.2755279541015625,0.69244384765625
1667824504650900200,3.819900146484375,-0.9691619873046875,-0.243072509765625,0.6767578125
1667824504660908000,3.829907958984375,-0.92694091796875,-0.2215576171875,0.6492462158203125
1667824504670916000,3.839916015625,-0.870513916015625,-0.2129669189453125,0.60943603515625
1667824504680923000,3.8499228515625,-0.802947998046875,-0.2097930908203125,0.574493408203125
1667824504690931200,3.85993115234375,-0.7366943359375,-0.207275390625,0.547149658203125
1667824504700939300,3.869939208984375,-0.6777191162109375,-0.21148681640625,0.5285491943359375
1667824504710946000,3.879946044921875,-0.627685546875,-0.225433349609375,0.5194549560546875
1667824504720954000,3.8899541015625,-0.5995025634765625,-0.2530975341796875,0.509063720703125
1667824504730962000,3.8999619140625,-0.5984344482421875,-0.2898712158203125,0.4973602294921875
1667824504740969000,3.909968994140625,-0.5906524658203125,-0.3214874267578125,0.5082244873046875
1667824504750977000,3.91997705078125,-0.6032257080078125,-0.346343994140625,0.5263519287109375
1667824504760984000,3.929984130859375,-0.647308349609375,-0.3679962158203125,0.566802978515625
1667824504770992000,3.9399921875,-0.6865081787109375,-0.3583831787109375,0.6521453857421875
1667824504781000200,3.950000244140625,-0.735260009765625,-0.331085205078125,0.7457275390625
1667824504791007000,3.960007080078125,-0.7959136962890625,-0.3144989013671875,0.810791015625
1667824504801015000,3.97001513671875,-0.843475341796875,-0.308685302734375,0.856842041015625
1667824504811023000,3.980023193359375,-0.863922119140625,-0.3050537109375,0.8852081298828125
1667824504821033200,3.990033203125,-0.8555755615234375,-0.2583465576171875,0.89898681640625
1667824504831041000,4.000041015625,-0.83489990234375,-0.204742431640625,0.88055419921875
1667824504841049000,4.010049072265625,-0.7966766357421875,-0.1712799072265625,0.8300933837890625
1667824504851056000,4.02005615234375,-0.753082275390625,-0.175445556640625,0.7726593017578125
1667824504861064200,4.030064208984375,-0.7093048095703125,-0.198944091796875,0.71392822265625
1667824504871071000,4.040071044921875,-0.6559295654296875,-0.215362548828125,0.6556549072265625
1667824504881079300,4.050079345703125,-0.600677490234375,-0.22503662109375,0.5971221923828125
1667824504891087400,4.06008740234375,-0.55633544921875,-0.230194091796875,0.545074462890625
1667824504901094100,4.07009423828125,-0.52362060546875,-0.230987548828125,0.4977569580078125
1667824504911102200,4.080102294921875,-0.49102783203125,-0.2289276123046875,0.463348388671875
1667824504921110300,4.0901103515625,-0.456268310546875,-0.2282562255859375,0.44451904296875
1667824504931117300,4.100117431640625,-0.430023193359375,-0.2319793701171875,0.43267822265625
1667824504941125000,4.110125,-0.413360595703125,-0.2381591796875,0.4310302734375
1667824504951133200,4.12013330078125,-0.419403076171875,-0.249847412109375,0.4390411376953125
1667824504961140200,4.13014013671875,-0.4307861328125,-0.2690582275390625,0.45306396484375
1667824504971148300,4.140148193359375,-0.433563232421875,-0.2946014404296875,0.4720916748046875
1667824504981155000,4.150155029296875,-0.4376220703125,-0.32147216796875,0.5044403076171875
1667824504991163100,4.1601630859375,-0.46234130859375,-0.3517913818359375,0.54779052734375
1667824505001171200,4.170171142578125,-0.4902496337890625,-0.37786865234375,0.589813232421875
1667824505011178200,4.18017822265625,-0.5143890380859375,-0.3921051025390625,0.6246490478515625
1667824505021186000,4.19018603515625,-0.532440185546875,-0.3917694091796875,0.652069091796875
1667824505031194000,4.200194091796875,-0.54803466796875,-0.377105712890625,0.67401123046875
1667824505041201200,4.210201171875,-0.5665740966796875,-0.356597900390625,0.6953887939453125
1667824505051209200,4.220209228515625,-0.5836639404296875,-0.3350067138671875,0.7021636962890625
1667824505061216000,4.230216064453125,-0.5943145751953125,-0.3204803466796875,0.7024078369140625
1667824505071224300,4.240224365234375,-0.6108856201171875,-0.311981201171875,0.704742431640625
1667824505081232100,4.250232177734375,-0.630950927734375,-0.308319091796875,0.7052001953125
1667824505091239200,4.2602392578125,-0.63958740234375,-0.3093109130859375,0.7029266357421875
1667824505101247000,4.2702470703125,-0.6342010498046875,-0.31658935546875,0.6985931396484375
1667824505111255300,4.28025537109375,-0.623382568359375,-0.328643798828125,0.6958770751953125
1667824505121262000,4.290261962890625,-0.603729248046875,-0.343109130859375,0.6960296630859375
1667824505131270100,4.300270263671875,-0.5859375,-0.361907958984375,0.700836181640625
1667824505141278200,4.3102783203125,-0.58599853515625,-0.38360595703125,0.704498291015625
1667824505151285200,4.32028515625,-0.5911102294921875,-0.4038543701171875,0.703521728515625
1667824505161293300,4.330293212890625,-0.59136962890625,-0.417816162109375,0.700592041015625
1667824505171301000,4.340301025390625,-0.59613037109375,-0.4275054931640625,0.7033843994140625
1667824505181308200,4.35030810546875,-0.61083984375,-0.438568115234375,0.705718994140625
1667824505191316200,4.360316162109375,-0.6156005859375,-0.448211669921875,0.7167816162109375
1667824505201323300,4.3703232421875,-0.621673583984375,-0.45367431640625,0.730712890625
1667824505211331000,4.3803310546875,-0.639984130859375,-0.4535980224609375,0.745635986328125
1667824505221339100,4.390339111328125,-0.6609344482421875,-0.44580078125,0.764007568359375
1667824505231346200,4.40034619140625,-0.682525634765625,-0.429718017578125,0.7854461669921875
1667824505241354200,4.410354248046875,-0.694427490234375,-0.406829833984375,0.8095855712890625
1667824505251362000,4.420362060546875,-0.7039794921875,-0.378387451171875,0.825531005859375
1667824505261369300,4.430369384765625,-0.715576171875,-0.3545379638671875,0.8317108154296875
1667824505271377200,4.440377197265625,-0.708892822265625,-0.3371124267578125,0.8311004638671875
1667824505281385200,4.45038525390625,-0.68975830078125,-0.3292999267578125,0.8235321044921875
1667824505291392000,4.46039208984375,-0.668792724609375,-0.3272857666015625,0.8061065673828125
1667824505301400000,4.470400146484375,-0.64520263671875,-0.3229217529296875,0.7968902587890625
1667824505311407000,4.480406982421875,-0.6345367431640625,-0.311920166015625,0.8031768798828125
1667824505321415200,4.490415283203125,-0.640716552734375,-0.29058837890625,0.8141326904296875
1667824505331423200,4.50042333984375,-0.6491546630859375,-0.260650634765625,0.8369140625
1667824505341430300,4.51043017578125,-0.6533050537109375,-0.222564697265625,0.8819427490234375
1667824505351438300,4.520438232421875,-0.659454345703125,-0.1783599853515625,0.945343017578125
1667824505361446100,4.530446044921875,-0.6827850341796875,-0.144073486328125,1.0025177001953125
1667824505371453200,4.540453125,-0.7171173095703125,-0.1355743408203125,1.0324249267578125
1667824505381461200,4.550461181640625,-0.7431640625,-0.15142822265625,1.029937744140625
1667824505391469300,4.56046923828125,-0.7521209716796875,-0.18170166015625,1.01275634765625
1667824505401476000,4.57047607421875,-0.7459564208984375,-0.2192535400390625,0.98687744140625
1667824505411484200,4.580484130859375,-0.723388671875,-0.25286865234375,0.9558868408203125
1667824505421491200,4.5904912109375,-0.6875152587890625,-0.2766876220703125,0.92724609375
1667824505431499300,4.600499267578125,-0.6483154296875,-0.3002166748046875,0.9027252197265625
1667824505441507000,4.610507080078125,-0.6011505126953125,-0.3122100830078125,0.8798065185546875
1667824505451514400,4.620514404296875,-0.5441436767578125,-0.313385009765625,0.8647308349609375
1667824505461522200,4.630522216796875,-0.496795654296875,-0.3155670166015625,0.858978271484375
1667824505471530200,4.6405302734375,-0.4690093994140625,-0.323760986328125,0.8540802001953125
1667824505481537000,4.650537109375,-0.455718994140625,-0.34466552734375,0.83160400390625
1667824505491545000,4.660545166015625,-0.4497222900390625,-0.3661346435546875,0.8086090087890625
1667824505501553400,4.670553466796875,-0.448455810546875,-0.3866729736328125,0.7956695556640625
1667824505511560200,4.680560302734375,-0.448272705078125,-0.400726318359375,0.79150390625
1667824505521568300,4.690568359375,-0.4524688720703125,-0.4006195068359375,0.7790069580078125
1667824505531575300,4.7005751953125,-0.4598236083984375,-0.389739990234375,0.7652130126953125
1667824505541583400,4.710583251953125,-0.4532318115234375,-0.3801422119140625,0.74554443359375
1667824505551591200,4.720591064453125,-0.438079833984375,-0.3743896484375,0.7151031494140625
1667824505561598200,4.73059814453125,-0.423736572265625,-0.3656005859375,0.6841888427734375
1667824505571606300,4.740606201171875,-0.4101715087890625,-0.35198974609375,0.6586456298828125
1667824505581614300,4.7506142578125,-0.4045257568359375,-0.337921142578125,0.6383819580078125
1667824505591621000,4.76062109375,-0.405426025390625,-0.3304901123046875,0.6184844970703125
1667824505601629200,4.770629150390625,-0.4076080322265625,-0.3291778564453125,0.5941009521484375
1667824505611636200,4.78063623046875,-0.411834716796875,-0.3304443359375,0.573638916015625
1667824505621644300,4.790644287109375,-0.4190216064453125,-0.3292694091796875,0.5588531494140625
1667824505631652000,4.800652099609375,-0.43096923828125,-0.33062744140625,0.544708251953125
1667824505641659100,4.8106591796875,-0.44451904296875,-0.330596923828125,0.5457000732421875
1667824505651667200,4.820667236328125,-0.461517333984375,-0.32818603515625,0.5642852783203125
1667824505661675300,4.83067529296875,-0.47015380859375,-0.3241729736328125,0.596771240234375
1667824505671682000,4.84068212890625,-0.4640350341796875,-0.3194122314453125,0.6418609619140625
1667824505681690000,4.850690185546875,-0.45684814453125,-0.3186492919921875,0.706634521484375
1667824505691698200,4.8606982421875,-0.4695587158203125,-0.33294677734375,0.77349853515625
1667824505701705200,4.870705322265625,-0.4896240234375,-0.35296630859375,0.84332275390625
1667824505711713000,4.880713134765625,-0.51324462890625,-0.3601531982421875,0.9094085693359375
1667824505721721000,4.89072119140625,-0.541107177734375,-0.3510589599609375,0.969696044921875
1667824505731728100,4.90072802734375,-0.57000732421875,-0.3366546630859375,1.016326904296875
1667824505741736200,4.910736083984375,-0.5928802490234375,-0.3144378662109375,1.0507965087890625
1667824505751743000,4.920742919921875,-0.608184814453125,-0.2870330810546875,1.0796356201171875
1667824505761751300,4.930751220703125,-0.6238861083984375,-0.265533447265625,1.099578857421875
1667824505771759400,4.94075927734375,-0.636871337890625,-0.2566375732421875,1.0994110107421875
1667824505781766100,4.95076611328125,-0.6326751708984375,-0.2537078857421875,1.079254150390625
1667824505791774200,4.960774169921875,-0.62384033203125,-0.249969482421875,1.0391845703125
1667824505801782000,4.970781982421875,-0.6082916259765625,-0.24176025390625,0.9954986572265625
1667824505811789300,4.980789306640625,-0.5880584716796875,-0.230224609375,0.9478759765625
1667824505821793800,4.990793701171875,-0.56500244140625,-0.2190093994140625,0.9016876220703125
1667824505831801600,5.000801513671875,-0.534454345703125,-0.2117767333984375,0.8535614013671875
1667824505841809000,5.010808837890625,-0.50384521484375,-0.207183837890625,0.8106842041015625
1667824505851816700,5.020816650390625,-0.4772186279296875,-0.201629638671875,0.78546142578125
1667824505861823700,5.03082373046875,-0.4683380126953125,-0.193756103515625,0.7816925048828125
1667824505871831600,5.04083154296875,-0.4709625244140625,-0.19451904296875,0.7858123779296875
1667824505881839900,5.05083984375,-0.4803009033203125,-0.2048187255859375,0.7972412109375
1667824505891846700,5.0608466796875,-0.507476806640625,-0.2184600830078125,0.817626953125
1667824505901854700,5.070854736328125,-0.54052734375,-0.2295379638671875,0.843658447265625
1667824505911862500,5.080862548828125,-0.5773773193359375,-0.23272705078125,0.8729095458984375
1667824505921869800,5.090869873046875,-0.60577392578125,-0.226959228515625,0.912872314453125
1667824505931877600,5.100877685546875,-0.62481689453125,-0.21881103515625,0.958953857421875
1667824505941885700,5.1108857421875,-0.6493377685546875,-0.21575927734375,0.9925537109375
1667824505951892700,5.120892822265625,-0.6799774169921875,-0.219329833984375,1.002044677734375
1667824505961900800,5.13090087890625,-0.7064666748046875,-0.222900390625,0.9931793212890625
1667824505971907600,5.140907470703125,-0.7225189208984375,-0.218505859375,0.969512939453125
1667824505981915600,5.15091552734375,-0.725555419921875,-0.20318603515625,0.932525634765625
1667824505991923700,5.160923828125,-0.7188720703125,-0.1802825927734375,0.8835906982421875
1667824506001930800,5.1709306640625,-0.6925811767578125,-0.16400146484375,0.814361572265625
1667824506011938800,5.180938720703125,-0.6478424072265625,-0.156768798828125,0.734527587890625
1667824506021946600,5.190946533203125,-0.5896759033203125,-0.1563262939453125,0.6559295654296875
1667824506031954000,5.200953857421875,-0.533050537109375,-0.1619720458984375,0.5794830322265625
1667824506041961700,5.210961669921875,-0.4824981689453125,-0.168121337890625,0.5128173828125
1667824506051969800,5.2209697265625,-0.44378662109375,-0.167877197265625,0.467132568359375
1667824506061976600,5.2309765625,-0.425262451171875,-0.166717529296875,0.4361724853515625
1667824506071984600,5.240984619140625,-0.4263916015625,-0.171539306640625,0.412994384765625
1667824506081992700,5.25099267578125,-0.4379119873046875,-0.180633544921875,0.3934783935546875
1667824506091999700,5.260999755859375,-0.45953369140625,-0.1921844482421875,0.3905029296875
1667824506102007600,5.271007568359375,-0.4982452392578125,-0.2061004638671875,0.406768798828125
1667824506112014800,5.281014892578125,-0.5341949462890625,-0.2262420654296875,0.42962646484375
1667824506122022700,5.291022705078125,-0.5606231689453125,-0.248382568359375,0.453277587890625
1667824506132030700,5.30103076171875,-0.589263916015625,-0.271881103515625,0.4739227294921875
1667824506142037500,5.31103759765625,-0.623870849609375,-0.2877044677734375,0.496673583984375
1667824506152045800,5.3210458984375,-0.66265869140625,-0.2984466552734375,0.521392822265625
1667824506162054000,5.331053955078125,-0.704833984375,-0.3055877685546875,0.545928955078125
1667824506172060700,5.341060791015625,-0.7428131103515625,-0.3199462890625,0.558685302734375
1667824506182068700,5.35106884765625,-0.7651214599609375,-0.3349761962890625,0.5637969970703125
1667824506192076800,5.361076904296875,-0.7690887451171875,-0.3392791748046875,0.5741119384765625
1667824506202083800,5.371083740234375,-0.76934814453125,-0.340179443359375,0.579620361328125
1667824506212091600,5.381091552734375,-0.7697906494140625,-0.3431549072265625,0.5726165771484375
1667824506222099000,5.391098876953125,-0.7710418701171875,-0.3439483642578125,0.5659942626953125
1667824506232106800,5.401106689453125,-0.7767333984375,-0.3472442626953125,0.5706787109375
1667824506242114800,5.41111474609375,-0.7838592529296875,-0.3487701416015625,0.5876617431640625
1667824506252121600,5.42112158203125,-0.7994232177734375,-0.35565185546875,0.6019134521484375
1667824506262129700,5.431129638671875,-0.811370849609375,-0.36566162109375,0.6085052490234375
1667824506272137700,5.4411376953125,-0.822662353515625,-0.3715362548828125,0.6240386962890625
1667824506282144800,5.451144775390625,-0.8358001708984375,-0.3811187744140625,0.64630126953125
1667824506292152600,5.461152587890625,-0.8487091064453125,-0.3955078125,0.664947509765625
1667824506302160600,5.47116064453125,-0.8576202392578125,-0.4054412841796875,0.6860504150390625
1667824506312167700,5.481167724609375,-0.866668701171875,-0.40911865234375,0.715972900390625
1667824506322175700,5.49117578125,-0.8843536376953125,-0.4006195068359375,0.74981689453125
1667824506332182500,5.5011826171875,-0.9078369140625,-0.386199951171875,0.7901458740234375
1667824506342190800,5.51119091796875,-0.9196929931640625,-0.3643646240234375,0.8258514404296875
1667824506352199000,5.521198974609375,-0.9112701416015625,-0.3382720947265625,0.85479736328125
1667824506362205700,5.531205810546875,-0.884002685546875,-0.3126220703125,0.87994384765625
1667824506372213800,5.5412138671875,-0.8417510986328125,-0.2973480224609375,0.89373779296875
1667824506382221800,5.551221923828125,-0.784454345703125,-0.2916259765625,0.88983154296875
1667824506392228900,5.561228759765625,-0.71966552734375,-0.2850799560546875,0.8911590576171875
1667824506402236700,5.571236572265625,-0.663726806640625,-0.274383544921875,0.8889617919921875
1667824506412244700,5.58124462890625,-0.616973876953125,-0.2628326416015625,0.8776397705078125
1667824506422251800,5.591251708984375,-0.582672119140625,-0.2509918212890625,0.859771728515625
1667824506432259800,5.601259765625,-0.550323486328125,-0.23297119140625,0.8482513427734375
1667824506442266600,5.6112666015625,-0.5154571533203125,-0.2117156982421875,0.838409423828125
1667824506452274700,5.621274658203125,-0.4914093017578125,-0.1975250244140625,0.833709716796875
1667824506462282800,5.63128271484375,-0.4801025390625,-0.1934814453125,0.84393310546875
1667824506472289800,5.641289794921875,-0.481536865234375,-0.1961212158203125,0.8729400634765625
1667824506482297600,5.651297607421875,-0.4979248046875,-0.19415283203125,0.9118499755859375
1667824506492305700,5.6613056640625,-0.541900634765625,-0.1810302734375,0.94580078125
1667824506502312700,5.671312744140625,-0.60076904296875,-0.173065185546875,0.9578704833984375
1667824506512320800,5.68132080078125,-0.6678009033203125,-0.1805877685546875,0.94122314453125
1667824506522328600,5.69132861328125,-0.7239227294921875,-0.201751708984375,0.90997314453125
1667824506532335900,5.7013359375,-0.750213623046875,-0.2302093505859375,0.877899169921875
1667824506542343700,5.71134375,-0.742950439453125,-0.2581634521484375,0.85009765625
1667824506552350700,5.721350830078125,-0.710784912109375,-0.2828216552734375,0.80926513671875
1667824506562358500,5.731358642578125,-0.65765380859375,-0.2966461181640625,0.766632080078125
1667824506572366600,5.74136669921875,-0.59747314453125,-0.29095458984375,0.7337493896484375
1667824506582373600,5.75137353515625,-0.547821044921875,-0.273590087890625,0.7004241943359375
1667824506592381700,5.761381591796875,-0.5196990966796875,-0.262786865234375,0.6630401611328125
1667824506602389800,5.7713896484375,-0.5000457763671875,-0.26226806640625,0.6351318359375
1667824506612396800,5.781396728515625,-0.4887542724609375,-0.2714385986328125,0.6152496337890625
1667824506622404900,5.79140478515625,-0.49072265625,-0.2884674072265625,0.5957794189453125
1667824506632412700,5.80141259765625,-0.4942169189453125,-0.30926513671875,0.576385498046875
1667824506642419700,5.811419677734375,-0.491943359375,-0.3233184814453125,0.5551910400390625
1667824506652427800,5.821427734375,-0.4821624755859375,-0.32440185546875,0.5343017578125
1667824506662435800,5.831435791015625,-0.473663330078125,-0.319488525390625,0.5117340087890625
1667824506672442600,5.841442626953125,-0.4694976806640625,-0.3162384033203125,0.493377685546875
1667824506682450700,5.85145068359375,-0.4703216552734375,-0.317138671875,0.4807891845703125
1667824506692457700,5.861457763671875,-0.4740753173828125,-0.31884765625,0.4730377197265625
1667824506702465800,5.8714658203125,-0.482452392578125,-0.3202056884765625,0.476776123046875
1667824506712473600,5.8814736328125,-0.494140625,-0.3322906494140625,0.4779205322265625
1667824506722481000,5.89148095703125,-0.4990081787109375,-0.3482818603515625,0.4776611328125
1667824506732488700,5.90148876953125,-0.508697509765625,-0.36553955078125,0.4802703857421875
1667824506742496800,5.911496826171875,-0.5140228271484375,-0.383819580078125,0.4868621826171875
1667824506752503600,5.921503662109375,-0.517303466796875,-0.4011688232421875,0.4879302978515625
1667824506762511600,5.93151171875,-0.506591796875,-0.4148712158203125,0.4961700439453125
1667824506772518700,5.9415185546875,-0.503509521484375,-0.41949462890625,0.5196075439453125
1667824506782526700,5.951526611328125,-0.51812744140625,-0.41986083984375,0.550811767578125
1667824506792534800,5.96153466796875,-0.538604736328125,-0.421722412109375,0.5982666015625
1667824506802541800,5.971541748046875,-0.5710601806640625,-0.4207916259765625,0.6635589599609375
1667824506812550000,5.9815498046875,-0.6241912841796875,-0.4191131591796875,0.7367706298828125
1667824506822557700,5.9915576171875,-0.6809844970703125,-0.424560546875,0.79693603515625
1667824506832564500,6.001564453125,-0.735015869140625,-0.4305572509765625,0.8439178466796875
1667824506842572500,6.011572509765625,-0.7791748046875,-0.4263458251953125,0.885986328125
1667824506852580600,6.02158056640625,-0.80999755859375,-0.415283203125,0.9210968017578125
1667824506862587400,6.03158740234375,-0.8142547607421875,-0.38946533203125,0.9473876953125
1667824506872595500,6.041595458984375,-0.7994232177734375,-0.3456268310546875,0.9692230224609375
1667824506882603500,6.051603515625,-0.786468505859375,-0.3025360107421875,0.9857177734375
1667824506892610600,6.061610595703125,-0.760498046875,-0.2753753662109375,1.0054779052734375
1667824506902618600,6.07161865234375,-0.738189697265625,-0.26678466796875,1.0250701904296875
1667824506912625700,6.081625732421875,-0.7235565185546875,-0.2709808349609375,1.0413970947265625
1667824506922633700,6.0916337890625,-0.7098236083984375,-0.2737579345703125,1.0477294921875
1667824506932641500,6.1016416015625,-0.697052001953125,-0.267578125,1.0384979248046875
1667824506942648600,6.111648681640625,-0.67987060546875,-0.2522430419921875,1.0204925537109375
1667824506952656400,6.121656494140625,-0.6568603515625,-0.230743408203125,0.9971923828125
1667824506962664700,6.131664794921875,-0.626953125,-0.209808349609375,0.964599609375
1667824506972671500,6.14167138671875,-0.592376708984375,-0.195404052734375,0.92864990234375
1667824506982679600,6.151679443359375,-0.5528564453125,-0.1896514892578125,0.8836669921875
1667824506992686600,6.1616865234375,-0.5147552490234375,-0.1921539306640625,0.83258056640625
1667824507002694700,6.171694580078125,-0.476226806640625,-0.1958160400390625,0.78619384765625
1667824507012702500,6.181702392578125,-0.4440155029296875,-0.19390869140625,0.753753662109375
1667824507022709500,6.19170947265625,-0.4180450439453125,-0.1953582763671875,0.7372589111328125
1667824507032717600,6.201717529296875,-0.405181884765625,-0.2056884765625,0.729827880859375
1667824507042725600,6.2117255859375,-0.4205169677734375,-0.22381591796875,0.725494384765625
1667824507052732400,6.221732421875,-0.4588165283203125,-0.244293212890625,0.73504638671875
1667824507062740500,6.231740478515625,-0.5153350830078125,-0.26165771484375,0.74200439453125
1667824507072748500,6.24174853515625,-0.577667236328125,-0.26953125,0.7487030029296875
1667824507082755600,6.251755615234375,-0.6349945068359375,-0.2743377685546875,0.76171875
1667824507092763600,6.261763671875,-0.6736297607421875,-0.2732086181640625,0.77679443359375
1667824507102771500,6.271771484375,-0.6990203857421875,-0.276519775390625,0.777130126953125
1667824507112778800,6.28177880859375,-0.708282470703125,-0.279876708984375,0.767333984375
1667824507122786600,6.29178662109375,-0.6991729736328125,-0.28387451171875,0.7556304931640625
1667824507132793600,6.301793701171875,-0.682708740234375,-0.289825439453125,0.7393035888671875
1667824507142801400,6.311801513671875,-0.6560516357421875,-0.290863037109375,0.7293853759765625
1667824507152809700,6.321809814453125,-0.6437225341796875,-0.290618896484375,0.7038116455078125
1667824507162816500,6.33181640625,-0.6293182373046875,-0.288818359375,0.67437744140625
1667824507172824600,6.341824462890625,-0.6148681640625,-0.284454345703125,0.6458740234375
1667824507182832400,6.351832275390625,-0.6079864501953125,-0.2813568115234375,0.616363525390625
1667824507192839700,6.361839599609375,-0.607940673828125,-0.2828216552734375,0.5828857421875
1667824507202847500,6.371847412109375,-0.6003875732421875,-0.282928466796875,0.54473876953125
1667824507212855600,6.38185546875,-0.586334228515625,-0.27459716796875,0.5091094970703125
1667824507222862600,6.391862548828125,-0.5744171142578125,-0.2670135498046875,0.4752044677734375
1667824507232870700,6.40187060546875,-0.55810546875,-0.263275146484375,0.4456024169921875
1667824507242877400,6.41187744140625,-0.549346923828125,-0.264434814453125,0.4241790771484375
1667824507252885500,6.421885498046875,-0.552764892578125,-0.2709503173828125,0.4142303466796875
1667824507262893600,6.4318935546875,-0.55767822265625,-0.2791290283203125,0.411834716796875
1667824507272900600,6.441900634765625,-0.57373046875,-0.295654296875,0.41204833984375
1667824507282908700,6.45190869140625,-0.599456787109375,-0.312469482421875,0.421295166015625
1667824507292916500,6.46191650390625,-0.63543701171875,-0.3159332275390625,0.4416961669921875
1667824507302923800,6.471923828125,-0.67156982421875,-0.316253662109375,0.45660400390625
1667824507312931600,6.481931640625,-0.688568115234375,-0.3257904052734375,0.4697418212890625
1667824507322938400,6.4919384765625,-0.6943817138671875,-0.333038330078125,0.48992919921875
1667824507332946400,6.501946533203125,-0.6997833251953125,-0.340484619140625,0.5008087158203125
1667824507342954800,6.511954833984375,-0.7014007568359375,-0.3450469970703125,0.51409912109375
1667824507352961500,6.52196142578125,-0.7060394287109375,-0.3455657958984375,0.5275726318359375
1667824507362969600,6.531969482421875,-0.7182159423828125,-0.3495941162109375,0.533782958984375
1667824507372977400,6.541977294921875,-0.73297119140625,-0.35888671875,0.5408477783203125
1667824507382984700,6.551984619140625,-0.7434844970703125,-0.3675537109375,0.5499725341796875
1667824507392992500,6.561992431640625,-0.7519683837890625,-0.3767242431640625,0.5529022216796875
1667824507403000600,6.57200048828125,-0.7506256103515625,-0.3824310302734375,0.5605926513671875
1667824507413007600,6.582007568359375,-0.756439208984375,-0.3906097412109375,0.5681610107421875
1667824507423015700,6.592015625,-0.7724761962890625,-0.402099609375,0.5731964111328125
1667824507433022500,6.6020224609375,-0.7930450439453125,-0.417449951171875,0.5761260986328125
1667824507443030500,6.612030517578125,-0.805755615234375,-0.430419921875,0.58721923828125
1667824507453038300,6.622038330078125,-0.8176422119140625,-0.4424591064453125,0.600830078125
1667824507463045600,6.632045654296875,-0.8267059326171875,-0.44775390625,0.61749267578125
1667824507473053400,6.642053466796875,-0.837310791015625,-0.4470672607421875,0.65045166015625
1667824507483061500,6.6520615234375,-0.857421875,-0.44287109375,0.6964569091796875
1667824507493068500,6.662068603515625,-0.8901519775390625,-0.4369354248046875,0.743255615234375
1667824507503076600,6.67207666015625,-0.9301300048828125,-0.432098388671875,0.788665771484375
1667824507513084700,6.682084716796875,-0.95819091796875,-0.4174346923828125,0.8258056640625
1667824507523091500,6.692091552734375,-0.9705047607421875,-0.391357421875,0.8512725830078125
1667824507533099800,6.702099853515625,-0.9683074951171875,-0.3631439208984375,0.8671722412109375
1667824507543107600,6.712107666015625,-0.950897216796875,-0.3321685791015625,0.8497161865234375
1667824507553114600,6.722114501953125,-0.9054718017578125,-0.2932586669921875,0.8055419921875
1667824507563122400,6.732122314453125,-0.84698486328125,-0.2460784912109375,0.768707275390625
1667824507573129700,6.742129638671875,-0.78497314453125,-0.2060089111328125,0.7227325439453125
1667824507583137500,6.752137451171875,-0.7193603515625,-0.178497314453125,0.6567535400390625
1667824507593145600,6.7621455078125,-0.67047119140625,-0.1670379638671875,0.601104736328125
1667824507603152600,6.772152587890625,-0.6342620849609375,-0.165557861328125,0.5634307861328125
1667824507613160700,6.78216064453125,-0.6185455322265625,-0.1701507568359375,0.547149658203125
1667824507623168500,6.79216845703125,-0.6155242919921875,-0.171783447265625,0.556793212890625
1667824507633175600,6.802175537109375,-0.6237945556640625,-0.174591064453125,0.585052490234375
1667824507643183400,6.812183349609375,-0.6430206298828125,-0.18780517578125,0.6123809814453125
1667824507653190700,6.822190673828125,-0.66534423828125,-0.2141265869140625,0.649993896484375
1667824507663198500,6.832198486328125,-0.6896209716796875,-0.24517822265625,0.6969757080078125
1667824507673206500,6.84220654296875,-0.704864501953125,-0.265594482421875,0.7555694580078125
1667824507683213600,6.852213623046875,-0.728546142578125,-0.2835693359375,0.8179779052734375
1667824507693221600,6.8622216796875,-0.76849365234375,-0.310516357421875,0.873382568359375
1667824507703229700,6.872229736328125,-0.8000946044921875,-0.337371826171875,0.9129638671875
1667824507713236500,6.882236572265625,-0.8274383544921875,-0.3672637939453125,0.925018310546875
1667824507723244500,6.89224462890625,-0.8316497802734375,-0.3829498291015625,0.9195709228515625
1667824507733252600,6.902252685546875,-0.8014068603515625,-0.3831939697265625,0.9000701904296875
1667824507743259600,6.912259765625,-0.74420166015625,-0.378204345703125,0.847442626953125
1667824507753267500,6.922267333984375,-0.6793670654296875,-0.3718719482421875,0.7760467529296875
1667824507763274800,6.932274658203125,-0.61260986328125,-0.3572235107421875,0.709716796875
1667824507773282600,6.942282470703125,-0.5570831298828125,-0.3395233154296875,0.6435546875
1667824507783290600,6.95229052734375,-0.5217132568359375,-0.332489013671875,0.5752716064453125
1667824507793298400,6.96229833984375,-0.4954986572265625,-0.3318939208984375,0.519866943359375
1667824507803305700,6.9723056640625,-0.4751129150390625,-0.3235931396484375,0.487884521484375
1667824507813313500,6.9823134765625,-0.4677886962890625,-0.319305419921875,0.469085693359375
1667824507823320600,6.992320556640625,-0.4666595458984375,-0.32623291015625,0.4574127197265625
1667824507833328000,7.002328125,-0.4620361328125,-0.3381500244140625,0.4481201171875
1667824507843336400,7.01233642578125,-0.46038818359375,-0.3430328369140625,0.44549560546875
1667824507853343200,7.02234326171875,-0.4678192138671875,-0.3475494384765625,0.4501800537109375
1667824507863351300,7.032351318359375,-0.483917236328125,-0.3556365966796875,0.4444122314453125
1667824507873359000,7.042359130859375,-0.492340087890625,-0.364990234375,0.447998046875
1667824507883366400,7.052366455078125,-0.5040130615234375,-0.373870849609375,0.4648284912109375
1667824507893374200,7.062374267578125,-0.524810791015625,-0.3841705322265625,0.4756927490234375
1667824507903381200,7.07238134765625,-0.5477142333984375,-0.392547607421875,0.4847259521484375
1667824507913389300,7.082389404296875,-0.5657501220703125,-0.400360107421875,0.494476318359375
1667824507923397400,7.0923974609375,-0.5839996337890625,-0.4110107421875,0.5078277587890625
1667824507933404200,7.102404052734375,-0.602294921875,-0.4197998046875,0.525848388671875
1667824507943412200,7.112412109375,-0.627960205078125,-0.4250946044921875,0.5462188720703125
1667824507953420300,7.122420166015625,-0.6562652587890625,-0.4198455810546875,0.568878173828125
1667824507963427300,7.13242724609375,-0.68157958984375,-0.4072113037109375,0.5932159423828125
1667824507973435400,7.142435302734375,-0.7063751220703125,-0.388519287109375,0.625732421875
1667824507983443200,7.152443115234375,-0.7427520751953125,-0.372711181640625,0.6564178466796875
1667824507993450500,7.162450439453125,-0.7761077880859375,-0.35723876953125,0.680084228515625
1667824508003458300,7.172458251953125,-0.794921875,-0.34979248046875,0.7035980224609375
1667824508013465300,7.18246533203125,-0.80291748046875,-0.3471221923828125,0.7292633056640625
1667824508023473200,7.19247314453125,-0.808563232421875,-0.3386993408203125,0.7635650634765625
1667824508033481500,7.2024814453125,-0.80548095703125,-0.33056640625,0.7821807861328125
1667824508043488300,7.21248828125,-0.7943878173828125,-0.325439453125,0.80194091796875
1667824508053496300,7.222496337890625,-0.7943115234375,-0.329498291015625,0.822357177734375
1667824508063504100,7.232504150390625,-0.7994842529296875,-0.3294525146484375,0.843414306640625
1667824508073511400,7.242511474609375,-0.801177978515625,-0.313507080078125,0.8547515869140625
1667824508083519200,7.252519287109375,-0.800689697265625,-0.293243408203125,0.847503662109375
1667824508093526300,7.2625263671875,-0.79400634765625,-0.273895263671875,0.8277130126953125
1667824508103534300,7.272534423828125,-0.780609130859375,-0.258758544921875,0.803314208984375
1667824508113542400,7.28254248046875,-0.7571868896484375,-0.248291015625,0.7757568359375
1667824508123549200,7.292549072265625,-0.7239990234375,-0.2340240478515625,0.7449951171875
1667824508133557200,7.30255712890625,-0.6886749267578125,-0.21771240234375,0.71282958984375
1667824508143565300,7.3125654296875,-0.650421142578125,-0.2049560546875,0.6845855712890625
1667824508153572400,7.322572265625,-0.6188201904296875,-0.1999053955078125,0.6588592529296875
1667824508163580400,7.332580322265625,-0.5889129638671875,-0.2040557861328125,0.6409912109375
1667824508173588200,7.342588134765625,-0.570465087890625,-0.224029541015625,0.6302337646484375
1667824508183595500,7.352595458984375,-0.563690185546875,-0.2467193603515625,0.63623046875
1667824508193603300,7.362603271484375,-0.57080078125,-0.2659149169921875,0.64306640625
1667824508203610400,7.3726103515625,-0.582611083984375,-0.2844085693359375,0.6573638916015625
1667824508213618200,7.3826181640625,-0.6011505126953125,-0.30169677734375,0.6869659423828125
1667824508223626500,7.39262646484375,-0.63018798828125,-0.3184356689453125,0.7201080322265625
1667824508233633300,7.40263330078125,-0.66522216796875,-0.326507568359375,0.75750732421875
1667824508243641300,7.412641357421875,-0.714111328125,-0.323455810546875,0.7939300537109375
1667824508253649200,7.422649169921875,-0.7624359130859375,-0.30908203125,0.8219757080078125
1667824508263656400,7.432656494140625,-0.8028717041015625,-0.293792724609375,0.837890625
1667824508273664300,7.442664306640625,-0.8320770263671875,-0.287384033203125,0.8371429443359375
1667824508283672300,7.45267236328125,-0.8456573486328125,-0.2811737060546875,0.8204803466796875
1667824508293679400,7.462679443359375,-0.8348846435546875,-0.2646026611328125,0.78436279296875
1667824508303687400,7.4726875,-0.80523681640625,-0.2425689697265625,0.732269287109375
1667824508313694200,7.482694091796875,-0.7592620849609375,-0.2230682373046875,0.6660614013671875
1667824508323702300,7.492702392578125,-0.7094268798828125,-0.2164306640625,0.58734130859375
1667824508333710000,7.5027099609375,-0.65191650390625,-0.211395263671875,0.5182952880859375
1667824508343717400,7.51271728515625,-0.596221923828125,-0.20574951171875,0.452850341796875
1667824508353725200,7.52272509765625,-0.5614776611328125,-0.20098876953125,0.3989105224609375
1667824508363733200,7.532733154296875,-0.5340728759765625,-0.1958465576171875,0.361724853515625
1667824508373740300,7.542740234375,-0.5178070068359375,-0.19586181640625,0.33221435546875
1667824508383748400,7.552748291015625,-0.516357421875,-0.197906494140625,0.3140869140625
1667824508393755100,7.562755126953125,-0.5241241455078125,-0.2039947509765625,0.3108978271484375
1667824508403763200,7.57276318359375,-0.546783447265625,-0.222412109375,0.317291259765625
1667824508413771300,7.582771240234375,-0.576416015625,-0.2464141845703125,0.3308563232421875
1667824508423778300,7.5927783203125,-0.608154296875,-0.2642364501953125,0.34722900390625
1667824508433786400,7.602786376953125,-0.6412200927734375,-0.281890869140625,0.362396240234375
1667824508443794200,7.612794189453125,-0.6692657470703125,-0.304290771484375,0.3802337646484375
1667824508453801500,7.622801513671875,-0.69146728515625,-0.3240203857421875,0.400360107421875
1667824508463809300,7.632809326171875,-0.6986846923828125,-0.3381500244140625,0.414215087890625
1667824508473816300,7.64281640625,-0.7039794921875,-0.35418701171875,0.4247589111328125
1667824508483824000,7.65282421875,-0.7138519287109375,-0.3677520751953125,0.439117431640625
1667824508493832400,7.66283251953125,-0.725250244140625,-0.3726043701171875,0.4559478759765625
1667824508503839200,7.672839111328125,-0.745361328125,-0.3753509521484375,0.4810791015625
1667824508513847300,7.682847412109375,-0.770599365234375,-0.38507080078125,0.507781982421875
1667824508523855000,7.692855224609375,-0.7959747314453125,-0.40020751953125,0.5278778076171875
1667824508533862400,7.7028623046875,-0.8250732421875,-0.4148712158203125,0.5445098876953125
1667824508543870200,7.7128701171875,-0.8538665771484375,-0.4249420166015625,0.5536041259765625
1667824508553877200,7.722877197265625,-0.875030517578125,-0.432861328125,0.5639495849609375
1667824508563885300,7.73288525390625,-0.883575439453125,-0.4402008056640625,0.5820770263671875
1667824508573893400,7.742893310546875,-0.887054443359375,-0.448028564453125,0.6074676513671875
1667824508583900200,7.752900146484375,-0.8944549560546875,-0.4567413330078125,0.6383514404296875
1667824508593908200,7.762908203125,-0.9102630615234375,-0.4570465087890625,0.6837921142578125
1667824508603916300,7.772916259765625,-0.94189453125,-0.4508819580078125,0.7334442138671875
1667824508613923300,7.78292333984375,-0.971282958984375,-0.4323272705078125,0.7801361083984375
1667824508623931400,7.792931396484375,-0.9862213134765625,-0.3998260498046875,0.823883056640625
1667824508633939200,7.802939208984375,-0.983917236328125,-0.359619140625,0.84808349609375
1667824508643946500,7.812946533203125,-0.9600982666015625,-0.319122314453125,0.844573974609375
1667824508653954300,7.822954345703125,-0.9069366455078125,-0.278076171875,0.8083648681640625
1667824508663961300,7.83296142578125,-0.8379058837890625,-0.236053466796875,0.7599029541015625
1667824508673969200,7.84296923828125,-0.776641845703125,-0.201416015625,0.711090087890625
1667824508683977500,7.8529775390625,-0.72906494140625,-0.1759490966796875,0.652557373046875
1667824508693984300,7.862984375,-0.6910552978515625,-0.1591949462890625,0.592315673828125
1667824508703992300,7.872992431640625,-0.67449951171875,-0.1642303466796875,0.5455474853515625
1667824508714000100,7.883000244140625,-0.6769561767578125,-0.191436767578125,0.5188140869140625
1667824508724007400,7.89300732421875,-0.6881866455078125,-0.23004150390625,0.5104827880859375
1667824508734015200,7.90301513671875,-0.6971893310546875,-0.2602081298828125,0.5260162353515625
1667824508744022300,7.913022216796875,-0.693145751953125,-0.2667083740234375,0.57037353515625
1667824508754030300,7.9230302734375,-0.68359375,-0.2606048583984375,0.649505615234375
1667824508764038400,7.933038330078125,-0.7036285400390625,-0.2626495361328125,0.74365234375
1667824508774045200,7.943045166015625,-0.7617645263671875,-0.2828826904296875,0.8350372314453125
1667824508784053200,7.95305322265625,-0.842529296875,-0.306060791015625,0.8977813720703125
1667824508794061300,7.963061279296875,-0.9298858642578125,-0.317352294921875,0.9300994873046875
1667824508804068400,7.973068359375,-1.02117919921875,-0.3093109130859375,0.931915283203125
1667824508814076400,7.983076416015625,-1.06732177734375,-0.285125732421875,0.9050750732421875
1667824508824084200,7.993084228515625,-1.0206756591796875,-0.266510009765625,0.84417724609375
1667824508834095400,8.003095458984374,-0.933563232421875,-0.2672882080078125,0.7407073974609375
1667824508844103700,8.013103759765626,-0.8270111083984375,-0.28045654296875,0.6319580078125
1667824508854110500,8.0231103515625,-0.7067108154296875,-0.2840576171875,0.552642822265625
1667824508864118500,8.033118408203125,-0.6071014404296875,-0.286834716796875,0.4916229248046875
1667824508874126600,8.043126708984374,-0.5512847900390625,-0.295654296875,0.4267425537109375
1667824508884133600,8.053133544921875,-0.5123443603515625,-0.306976318359375,0.3904266357421875
1667824508894141700,8.0631416015625,-0.4987030029296875,-0.322418212890625,0.3878936767578125
1667824508904149500,8.0731494140625,-0.505035400390625,-0.35113525390625,0.3963623046875
1667824508914156800,8.08315673828125,-0.525604248046875,-0.3835906982421875,0.4034423828125
1667824508924164600,8.09316455078125,-0.5446319580078125,-0.4100494384765625,0.414093017578125
1667824508934171600,8.103171630859375,-0.5715179443359375,-0.4359893798828125,0.42559814453125
1667824508944179500,8.113179443359375,-0.602508544921875,-0.45782470703125,0.4402618408203125
1667824508954187500,8.1231875,-0.6258392333984375,-0.4712677001953125,0.4476470947265625
1667824508964194600,8.133194580078126,-0.639373779296875,-0.471405029296875,0.4513092041015625
1667824508974202600,8.14320263671875,-0.645416259765625,-0.4619140625,0.45880126953125
1667824508984210400,8.15321044921875,-0.6538543701171875,-0.448455810546875,0.464508056640625
1667824508994217700,8.1632177734375,-0.672698974609375,-0.4390411376953125,0.47149658203125
1667824509004225500,8.1732255859375,-0.6945343017578125,-0.435272216796875,0.4789886474609375
1667824509014233600,8.183233642578125,-0.715850830078125,-0.43145751953125,0.4822998046875
1667824509024240400,8.193240478515625,-0.7357635498046875,-0.4236297607421875,0.4834136962890625
1667824509034248700,8.203248779296874,-0.75146484375,-0.4151611328125,0.482086181640625
1667824509044255500,8.21325537109375,-0.7618865966796875,-0.403533935546875,0.488739013671875
1667824509054263600,8.223263671875,-0.7698822021484375,-0.393524169921875,0.50048828125
1667824509064271400,8.233271240234375,-0.774139404296875,-0.3837432861328125,0.5164337158203125
1667824509074278700,8.243278564453124,-0.7722015380859375,-0.3800506591796875,0.52984619140625
1667824509084286500,8.253286376953126,-0.7777099609375,-0.37603759765625,0.5468597412109375
1667824509094294500,8.26329443359375,-0.7948150634765625,-0.3712921142578125,0.5833740234375
1667824509104301600,8.273301513671875,-0.815582275390625,-0.3651275634765625,0.6397857666015625
1667824509114309600,8.2833095703125,-0.8408050537109375,-0.3555145263671875,0.70574951171875
1667824509124316400,8.29331640625,-0.8740692138671875,-0.353851318359375,0.770904541015625
1667824509134324500,8.303324462890625,-0.9111175537109375,-0.3645782470703125,0.8256988525390625
1667824509144332500,8.31333251953125,-0.9373626708984375,-0.3731231689453125,0.8660736083984375
1667824509154339600,8.323339599609374,-0.9579925537109375,-0.36663818359375,0.9018707275390625
1667824509164347600,8.33334765625,-0.9640045166015625,-0.33746337890625,0.9277191162109375
1667824509174355500,8.34335546875,-0.9593505859375,-0.2938995361328125,0.938934326171875
1667824509184362800,8.35336279296875,-0.945892333984375,-0.253662109375,0.9278564453125
1667824509194370600,8.36337060546875,-0.9171600341796875,-0.2235107421875,0.891448974609375
1667824509204377600,8.373377685546876,-0.8711700439453125,-0.202392578125,0.8427276611328125
1667824509214385400,8.383385498046875,-0.8129730224609375,-0.1829071044921875,0.800048828125
1667824509224393700,8.393393798828125,-0.7483062744140625,-0.169158935546875,0.755157470703125
1667824509234400500,8.403400390625,-0.68548583984375,-0.1638336181640625,0.7027587890625
1667824509244408600,8.41340869140625,-0.6321563720703125,-0.166748046875,0.6529998779296875
1667824509254416400,8.42341650390625,-0.592193603515625,-0.176513671875,0.6186065673828125
1667824509264423700,8.433423583984375,-0.5627899169921875,-0.1922454833984375,0.5976104736328125
1667824509274431500,8.443431396484375,-0.542266845703125,-0.216522216796875,0.5885467529296875
1667824509284438500,8.4534384765625,-0.5400238037109375,-0.242095947265625,0.5928802490234375
1667824509294446600,8.463446533203125,-0.5452880859375,-0.2578582763671875,0.6042633056640625
1667824509304454700,8.47345458984375,-0.5706634521484375,-0.2691192626953125,0.6116943359375
1667824509314461400,8.48346142578125,-0.6005706787109375,-0.278472900390625,0.6350860595703125
1667824509324469500,8.493469482421874,-0.641754150390625,-0.287078857421875,0.6609954833984375
1667824509334477600,8.5034775390625,-0.684722900390625,-0.2884521484375,0.6776885986328125
1667824509344484600,8.513484619140625,-0.719329833984375,-0.28192138671875,0.70013427734375
1667824509354492700,8.52349267578125,-0.756378173828125,-0.283203125,0.707244873046875
1667824509364500500,8.53350048828125,-0.7862396240234375,-0.290069580078125,0.6943359375
1667824509374507800,8.5435078125,-0.7860260009765625,-0.2894287109375,0.66876220703125
1667824509384515600,8.553515625,-0.7623748779296875,-0.27520751953125,0.632843017578125
1667824509394522600,8.563522705078125,-0.7296142578125,-0.2595977783203125,0.5892181396484375
1667824509404530400,8.573530517578124,-0.68853759765625,-0.2529296875,0.540252685546875
1667824509414538500,8.58353857421875,-0.645843505859375,-0.2535400390625,0.4917449951171875
1667824509424545500,8.593545654296875,-0.61029052734375,-0.2605438232421875,0.4475555419921875
1667824509434553600,8.6035537109375,-0.5772857666015625,-0.2701416015625,0.410858154296875
1667824509444561400,8.6135615234375,-0.5556488037109375,-0.2802886962890625,0.3769683837890625
1667824509454568700,8.623568603515626,-0.5440673828125,-0.28955078125,0.3557586669921875
1667824509464576500,8.633576416015625,-0.544677734375,-0.29901123046875,0.3497161865234375
1667824509474583600,8.64358349609375,-0.559661865234375,-0.30364990234375,0.3441619873046875
1667824509484591400,8.65359130859375,-0.5782928466796875,-0.3042755126953125,0.3441009521484375
1667824509494599700,8.663599609375,-0.59765625,-0.308868408203125,0.3523406982421875
1667824509504606500,8.6736064453125,-0.611053466796875,-0.324554443359375,0.3560943603515625
1667824509514614500,8.683614501953125,-0.619140625,-0.3443603515625,0.3563995361328125
1667824509524622600,8.69362255859375,-0.6280517578125,-0.3615570068359375,0.360595703125
1667824509534629600,8.703629638671876,-0.645172119140625,-0.3733978271484375,0.3695220947265625
1667824509544637700,8.7136376953125,-0.668670654296875,-0.38690185546875,0.37799072265625
1667824509554644500,8.72364453125,-0.69110107421875,-0.401275634765625,0.385986328125
1667824509564652500,8.733652587890624,-0.7134246826171875,-0.4102935791015625,0.3919830322265625
1667824509574660600,8.74366064453125,-0.7374420166015625,-0.4144134521484375,0.3997955322265625
1667824509584667400,8.75366748046875,-0.753692626953125,-0.416229248046875,0.4162445068359375
1667824509594675500,8.763675537109375,-0.7629852294921875,-0.413360595703125,0.4335784912109375
1667824509604683500,8.77368359375,-0.7763519287109375,-0.416717529296875,0.44818115234375
1667824509614690600,8.783690673828126,-0.7882232666015625,-0.4185943603515625,0.46319580078125
1667824509624698600,8.79369873046875,-0.805145263671875,-0.4219512939453125,0.4826812744140625
1667824509634705700,8.80370556640625,-0.8245849609375,-0.42913818359375,0.493682861328125
1667824509644713700,8.813713623046874,-0.83953857421875,-0.432861328125,0.5063323974609375
1667824509654721500,8.823721435546876,-0.851776123046875,-0.4351348876953125,0.516845703125
1667824509664728600,8.833728515625,-0.8636474609375,-0.440155029296875,0.5242156982421875
1667824509674736400,8.843736328125,-0.8728790283203125,-0.4449615478515625,0.5316162109375
1667824509684744700,8.85374462890625,-0.87652587890625,-0.44921875,0.53753662109375
1667824509694751500,8.86375146484375,-0.8829193115234375,-0.4575042724609375,0.5462799072265625
1667824509704759600,8.873759521484375,-0.896636962890625,-0.478729248046875,0.555755615234375
1667824509714767400,8.883767333984375,-0.9110870361328125,-0.4957275390625,0.5733184814453125
1667824509724774700,8.893774658203125,-0.931243896484375,-0.5061798095703125,0.600830078125
1667824509734782500,8.903782470703124,-0.9550018310546875,-0.5060577392578125,0.63470458984375
1667824509744789500,8.91378955078125,-0.98089599609375,-0.4951171875,0.6739044189453125
1667824509754797600,8.923797607421875,-0.9988555908203125,-0.4687652587890625,0.714202880859375
1667824509764805600,8.9338056640625,-1.0052947998046875,-0.43218994140625,0.7482452392578125
1667824509774812400,8.9438125,-0.996795654296875,-0.391021728515625,0.7646331787109375
1667824509784820500,8.953820556640625,-0.9785003662109375,-0.3518524169921875,0.7636871337890625
1667824509794828500,8.96382861328125,-0.9465789794921875,-0.31207275390625,0.746856689453125
1667824509804835600,8.973835693359375,-0.9107818603515625,-0.2688446044921875,0.7143707275390625
1667824509814843600,8.98384375,-0.8733978271484375,-0.23321533203125,0.6712188720703125
1667824509824850400,8.993850341796875,-0.8323974609375,-0.2110443115234375,0.6235198974609375
1667824509834855200,9.003855224609374,-0.795562744140625,-0.196533203125,0.5775604248046875
1667824509844863200,9.01386328125,-0.7631683349609375,-0.185577392578125,0.5453033447265625
1667824509854870000,9.0238701171875,-0.73223876953125,-0.188690185546875,0.5167999267578125
1667824509864878000,9.033878173828125,-0.7086181640625,-0.200164794921875,0.4978790283203125
1667824509874886100,9.04388623046875,-0.698394775390625,-0.2184600830078125,0.49072265625
1667824509884893200,9.05389306640625,-0.6983795166015625,-0.243682861328125,0.5019378662109375
1667824509894901000,9.06390087890625,-0.704437255859375,-0.267791748046875,0.531097412109375
1667824509904908300,9.073908203125,-0.7218475341796875,-0.29443359375,0.56280517578125
1667824509914916000,9.083916015625,-0.746917724609375,-0.3245849609375,0.5980072021484375
1667824509924924200,9.093924072265626,-0.7808074951171875,-0.3551788330078125,0.6336669921875
1667824509934931000,9.103930908203125,-0.8157196044921875,-0.378631591796875,0.6700286865234375
1667824509944939300,9.113939208984375,-0.845367431640625,-0.3895111083984375,0.7141876220703125
1667824509954947000,9.123947021484375,-0.878997802734375,-0.3931427001953125,0.7487030029296875
1667824509964954000,9.1339541015625,-0.902374267578125,-0.3873291015625,0.7674407958984375
1667824509974962000,9.1439619140625,-0.9080352783203125,-0.376708984375,0.765380859375
1667824509984969200,9.15396923828125,-0.88531494140625,-0.3650970458984375,0.73638916015625
1667824509994977000,9.16397705078125,-0.8412933349609375,-0.3487548828125,0.6865234375
1667824510004985000,9.173985107421874,-0.7852325439453125,-0.3278961181640625,0.63055419921875
1667824510014992000,9.183991943359375,-0.7231597900390625,-0.3119049072265625,0.57562255859375
1667824510025000200,9.194000244140625,-0.66387939453125,-0.3121337890625,0.52276611328125
1667824510035008000,9.204008056640625,-0.6204681396484375,-0.320465087890625,0.4757080078125
1667824510045015000,9.21401513671875,-0.5804443359375,-0.3292083740234375,0.4412689208984375
1667824510055022800,9.22402294921875,-0.5513916015625,-0.3382720947265625,0.4247589111328125
1667824510065030100,9.234030029296875,-0.54290771484375,-0.35107421875,0.4197998046875
1667824510075038000,9.244037841796874,-0.5514373779296875,-0.3654327392578125,0.415313720703125
1667824510085046000,9.2540458984375,-0.56103515625,-0.376861572265625,0.41522216796875
1667824510095053000,9.264052978515625,-0.5720062255859375,-0.385955810546875,0.422393798828125
1667824510105061000,9.27406103515625,-0.585235595703125,-0.3894195556640625,0.4240570068359375
1667824510115069200,9.284069091796875,-0.597930908203125,-0.390838623046875,0.425018310546875
1667824510125076000,9.294075927734376,-0.6084747314453125,-0.3957672119140625,0.4252777099609375
1667824510135084000,9.304083984375,-0.6222991943359375,-0.401214599609375,0.4196624755859375
1667824510145091000,9.314091064453125,-0.6346588134765625,-0.41064453125,0.408905029296875
1667824510155099100,9.32409912109375,-0.6373291015625,-0.42083740234375,0.4051513671875
1667824510165107000,9.33410693359375,-0.642578125,-0.4306793212890625,0.4010009765625
1667824510175114200,9.3441142578125,-0.6468353271484375,-0.4339752197265625,0.3959503173828125
1667824510185122000,9.3541220703125,-0.657318115234375,-0.43450927734375,0.396270751953125
1667824510195130000,9.364130126953125,-0.6692047119140625,-0.4417266845703125,0.398101806640625
1667824510205137000,9.374136962890624,-0.683929443359375,-0.4526824951171875,0.4024200439453125
1667824510215145200,9.384145263671876,-0.696685791015625,-0.461517333984375,0.4114227294921875
1667824510225152000,9.394152099609375,-0.707427978515625,-0.46923828125,0.4373931884765625
1667824510235160000,9.40416015625,-0.731536865234375,-0.4794921875,0.4778594970703125
1667824510245167900,9.41416796875,-0.76837158203125,-0.486480712890625,0.5189666748046875
1667824510255175200,9.424175048828126,-0.81103515625,-0.487548828125,0.5641632080078125
1667824510265183000,9.434182861328125,-0.8494415283203125,-0.482757568359375,0.6132659912109375
1667824510275191000,9.44419091796875,-0.86480712890625,-0.470428466796875,0.66070556640625
1667824510285198000,9.454197998046874,-0.885894775390625,-0.460113525390625,0.685516357421875
1667824510295206100,9.4642060546875,-0.895233154296875,-0.45654296875,0.6974334716796875
1667824510305213000,9.474212890625,-0.8907623291015625,-0.449249267578125,0.7045135498046875
1667824510315221000,9.484220947265625,-0.877105712890625,-0.4380035400390625,0.7157135009765625
1667824510325229000,9.49422900390625,-0.8638916015625,-0.42742919921875,0.7280426025390625
1667824510335236000,9.504236083984376,-0.8620758056640625,-0.4167022705078125,0.7342529296875
1667824510345244200,9.514244140625,-0.8692779541015625,-0.411346435546875,0.734344482421875
1667824510355252000,9.524251953125,-0.877716064453125,-0.4196319580078125,0.727020263671875
1667824510365259300,9.53425927734375,-0.88775634765625,-0.430938720703125,0.7220916748046875
1667824510375267000,9.54426708984375,-0.887298583984375,-0.4358062744140625,0.7287445068359375
1667824510385274000,9.554274169921875,-0.8769378662109375,-0.428741455078125,0.7364501953125
1667824510395282000,9.564281982421875,-0.8638763427734375,-0.4122772216796875,0.736907958984375
1667824510405290200,9.574290283203124,-0.850128173828125,-0.3964385986328125,0.726470947265625
1667824510415297000,9.584297119140626,-0.8325042724609375,-0.384765625,0.7079925537109375
1667824510425305000,9.59430517578125,-0.8108062744140625,-0.368682861328125,0.6805877685546875
1667824510435313000,9.60431298828125,-0.7839813232421875,-0.3495941162109375,0.651123046875
1667824510445320200,9.6143203125,-0.7572479248046875,-0.3297119140625,0.62030029296875
1667824510455328000,9.624327880859376,-0.7355499267578125,-0.3084869384765625,0.5861968994140625
1667824510465336000,9.634336181640625,-0.7237396240234375,-0.2912750244140625,0.559326171875
1667824510475343000,9.644343017578125,-0.7108917236328125,-0.2795867919921875,0.5360260009765625
1667824510485351200,9.65435107421875,-0.7076568603515625,-0.270965576171875,0.5253143310546875
1667824510495358000,9.66435791015625,-0.7109527587890625,-0.2620697021484375,0.522186279296875
1667824510505366000,9.674365966796875,-0.7192535400390625,-0.2516632080078125,0.52349853515625
1667824510515373800,9.684373779296875,-0.7337493896484375,-0.2445220947265625,0.5277862548828125
1667824510525381000,9.694381103515624,-0.7531280517578125,-0.244659423828125,0.5312957763671875
1667824510535389000,9.704388916015626,-0.76953125,-0.24554443359375,0.5384979248046875
1667824510545397000,9.71439697265625,-0.7839813232421875,-0.2387237548828125,0.548370361328125
1667824510555404000,9.724404052734375,-0.79595947265625,-0.2255096435546875,0.5528411865234375
1667824510565412000,9.734412109375,-0.80474853515625,-0.2066192626953125,0.548492431640625
1667824510575419000,9.7444189453125,-0.8099212646484375,-0.19195556640625,0.53985595703125
1667824510585427000,9.754427001953125,-0.8054046630859375,-0.1856689453125,0.5286102294921875
1667824510595435300,9.764435302734375,-0.79339599609375,-0.188690185546875,0.511138916015625
1667824510605442000,9.774442138671875,-0.7725830078125,-0.1976776123046875,0.4891815185546875
1667824510615450000,9.7844501953125,-0.7404937744140625,-0.211273193359375,0.456329345703125
1667824510625458000,9.7944580078125,-0.70465087890625,-0.228851318359375,0.4169158935546875
1667824510635465200,9.80446533203125,-0.6673583984375,-0.2431488037109375,0.3847503662109375
1667824510645473000,9.81447314453125,-0.62646484375,-0.2522735595703125,0.357177734375
1667824510655480000,9.82447998046875,-0.5913848876953125,-0.259033203125,0.3347015380859375
1667824510665488100,9.834488037109375,-0.5681304931640625,-0.2678070068359375,0.3199462890625
1667824510675496200,9.84449609375,-0.5562896728515625,-0.2804107666015625,0.30865478515625
1667824510685503000,9.8545029296875,-0.5451507568359375,-0.2926788330078125,0.29840087890625
1667824510695511000,9.864510986328124,-0.542510986328125,-0.29925537109375,0.2979278564453125
1667824510705518800,9.874518798828126,-0.552947998046875,-0.30511474609375,0.3098297119140625
1667824510715526100,9.884526123046875,-0.5668487548828125,-0.3169708251953125,0.3135223388671875
1667824510725534000,9.894533935546875,-0.5802764892578125,-0.3274993896484375,0.3177490234375
1667824510735541000,9.904541015625,-0.5956573486328125,-0.3397369384765625,0.325653076171875
1667824510745549000,9.914549072265626,-0.601654052734375,-0.352874755859375,0.3298187255859375
1667824510755557000,9.92455712890625,-0.598541259765625,-0.3632354736328125,0.32977294921875
1667824510765564000,9.93456396484375,-0.5950164794921875,-0.3712310791015625,0.3362274169921875
1667824510775572000,9.944572021484374,-0.60455322265625,-0.3825531005859375,0.3446807861328125
1667824510785580000,9.954580078125,-0.616119384765625,-0.395904541015625,0.35186767578125
1667824510795587000,9.964587158203125,-0.6375885009765625,-0.408111572265625,0.3674468994140625
1667824510805595100,9.97459521484375,-0.664093017578125,-0.4138031005859375,0.386810302734375
1667824510815602200,9.984602294921874,-0.6940765380859375,-0.4156646728515625,0.4020538330078125
1667824510825610200,9.9946103515625,-0.730438232421875,-0.4212799072265625,0.416168212890625
1667824510835618000,10.0046181640625,-0.7663421630859375,-0.4210662841796875,0.4304046630859375
1667824510845625000,10.014625,-0.7962646484375,-0.419281005859375,0.443450927734375
1667824510855633000,10.0246328125,-0.8205413818359375,-0.4188385009765625,0.4530029296875
1667824510865641200,10.03464111328125,-0.836273193359375,-0.415069580078125,0.4502410888671875
1667824510875648000,10.04464794921875,-0.843902587890625,-0.4091796875,0.445526123046875
1667824510885656000,10.054656005859375,-0.832855224609375,-0.4098968505859375,0.4391632080078125
1667824510895663000,10.0646630859375,-0.8209686279296875,-0.415985107421875,0.4314422607421875
1667824510905671200,10.074671142578126,-0.8107147216796875,-0.423583984375,0.4280242919921875
1667824510915679000,10.084678955078125,-0.804779052734375,-0.43536376953125,0.4263763427734375
1667824510925686000,10.09468603515625,-0.8081512451171875,-0.4535064697265625,0.427947998046875
1667824510935694000,10.104694091796874,-0.8373870849609375,-0.4676513671875,0.44818115234375
1667824510945702100,10.1147021484375,-0.870208740234375,-0.479827880859375,0.4788970947265625
1667824510955709000,10.124708984375,-0.8971099853515625,-0.4808349609375,0.5170135498046875
1667824510965717000,10.134717041015625,-0.931365966796875,-0.4680023193359375,0.553863525390625
1667824510975724000,10.14472412109375,-0.9639739990234375,-0.4430694580078125,0.590301513671875
1667824510985732000,10.154732177734376,-0.9839630126953125,-0.4171142578125,0.62237548828125
1667824510995740200,10.164740234375,-0.992828369140625,-0.395660400390625,0.6318206787109375
1667824511005747200,10.174747314453125,-0.997833251953125,-0.368682861328125,0.627288818359375
1667824511015755300,10.18475537109375,-0.99139404296875,-0.331695556640625,0.608306884765625
1667824511025763000,10.19476318359375,-0.967864990234375,-0.2964630126953125,0.5804290771484375
1667824511035770000,10.20477001953125,-0.9377593994140625,-0.2735595703125,0.5522918701171875
1667824511045778000,10.21477783203125,-0.9103546142578125,-0.26129150390625,0.528533935546875
1667824511055785200,10.22478515625,-0.899505615234375,-0.2588348388671875,0.5155487060546875
1667824511065793000,10.23479296875,-0.90264892578125,-0.2664642333984375,0.5220947265625
1667824511075801000,10.244801025390625,-0.91864013671875,-0.2682647705078125,0.53924560546875
1667824511085808000,10.25480810546875,-0.9302215576171875,-0.268890380859375,0.5646514892578125
1667824511095816200,10.264816162109375,-0.9450531005859375,-0.2890472412109375,0.59246826171875
1667824511105824000,10.274823974609374,-0.9577484130859375,-0.3252410888671875,0.6154937744140625
1667824511115831000,10.2848310546875,-0.960205078125,-0.361907958984375,0.6444091796875
1667824511125839000,10.294839111328125,-0.9617919921875,-0.393890380859375,0.6741790771484375
1667824511135846100,10.30484619140625,-0.9581146240234375,-0.4221343994140625,0.6986236572265625
1667824511145854000,10.31485400390625,-0.948455810546875,-0.439056396484375,0.722686767578125
1667824511155862000,10.324862060546875,-0.9349517822265625,-0.4453887939453125,0.737091064453125
1667824511165869000,10.334869140625,-0.9161529541015625,-0.4430694580078125,0.72979736328125
1667824511175877000,10.344877197265625,-0.879302978515625,-0.4315032958984375,0.709686279296875
1667824511185884000,10.3548837890625,-0.8326873779296875,-0.4157562255859375,0.6867218017578125
1667824511195892000,10.36489208984375,-0.7865753173828125,-0.4029693603515625,0.6446075439453125
1667824511205900000,10.374900146484375,-0.728790283203125,-0.38916015625,0.586700439453125
1667824511215907000,10.384906982421874,-0.6727294921875,-0.3741607666015625,0.5387115478515625
1667824511225915000,10.394914794921876,-0.62530517578125,-0.3638458251953125,0.4970245361328125
1667824511235923000,10.4049228515625,-0.5838775634765625,-0.3598480224609375,0.4601898193359375
1667824511245930000,10.414929931640625,-0.5549774169921875,-0.3607940673828125,0.4280548095703125
1667824511255938000,10.42493798828125,-0.5419158935546875,-0.3673553466796875,0.4008026123046875
1667824511265944800,10.43494482421875,-0.5351104736328125,-0.375823974609375,0.3821563720703125
1667824511275953200,10.444953125,-0.53973388671875,-0.385498046875,0.373382568359375
1667824511285961200,10.454961181640625,-0.5489044189453125,-0.3929290771484375,0.372711181640625
1667824511295968000,10.464968017578125,-0.56494140625,-0.3980865478515625,0.386474609375
1667824511305976000,10.47497607421875,-0.5952911376953125,-0.3989715576171875,0.408935546875
1667824511315984100,10.484984130859376,-0.6254425048828125,-0.4014434814453125,0.4226837158203125
1667824511325991200,10.4949912109375,-0.6531829833984375,-0.4034576416015625,0.421051025390625
1667824511335999000,10.5049990234375,-0.6762542724609375,-0.398956298828125,0.43109130859375
1667824511346006300,10.51500634765625,-0.6913909912109375,-0.39849853515625,0.4398345947265625
1667824511356014000,10.52501416015625,-0.7017364501953125,-0.4013214111328125,0.4389495849609375
1667824511366022100,10.535022216796875,-0.7086639404296875,-0.39520263671875,0.440887451171875
1667824511376029000,10.54502880859375,-0.716064453125,-0.3798980712890625,0.4510650634765625
1667824511386037000,10.555037109375,-0.740936279296875,-0.3568572998046875,0.4716339111328125
1667824511396045000,10.565045166015626,-0.7803192138671875,-0.32257080078125,0.4924163818359375
1667824511406052000,10.575052001953125,-0.819488525390625,-0.2996978759765625,0.5115509033203125
1667824511416060000,10.585059814453125,-0.8936004638671875,-0.29693603515625,0.5210418701171875
1667824511426067200,10.595067138671874,-0.968841552734375,-0.27996826171875,0.5388641357421875
1667824511436075000,10.605074951171876,-1.006622314453125,-0.2779541015625,0.535614013671875
1667824511446083000,10.6150830078125,-0.962432861328125,-0.3110504150390625,0.5418701171875
1667824511456089900,10.62508984375,-0.8847503662109375,-0.3154449462890625,0.572662353515625
1667824511466098200,10.63509814453125,-0.8599395751953125,-0.28643798828125,0.5829315185546875
1667824511476106200,10.645106201171876,-0.871337890625,-0.2569580078125,0.5736541748046875
1667824511486113000,10.655113037109375,-0.880035400390625,-0.251434326171875,0.5662689208984375
1667824511496121000,10.66512109375,-0.8867340087890625,-0.266357421875,0.5782318115234375
1667824511506128100,10.675128173828124,-0.896759033203125,-0.2671661376953125,0.5631561279296875
1667824511516136200,10.68513623046875,-0.9034881591796875,-0.2471771240234375,0.526763916015625
1667824511526144000,10.69514404296875,-0.9037933349609375,-0.224517822265625,0.5200042724609375
1667824511536151300,10.7051513671875,-0.890777587890625,-0.24249267578125,0.513671875
1667824511546159000,10.7151591796875,-0.8748931884765625,-0.28680419921875,0.4895477294921875
1667824511556167200,10.725167236328126,-0.865753173828125,-0.33709716796875,0.4597625732421875
1667824511566174000,10.735174072265625,-0.871124267578125,-0.375274658203125,0.4416351318359375
1667824511576182000,10.74518212890625,-0.89190673828125,-0.404449462890625,0.4309234619140625
1667824511586189000,10.75518896484375,-0.9156341552734375,-0.4272003173828125,0.426544189453125
1667824511596197000,10.765197021484376,-0.9353790283203125,-0.458465576171875,0.42608642578125
1667824511606205000,10.775204833984375,-0.940826416015625,-0.4943084716796875,0.4232330322265625
1667824511616212200,10.785212158203125,-0.937835693359375,-0.517730712890625,0.430908203125
1667824511626220000,10.795219970703124,-0.935089111328125,-0.530853271484375,0.4351348876953125
1667824511636228000,10.80522802734375,-0.942962646484375,-0.536773681640625,0.445068359375
1667824511646235000,10.81523486328125,-0.96563720703125,-0.5164337158203125,0.449249267578125
1667824511656243200,10.8252431640625,-0.9945068359375,-0.463836669921875,0.4625244140625
1667824511666250000,10.83525,-1.0173187255859375,-0.423919677734375,0.4664154052734375
1667824511676258000,10.845258056640626,-1.02093505859375,-0.40850830078125,0.455535888671875
1667824511686265900,10.855265869140625,-1.0094757080078125,-0.389190673828125,0.4456634521484375
1667824511696273200,10.865273193359375,-0.9774169921875,-0.3651123046875,0.4314422607421875
1667824511706281000,10.875281005859375,-0.93701171875,-0.353729248046875,0.4052581787109375
1667824511716289000,10.8852890625,-0.8921356201171875,-0.3539276123046875,0.3765869140625
1667824511726296000,10.895296142578125,-0.8428802490234375,-0.357696533203125,0.3489227294921875
1667824511736304000,10.90530419921875,-0.7993621826171875,-0.3658294677734375,0.3226776123046875
1667824511746311000,10.915310791015624,-0.7649383544921875,-0.3810882568359375,0.2958221435546875
1667824511756319000,10.925319091796876,-0.7424163818359375,-0.39984130859375,0.2747039794921875
1667824511766327000,10.9353271484375,-0.725982666015625,-0.414642333984375,0.257232666015625
1667824511776334000,10.945333984375,-0.7105865478515625,-0.41558837890625,0.247528076171875
1667824511786342100,10.955342041015625,-0.7041473388671875,-0.4063568115234375,0.2443084716796875
1667824511796350000,10.965349853515624,-0.6934661865234375,-0.40673828125,0.240570068359375
1667824511806357200,10.975357177734375,-0.688873291015625,-0.4074554443359375,0.2298736572265625
1667824511816365000,10.985364990234375,-0.6850738525390625,-0.4095001220703125,0.2125244140625
1667824511826373000,10.995373046875,-0.675628662109375,-0.4199676513671875,0.2008209228515625
1667824511836379600,11.005379638671876,-0.6704864501953125,-0.4366455078125,0.1905364990234375
1667824511846387700,11.0153876953125,-0.6750335693359375,-0.4517822265625,0.1842041015625
1667824511856394800,11.025394775390625,-0.6888885498046875,-0.4644622802734375,0.1829833984375
1667824511866402600,11.035402587890625,-0.70751953125,-0.4770965576171875,0.182769775390625
1667824511876410600,11.04541064453125,-0.7218170166015625,-0.4817962646484375,0.1899871826171875
1667824511886417700,11.055417724609375,-0.735870361328125,-0.4819488525390625,0.188995361328125
1667824511896425700,11.06542578125,-0.7445068359375,-0.4747161865234375,0.1853179931640625
1667824511906433500,11.07543359375,-0.7472381591796875,-0.4626007080078125,0.1846771240234375
1667824511916440800,11.08544091796875,-0.7490234375,-0.448394775390625,0.180816650390625
1667824511926448600,11.09544873046875,-0.7484893798828125,-0.434539794921875,0.1771392822265625
1667824511936455700,11.10545556640625,-0.7433013916015625,-0.4276885986328125,0.1751861572265625
1667824511946463500,11.11546337890625,-0.738983154296875,-0.430938720703125,0.1773529052734375
1667824511956471800,11.125471923828124,-0.7464447021484375,-0.4341583251953125,0.1765899658203125
1667824511966478600,11.135478515625,-0.75982666015625,-0.4383697509765625,0.1724090576171875
1667824511976486700,11.145486572265625,-0.7714996337890625,-0.4467010498046875,0.172821044921875
1667824511986494700,11.15549462890625,-0.7826690673828125,-0.4598541259765625,0.1784515380859375
1667824511996501800,11.165501708984374,-0.790985107421875,-0.473114013671875,0.1784820556640625
1667824512006509800,11.175509765625,-0.799530029296875,-0.4876861572265625,0.172271728515625
1667824512016516600,11.1855166015625,-0.81219482421875,-0.505584716796875,0.171417236328125
1667824512026524700,11.195524658203125,-0.82464599609375,-0.5331268310546875,0.167724609375
1667824512036532700,11.20553271484375,-0.8415069580078125,-0.566650390625,0.157867431640625
1667824512046539800,11.215539794921876,-0.8526611328125,-0.5880279541015625,0.16845703125
1667824512056547600,11.225547607421875,-0.8731842041015625,-0.5916748046875,0.178497314453125
1667824512066555600,11.2355556640625,-0.8970947265625,-0.5731964111328125,0.195556640625
1667824512076562700,11.245562744140624,-0.9087677001953125,-0.54095458984375,0.2279052734375
1667824512086570800,11.25557080078125,-0.91241455078125,-0.510009765625,0.26983642578125
1667824512096577500,11.26557763671875,-0.9158935546875,-0.4875030517578125,0.300994873046875
1667824512106585900,11.2755859375,-0.92034912109375,-0.470306396484375,0.328369140625
1667824512116593700,11.28559375,-0.937255859375,-0.453643798828125,0.353424072265625
1667824512126600700,11.2956005859375,-0.9504547119140625,-0.432220458984375,0.37872314453125
1667824512136608500,11.3056083984375,-0.9636688232421875,-0.412261962890625,0.39276123046875
1667824512146616600,11.315616455078125,-0.96990966796875,-0.393768310546875,0.391265869140625
1667824512156623600,11.32562353515625,-0.9696502685546875,-0.37738037109375,0.388763427734375
1667824512166631700,11.335631591796876,-0.965972900390625,-0.3675384521484375,0.3820037841796875
1667824512176638700,11.345638671875,-0.950286865234375,-0.3628387451171875,0.3722076416015625
1667824512186646800,11.355646728515625,-0.92828369140625,-0.3678131103515625,0.3624114990234375
1667824512196654800,11.36565478515625,-0.9138031005859375,-0.3810577392578125,0.3576202392578125
1667824512206661600,11.37566162109375,-0.9095458984375,-0.3984375,0.35302734375
1667824512216669700,11.385669677734375,-0.892303466796875,-0.4209442138671875,0.35284423828125
1667824512226677800,11.395677734375,-0.8704986572265625,-0.4434661865234375,0.3576202392578125
1667824512236684800,11.405684814453124,-0.8572540283203125,-0.4637451171875,0.3672332763671875
1667824512246692600,11.415692626953126,-0.85064697265625,-0.4880218505859375,0.38140869140625
1667824512256700700,11.42570068359375,-0.8609161376953125,-0.5094146728515625,0.400482177734375
1667824512266707700,11.435707763671875,-0.8803863525390625,-0.5232391357421875,0.420166015625
1667824512276715800,11.4457158203125,-0.9064178466796875,-0.52191162109375,0.4415435791015625
1667824512286722600,11.45572265625,-0.940399169921875,-0.5119476318359375,0.4629974365234375
1667824512296731000,11.46573095703125,-0.9667816162109375,-0.498046875,0.4783172607421875
1667824512306738700,11.47573876953125,-0.9769439697265625,-0.48077392578125,0.4810943603515625
1667824512316745700,11.485745849609375,-0.9643707275390625,-0.459808349609375,0.4709014892578125
1667824512326753500,11.49575341796875,-0.9259796142578125,-0.4426116943359375,0.451934814453125
1667824512336761600,11.50576171875,-0.8788604736328125,-0.4386749267578125,0.4287872314453125
1667824512346768600,11.5157685546875,-0.829833984375,-0.450653076171875,0.3999786376953125
1667824512356776700,11.525776611328125,-0.78216552734375,-0.46636962890625,0.3778228759765625
1667824512366783700,11.53578369140625,-0.7417449951171875,-0.482818603515625,0.359466552734375
1667824512376791800,11.545791748046875,-0.7164154052734375,-0.4977569580078125,0.346343994140625
1667824512386799600,11.555799560546875,-0.7006988525390625,-0.5003662109375,0.343109130859375
1667824512396806700,11.565806640625,-0.693450927734375,-0.500030517578125,0.3347320556640625
1667824512406814500,11.575814453125,-0.685791015625,-0.50335693359375,0.3260955810546875
1667824512416821800,11.58582177734375,-0.6911163330078125,-0.5101470947265625,0.3095703125
1667824512426829600,11.59582958984375,-0.67724609375,-0.5135498046875,0.30865478515625
1667824512436837600,11.605837646484375,-0.681671142578125,-0.5219573974609375,0.2901611328125
1667824512446844700,11.6158447265625,-0.67132568359375,-0.5336761474609375,0.260223388671875
1667824512456852700,11.625852783203126,-0.6565093994140625,-0.5465850830078125,0.2295379638671875
1667824512466860800,11.63586083984375,-0.637542724609375,-0.5646209716796875,0.1946258544921875
1667824512476867600,11.64586767578125,-0.664947509765625,-0.5367584228515625,0.1199188232421875
1667824512486875600,11.655875732421874,-0.70025634765625,-0.375946044921875,0.1080322265625
1667824512496883700,11.6658837890625,-0.6553802490234375,-0.3490447998046875,0.22381591796875
1667824512506890800,11.675890869140625,-0.683380126953125,-0.5380859375,0.1806182861328125
1667824512516898600,11.685898681640625,-0.6355438232421875,-0.647247314453125,0.093505859375
1667824512526905900,11.69590576171875,-0.6061248779296875,-0.5869293212890625,0.15142822265625
1667824512536913700,11.70591357421875,-0.69561767578125,-0.47735595703125,0.2171630859375
1667824512546921700,11.715921630859375,-0.8264923095703125,-0.4341888427734375,0.2122344970703125
1667824512556928500,11.725928466796875,-1.02447509765625,-0.4208221435546875,0.0844268798828125
1667824512566936800,11.735936767578124,-1.015594482421875,-0.3954010009765625,0.0240020751953125
1667824512576944600,11.745944580078126,-0.965972900390625,-0.39910888671875,0.0296783447265625
1667824512586951700,11.75595166015625,-0.854248046875,-0.3372039794921875,0.0166015625
1667824512596959500,11.76595947265625,-0.787811279296875,-0.3046112060546875,-0.123260498046875
1667824512606966800,11.775966796875,-0.617950439453125,-0.2360992431640625,-0.1192779541015625
1667824512616974600,11.785974609375,-0.547607421875,-0.20947265625,0.0570831298828125
1667824512626982700,11.795982666015625,-0.5888519287109375,-0.22332763671875,0.01104736328125
1667824512636989700,11.80598974609375,-0.670989990234375,-0.2442169189453125,0.0310211181640625
1667824512646997800,11.815997802734374,-0.8420867919921875,-0.17999267578125,0.2694549560546875
1667824512657005800,11.826005859375,-1.1093597412109375,-0.1017913818359375,0.4735260009765625
1667824512667012600,11.8360126953125,-1.174163818359375,-0.2427215576171875,0.2006378173828125
1667824512677020700,11.846020751953125,-1.09503173828125,-0.3262786865234375,-0.10211181640625
1667824512687027700,11.85602783203125,-1.1473846435546875,-0.294891357421875,-0.080413818359375
1667824512697035800,11.866035888671876,-1.1799468994140625,-0.3896942138671875,-0.0171661376953125
1667824512707043600,11.876043701171875,-1.2408447265625,-0.504241943359375,-0.0247344970703125
1667824512717051000,11.88605078125,-1.2491607666015625,-0.5255279541015625,-0.02838134765625
1667824512727058700,11.89605859375,-1.2843780517578125,-0.5684051513671875,-0.08416748046875
1667824512737066800,11.906066650390626,-1.2659912109375,-0.5786590576171875,-0.024200439453125
1667824512747073500,11.916073486328125,-1.22076416015625,-0.5586395263671875,0.04681396484375
1667824512757081900,11.926081787109375,-1.24224853515625,-0.531097412109375,0.064727783203125
1667824512767089700,11.936089599609375,-1.2299041748046875,-0.4023895263671875,-0.0009307861328125
1667824512777096700,11.9460966796875,-1.1043548583984375,-0.270538330078125,-0.117431640625
1667824512787104500,11.9561044921875,-1.00634765625,-0.1531219482421875,-0.1231842041015625
1667824512797111800,11.96611181640625,-0.9915924072265625,-0.0686492919921875,-0.033538818359375
1667824512807119600,11.97611962890625,-0.9985504150390625,-0.0601806640625,0.077606201171875
1667824512817127700,11.986127685546874,-1.0289306640625,-0.1036224365234375,0.119049072265625
1667824512827134700,11.996134765625,-1.091400146484375,-0.1790618896484375,0.1084747314453125
1667824512837142800,12.006142822265625,-1.105133056640625,-0.26458740234375,0.1419219970703125
1667824512847150800,12.01615087890625,-1.080322265625,-0.282318115234375,0.0790252685546875
1667824512857157600,12.02615771484375,-1.0600738525390625,-0.26361083984375,-0.051849365234375
1667824512867165700,12.036165771484375,-1.033660888671875,-0.2326812744140625,-0.096832275390625
1667824512877174000,12.046174072265625,-1.03948974609375,-0.18243408203125,-0.0681915283203125
1667824512887180800,12.056180908203125,-1.0764617919921875,-0.14117431640625,0.0181732177734375
1667824512897188900,12.06618896484375,-1.1103515625,-0.1180572509765625,0.1112213134765625
1667824512907196000,12.07619580078125,-1.1300506591796875,-0.1415863037109375,0.1220550537109375
1667824512917204000,12.086203857421875,-1.154296875,-0.1641693115234375,0.136871337890625
1667824512927211800,12.096211669921875,-1.1663970947265625,-0.134521484375,0.218231201171875
1667824512937218800,12.10621875,-1.200531005859375,-0.0523834228515625,0.3450164794921875
1667824512947227000,12.116226806640626,-1.20751953125,-0.0013580322265625,0.3878936767578125
1667824512957235000,12.12623486328125,-1.1674346923828125,0.03363037109375,0.4008331298828125
1667824512967241700,12.13624169921875,-1.1013336181640625,0.0637969970703125,0.408416748046875
1667824512977249800,12.146249755859374,-1.0570831298828125,0.0907135009765625,0.3771820068359375
1667824512987256800,12.1562568359375,-1.0356292724609375,0.1185455322265625,0.297882080078125
1667824512997265000,12.166264892578125,-1.0123291015625,0.0765533447265625,0.214141845703125
1667824513007272700,12.176272705078125,-1.006256103515625,-0.0851593017578125,0.186279296875
1667824513017279700,12.18627978515625,-1.0009307861328125,-0.21209716796875,0.18853759765625
1667824513027287800,12.196287841796876,-0.97808837890625,-0.2338104248046875,0.180694580078125
1667824513037295900,12.2062958984375,-0.96563720703125,-0.2121734619140625,0.1592559814453125
1667824513047302700,12.216302734375,-0.9607391357421875,-0.188812255859375,0.1447601318359375
1667824513057310700,12.226310791015624,-0.9503936767578125,-0.168060302734375,0.1383209228515625
1667824513067317800,12.23631787109375,-0.9315338134765625,-0.178985595703125,0.1280364990234375
1667824513077325800,12.246325927734375,-0.9009552001953125,-0.22015380859375,0.102752685546875
1667824513087334000,12.256333984375,-0.849884033203125,-0.2744140625,0.077606201171875
1667824513097341000,12.2663408203125,-0.810394287109375,-0.3397369384765625,0.0592803955078125
1667824513107349000,12.276348876953126,-0.8065032958984375,-0.40673828125,0.035369873046875
1667824513117356800,12.286356689453125,-0.818939208984375,-0.44781494140625,0.0025787353515625
1667824513127363800,12.29636376953125,-0.8256683349609375,-0.4449310302734375,-0.0119781494140625
1667824513137372000,12.306371826171874,-0.830322265625,-0.409423828125,0.0020751953125
1667824513147379000,12.31637890625,-0.8426055908203125,-0.3614654541015625,0.0197906494140625
1667824513157386800,12.32638671875,-0.8679962158203125,-0.319427490234375,0.02337646484375
1667824513167394800,12.336394775390625,-0.9109039306640625,-0.291717529296875,0.02154541015625
1667824513177401900,12.34640185546875,-0.95281982421875,-0.274505615234375,0.0184173583984375
1667824513187410000,12.356409912109376,-0.9930267333984375,-0.267364501953125,0.0207061767578125
1667824513197417700,12.366417724609375,-1.006927490234375,-0.2701568603515625,0.028839111328125
1667824513207424800,12.3764248046875,-1.007904052734375,-0.28619384765625,0.0332489013671875
1667824513217432800,12.386432861328124,-1.008575439453125,-0.3099365234375,0.0274810791015625
1667824513227441000,12.39644091796875,-1.017333984375,-0.331085205078125,0.021392822265625
1667824513237447700,12.40644775390625,-1.036895751953125,-0.3465118408203125,0.0169677734375
1667824513247455700,12.416455810546875,-1.0699310302734375,-0.347869873046875,0.0240631103515625
1667824513257462800,12.426462890625,-1.1050872802734375,-0.3318328857421875,0.04901123046875
1667824513267470800,12.436470947265626,-1.14044189453125,-0.312896728515625,0.0740966796875
1667824513277478700,12.446478759765625,-1.1735076904296875,-0.296295166015625,0.101104736328125
1667824513287486000,12.45648583984375,-1.1714935302734375,-0.282257080078125,0.13671875
1667824513297493800,12.46649365234375,-1.1407318115234375,-0.2748565673828125,0.151275634765625
1667824513307501800,12.476501708984374,-1.1089935302734375,-0.2810211181640625,0.136688232421875
1667824513317508600,12.486508544921875,-1.0692596435546875,-0.2908782958984375,0.11669921875
1667824513327516700,12.4965166015625,-1.024383544921875,-0.29541015625,0.1069488525390625
1667824513337523700,12.506523681640624,-0.9867095947265625,-0.2947235107421875,0.1002197265625
1667824513347531800,12.51653173828125,-0.9508056640625,-0.287750244140625,0.0945587158203125
1667824513357539800,12.526539794921876,-0.9189605712890625,-0.2745208740234375,0.0904388427734375
1667824513367547000,12.536546875,-0.886260986328125,-0.2626800537109375,0.0929718017578125
1667824513377555000,12.546554931640625,-0.857269287109375,-0.2588348388671875,0.089324951171875
1667824513387562800,12.556562744140624,-0.83837890625,-0.264007568359375,0.07244873046875
1667824513397569800,12.56656982421875,-0.81524658203125,-0.275482177734375,0.04803466796875
1667824513407577900,12.576577880859375,-0.7894744873046875,-0.29052734375,0.023223876953125
1667824513417585000,12.5865849609375,-0.7156219482421875,-0.301361083984375,-0.0119781494140625
1667824513427592700,12.5965927734375,-0.6845703125,-0.3171539306640625,-0.03631591796875
1667824513437600800,12.606600830078126,-0.7071685791015625,-0.3269500732421875,-0.0149383544921875
1667824513447607800,12.61660791015625,-0.7546844482421875,-0.3306884765625,0.013946533203125
1667824513457616000,12.626615966796875,-0.7998504638671875,-0.3340911865234375,0.025115966796875
1667824513467623700,12.636623779296874,-0.8419952392578125,-0.345428466796875,0.0203704833984375
1667824513477631000,12.646630859375,-0.8884124755859375,-0.350830078125,0.026702880859375
1667824513487638800,12.656638671875,-0.9217681884765625,-0.3490142822265625,0.0373992919921875
1667824513497645800,12.666645751953125,-0.923248291015625,-0.3340911865234375,0.0449981689453125
