time,seconds_elapsed,z,y,x
1667824500842999300,0.011999267578125,0.7247228026390076,0.32375144958496094,-0.25961560010910034
1667824500853006300,0.02200634765625,0.6454935073852539,0.42101940512657166,-0.2748459577560425
1667824500863014100,0.03201416015625,0.5781309604644775,0.5116305351257324,-0.3021326959133148
1667824500873022200,0.042022216796875,0.523926854133606,0.6061844825744629,-0.338285893201828
1667824500883029200,0.052029296875,0.48704129457473755,0.6944472193717957,-0.34670788049697876
1667824500893037300,0.062037353515625,0.46791741251945496,0.7349812984466553,-0.30893945693969727
1667824500903044000,0.072044189453125,0.4684300720691681,0.723572313785553,-0.24967800080776215
1667824500913052400,0.082052490234375,0.47179707884788513,0.6657175421714783,-0.1904892474412918
1667824500923060500,0.092060546875,0.45518961548805237,0.5727002620697021,-0.13220997154712677
1667824500933067300,0.1020673828125,0.4300067722797394,0.43264809250831604,-0.07131892442703247
1667824500943075300,0.112075439453125,0.39761075377464294,0.27819859981536865,-0.030536869540810585
1667824500953083400,0.12208349609375,0.36157286167144775,0.13690006732940674,-0.0100800646468997
1667824500963090400,0.13209033203125,0.324271023273468,-0.028552282601594925,-0.01696566678583622
1667824500973098200,0.14209814453125,0.2769964337348938,-0.1825953722000122,-0.04445162042975426
1667824500983105500,0.15210546875,0.2387571781873703,-0.27505287528038025,-0.07069840282201767
1667824500993113300,0.16211328125,0.23595073819160461,-0.3180733025074005,-0.10188028961420059
1667824501003121400,0.172121337890625,0.26700693368911743,-0.2780345380306244,-0.16126185655593872
1667824501013128200,0.182128173828125,0.3181348443031311,-0.15803144872188568,-0.24110662937164307
1667824501023136300,0.19213623046875,0.39405542612075806,0.0038224351592361927,-0.32190772891044617
1667824501033144300,0.202144287109375,0.5022692680358887,0.17874418199062347,-0.40534111857414246
1667824501043151400,0.2121513671875,0.6324594616889954,0.37308621406555176,-0.5171350240707397
1667824501053159200,0.2221591796875,0.7657645344734192,0.6043503284454346,-0.6574249863624573
1667824501063167200,0.232167236328125,0.8839865326881409,0.827351450920105,-0.8088989853858948
1667824501073174300,0.24217431640625,0.99037766456604,1.0081268548965454,-0.9798896312713623
1667824501083182300,0.252182373046875,1.0778419971466064,1.1134673357009888,-1.1569207906723022
1667824501093189000,0.262189208984375,1.1434636116027832,1.1715117692947388,-1.323767900466919
1667824501103197400,0.272197509765625,1.2272354364395142,1.0700095891952515,-1.4794325828552246
1667824501113205200,0.282205322265625,1.2856450080871582,0.7831821441650391,-1.620229959487915
1667824501123212300,0.29221240234375,1.197709321975708,0.40941253304481506,-1.748692512512207
1667824501133220000,0.30222021484375,1.1183031797409058,-0.024750886484980583,-1.9041409492492676
1667824501143228400,0.312228515625,1.0642199516296387,-0.4292301833629608,-2.0622336864471436
1667824501153235200,0.322235107421875,1.0229358673095703,-0.7017471790313721,-2.1664063930511475
1667824501163243300,0.3322431640625,0.9189391732215881,-0.8622007966041565,-2.148259162902832
1667824501173251300,0.342251220703125,0.7503429651260376,-0.9170619249343872,-1.9873127937316895
1667824501183258400,0.35225830078125,0.5905900597572327,-0.7918714880943298,-1.704002022743225
1667824501193266400,0.362266357421875,0.5061883330345154,-0.5220727920532227,-1.3424068689346313
1667824501203273200,0.372273193359375,0.49608591198921204,-0.1723073273897171,-0.917303740978241
1667824501213281300,0.38228125,0.4891901910305023,0.196171373128891,-0.44756391644477844
1667824501223289300,0.392289306640625,0.4914458990097046,0.46658849716186523,0.016766196116805077
1667824501233296400,0.40229638671875,0.5114257335662842,0.6077413558959961,0.4494797885417938
1667824501243304200,0.41230419921875,0.5937610864639282,0.6487745046615601,0.8511468172073364
1667824501253312300,0.422312255859375,0.7523491382598877,0.02822071872651577,1.165298342704773
1667824501263319300,0.4323193359375,0.9734410047531128,-0.16165094077587128,1.4953672885894775
1667824501273327400,0.442327392578125,1.1936147212982178,0.03810876980423927,1.8111369609832764
1667824501283335200,0.452335205078125,1.3778407573699951,0.5006303191184998,2.013414144515991
1667824501293342500,0.462342529296875,1.4399096965789795,1.2530803680419922,1.9836938381195068
1667824501303350300,0.472350341796875,1.286258339881897,1.995854377746582,1.756076455116272
1667824501313358300,0.4823583984375,1.0644217729568481,2.5548393726348877,1.4603023529052734
1667824501323365000,0.492365234375,0.8741083145141602,3.012446165084839,1.218021273612976
1667824501333373200,0.502373291015625,0.8000221252441406,3.118436813354492,1.0631589889526367
1667824501343380200,0.512380126953125,0.7875704765319824,3.000004291534424,1.0430268049240112
1667824501353388300,0.52238818359375,0.787372350692749,2.9907474517822266,1.1119667291641235
1667824501363396400,0.532396240234375,0.8051723837852478,3.148484468460083,1.1349098682403564
1667824501373403400,0.5424033203125,0.816056489944458,3.1398301124572754,0.9975919127464294
1667824501383411500,0.552411376953125,0.7040050029754639,2.6916661262512207,0.8627363443374634
1667824501393419300,0.562419189453125,0.6025151610374451,1.8622736930847168,0.6613515615463257
1667824501403426300,0.57242626953125,0.6243435144424438,0.7591833472251892,0.3267059326171875
1667824501413434400,0.582434326171875,0.675665020942688,0.171157106757164,0.08309835195541382
1667824501423441400,0.59244140625,0.697491466999054,0.16752640902996063,-0.14031822979450226
1667824501433449200,0.60244921875,0.6130322217941284,0.5116842985153198,-0.25556865334510803
1667824501443457300,0.612457275390625,0.503969132900238,0.8763786554336548,-0.2627599835395813
1667824501453464300,0.62246435546875,0.48126915097236633,1.1833348274230957,-0.21205607056617737
1667824501463472400,0.632472412109375,0.5686834454536438,1.4621046781539917,-0.1256101280450821
1667824501473480200,0.642480224609375,0.7206298112869263,1.7160764932632446,-0.013571202754974365
1667824501483487500,0.652487548828125,0.8784846663475037,1.9002439975738525,0.10306753218173981
1667824501493495300,0.662495361328125,0.950703501701355,1.7044073343276978,0.001514539704658091
1667824501503503400,0.67250341796875,0.9277177453041077,1.6509569883346558,-0.0010021475609391928
1667824501513510100,0.68251025390625,0.8913128972053528,1.54240083694458,-0.031563252210617065
1667824501523518200,0.692518310546875,0.8964884877204895,1.3821113109588623,-0.09426631778478622
1667824501533526500,0.702526611328125,0.9264716506004333,1.0741527080535889,-0.20445726811885834
1667824501543533300,0.712533203125,0.915054440498352,0.6844712495803833,-0.3562241494655609
1667824501553541400,0.722541259765625,0.8760079741477966,0.33446985483169556,-0.5714251399040222
1667824501563548400,0.73254833984375,0.831085205078125,0.1470554918050766,-0.8351683616638184
1667824501573556500,0.742556396484375,0.7678061127662659,0.04958060383796692,-1.1158455610275269
1667824501583564300,0.752564208984375,0.6665180921554565,-0.0678325742483139,-1.3586374521255493
1667824501593571300,0.7625712890625,0.5481613874435425,-0.27946680784225464,-1.4764258861541748
1667824501603579400,0.772579345703125,0.46609845757484436,-0.6340286135673523,-1.3776087760925293
1667824501613586400,0.78258642578125,0.459776371717453,-1.0283855199813843,-1.1111294031143188
1667824501623594200,0.79259423828125,0.5616239309310913,-1.231186032295227,-0.7224738001823425
1667824501633602300,0.802602294921875,0.786404550075531,-1.1923723220825195,-0.18011917173862457
1667824501643609300,0.812609375,1.1042439937591553,-0.9177554249763489,0.4244077503681183
1667824501653617400,0.822617431640625,1.4027551412582397,-0.5890249013900757,0.9697504043579102
1667824501663625200,0.832625244140625,1.5991573333740234,-0.30178648233413696,1.4034446477890015
1667824501673632300,0.84263232421875,1.7001566886901855,0.08081575483083725,1.70842444896698
1667824501683640300,0.852640380859375,1.7543376684188843,0.46688276529312134,1.854419469833374
1667824501693648400,0.8626484375,1.7569595575332642,0.7130038738250732,1.902663230895996
1667824501703655200,0.8726552734375,1.6674644947052002,0.7499525547027588,1.956180453300476
1667824501713663200,0.882663330078125,1.476248025894165,0.5850163102149963,2.0373992919921875
1667824501723670300,0.892670166015625,1.2583379745483398,0.312729150056839,2.1354568004608154
1667824501733678300,0.90267822265625,1.1087725162506104,0.009197493083775043,2.2714593410491943
1667824501743686100,0.91268603515625,1.1419634819030762,-0.19644807279109955,2.359313726425171
1667824501753693400,0.922693359375,1.4074345827102661,-0.30751335620880127,2.330355644226074
1667824501763701200,0.932701171875,1.691014289855957,-0.41610267758369446,2.2410459518432617
1667824501773709300,0.942709228515625,1.7932560443878174,-0.502992570400238,2.17425537109375
1667824501783716000,0.952716064453125,1.7109448909759521,-0.5622358918190002,2.1672842502593994
1667824501793724400,0.962724365234375,1.5524377822875977,-0.5117034912109375,2.208726644515991
1667824501803732500,0.972732421875,1.4798001050949097,-0.28061407804489136,2.288841724395752
1667824501813739300,0.9827392578125,1.4208773374557495,0.02286483533680439,2.476240396499634
1667824501823743700,0.99274365234375,1.4151694774627686,0.26816675066947937,2.7795839309692383
1667824501833751000,1.0027509765625,1.557338833808899,0.24481187760829926,3.0948612689971924
1667824501843758800,1.0127587890625,1.9028890132904053,-0.07714272290468216,3.218730926513672
1667824501853767000,1.022766845703125,2.4038283824920654,-0.49533811211586,3.1006486415863037
1667824501863773700,1.032773681640625,2.932570457458496,-0.8093641996383667,2.7872650623321533
1667824501873782000,1.042781982421875,3.2391867637634277,-0.998969554901123,2.440683603286743
1667824501883789800,1.052789794921875,3.2302968502044678,-1.3004285097122192,2.1687991619110107
1667824501893796900,1.062796875,3.1184754371643066,-1.904470443725586,2.0017361640930176
1667824501903804700,1.0728046875,3.009996175765991,-2.6977415084838867,1.8620662689208984
1667824501913813000,1.08281298828125,2.894047975540161,-3.5569372177124023,1.8102056980133057
1667824501923819800,1.09281982421875,2.610244035720825,-4.09722900390625,1.8664439916610718
1667824501933827800,1.102827880859375,2.113144636154175,-4.156643390655518,1.9245752096176147
1667824501943835000,1.1128349609375,1.5846357345581055,-3.843555450439453,1.9520853757858276
1667824501953843000,1.122843017578125,1.2074378728866577,-3.588897943496704,1.9837361574172974
1667824501963850800,1.132850830078125,0.9361187219619751,-3.629180431365967,2.005826234817505
1667824501973857800,1.14285791015625,0.7409129738807678,-3.8713345527648926,1.9925988912582397
1667824501983865900,1.152865966796875,0.5778979659080505,-4.089991569519043,1.954307198524475
1667824501993874000,1.1628740234375,0.47370976209640503,-4.203473091125488,1.9753872156143188
1667824502003880700,1.172880615234375,0.41769126057624817,-4.163758754730225,2.105386734008789
1667824502013888800,1.182888671875,0.45089155435562134,-3.7414233684539795,2.3294529914855957
1667824502023895800,1.192895751953125,0.5558416843414307,-2.9919633865356445,2.594017267227173
1667824502033903900,1.20290380859375,0.6603710055351257,-2.283233165740967,2.807302474975586
1667824502043912000,1.212911865234375,0.7354944944381714,-1.828115463256836,2.898084878921509
1667824502053918700,1.222918701171875,0.7648587822914124,-1.567582130432129,2.8779358863830566
1667824502063927000,1.232927001953125,0.7503623962402344,-1.3181533813476562,2.7890188694000244
1667824502073934800,1.242934814453125,0.7045392394065857,-1.0411218404769897,2.691035032272339
1667824502083942000,1.25294189453125,0.5552568435668945,-0.6401181817054749,2.5934784412384033
1667824502093949700,1.26294970703125,0.32048773765563965,-0.42854151129722595,2.431810140609741
1667824502103957000,1.27295703125,0.1966715157032013,-0.1830853968858719,2.3112049102783203
1667824502113964800,1.28296484375,0.1905427873134613,0.2511400878429413,2.3333160877227783
1667824502123972900,1.292972900390625,0.22080561518669128,0.5788002610206604,2.317534923553467
1667824502133980000,1.30297998046875,0.31701818108558655,0.6001164317131042,2.1792025566101074
1667824502143988000,1.312988037109375,0.5133903622627258,0.4340129494667053,1.9951667785644531
1667824502153995800,1.322995849609375,0.7394671440124512,0.046126749366521835,1.8541622161865234
1667824502164002800,1.3330029296875,0.8826594352722168,-0.6863560080528259,1.7865434885025024
1667824502174011000,1.343010986328125,0.797826886177063,-1.1711548566818237,1.6320841312408447
1667824502184019000,1.35301904296875,0.5620849132537842,-1.034304141998291,1.345590353012085
1667824502194025700,1.363025634765625,0.21959175169467926,-0.7555891275405884,1.0900605916976929
1667824502204033800,1.37303369140625,-0.03948802128434181,-0.9999741315841675,0.8599056601524353
1667824502214040800,1.383040771484375,-0.16257932782173157,-0.8291485905647278,0.6644579172134399
1667824502224049000,1.393048828125,-0.13351970911026,-0.8631153106689453,0.5033217072486877
1667824502234057000,1.403056884765625,-0.001689775730483234,-0.922675609588623,0.42746397852897644
1667824502244063700,1.413063720703125,0.12984827160835266,-0.9043919444084167,0.49728089570999146
1667824502254072000,1.423072021484375,0.2124060094356537,-0.7254418730735779,0.6351535320281982
1667824502264080000,1.433079833984375,0.24351385235786438,-0.39449751377105713,0.7878037691116333
1667824502274087000,1.4430869140625,0.2626795470714569,-0.06348922848701477,0.9216254949569702
1667824502284094700,1.4530947265625,0.2970926761627197,0.14160053431987762,0.9981114864349365
1667824502294102800,1.463102783203125,0.32345131039619446,0.09497817605733871,1.0219707489013672
1667824502304109800,1.47310986328125,0.34801948070526123,-0.06568153947591782,1.060404658317566
1667824502314118000,1.483117919921875,0.4442030191421509,-0.29857736825942993,1.0926166772842407
1667824502324125000,1.493125,0.5133213400840759,-0.4846513867378235,1.101701259613037
1667824502334133000,1.503133056640625,0.5181882977485657,-0.4731813967227936,1.0967075824737549
1667824502344140800,1.513140869140625,0.4682236611843109,-0.26111868023872375,1.023023009300232
1667824502354147800,1.52314794921875,0.4142136871814728,0.0901155099272728,0.8448433876037598
1667824502364155600,1.53315576171875,0.33307063579559326,0.5014373064041138,0.5982311964035034
1667824502374164000,1.5431640625,0.22109483182430267,0.782513439655304,0.31532731652259827
1667824502384170800,1.553170654296875,0.16983617842197418,0.8514288663864136,0.029516080394387245
1667824502394178800,1.5631787109375,0.16787634789943695,0.7609684467315674,-0.21043366193771362
1667824502404187000,1.573186767578125,0.14224715530872345,0.6370787024497986,-0.3492192327976227
1667824502414194000,1.58319384765625,0.04378902539610863,0.5641725659370422,-0.39855802059173584
1667824502424202000,1.593201904296875,-0.056895505636930466,0.456071138381958,-0.3963681161403656
1667824502434208800,1.603208740234375,-0.1519210934638977,0.2916606068611145,-0.3281286060810089
1667824502444217000,1.613217041015625,-0.19713516533374786,0.14956019818782806,-0.1853237897157669
1667824502454225000,1.623224853515625,-0.18627053499221802,0.10221584886312485,0.0009443568997085094
1667824502464232000,1.63323193359375,-0.12633129954338074,0.15672756731510162,0.17991463840007782
1667824502474239700,1.64323974609375,-0.03900039568543434,0.24024748802185059,0.31329694390296936
1667824502484247800,1.653247802734375,0.056962884962558746,0.24087439477443695,0.4304339289665222
1667824502494254800,1.6632548828125,0.12298557907342911,0.21078014373779297,0.5216333866119385
1667824502504263000,1.673262939453125,0.15431420505046844,0.17496275901794434,0.5395849347114563
1667824502514270000,1.68327001953125,0.16055266559123993,0.1423904299736023,0.5017592310905457
1667824502524278000,1.693278076171875,0.1218007355928421,0.10510830581188202,0.41757166385650635
1667824502534285800,1.703285888671875,0.020551348105072975,0.06078531965613365,0.30192071199417114
1667824502544292900,1.71329296875,-0.10021474957466125,0.024454476311802864,0.1706811934709549
1667824502554300700,1.72330078125,-0.19198913872241974,0.035945482552051544,0.054173488169908524
1667824502564309000,1.73330908203125,-0.19459424912929535,0.03549833968281746,-0.03245674446225166
1667824502574315800,1.743315673828125,-0.11372842639684677,-0.019697271287441254,-0.11187859624624252
1667824502584323800,1.75332373046875,0.011785020120441914,-0.1255166381597519,-0.16298732161521912
1667824502594331600,1.76333154296875,0.13959811627864838,-0.20502345263957977,-0.17408870160579681
1667824502604339000,1.7733388671875,0.23489905893802643,-0.19391301274299622,-0.13253247737884521
1667824502614346800,1.7833466796875,0.2972186207771301,-0.06873165816068649,-0.04864077270030975
1667824502624353800,1.793353759765625,0.3277171552181244,0.11291350424289703,0.048593901097774506
1667824502634361900,1.80336181640625,0.36188390851020813,0.24795840680599213,0.12731800973415375
1667824502644370000,1.813369873046875,0.38733386993408203,0.30652984976768494,0.17160265147686005
1667824502654376700,1.823376708984375,0.384939968585968,0.2986553907394409,0.19511649012565613
1667824502664384800,1.833384765625,0.3854030966758728,0.2596520781517029,0.21602097153663635
1667824502674392800,1.843392822265625,0.39844778180122375,0.22022691369056702,0.24551042914390564
1667824502684399900,1.85339990234375,0.41151192784309387,0.23146012425422668,0.2905881702899933
1667824502694408000,1.863407958984375,0.38423314690589905,0.2575199604034424,0.3347569406032562
1667824502704415700,1.873415771484375,0.3332679867744446,0.283968061208725,0.3721655607223511
1667824502714423000,1.883423095703125,0.3101392090320587,0.3316304087638855,0.43088242411613464
1667824502724430800,1.893430908203125,0.33846354484558105,0.40019533038139343,0.47647252678871155
1667824502734438000,1.90343798828125,0.36891838908195496,0.4116048514842987,0.5248898863792419
1667824502744445700,1.91344580078125,0.36116859316825867,0.32229095697402954,0.5896209478378296
1667824502754454000,1.9234541015625,0.32324331998825073,0.20806051790714264,0.6684814095497131
1667824502764460800,1.933460693359375,0.27435964345932007,0.13536874949932098,0.7698990702629089
1667824502774468900,1.94346875,0.2334393858909607,0.17303436994552612,0.9057821035385132
1667824502784476700,1.9534765625,0.19399183988571167,0.30168288946151733,1.0566962957382202
1667824502794484000,1.96348388671875,0.20718221366405487,0.41305068135261536,1.1436785459518433
1667824502804491800,1.97349169921875,0.24548406898975372,0.4512747824192047,1.1189359426498413
1667824502814498800,1.983498779296875,0.28068971633911133,0.44540756940841675,1.0226956605911255
1667824502824506600,1.993506591796875,0.3073357045650482,0.4046364426612854,0.8900896906852722
1667824502834514700,2.0035146484375,0.29417917132377625,0.3055753707885742,0.7014763355255127
1667824502844521500,2.013521484375,0.2229585200548172,0.14009718596935272,0.4950414299964905
1667824502854529500,2.023529541015625,0.12312512844800949,-0.11442777514457703,0.3086380064487457
1667824502864537600,2.03353759765625,0.02978106588125229,-0.37042438983917236,0.16477377712726593
1667824502874544600,2.043544677734375,0.0032463932875543833,-0.5124307870864868,0.08245892077684402
1667824502884552400,2.053552490234375,0.032406941056251526,-0.599899411201477,0.03502403199672699
1667824502894560500,2.063560546875,0.03603896126151085,-0.5957320928573608,0.021404623985290527
1667824502904567600,2.073567626953125,0.01967010833323002,-0.44692957401275635,0.08239900320768356
1667824502914575600,2.08357568359375,-0.037992656230926514,-0.1915622353553772,0.16661188006401062
1667824502924582400,2.09358251953125,-0.10309655964374542,-0.023637419566512108,0.18257540464401245
1667824502934590500,2.103590576171875,-0.1288200318813324,0.010789796710014343,0.10935764759778976
1667824502944598800,2.113598876953125,-0.10465370863676071,-0.04424149543046951,-0.04313734918832779
1667824502954605600,2.12360546875,-0.04078231751918793,-0.21080811321735382,-0.25497904419898987
1667824502964613600,2.133613525390625,0.009944509714841843,-0.37194693088531494,-0.47053635120391846
1667824502974621400,2.143621337890625,-0.028847627341747284,-0.43380895256996155,-0.6086382865905762
1667824502984628700,2.153628662109375,-0.11018908768892288,-0.4007205069065094,-0.7000685930252075
1667824502994636500,2.163636474609375,-0.16552132368087769,-0.29460179805755615,-0.7791346907615662
1667824503004644600,2.17364453125,-0.14222106337547302,-0.16911765933036804,-0.8267975449562073
1667824503014651600,2.183651611328125,-0.07379299402236938,-0.052861884236335754,-0.8362283110618591
1667824503024659700,2.19365966796875,-0.005467736162245274,-0.021287444978952408,-0.8117405772209167
1667824503034666500,2.20366650390625,0.05741961672902107,-0.06522907316684723,-0.7696647047996521
1667824503044674600,2.213674560546875,0.07720769941806793,-0.11516733467578888,-0.6904074549674988
1667824503054682400,2.223682373046875,0.03314889967441559,-0.12700775265693665,-0.5680999159812927
1667824503064689700,2.233689697265625,-0.05722334235906601,-0.09019940346479416,-0.409935861825943
1667824503074697500,2.243697509765625,-0.14278511703014374,-0.06929385662078857,-0.2623900771141052
1667824503084705500,2.25370556640625,-0.2284613996744156,-0.04141455143690109,-0.13876400887966156
1667824503094712600,2.263712646484375,-0.31096452474594116,-0.001680720946751535,-0.0836229920387268
1667824503104720600,2.273720703125,-0.3634258806705475,0.01161324605345726,-0.13728807866573334
1667824503114728400,2.283728515625,-0.3639073669910431,-0.05242858827114105,-0.2373686134815216
1667824503124735500,2.293735595703125,-0.317926824092865,-0.20721444487571716,-0.3694251775741577
1667824503134743600,2.30374365234375,-0.30876103043556213,-0.4630715250968933,-0.47290390729904175
1667824503144750600,2.31375048828125,-0.34710630774497986,-0.7253279089927673,-0.507401168346405
1667824503154758400,2.32375830078125,-0.40402868390083313,-0.8247277140617371,-0.44829604029655457
1667824503164766500,2.333766357421875,-0.44128286838531494,-0.7670630812644958,-0.29528623819351196
1667824503174773500,2.3437734375,-0.4099169373512268,-0.5967371463775635,-0.07336742430925369
1667824503184781600,2.353781494140625,-0.3266822397708893,-0.3924460709095001,0.12086383998394012
1667824503194789600,2.36378955078125,-0.23910924792289734,-0.19954372942447662,0.23442581295967102
1667824503204796700,2.373796630859375,-0.15783250331878662,-0.03255394846200943,0.254711389541626
1667824503214804700,2.3838046875,-0.09312861412763596,0.03393106907606125,0.19623608887195587
1667824503224811500,2.3938115234375,-0.06661577522754669,-0.12080870568752289,0.092397041618824
1667824503234819600,2.403819580078125,-0.0590239055454731,-0.3653146028518677,-0.0234717708081007
1667824503244827400,2.413827392578125,-0.0374126210808754,-0.5706285834312439,-0.09083563089370728
1667824503254834700,2.423834716796875,-0.0016623451374471188,-0.6746663451194763,-0.061831943690776825
1667824503264842500,2.433842529296875,0.060452159494161606,-0.6873027682304382,0.013893711380660534
1667824503274850600,2.4438505859375,0.11478250473737717,-0.6042565703392029,0.0794474184513092
1667824503284857600,2.453857666015625,0.19441448152065277,-0.49068155884742737,0.17169532179832458
1667824503294865700,2.46386572265625,0.29231947660446167,-0.4757564067840576,0.20570150017738342
1667824503304873500,2.47387353515625,0.3451118469238281,-0.5547407269477844,0.19716580212116241
1667824503314880500,2.483880615234375,0.37780827283859253,-0.7052285075187683,0.16476072371006012
1667824503324888600,2.493888671875,0.4085576832294464,-0.8816461563110352,0.11923584342002869
1667824503334896600,2.503896728515625,0.4347056448459625,-1.0493730306625366,0.07639490813016891
1667824503344903400,2.5139033203125,0.47058695554733276,-1.1388598680496216,0.062011703848838806
1667824503354911500,2.523911376953125,0.5363550186157227,-1.1323902606964111,0.083066925406456
1667824503364918500,2.53391845703125,0.6307598352432251,-1.0005075931549072,0.09733374416828156
1667824503374926600,2.543926513671875,0.7271753549575806,-0.8582172393798828,0.02039262279868126
1667824503384934700,2.5539345703125,0.7441585659980774,-0.7478220462799072,-0.1760735660791397
1667824503394941700,2.563941650390625,0.6839916706085205,-0.6117347478866577,-0.41799139976501465
1667824503404949800,2.57394970703125,0.5794638991355896,-0.41992005705833435,-0.6479380130767822
1667824503414957600,2.58395751953125,0.46996191143989563,-0.22345519065856934,-0.8844624161720276
1667824503424964600,2.593964599609375,0.4135529696941376,-0.08618362247943878,-1.2230924367904663
1667824503434972400,2.603972412109375,0.3490344285964966,-0.03654256463050842,-1.6403969526290894
1667824503444979700,2.613979736328125,0.25165992975234985,-0.06333743035793304,-2.0202138423919678
1667824503454987500,2.623987548828125,0.15829616785049438,-0.08908673375844955,-2.3102972507476807
1667824503464995600,2.63399560546875,0.07410591840744019,-0.0763712003827095,-2.5368361473083496
1667824503475002600,2.644002685546875,0.00920415110886097,0.006934072356671095,-2.6977334022521973
1667824503485010700,2.6540107421875,0.004348942078649998,0.18940001726150513,-2.809386968612671
1667824503495018500,2.6640185546875,0.05998397618532181,0.41385549306869507,-2.880052328109741
1667824503505025500,2.674025634765625,0.14902862906455994,0.6878143548965454,-2.9203097820281982
1667824503515033600,2.68403369140625,0.2133282572031021,1.0134360790252686,-2.921259880065918
1667824503525041700,2.694041748046875,0.20900274813175201,1.363379955291748,-2.8750927448272705
1667824503535048400,2.70404833984375,0.1471865177154541,1.717608094215393,-2.8080687522888184
1667824503545056500,2.714056396484375,0.024659274145960808,2.0214688777923584,-2.744520425796509
1667824503555063600,2.7240634765625,-0.14981745183467865,2.2599411010742188,-2.726208448410034
1667824503565071600,2.734071533203125,-0.36627572774887085,2.4419748783111572,-2.780759334564209
1667824503575079700,2.74407958984375,-0.6085677146911621,2.5903372764587402,-2.894587993621826
1667824503585086500,2.75408642578125,-0.8153536319732666,2.7804715633392334,-3.0448169708251953
1667824503595094500,2.764094482421875,-0.9373421669006348,3.0838325023651123,-3.217210531234741
1667824503605102600,2.7741025390625,-0.9859070181846619,3.4255213737487793,-3.368495225906372
1667824503615109400,2.784109375,-1.0189366340637207,3.687452554702759,-3.4442741870880127
1667824503625117400,2.794117431640625,-1.0943152904510498,3.8704209327697754,-3.442434310913086
1667824503635125800,2.804125732421875,-1.2115540504455566,4.026086807250977,-3.4062469005584717
1667824503645132500,2.814132568359375,-1.3231433629989624,4.190104007720947,-3.398735523223877
1667824503655140600,2.824140625,-1.3935283422470093,4.357665061950684,-3.426302433013916
1667824503665147600,2.834147705078125,-1.4108213186264038,4.525809288024902,-3.4717822074890137
1667824503675155700,2.84415576171875,-1.3862251043319702,4.709797382354736,-3.515984058380127
1667824503685163500,2.85416357421875,-1.36202871799469,4.879143714904785,-3.5399224758148193
1667824503695170600,2.864170654296875,-1.3635352849960327,4.978714466094971,-3.5175893306732178
1667824503705178600,2.8741787109375,-1.383378505706787,4.922740459442139,-3.4630558490753174
1667824503715186700,2.884186767578125,-1.4092292785644531,4.70603609085083,-3.3887929916381836
1667824503725193500,2.894193359375,-1.395810604095459,4.430060386657715,-3.281010389328003
1667824503735201500,2.904201416015625,-1.3398187160491943,4.2429518699646,-3.1095786094665527
1667824503745209300,2.914209228515625,-1.275349497795105,4.236144542694092,-2.9027647972106934
1667824503755216600,2.924216552734375,-1.1978563070297241,4.316995143890381,-2.7001376152038574
1667824503765224400,2.934224365234375,-1.1156980991363525,4.370347499847412,-2.5224273204803467
1667824503775231500,2.9442314453125,-1.0381686687469482,4.3291521072387695,-2.369112730026245
1667824503785239600,2.954239501953125,-0.9859978556632996,4.183950901031494,-2.21947979927063
1667824503795247600,2.96424755859375,-0.9947287440299988,3.8917715549468994,-2.045912265777588
1667824503805254400,2.97425439453125,-1.0482430458068848,3.4639699459075928,-1.8993252515792847
1667824503815262500,2.984262451171875,-1.0848314762115479,2.992501735687256,-1.816673994064331
1667824503825271000,2.99427099609375,-1.134738564491272,2.5971529483795166,-1.7835626602172852
1667824503835278000,3.004278076171875,-1.158793568611145,2.296826124191284,-1.8017791509628296
1667824503845286100,3.0142861328125,-1.0984359979629517,2.1148951053619385,-1.8677715063095093
1667824503855293000,3.02429296875,-0.953235387802124,2.0040855407714844,-1.929638147354126
1667824503865301200,3.03430126953125,-0.7949029803276062,1.9197190999984741,-1.9138721227645874
1667824503875309000,3.04430908203125,-0.6806882619857788,1.7914104461669922,-1.8361244201660156
1667824503885316000,3.054316162109375,-0.660953164100647,1.630476713180542,-1.7586719989776611
1667824503895324000,3.064323974609375,-0.6964104771614075,1.3793299198150635,-1.7081358432769775
1667824503905332000,3.07433203125,-0.7248719334602356,1.0330231189727783,-1.6988378763198853
1667824503915339000,3.084339111328125,-0.7201728224754333,0.6833543181419373,-1.6969788074493408
1667824503925347000,3.09434716796875,-0.6741435527801514,0.345981627702713,-1.7157686948776245
1667824503935355000,3.10435498046875,-0.6179090142250061,0.027822842821478844,-1.76004958152771
1667824503945362200,3.114362060546875,-0.5970138907432556,-0.25515666604042053,-1.784640908241272
1667824503955370000,3.124369873046875,-0.6007950305938721,-0.44344693422317505,-1.7671562433242798
1667824503965377000,3.134376953125,-0.5968013405799866,-0.5667848587036133,-1.6894185543060303
1667824503975384800,3.144384765625,-0.578615665435791,-0.6195694804191589,-1.5621803998947144
1667824503985393200,3.15439306640625,-0.5509209632873535,-0.6205024123191833,-1.3719849586486816
1667824503995400000,3.16439990234375,-0.5270557999610901,-0.6101909279823303,-1.1528401374816895
1667824504005408000,3.174407958984375,-0.5029286742210388,-0.6621502637863159,-0.9018387794494629
1667824504015416000,3.184416015625,-0.4567084312438965,-0.7917210459709167,-0.6268231868743896
1667824504025423000,3.194423095703125,-0.37661466002464294,-0.9176352620124817,-0.33550208806991577
1667824504035431200,3.20443115234375,-0.2665579319000244,-0.9882532954216003,-0.04376479238271713
1667824504045438000,3.21443798828125,-0.14175793528556824,-0.9804901480674744,0.2320265769958496
1667824504055446300,3.2244462890625,-0.0211846474558115,-0.9003300666809082,0.50023353099823
1667824504065454000,3.2344541015625,0.07619064301252365,-0.7973560094833374,0.7925745844841003
1667824504075461000,3.244461181640625,0.15472832322120667,-0.6938599944114685,1.1039588451385498
1667824504085469000,3.254468994140625,0.2130049467086792,-0.6053418517112732,1.4040560722351074
1667824504095477000,3.26447705078125,0.24327124655246735,-0.5132875442504883,1.6420280933380127
1667824504105484000,3.274484130859375,0.23242685198783875,-0.3850654065608978,1.7964712381362915
1667824504115492000,3.2844921875,0.15977315604686737,-0.19955945014953613,1.855448603630066
1667824504125500000,3.2945,0.05903402343392372,-0.0014713965356349945,1.83394193649292
1667824504135507200,3.304507080078125,-0.061225008219480515,0.2452198714017868,1.7933989763259888
1667824504145515000,3.314514892578125,-0.19296333193778992,0.5012535452842712,1.7203857898712158
1667824504155522000,3.32452197265625,-0.31120795011520386,0.753835141658783,1.5661519765853882
1667824504165529900,3.33452978515625,-0.37551209330558777,0.9612120389938354,1.3121064901351929
1667824504175538200,3.3445380859375,-0.3932351768016815,1.0390781164169312,0.9877427220344543
1667824504185545000,3.354544921875,-0.36112409830093384,0.9482866525650024,0.6480240821838379
1667824504195553000,3.364552978515625,-0.2796039581298828,0.6744593977928162,0.3426649272441864
1667824504205561000,3.37456103515625,-0.19607870280742645,0.2720126211643219,0.09893830120563507
1667824504215568100,3.384568115234375,-0.144821897149086,-0.12533262372016907,-0.06465622782707214
1667824504225576200,3.394576171875,-0.1407238245010376,-0.4457297921180725,-0.13820713758468628
1667824504235584000,3.404583984375,-0.1717805415391922,-0.6716595888137817,-0.13495329022407532
1667824504245591000,3.414591064453125,-0.21284249424934387,-0.7846370339393616,-0.05132443830370903
1667824504255599000,3.42459912109375,-0.26434430480003357,-0.7654670476913452,0.09059648215770721
1667824504265606100,3.434606201171875,-0.301108181476593,-0.6070331931114197,0.265953928232193
1667824504275614000,3.444614013671875,-0.3055274188518524,-0.3581483066082001,0.45072296261787415
1667824504285622000,3.4546220703125,-0.2655206322669983,-0.07892091572284698,0.6123142838478088
1667824504295629000,3.464629150390625,-0.20734280347824097,0.21666839718818665,0.7205022573471069
1667824504305637000,3.47463720703125,-0.14237312972545624,0.501584529876709,0.7643136382102966
1667824504315645000,3.48464501953125,-0.1032177284359932,0.748672366142273,0.753381609916687
1667824504325652200,3.49465234375,-0.07667666673660278,0.9367349743843079,0.6894916296005249
1667824504335660000,3.504659912109375,-0.05668618157505989,1.0731825828552246,0.5826727151870728
1667824504345668000,3.514668212890625,-0.03202823922038078,1.1262718439102173,0.4363544285297394
1667824504355675000,3.5246748046875,0.011141068302094936,1.071765422821045,0.25211507081985474
1667824504365683200,3.53468310546875,0.02027411200106144,0.9183056354522705,0.06392811983823776
1667824504375691300,3.544691162109375,-0.011394334957003593,0.7465551495552063,-0.09847650676965714
1667824504385698000,3.554697998046875,-0.06326126307249069,0.6057908535003662,-0.24489444494247437
1667824504395706000,3.5647060546875,-0.1105044037103653,0.5078150033950806,-0.38133084774017334
1667824504405713200,3.574713134765625,-0.15275359153747559,0.48879072070121765,-0.49493250250816345
1667824504415721200,3.58472119140625,-0.19521209597587585,0.5414267778396606,-0.5729463696479797
1667824504425729000,3.59472900390625,-0.24521109461784363,0.6593896150588989,-0.6138889789581299
1667824504435736000,3.604736083984375,-0.2970260679721832,0.8160010576248169,-0.6247544288635254
1667824504445744000,3.614744140625,-0.34629377722740173,0.9483622908592224,-0.5989289283752441
1667824504455752200,3.624752197265625,-0.3726678490638733,1.026910662651062,-0.5341065526008606
1667824504465759000,3.634759033203125,-0.38378629088401794,1.0426280498504639,-0.4412900507450104
1667824504475767000,3.64476708984375,-0.38551387190818787,1.0172423124313354,-0.33551061153411865
1667824504485774000,3.654774169921875,-0.36584749817848206,0.9735158681869507,-0.26102519035339355
1667824504495782100,3.6647822265625,-0.3069825768470764,0.9261171817779541,-0.21602363884449005
1667824504505790000,3.6747900390625,-0.2332223355770111,0.8787028193473816,-0.2212114781141281
1667824504515797200,3.68479736328125,-0.1672220081090927,0.8368235230445862,-0.2554895579814911
1667824504525805000,3.69480517578125,-0.12676221132278442,0.7509592175483704,-0.28726187348365784
1667824504535813000,3.704813232421875,-0.1270892471075058,0.643763542175293,-0.30154386162757874
1667824504545820000,3.71481982421875,-0.15965624153614044,0.5534498691558838,-0.2905506193637848
1667824504555828000,3.724827880859375,-0.22223520278930664,0.4964539706707001,-0.2503749430179596
1667824504565836000,3.7348359375,-0.2999630272388458,0.4512878358364105,-0.19387173652648926
1667824504575843000,3.744843017578125,-0.37220633029937744,0.3592154085636139,-0.13127945363521576
1667824504585851000,3.754850830078125,-0.40971001982688904,0.2592334449291229,-0.0653076320886612
1667824504595858200,3.764858154296875,-0.393049031496048,0.19631199538707733,0.017302025109529495
1667824504605866000,3.774865966796875,-0.3530435562133789,0.1811506152153015,0.09806904196739197
1667824504615874000,3.7848740234375,-0.3106934130191803,0.19852933287620544,0.16286908090114594
1667824504625880800,3.794880859375,-0.2587340772151947,0.23792734742164612,0.20452438294887543
1667824504635889200,3.80488916015625,-0.18979203701019287,0.25764724612236023,0.24515463411808014
1667824504645897200,3.814897216796875,-0.11368555575609207,0.23082388937473297,0.2999478280544281
1667824504655904000,3.824904052734375,-0.03334756940603256,0.198862224817276,0.37615764141082764
1667824504665912000,3.834912109375,0.028869997709989548,0.20469269156455994,0.48122096061706543
1667824504675920100,3.844920166015625,0.05182751268148422,0.25334012508392334,0.6228494644165039
1667824504685927200,3.85492724609375,0.0318913534283638,0.3276529610157013,0.7992647290229797
1667824504695935000,3.86493505859375,-0.016955280676484108,0.40399035811424255,0.9814731478691101
1667824504705942300,3.8749423828125,-0.08811920881271362,0.48898592591285706,1.1430697441101074
1667824504715950000,3.8849501953125,-0.16481931507587433,0.5909514427185059,1.236637830734253
1667824504725958100,3.894958251953125,-0.2266126424074173,0.7141433954238892,1.215498685836792
1667824504735965000,3.90496484375,-0.28003352880477905,0.9153127670288086,1.0803784132003784
1667824504745973000,3.914972900390625,-0.31203246116638184,1.1857253313064575,0.856489360332489
1667824504755981000,3.92498095703125,-0.2987542152404785,1.5046082735061646,0.5860040783882141
1667824504765988000,3.934988037109375,-0.2907958924770355,1.8110427856445312,0.32616105675697327
1667824504775996000,3.944995849609375,-0.2978026568889618,1.9815764427185059,0.08946064114570618
1667824504786004000,3.95500390625,-0.2737218141555786,2.034224510192871,-0.13556741178035736
1667824504796011000,3.965010986328125,-0.19709628820419312,2.0238826274871826,-0.3283382058143616
1667824504806019000,3.97501904296875,-0.11557772755622864,1.9586143493652344,-0.4591510593891144
1667824504816025900,3.98502587890625,0.0014367754338309169,1.7525354623794556,-0.4889419972896576
1667824504826037200,3.995037353515625,0.15685859322547913,1.4358597993850708,-0.4474427402019501
1667824504836045300,4.00504541015625,0.32951876521110535,1.1361303329467773,-0.3711565136909485
1667824504846052000,4.015052001953125,0.44629839062690735,0.9000483155250549,-0.2901926636695862
1667824504856060200,4.02506005859375,0.4760456383228302,0.7133567333221436,-0.1845293641090393
1667824504866068200,4.035068115234375,0.44556334614753723,0.5622899532318115,-0.05186133459210396
1667824504876075300,4.0450751953125,0.3689005374908447,0.4329061508178711,0.10567449778318405
1667824504886083000,4.0550830078125,0.28045350313186646,0.3313068151473999,0.24848304688930511
1667824504896091100,4.065091064453125,0.175586998462677,0.25362613797187805,0.35782232880592346
1667824504906098200,4.07509814453125,0.06391400098800659,0.19851522147655487,0.4224947988986969
1667824504916106200,4.085106201171875,-0.06299734115600586,0.190866619348526,0.4464414119720459
1667824504926113000,4.095113037109375,-0.2000950127840042,0.22419022023677826,0.4306182265281677
1667824504936121300,4.105121337890625,-0.33746537566185,0.290802538394928,0.38759806752204895
1667824504946129200,4.115129150390625,-0.4635021388530731,0.3553474545478821,0.3246361315250397
1667824504956136200,4.12513623046875,-0.5582334399223328,0.40811532735824585,0.2534503638744354
1667824504966144000,4.13514404296875,-0.6215106844902039,0.4634890854358673,0.19344723224639893
1667824504976152000,4.145152099609375,-0.6598982810974121,0.5274899005889893,0.151956245303154
1667824504986159000,4.1551591796875,-0.66611248254776,0.5677627921104431,0.1072060838341713
1667824504996167200,4.165167236328125,-0.627476155757904,0.5678698420524597,0.06959106028079987
1667824505006175200,4.17517529296875,-0.5356407761573792,0.5418137311935425,0.017832793295383453
1667824505016182300,4.185182373046875,-0.41874027252197266,0.5045992732048035,-0.058149855583906174
1667824505026190300,4.1951904296875,-0.2949967682361603,0.46711471676826477,-0.16342169046401978
1667824505036197000,4.205197021484375,-0.19222323596477509,0.43498048186302185,-0.3019971251487732
1667824505046205200,4.215205078125,-0.10439857840538025,0.3893466889858246,-0.43305501341819763
1667824505056213200,4.225213134765625,-0.04524071514606476,0.33622753620147705,-0.5291626453399658
1667824505066220300,4.23522021484375,-0.02479163184762001,0.2835025489330292,-0.5828146934509277
1667824505076228000,4.24522802734375,-0.0370754636824131,0.2273857593536377,-0.5953078269958496
1667824505086236200,4.255236083984375,-0.060752030462026596,0.16381290555000305,-0.5563859939575195
1667824505096243200,4.2652431640625,-0.09068542718887329,0.1033644750714302,-0.47391271591186523
1667824505106251300,4.275251220703125,-0.12059379369020462,0.06137441098690033,-0.3646794259548187
1667824505116259000,4.285259033203125,-0.15087446570396423,0.05372900888323784,-0.22806565463542938
1667824505126266400,4.295266357421875,-0.1608583927154541,0.07856085151433945,-0.09861818701028824
1667824505136274200,4.305274169921875,-0.14650875329971313,0.1161431148648262,-0.02111327461898327
1667824505146281200,4.31528125,-0.10415889322757721,0.14553110301494598,-0.0014205301413312554
1667824505156289000,4.3252890625,-0.03603390231728554,0.18628811836242676,-0.04435228556394577
1667824505166297000,4.335297119140625,0.04989432170987129,0.2413521707057953,-0.1343519538640976
1667824505176304000,4.34530419921875,0.14819931983947754,0.28847813606262207,-0.25147297978401184
1667824505186312200,4.355312255859375,0.23626099526882172,0.31752336025238037,-0.36948615312576294
1667824505196320300,4.3653203125,0.3079562187194824,0.32150211930274963,-0.48370063304901123
1667824505206327300,4.375327392578125,0.34977638721466064,0.31159383058547974,-0.6121041178703308
1667824505216335400,4.38533544921875,0.3678155541419983,0.29989510774612427,-0.7627890110015869
1667824505226342100,4.395342041015625,0.35624146461486816,0.26391738653182983,-0.9237704277038574
1667824505236350200,4.40535009765625,0.326325386762619,0.2124912291765213,-1.070980429649353
1667824505246358300,4.415358154296875,0.2849893867969513,0.1428181380033493,-1.1856286525726318
1667824505256365300,4.425365234375,0.2564656138420105,0.06179758906364441,-1.251309871673584
1667824505266373000,4.435373046875,0.24111515283584595,-0.03104952909052372,-1.236793875694275
1667824505276381200,4.445381103515625,0.22627361118793488,-0.10607370734214783,-1.1338030099868774
1667824505286388200,4.45538818359375,0.21781115233898163,-0.14832155406475067,-0.9527461528778076
1667824505296396300,4.465396240234375,0.20711803436279297,-0.1273811310529709,-0.7252908945083618
1667824505306404000,4.475404052734375,0.16947931051254272,-0.05860712006688118,-0.4709920287132263
1667824505316411100,4.4854111328125,0.0762750655412674,0.012226305902004242,-0.21776242554187775
1667824505326419200,4.495419189453125,-0.06935536861419678,0.08089831471443176,0.012566391378641129
1667824505336427300,4.50542724609375,-0.2915349006652832,0.16929101943969727,0.21395036578178406
1667824505346434000,4.51543408203125,-0.5662964582443237,0.2816428542137146,0.37164971232414246
1667824505356442000,4.525442138671875,-0.848037838935852,0.38157984614372253,0.48794224858283997
1667824505366449200,4.53544921875,-1.0800808668136597,0.39675372838974,0.5826802253723145
1667824505376457200,4.545457275390625,-1.2213480472564697,0.3122093081474304,0.6528454422950745
1667824505386465000,4.555465087890625,-1.294632911682129,0.14051157236099243,0.7176539897918701
1667824505396472300,4.565472412109375,-1.321966290473938,-0.0774519145488739,0.7713403701782227
1667824505406480100,4.575480224609375,-1.335209608078003,-0.29140815138816833,0.8227365016937256
1667824505416488200,4.58548828125,-1.3506397008895874,-0.46601617336273193,0.8817800879478455
1667824505426495000,4.595494873046875,-1.3643534183502197,-0.5981648564338684,0.9658827185630798
1667824505436503300,4.60550341796875,-1.3605443239212036,-0.662446916103363,1.0854074954986572
1667824505446511400,4.615511474609375,-1.345723271369934,-0.6476461291313171,1.2301404476165771
1667824505456518100,4.62551806640625,-1.3047510385513306,-0.5767637491226196,1.3790372610092163
1667824505466526200,4.635526123046875,-1.2461087703704834,-0.47085991501808167,1.4997408390045166
1667824505476533200,4.645533203125,-1.1321589946746826,-0.3412012755870819,1.575193166732788
1667824505486541300,4.655541259765625,-0.9582104086875916,-0.21972623467445374,1.5946323871612549
1667824505496549000,4.665549072265625,-0.7374756336212158,-0.12285055220127106,1.5660442113876343
1667824505506556200,4.67555615234375,-0.5088600516319275,-0.06851167976856232,1.4983996152877808
1667824505516564200,4.685564208984375,-0.2924760580062866,-0.06708076596260071,1.3903095722198486
1667824505526572300,4.695572265625,-0.10615120083093643,-0.11587360501289368,1.259738564491272
1667824505536579000,4.7055791015625,0.04592301696538925,-0.18790411949157715,1.1263818740844727
1667824505546587100,4.715587158203125,0.16895945370197296,-0.2617485225200653,1.0038641691207886
1667824505556595200,4.72559521484375,0.2570466995239258,-0.3239993751049042,0.8931906819343567
1667824505566602200,4.735602294921875,0.3104383051395416,-0.37352991104125977,0.7955074906349182
1667824505576610000,4.745610107421875,0.32473814487457275,-0.42429375648498535,0.6977708339691162
1667824505586617300,4.755617431640625,0.30849844217300415,-0.4806313216686249,0.5963842868804932
1667824505596625200,4.765625244140625,0.28253820538520813,-0.551570475101471,0.4883712828159332
1667824505606633200,4.77563330078125,0.2502889335155487,-0.6266870498657227,0.3728359043598175
1667824505616640000,4.785639892578125,0.1962861567735672,-0.7069395780563354,0.25526532530784607
1667824505626648000,4.79564794921875,0.12723571062088013,-0.7826934456825256,0.1347399652004242
1667824505636656400,4.805656494140625,0.04579252377152443,-0.8427155017852783,0.028612203896045685
1667824505646663200,4.8156630859375,-0.051958538591861725,-0.9083773493766785,-0.023484021425247192
1667824505656671200,4.825671142578125,-0.16455912590026855,-0.9680441617965698,-0.013514210470020771
1667824505666679000,4.835678955078125,-0.3054075837135315,-0.9820299744606018,0.06671671569347382
1667824505676686300,4.845686279296875,-0.46775200963020325,-0.9181559085845947,0.1777699887752533
1667824505686694100,4.855694091796875,-0.6147497296333313,-0.8036256432533264,0.28372013568878174
1667824505696701200,4.865701171875,-0.7076604962348938,-0.6634261608123779,0.34824347496032715
1667824505706709200,4.875709228515625,-0.7351394891738892,-0.5190383791923523,0.36454519629478455
1667824505716717300,4.88571728515625,-0.6924178600311279,-0.38421982526779175,0.33387917280197144
1667824505726724000,4.89572412109375,-0.5872997045516968,-0.27792614698410034,0.2826322317123413
1667824505736732200,4.905732177734375,-0.4524660110473633,-0.19643183052539825,0.23717100918293
1667824505746740200,4.915740234375,-0.3269493579864502,-0.11834608763456345,0.20619498193264008
1667824505756747300,4.925747314453125,-0.2244836986064911,-0.05921565368771553,0.21167922019958496
1667824505766755000,4.935755126953125,-0.12738777697086334,-0.034333739429712296,0.25935620069503784
1667824505776763100,4.94576318359375,-0.020317789167165756,-0.028482774272561073,0.3545895218849182
1667824505786770200,4.955770263671875,0.11312282830476761,-0.01525565143674612,0.4693152904510498
1667824505796778200,4.9657783203125,0.2540048360824585,0.027660124003887177,0.5943225026130676
1667824505806785000,4.975784912109375,0.39820435643196106,0.08595512062311172,0.7060655355453491
1667824505816793000,4.98579296875,0.5234235525131226,0.1393698751926422,0.811808705329895
1667824505826797800,4.9957978515625,0.6263259649276733,0.19927608966827393,0.9050760865211487
1667824505836804600,5.0058046875,0.7014478445053101,0.2704211175441742,0.9755973815917969
1667824505846812700,5.015812744140625,0.7344979643821716,0.3617483675479889,1.0170025825500488
1667824505856820700,5.02582080078125,0.722582995891571,0.43848440051078796,1.0140666961669922
1667824505866827800,5.035827880859375,0.6659502983093262,0.49543529748916626,0.9595217704772949
1667824505876835800,5.0458359375,0.5876179933547974,0.543199896812439,0.8323973417282104
1667824505886843600,5.05584375,0.501424252986908,0.5725231766700745,0.6304490566253662
1667824505896851000,5.065850830078125,0.41429170966148376,0.5808090567588806,0.36110919713974
1667824505906858800,5.075858642578125,0.33670637011528015,0.5845305919647217,0.03833247348666191
1667824505916865800,5.08586572265625,0.2655690908432007,0.5857346057891846,-0.300140917301178
1667824505926873600,5.09587353515625,0.19690720736980438,0.5683861970901489,-0.6269714832305908
1667824505936881700,5.105881591796875,0.14295342564582825,0.5168828368186951,-0.9310770630836487
1667824505946888700,5.115888671875,0.11059948056936264,0.42508286237716675,-1.2157984972000122
1667824505956896800,5.125896728515625,0.11121626943349838,0.2871662676334381,-1.4693748950958252
1667824505966904600,5.135904541015625,0.146239772439003,0.1146424263715744,-1.6731077432632446
1667824505976912000,5.145911865234375,0.20267507433891296,-0.0792362317442894,-1.8149871826171875
1667824505986919700,5.155919677734375,0.27270209789276123,-0.28795456886291504,-1.8801730871200562
1667824505996927700,5.165927734375,0.35530030727386475,-0.4748986065387726,-1.8680421113967896
1667824506006934500,5.1759345703125,0.4333125650882721,-0.6270359754562378,-1.7675259113311768
1667824506016942800,5.18594287109375,0.48974519968032837,-0.7058625817298889,-1.5880208015441895
1667824506026949600,5.19594970703125,0.5116167068481445,-0.696740448474884,-1.3469818830490112
1667824506036957700,5.205957763671875,0.5040737986564636,-0.5950367450714111,-1.0863924026489258
1667824506046965800,5.2159658203125,0.4648270606994629,-0.44003382325172424,-0.8312985301017761
1667824506056972800,5.225972900390625,0.4079882800579071,-0.25458860397338867,-0.6159303188323975
1667824506066980900,5.23598095703125,0.35010048747062683,-0.07219057530164719,-0.462277352809906
1667824506076988700,5.24598876953125,0.30457615852355957,0.10106802731752396,-0.36952105164527893
1667824506086996000,5.255995849609375,0.2711755633354187,0.2508822977542877,-0.33566588163375854
1667824506097003800,5.266003662109375,0.2230921983718872,0.35629045963287354,-0.3320018947124481
1667824506107011800,5.27601171875,0.1642957329750061,0.4124101996421814,-0.3379138708114624
1667824506117018600,5.2860185546875,0.09420906007289886,0.42569324374198914,-0.3493207097053528
1667824506127026700,5.296026611328125,0.021334316581487656,0.4175490438938141,-0.38458335399627686
1667824506137034800,5.30603466796875,-0.04255784675478935,0.4067768156528473,-0.45760831236839294
1667824506147041800,5.316041748046875,-0.0964311957359314,0.3886667788028717,-0.5609245896339417
1667824506157049600,5.326049560546875,-0.12615074217319489,0.3015395998954773,-0.6668336987495422
1667824506167057000,5.336056884765625,-0.13156121969223022,0.1533741056919098,-0.7508825063705444
1667824506177064700,5.346064697265625,-0.10102115571498871,-0.004187021870166063,-0.8114092350006104
1667824506187072800,5.35607275390625,-0.07345344126224518,-0.10911024361848831,-0.8377817273139954
1667824506197079600,5.36607958984375,-0.04391579329967499,-0.16043388843536377,-0.8318902850151062
1667824506207087900,5.376087890625,-0.019100191071629524,-0.1753113716840744,-0.8065354228019714
1667824506217095700,5.386095703125,0.004428304266184568,-0.15760694444179535,-0.7615636587142944
1667824506227102700,5.396102783203125,0.023966053500771523,-0.10128560662269592,-0.7063592672348022
1667824506237110500,5.406110595703125,0.028738437220454216,-0.04187128320336342,-0.6395708918571472
1667824506247118600,5.41611865234375,0.04646310582756996,-0.005138036794960499,-0.5671430826187134
1667824506257125600,5.426125732421875,0.0960751324892044,0.037813689559698105,-0.5023486018180847
1667824506267133700,5.4361337890625,0.16896559298038483,0.09218425303697586,-0.4472526013851166
1667824506277140700,5.446140625,0.2560189962387085,0.13037371635437012,-0.39792153239250183
1667824506287148800,5.456148681640625,0.3510664105415344,0.14815297722816467,-0.3489223122596741
1667824506297156900,5.466156982421875,0.4463615119457245,0.15856115520000458,-0.3146663308143616
1667824506307163600,5.47616357421875,0.5190130472183228,0.18026457726955414,-0.3065255880355835
1667824506317171700,5.486171630859375,0.562778651714325,0.19131803512573242,-0.34481942653656006
1667824506327179800,5.4961796875,0.5803877711296082,0.1787519007921219,-0.4235491454601288
1667824506337186800,5.506186767578125,0.5965598225593567,0.15297304093837738,-0.5244160890579224
1667824506347194600,5.516194580078125,0.6270279288291931,0.11566614359617233,-0.595202624797821
1667824506357202700,5.52620263671875,0.6684017777442932,0.0723562240600586,-0.5918002128601074
1667824506367209700,5.536209716796875,0.7199621796607971,0.03296301141381264,-0.4929836094379425
1667824506377217800,5.5462177734375,0.7921977639198303,0.00005752427750849165,-0.30027541518211365
1667824506387224600,5.556224609375,0.8639113306999207,-0.01152589451521635,-0.04559304937720299
1667824506397233000,5.56623291015625,0.9138927459716797,-0.027761856094002724,0.23215121030807495
1667824506407240700,5.57624072265625,0.9320120811462402,-0.04327796399593353,0.4880831241607666
1667824506417247700,5.586247802734375,0.9165418148040771,-0.04741412028670311,0.6817442178726196
1667824506427255600,5.596255615234375,0.8650602102279663,-0.004887166898697615,0.8065937161445618
1667824506437263600,5.606263671875,0.7904675006866455,0.0985281690955162,0.8776537775993347
1667824506447270700,5.616270751953125,0.6760886907577515,0.25700995326042175,0.8982240557670593
1667824506457278700,5.62627880859375,0.5091735124588013,0.4361664056777954,0.8827870488166809
1667824506467286800,5.636286865234375,0.2850136160850525,0.6139723658561707,0.8248587250709534
1667824506477293800,5.6462939453125,0.014627411961555481,0.7725582718849182,0.7166297435760498
1667824506487302000,5.656302001953125,-0.25905126333236694,0.8468764424324036,0.5386770367622375
1667824506497308700,5.66630859375,-0.4882977604866028,0.8320303559303284,0.2828575372695923
1667824506507316700,5.676316650390625,-0.6234292387962341,0.7115947604179382,-0.01477415207773447
1667824506517324800,5.68632470703125,-0.6728180646896362,0.48121803998947144,-0.2821129262447357
1667824506527331800,5.696331787109375,-0.6798357963562012,0.17427566647529602,-0.43931424617767334
1667824506537339600,5.706339599609375,-0.6786690354347229,-0.12099246680736542,-0.45810338854789734
1667824506547347700,5.71634765625,-0.6731224656105042,-0.347250372171402,-0.3502030074596405
1667824506557354800,5.726354736328125,-0.679627537727356,-0.4615441858768463,-0.14723898470401764
1667824506567362800,5.73636279296875,-0.691055953502655,-0.4609154164791107,0.11979591101408005
1667824506577370600,5.74637060546875,-0.6795220375061035,-0.3490096628665924,0.37830787897109985
1667824506587377700,5.756377685546875,-0.626203715801239,-0.19578681886196136,0.5979939103126526
1667824506597385700,5.7663857421875,-0.534014105796814,-0.03485758230090141,0.770111620426178
1667824506607393800,5.776393798828125,-0.4271007180213928,0.08477001637220383,0.8936173319816589
1667824506617400600,5.786400634765625,-0.3184930384159088,0.15362870693206787,0.9744628667831421
1667824506627408600,5.79640869140625,-0.21538208425045013,0.1480744183063507,1.01816725730896
1667824506637415700,5.806415771484375,-0.12271739542484283,0.09429747611284256,1.0269572734832764
1667824506647423700,5.816423828125,-0.05187731236219406,0.029881466180086136,0.9937952756881714
1667824506657431800,5.826431884765625,-0.01133814174681902,-0.017654893919825554,0.925076425075531
1667824506667438800,5.83643896484375,0.008134093135595322,-0.06100289896130562,0.8258201479911804
1667824506677447000,5.846447021484375,0.000012250540748937055,-0.10855230689048767,0.7087371945381165
1667824506687454700,5.856454833984375,-0.04348862171173096,-0.16702067852020264,0.5810671448707581
1667824506697461800,5.866461669921875,-0.11864382773637772,-0.2497778832912445,0.4516838490962982
1667824506707469800,5.8764697265625,-0.2011866420507431,-0.3504869043827057,0.33091747760772705
1667824506717478000,5.886477783203125,-0.27402594685554504,-0.45536085963249207,0.2370956391096115
1667824506727484700,5.896484619140625,-0.32552510499954224,-0.5619235038757324,0.17181304097175598
1667824506737492700,5.90649267578125,-0.36243730783462524,-0.659453809261322,0.14089107513427734
1667824506747499800,5.916499755859375,-0.3883666396141052,-0.7175527811050415,0.1426229327917099
1667824506757507800,5.9265078125,-0.41125011444091797,-0.7086589336395264,0.16720257699489594
1667824506767515600,5.936515625,-0.4455297887325287,-0.6551176309585571,0.20077571272850037
1667824506777522700,5.946522705078125,-0.48618215322494507,-0.5823835134506226,0.21867428719997406
1667824506787530800,5.95653076171875,-0.5397180914878845,-0.49912646412849426,0.20787464082241058
1667824506797538800,5.966538818359375,-0.6173388361930847,-0.4331413209438324,0.15037299692630768
1667824506807545600,5.976545654296875,-0.7034425735473633,-0.3997631072998047,0.03620993718504906
1667824506817553700,5.9865537109375,-0.7498694658279419,-0.4144571125507355,-0.11885075271129608
1667824506827561700,5.996561767578125,-0.7372543215751648,-0.48295706510543823,-0.2760273218154907
1667824506837568500,6.006568603515625,-0.6752969622612,-0.5958463549613953,-0.3957603871822357
1667824506847576600,6.01657666015625,-0.5841560959815979,-0.7214838862419128,-0.4560175836086273
1667824506857583600,6.02658349609375,-0.4927181005477905,-0.8057920932769775,-0.42989546060562134
1667824506867591700,6.036591796875,-0.4320198595523834,-0.8179584741592407,-0.32060545682907104
1667824506877599500,6.046599609375,-0.3948573172092438,-0.7749239206314087,-0.13769687712192535
1667824506887606500,6.0566064453125,-0.3870862126350403,-0.6801300644874573,0.1143587976694107
1667824506897614600,6.066614501953125,-0.39474785327911377,-0.5539563894271851,0.4130445718765259
1667824506907622700,6.07662255859375,-0.3787766098976135,-0.4294632077217102,0.7178281545639038
1667824506917629400,6.08662939453125,-0.32264676690101624,-0.31943872570991516,0.990748941898346
1667824506927637500,6.096637451171875,-0.20710843801498413,-0.22896499931812286,1.178362250328064
1667824506937644500,6.10664453125,-0.045412223786115646,-0.15634113550186157,1.2808302640914917
1667824506947652600,6.116652587890625,0.13095268607139587,-0.10666945576667786,1.3162894248962402
1667824506957660700,6.12666064453125,0.2965078353881836,-0.09188970923423767,1.3187201023101807
1667824506967667500,6.13666748046875,0.4207102060317993,-0.10537089407444,1.3152409791946411
1667824506977675800,6.14667578125,0.5009600520133972,-0.12264709174633026,1.3234890699386597
1667824506987683600,6.15668359375,0.5448281764984131,-0.11903025209903717,1.3259657621383667
1667824506997690600,6.166690673828125,0.5619357824325562,-0.09618964791297913,1.3320167064666748
1667824507007698400,6.176698486328125,0.5515952706336975,-0.0446324497461319,1.3172309398651123
1667824507017706800,6.186706787109375,0.5120494365692139,0.052261874079704285,1.2733057737350464
1667824507027713500,6.196713623046875,0.46038758754730225,0.1893736571073532,1.1822384595870972
1667824507037721600,6.2067216796875,0.41260939836502075,0.3191215395927429,1.014644980430603
1667824507047729400,6.2167294921875,0.37420183420181274,0.3979012966156006,0.757335901260376
1667824507057736700,6.22673681640625,0.3731123208999634,0.4131002128124237,0.4212074279785156
1667824507067744500,6.23674462890625,0.39109665155410767,0.35637515783309937,0.027827901765704155
1667824507077751600,6.24675146484375,0.4022534489631653,0.21867534518241882,-0.372954398393631
1667824507087759600,6.256759521484375,0.3829905390739441,0.018258366733789444,-0.7373682856559753
1667824507097767700,6.266767578125,0.3219836354255676,-0.21289975941181183,-1.0386128425598145
1667824507107774500,6.2767744140625,0.24416659772396088,-0.4123934209346771,-1.2698029279708862
1667824507117782500,6.286782470703125,0.15970923006534576,-0.5488894581794739,-1.4095927476882935
1667824507127790300,6.296790283203125,0.08617004007101059,-0.6139292120933533,-1.4706838130950928
1667824507137797600,6.306797607421875,0.029629530385136604,-0.5993608832359314,-1.4597115516662598
1667824507147805400,6.316805419921875,0.013643906451761723,-0.5244160890579224,-1.3995763063430786
1667824507157813500,6.3268134765625,0.05237133055925369,-0.4091044068336487,-1.288788080215454
1667824507167820500,6.336820556640625,0.1334398090839386,-0.28472626209259033,-1.1456396579742432
1667824507177828600,6.34682861328125,0.23510439693927765,-0.17884911596775055,-0.9804246425628662
1667824507187835400,6.35683544921875,0.3506072759628296,-0.11803130060434341,-0.8081191778182983
1667824507197843500,6.366843505859375,0.4538998603820801,-0.08383071422576904,-0.6441688537597656
1667824507207851800,6.376851806640625,0.5182937383651733,-0.04922134056687355,-0.505692720413208
1667824507217858600,6.386858642578125,0.5391905307769775,-0.00833675917237997,-0.39383119344711304
1667824507227866600,6.39686669921875,0.5184362530708313,0.04850069060921669,-0.31114429235458374
1667824507237874400,6.40687451171875,0.4607335329055786,0.11431006342172623,-0.25145354866981506
1667824507247881700,6.4168818359375,0.38316309452056885,0.18346942961215973,-0.22357210516929626
1667824507257889500,6.4268896484375,0.2908390164375305,0.24583026766777039,-0.22728800773620605
1667824507267897600,6.436897705078125,0.20691163837909698,0.2920995056629181,-0.26400527358055115
1667824507277904400,6.446904296875,0.14511218667030334,0.31206414103507996,-0.33470848202705383
1667824507287912700,6.45691259765625,0.09610549360513687,0.29546254873275757,-0.43457940220832825
1667824507297919500,6.46691943359375,0.07112104445695877,0.2353201061487198,-0.5308545827865601
1667824507307927600,6.476927490234375,0.07598558068275452,0.17997589707374573,-0.5881098508834839
1667824507317935400,6.486935302734375,0.07620368897914886,0.11921880394220352,-0.5871428847312927
1667824507327942700,6.496942626953125,0.07136659324169159,0.09252966940402985,-0.536395251750946
1667824507337950500,6.506950439453125,0.06402824819087982,0.11497798562049866,-0.4522015452384949
1667824507347958500,6.51695849609375,0.05495619401335716,0.14535000920295715,-0.34930339455604553
1667824507357965600,6.526965576171875,0.05819672718644142,0.1691512018442154,-0.24428217113018036
1667824507367973600,6.5369736328125,0.08014410734176636,0.19289781153202057,-0.15868204832077026
1667824507377981700,6.546981689453125,0.12129979580640793,0.21963675320148468,-0.10269894450902939
1667824507387988500,6.556988525390625,0.17883285880088806,0.2590195834636688,-0.07754219323396683
1667824507397996500,6.56699658203125,0.2372642159461975,0.3020261526107788,-0.0693146288394928
1667824507408003600,6.577003662109375,0.2792681157588959,0.32448887825012207,-0.06557874381542206
1667824507418011600,6.58701171875,0.309815913438797,0.3317480981349945,-0.08783052116632462
1667824507428019500,6.59701953125,0.33254680037498474,0.31668606400489807,-0.12478294223546982
1667824507438026800,6.60702685546875,0.3423757255077362,0.29093649983406067,-0.17342504858970642
1667824507448034600,6.61703466796875,0.3482101857662201,0.2675882875919342,-0.2383936643600464
1667824507458042600,6.627042724609375,0.34668925404548645,0.2627711594104767,-0.3139944076538086
1667824507468049400,6.63704931640625,0.3187750577926636,0.2818913459777832,-0.41436415910720825
1667824507478057700,6.6470576171875,0.2648870646953583,0.3200347423553467,-0.5306699872016907
1667824507488064500,6.657064453125,0.20219917595386505,0.35407471656799316,-0.6777912974357605
1667824507498072600,6.667072509765625,0.16789712011814117,0.3444013297557831,-0.8422441482543945
1667824507508080400,6.677080322265625,0.17915163934230804,0.27994218468666077,-0.9865440726280212
1667824507518087700,6.687087646484375,0.24112500250339508,0.15957874059677124,-1.0733407735824585
1667824507528095500,6.697095458984375,0.34012216329574585,-0.013375193811953068,-1.0660617351531982
1667824507538103600,6.707103515625,0.4580570459365845,-0.22381898760795593,-0.9674630165100098
1667824507548110600,6.717110595703125,0.5766843557357788,-0.4201597273349762,-0.7785546183586121
1667824507558118700,6.72711865234375,0.6434383392333984,-0.5753956437110901,-0.5318452715873718
1667824507568126700,6.737126708984375,0.6569424271583557,-0.6542356014251709,-0.25828641653060913
1667824507578133500,6.747133544921875,0.6349425911903381,-0.6582178473472595,0.02388482727110386
1667824507588141600,6.7571416015625,0.574657678604126,-0.6107166409492493,0.2802108824253082
1667824507598148600,6.767148681640625,0.48926371335983276,-0.5182554125785828,0.5018498301506042
1667824507608156400,6.777156494140625,0.3800770342350006,-0.39329323172569275,0.6631792783737183
1667824507618164500,6.78716455078125,0.24893924593925476,-0.2563537657260895,0.771156370639801
1667824507628171500,6.797171630859375,0.09689965099096298,-0.14351855218410492,0.8400512933731079
1667824507638179600,6.8071796875,-0.07355783879756927,-0.0548320896923542,0.8560062646865845
1667824507648187600,6.817187744140625,-0.27609682083129883,0.0012144014472141862,0.8400888442993164
1667824507658194400,6.8271943359375,-0.5078427195549011,0.010974886827170849,0.8042773008346558
1667824507668202800,6.83720263671875,-0.7734863758087158,0.013371199369430542,0.7328768968582153
1667824507678210600,6.84721044921875,-1.030867576599121,0.0188373364508152,0.6051762104034424
1667824507688217600,6.857217529296875,-1.220131516456604,0.011719239875674248,0.4252852499485016
1667824507698225400,6.867225341796875,-1.2949551343917847,-0.04862772300839424,0.2105010449886322
1667824507708232700,6.877232666015625,-1.231431245803833,-0.18479780852794647,0.003753991797566414
1667824507718240500,6.887240478515625,-1.055832862854004,-0.3608601987361908,-0.15918086469173431
1667824507728248600,6.89724853515625,-0.8229026794433594,-0.5187802910804749,-0.2280808389186859
1667824507738255600,6.907255615234375,-0.584208071231842,-0.6081911325454712,-0.17792844772338867
1667824507748263700,6.917263671875,-0.37670573592185974,-0.6338520646095276,-0.030830349773168564
1667824507758271500,6.927271484375,-0.23130805790424347,-0.5803137421607971,0.17746852338314056
1667824507768278500,6.937278564453125,-0.14341016113758087,-0.48137274384498596,0.4136997163295746
1667824507778286300,6.947286376953125,-0.0951017513871193,-0.366298109292984,0.6400744915008545
1667824507788294700,6.957294677734375,-0.06883179396390915,-0.2493395209312439,0.8306599259376526
1667824507798301400,6.967301513671875,-0.06012698635458946,-0.16669310629367828,0.9731299877166748
1667824507808309500,6.9773095703125,-0.06222742050886154,-0.11759480834007263,1.0353715419769287
1667824507818317600,6.987317626953125,-0.0662197694182396,-0.09223698824644089,1.0303798913955688
1667824507828324400,6.997324462890625,-0.05994189530611038,-0.07634563744068146,0.9596104621887207
1667824507838332400,7.00733251953125,-0.06071128323674202,-0.06774229556322098,0.847593367099762
1667824507848339200,7.017339111328125,-0.0677790492773056,-0.0651041716337204,0.7041930556297302
1667824507858347500,7.027347412109375,-0.07509075850248337,-0.06840728968381882,0.5408147573471069
1667824507868355300,7.037355224609375,-0.08885317295789719,-0.06996896117925644,0.3948490619659424
1667824507878362400,7.0473623046875,-0.11601821333169937,-0.08004503697156906,0.2752142548561096
1667824507888370200,7.0573701171875,-0.15607428550720215,-0.10888094455003738,0.1772184520959854
1667824507898378500,7.06737841796875,-0.19806647300720215,-0.1389581561088562,0.1003231406211853
1667824507908385300,7.07738525390625,-0.22821585834026337,-0.16355296969413757,0.04586149752140045
1667824507918393300,7.087393310546875,-0.25580087304115295,-0.18240469694137573,0.0004348942020442337
1667824507928400400,7.097400390625,-0.2894488573074341,-0.19750136137008667,-0.047573111951351166
1667824507938408400,7.107408447265625,-0.31525328755378723,-0.20224790275096893,-0.12127236276865005
1667824507948416300,7.117416259765625,-0.3353801369667053,-0.20692043006420135,-0.21432028710842133
1667824507958423300,7.12742333984375,-0.36179229617118835,-0.21730941534042358,-0.30986785888671875
1667824507968431400,7.137431396484375,-0.4054582715034485,-0.21831849217414856,-0.3919387459754944
1667824507978439400,7.147439453125,-0.45531266927719116,-0.24195750057697296,-0.4566785991191864
1667824507988446200,7.1574462890625,-0.48049336671829224,-0.2873193919658661,-0.4618089199066162
1667824507998454300,7.167454345703125,-0.4948155879974365,-0.3189002275466919,-0.39303624629974365
1667824508008462300,7.17746240234375,-0.49742549657821655,-0.3213825523853302,-0.2574933171272278
1667824508018469400,7.187469482421875,-0.49395644664764404,-0.29098042845726013,-0.06285006552934647
1667824508028477400,7.1974775390625,-0.47663259506225586,-0.2208666056394577,0.1796608418226242
1667824508038484200,7.207484130859375,-0.45780885219573975,-0.11591728031635284,0.4435281753540039
1667824508048492300,7.2174921875,-0.42988321185112,0.01798672415316105,0.675976574420929
1667824508058500400,7.227500244140625,-0.3866041600704193,0.15311312675476074,0.8559194803237915
1667824508068507100,7.237507080078125,-0.3182868957519531,0.23825703561306,0.95660400390625
1667824508078515200,7.24751513671875,-0.21791236102581024,0.2876075506210327,0.9903968572616577
1667824508088523300,7.257523193359375,-0.10610486567020416,0.2944827675819397,0.9806888103485107
1667824508098530300,7.2675302734375,-0.014360297471284866,0.2530708611011505,0.9590953588485718
1667824508108538400,7.277538330078125,0.04346198961138725,0.18431924283504486,0.9411712288856506
1667824508118546200,7.287546142578125,0.06720966100692749,0.11171800643205643,0.9512686133384705
1667824508128553500,7.297553466796875,0.06267590075731277,0.05968117341399193,0.9895704388618469
1667824508138561300,7.307561279296875,0.05236067622900009,0.03618756681680679,1.0463876724243164
1667824508148568300,7.317568359375,0.036254409700632095,0.04963173344731331,1.1062957048416138
1667824508158576000,7.327576171875,0.02239239029586315,0.08774636685848236,1.1701322793960571
1667824508168584400,7.33758447265625,0.02196655236184597,0.14557717740535736,1.1988693475723267
1667824508178591200,7.34759130859375,0.017535584047436714,0.20973777770996094,1.189643144607544
1667824508188599300,7.357599365234375,0.017717212438583374,0.28680408000946045,1.1143264770507812
1667824508198607000,7.367607177734375,0.01786128804087639,0.376838356256485,0.9680579900741577
1667824508208614400,7.377614501953125,0.01792067661881447,0.4612983763217926,0.7613098621368408
1667824508218622200,7.387622314453125,0.013556288555264473,0.5278518199920654,0.48561811447143555
1667824508228630300,7.39763037109375,-0.00016245282313320786,0.5709287524223328,0.14800384640693665
1667824508238637300,7.40763720703125,-0.01287505216896534,0.5847313404083252,-0.2527816593647003
1667824508248645400,7.417645263671875,-0.02056972309947014,0.5386903882026672,-0.6738556623458862
1667824508258652200,7.427652099609375,-0.006125536747276783,0.3968863785266876,-1.0556000471115112
1667824508268660200,7.43766015625,0.029567480087280273,0.1740729957818985,-1.3615381717681885
1667824508278668300,7.447668212890625,0.07077350467443466,-0.08373351395130157,-1.5685158967971802
1667824508288675300,7.45767529296875,0.1173655092716217,-0.3329095244407654,-1.676593542098999
1667824508298683400,7.467683349609375,0.16787661612033844,-0.5506641864776611,-1.687123417854309
1667824508308691200,7.477691162109375,0.22458943724632263,-0.702264130115509,-1.6165038347244263
1667824508318698500,7.487698486328125,0.27494341135025024,-0.8035430908203125,-1.4766671657562256
1667824508328706300,7.497706298828125,0.30155879259109497,-0.8369479179382324,-1.2763105630874634
1667824508338713300,7.50771337890625,0.312319278717041,-0.7982519268989563,-1.0422296524047852
1667824508348721200,7.51772119140625,0.3176479935646057,-0.7121521830558777,-0.8111016750335693
1667824508358729500,7.5277294921875,0.3142450153827667,-0.5845329761505127,-0.599747896194458
1667824508368736300,7.537736328125,0.3010847270488739,-0.4256061613559723,-0.4177602231502533
1667824508378744300,7.547744384765625,0.27296948432922363,-0.2662639021873474,-0.2945251166820526
1667824508388752100,7.557752197265625,0.23037089407444,-0.11151774227619171,-0.22059229016304016
1667824508398759400,7.567759521484375,0.17737558484077454,0.020614996552467346,-0.2115897387266159
1667824508408767200,7.577767333984375,0.1289862096309662,0.11135555058717728,-0.24777038395404816
1667824508418775300,7.587775390625,0.08851282298564911,0.13091513514518738,-0.3068222403526306
1667824508428782300,7.5977822265625,0.05306428298354149,0.09255389869213104,-0.3756601810455322
1667824508438790400,7.607790283203125,0.022535135969519615,0.027728300541639328,-0.43821728229522705
1667824508448797200,7.617797119140625,-0.0018050905782729387,-0.048651158809661865,-0.48278263211250305
1667824508458805200,7.62780517578125,-0.01600106991827488,-0.11206182092428207,-0.4937266409397125
1667824508468813300,7.637813232421875,-0.02526993677020073,-0.14170093834400177,-0.4843302071094513
1667824508478820400,7.6478203125,-0.022352710366249084,-0.1429278552532196,-0.4744243025779724
1667824508488828400,7.657828369140625,-0.006346579175442457,-0.1300717145204544,-0.4596906304359436
1667824508498836200,7.667836181640625,-0.0004857605672441423,-0.12767939269542694,-0.4488734006881714
1667824508508843500,7.677843505859375,0.0004953479510731995,-0.14532470703125,-0.4438381493091583
1667824508518851300,7.687851318359375,0.017543306574225426,-0.16665716469287872,-0.4531536400318146
1667824508528858400,7.6978583984375,0.06346605718135834,-0.20007796585559845,-0.48374083638191223
1667824508538866200,7.7078662109375,0.12912549078464508,-0.24786733090877533,-0.5162396430969238
1667824508548874500,7.71787451171875,0.19479691982269287,-0.29580795764923096,-0.5385758280754089
1667824508558881300,7.72788134765625,0.24621111154556274,-0.3242305517196655,-0.5306396484375
1667824508568889300,7.737889404296875,0.26936623454093933,-0.29948869347572327,-0.4922267198562622
1667824508578897200,7.747897216796875,0.27510106563568115,-0.22810906171798706,-0.43058547377586365
1667824508588904400,7.757904541015625,0.26733770966529846,-0.11791278421878815,-0.3816312551498413
1667824508598912300,7.767912353515625,0.2769929766654968,-0.012497415766119957,-0.3569714426994324
1667824508608919300,7.777919189453125,0.34063827991485596,0.05422382429242134,-0.3364536464214325
1667824508618927400,7.78792724609375,0.4460507035255432,0.053947120904922485,-0.29883116483688354
1667824508628935400,7.797935302734375,0.5701609253883362,-0.016404006630182266,-0.22841426730155945
1667824508638942200,7.807942138671875,0.7187437415122986,-0.09723973274230957,-0.12222044914960861
1667824508648950300,7.8179501953125,0.8662384152412415,-0.149751678109169,0.03221333026885986
1667824508658958000,7.8279580078125,0.973724365234375,-0.16387654840946198,0.2317003458738327
1667824508668965400,7.83796533203125,1.0290672779083252,-0.15515576303005219,0.4516606628894806
1667824508678973200,7.84797314453125,1.0280488729476929,-0.12308837473392487,0.6563205718994141
1667824508688981200,7.857981201171875,0.9772242903709412,-0.084037646651268,0.836986243724823
1667824508698988300,7.86798828125,0.8754122257232666,-0.048588041216135025,0.9794490933418274
1667824508708996400,7.877996337890625,0.7170150876045227,-0.028716066852211952,1.0450725555419922
1667824508719003100,7.888003173828125,0.5059201717376709,-0.0001757686259225011,1.0272084474563599
1667824508729011200,7.89801123046875,0.2540479898452759,0.04623514041304588,0.9392564296722412
1667824508739019500,7.90801953125,-0.04381619021296501,0.13696689903736115,0.8123770356178284
1667824508749026300,7.9180263671875,-0.3957286775112152,0.32472509145736694,0.6302879452705383
1667824508759034400,7.928034423828125,-0.7682594060897827,0.5912750363349915,0.3529125154018402
1667824508769042200,7.938042236328125,-1.06345796585083,0.845285177230835,-0.023322898894548416
1667824508779049500,7.948049560546875,-1.197568655014038,0.9895550012588501,-0.45931991934776306
1667824508789057300,7.958057373046875,-1.1423227787017822,0.9379661083221436,-0.8960775136947632
1667824508799064300,7.968064208984375,-0.9471473693847656,0.6195404529571533,-1.2477319240570068
1667824508809072400,7.978072265625,-0.7211374044418335,0.1128663644194603,-1.439296841621399
1667824508819080400,7.98808056640625,-0.5467014312744141,-0.3836853504180908,-1.4033747911453247
1667824508829091600,7.998091552734375,-0.4415518343448639,-0.7676562070846558,-1.168813705444336
1667824508839099600,8.008099609375,-0.4424240291118622,-1.0108038187026978,-0.7762739062309265
1667824508849107500,8.018107421875,-0.5546938180923462,-1.069648265838623,-0.27696263790130615
1667824508859114800,8.02811474609375,-0.7191480398178101,-0.9695608019828796,0.2178223431110382
1667824508869122600,8.03812255859375,-0.8326897621154785,-0.7767958641052246,0.6331380605697632
1667824508879129600,8.048129638671876,-0.8716233372688293,-0.5358389019966125,0.9258822798728943
1667824508889137400,8.058137451171875,-0.8461089134216309,-0.287212610244751,1.071953535079956
1667824508899145700,8.068145751953125,-0.7698605060577393,-0.060686782002449036,1.1015864610671997
1667824508909152500,8.078152587890624,-0.6497157216072083,0.143048495054245,1.0289708375930786
1667824508919160600,8.08816064453125,-0.4966563582420349,0.29801809787750244,0.9078103303909302
1667824508929168400,8.09816845703125,-0.341682493686676,0.3702446222305298,0.7754848003387451
1667824508939175700,8.10817578125,-0.21297165751457214,0.354052871465683,0.6540822386741638
1667824508949183500,8.11818359375,-0.10976484417915344,0.3032464385032654,0.542074978351593
1667824508959191600,8.128191650390624,-0.027879567816853523,0.2418014407157898,0.45421382784843445
1667824508969198600,8.138198486328125,0.01812014728784561,0.15572167932987213,0.3803824782371521
1667824508979206700,8.14820654296875,0.04111707583069801,0.06529857963323593,0.31504103541374207
1667824508989213400,8.15821337890625,0.044494498521089554,-0.032725989818573,0.24032817780971527
1667824508999221500,8.168221435546876,0.03699716553092003,-0.1413097232580185,0.14945153892040253
1667824509009229600,8.1782294921875,0.03725895658135414,-0.25231534242630005,0.03506238013505936
1667824509019236600,8.188236572265625,0.03448207676410675,-0.3668816089630127,-0.08296066522598267
1667824509029244700,8.19824462890625,0.03281067684292793,-0.46454212069511414,-0.18107284605503082
1667824509039252500,8.20825244140625,0.019959593191742897,-0.551185131072998,-0.2278566062450409
1667824509049259800,8.218259765625,-0.007731689140200615,-0.609096348285675,-0.2111537903547287
1667824509059267600,8.228267578125,-0.048161402344703674,-0.632404088973999,-0.13427285850048065
1667824509069274600,8.238274658203125,-0.09827303886413574,-0.6172932982444763,-0.0014642059104517102
1667824509079282400,8.248282470703124,-0.15362364053726196,-0.5683220624923706,0.17021380364894867
1667824509089290500,8.25829052734375,-0.23759019374847412,-0.47207167744636536,0.33032625913619995
1667824509099297500,8.268297607421875,-0.3265296518802643,-0.3301944136619568,0.45912817120552063
1667824509109305600,8.2783056640625,-0.381918340921402,-0.16837170720100403,0.5438875555992126
1667824509119313400,8.2883134765625,-0.3991798758506775,-0.02443397045135498,0.5980961918830872
1667824509129320700,8.29832080078125,-0.3685290217399597,0.06763390451669693,0.6433762907981873
1667824509139328500,8.30832861328125,-0.30538201332092285,0.12443993240594864,0.6837940216064453
1667824509149336600,8.318336669921875,-0.22451725602149963,0.14639955759048462,0.7171514630317688
1667824509159343400,8.32834326171875,-0.13348908722400665,0.128418430685997,0.7502849102020264
1667824509169351700,8.3383515625,-0.04033970087766647,0.07151279598474503,0.7896443009376526
1667824509179358500,8.3483583984375,0.05344271659851074,-0.01537709217518568,0.8305043578147888
1667824509189366500,8.358366455078125,0.1343788504600525,-0.12002440541982651,0.8854139447212219
1667824509199374600,8.36837451171875,0.19337345659732819,-0.21377646923065186,0.9713863730430603
1667824509209381600,8.378381591796876,0.20571666955947876,-0.29014259576797485,1.0901402235031128
1667824509219389700,8.3883896484375,0.19980765879154205,-0.32930198311805725,1.2288661003112793
1667824509229397500,8.3983974609375,0.196339413523674,-0.322635293006897,1.3634008169174194
1667824509239404800,8.40840478515625,0.2074914127588272,-0.261700838804245,1.4628647565841675
1667824509249412600,8.41841259765625,0.2216610163450241,-0.17515423893928528,1.5204089879989624
1667824509259419600,8.428419677734375,0.22890961170196533,-0.07444334030151367,1.5376492738723755
1667824509269427500,8.438427490234375,0.2224980592727661,0.051780372858047485,1.4897041320800781
1667824509279435500,8.448435546875,0.2138528972864151,0.20587247610092163,1.3675681352615356
1667824509289442600,8.458442626953126,0.19635140895843506,0.3722337484359741,1.1821577548980713
1667824509299450600,8.46845068359375,0.1797548532485962,0.5282249450683594,0.929416298866272
1667824509309458400,8.47845849609375,0.1600506603717804,0.652959942817688,0.6279371380805969
1667824509319465700,8.4884658203125,0.1386532187461853,0.7301937341690063,0.29351043701171875
1667824509329473500,8.4984736328125,0.13157160580158234,0.7473219037055969,-0.04170164093375206
1667824509339480600,8.50848046875,0.12091416865587234,0.6698033809661865,-0.3402446508407593
1667824509349488400,8.51848828125,0.11824887990951538,0.48875024914741516,-0.6007438898086548
1667824509359496700,8.52849658203125,0.13137586414813995,0.24880927801132202,-0.8164045214653015
1667824509369503500,8.53850341796875,0.15444763004779816,0.02466992661356926,-0.9845656156539917
1667824509379511600,8.548511474609375,0.16593118011951447,-0.14822807908058167,-1.0854003429412842
1667824509389519400,8.558519287109375,0.16353993117809296,-0.2687339782714844,-1.1263877153396606
1667824509399526700,8.568526611328124,0.1579803079366684,-0.33548611402511597,-1.1064608097076416
1667824509409534500,8.578534423828126,0.14261919260025024,-0.3522683084011078,-1.0334042310714722
1667824509419541500,8.58854150390625,0.12610574066638947,-0.33322057127952576,-0.9276769757270813
1667824509429549600,8.598549560546875,0.11678893119096756,-0.2705065906047821,-0.7989368438720703
1667824509439557600,8.6085576171875,0.11705019325017929,-0.17186816036701202,-0.6786653399467468
1667824509449564400,8.618564453125,0.126776322722435,-0.05908995121717453,-0.5836791396141052
1667824509459572500,8.628572509765625,0.1403464525938034,0.04795420914888382,-0.5313629508018494
1667824509469580500,8.63858056640625,0.1533924788236618,0.13262063264846802,-0.5285855531692505
1667824509479587600,8.648587646484375,0.16218037903308868,0.1908642202615738,-0.5546248555183411
1667824509489595600,8.658595703125,0.14904940128326416,0.2263905256986618,-0.6018751859664917
1667824509499602400,8.6686025390625,0.13252635300159454,0.23725676536560059,-0.6373948454856873
1667824509509610800,8.67861083984375,0.12348145991563797,0.22409887611865997,-0.6417664289474487
1667824509519618600,8.68861865234375,0.1211453303694725,0.20875348150730133,-0.6207846999168396
1667824509529625600,8.69862548828125,0.12034079432487488,0.18905779719352722,-0.5921077728271484
1667824509539633400,8.70863330078125,0.12134373933076859,0.15708975493907928,-0.5687215328216553
1667824509549641700,8.718641845703125,0.12035783380270004,0.1060798317193985,-0.5658714175224304
1667824509559648500,8.7286484375,0.11632687598466873,0.05826010927557945,-0.5955174565315247
1667824509569656600,8.738656494140624,0.11077605187892914,0.019882628694176674,-0.6442303657531738
1667824509579664400,8.748664306640626,0.09483010321855545,-0.018563298508524895,-0.6912152171134949
1667824509589671700,8.758671630859375,0.078377366065979,-0.05337028205394745,-0.7069363594055176
1667824509599679500,8.768679443359375,0.07022515684366226,-0.06482134014368057,-0.6948530673980713
1667824509609686500,8.7786865234375,0.07081717997789383,-0.05814959108829498,-0.6481311321258545
1667824509619694600,8.788694580078126,0.09712228924036026,-0.05019419640302658,-0.5808226466178894
1667824509629702700,8.79870263671875,0.1562921404838562,-0.04284600168466568,-0.49360623955726624
1667824509639709400,8.80870947265625,0.22788989543914795,-0.03609302267432213,-0.40730997920036316
1667824509649717500,8.818717529296874,0.2989795207977295,-0.03562483936548233,-0.3281871974468231
1667824509659725600,8.8287255859375,0.3547312021255493,-0.03317473083734512,-0.2715393602848053
1667824509669732600,8.838732666015625,0.39502695202827454,-0.021881863474845886,-0.24403983354568481
1667824509679740700,8.84874072265625,0.4109790027141571,-0.002229332225397229,-0.23815211653709412
1667824509689747500,8.85874755859375,0.4131662845611572,0.014247645623981953,-0.23094746470451355
1667824509699755800,8.868755859375,0.41331514716148376,0.02767583541572094,-0.23106011748313904
1667824509709763600,8.878763671875,0.41312339901924133,0.05504327639937401,-0.2483467012643814
1667824509719770600,8.8887705078125,0.4199022054672241,0.08471089601516724,-0.2943277657032013
1667824509729778400,8.8987783203125,0.4278147220611572,0.10209600627422333,-0.3629648983478546
1667824509739786800,8.908786865234376,0.44516122341156006,0.10683643817901611,-0.439189612865448
1667824509749793500,8.91879345703125,0.4664159119129181,0.07118310034275055,-0.501280665397644
1667824509759801600,8.928801513671875,0.5002721548080444,0.029590116813778877,-0.52287757396698
1667824509769808600,8.93880859375,0.5365185737609863,-0.021328458562493324,-0.4913758635520935
1667824509779816700,8.948816650390626,0.5817877650260925,-0.09452251344919205,-0.4026065766811371
1667824509789824500,8.958824462890625,0.627636730670929,-0.17992396652698517,-0.25047484040260315
1667824509799831600,8.96883154296875,0.6670291423797607,-0.2662268877029419,-0.06544265896081924
1667824509809839400,8.97883935546875,0.6757755279541016,-0.3350980877876282,0.12023159861564636
1667824509819847700,8.98884765625,0.6430503129959106,-0.3588119447231293,0.2914736568927765
1667824509829851100,8.99885107421875,0.5624548196792603,-0.35245925188064575,0.4399278461933136
1667824509839859000,9.00885888671875,0.4324614107608795,-0.3197905123233795,0.5603283047676086
1667824509849866200,9.0188662109375,0.2855968475341797,-0.25871357321739197,0.6547296047210693
1667824509859874000,9.0288740234375,0.13553225994110107,-0.17065510153770447,0.7189818620681763
1667824509869882000,9.038882080078125,-0.022363096475601196,-0.07326728850603104,0.7504172921180725
1667824509879889000,9.048888916015626,-0.1843983381986618,0.029098231345415115,0.7414376139640808
1667824509889897200,9.058897216796876,-0.3557248115539551,0.13637888431549072,0.6986252069473267
1667824509899905000,9.068905029296875,-0.5195038914680481,0.2212037593126297,0.6141275763511658
1667824509909912000,9.078912109375,-0.6539503931999207,0.28568580746650696,0.48844558000564575
1667824509919919900,9.088919921875,-0.750765323638916,0.3471824526786804,0.3027827739715576
1667824509929928200,9.09892822265625,-0.7982809543609619,0.39502403140068054,0.0808948501944542
1667824509939935000,9.10893505859375,-0.8049889206886292,0.3907690942287445,-0.13425421714782715
1667824509949943000,9.118943115234375,-0.757630467414856,0.30976372957229614,-0.31453609466552734
1667824509959950000,9.1289501953125,-0.6669815182685852,0.16092337667942047,-0.4433063268661499
1667824509969958100,9.138958251953126,-0.5610643625259399,-0.043362654745578766,-0.48684102296829224
1667824509979966200,9.14896630859375,-0.46258866786956787,-0.24499057233333588,-0.4506084620952606
1667824509989973000,9.158972900390625,-0.3903205990791321,-0.3958621025085449,-0.34644344449043274
1667824509999981000,9.16898095703125,-0.34295281767845154,-0.47391802072525024,-0.1929667890071869
1667824510009988000,9.178988037109375,-0.3243245482444763,-0.4845448434352875,-0.002745985286310315
1667824510019996200,9.18899609375,-0.3249059021472931,-0.45764878392219543,0.20310385525226593
1667824510030004000,9.19900390625,-0.33394813537597656,-0.38303208351135254,0.3882838189601898
1667824510040011300,9.20901123046875,-0.3376792371273041,-0.25025245547294617,0.5400722622871399
1667824510050019000,9.21901904296875,-0.3202049136161804,-0.10683616995811462,0.6517684459686279
1667824510060027100,9.229027099609375,-0.28231266140937805,0.003742540255188942,0.7096229791641235
1667824510070034000,9.239033935546875,-0.23128248751163483,0.07419433444738388,0.7106006145477295
1667824510080042200,9.249042236328124,-0.18636322021484375,0.1033807173371315,0.6669524908065796
1667824510090050000,9.259050048828126,-0.16030551493167877,0.08988647907972336,0.5910286903381348
1667824510100057000,9.26905712890625,-0.15158019959926605,0.04794115945696831,0.482526957988739
1667824510110065000,9.27906494140625,-0.1519831418991089,-0.010571950115263462,0.3540550172328949
1667824510120072200,9.289072265625,-0.16209062933921814,-0.07182252407073975,0.2339392602443695
1667824510130080000,9.299080078125,-0.18233785033226013,-0.14708425104618073,0.1174350157380104
1667824510140088000,9.309088134765625,-0.20158185064792633,-0.215743750333786,0.013665745034813881
1667824510150095000,9.31909521484375,-0.21906444430351257,-0.2707955539226532,-0.053763628005981445
1667824510160103200,9.329103271484374,-0.22696736454963684,-0.3209702968597412,-0.10093087702989578
1667824510170111200,9.339111328125,-0.22026872634887695,-0.3421751856803894,-0.1289886087179184
1667824510180118000,9.349117919921875,-0.2150566428899765,-0.3341977000236511,-0.14114487171173096
1667824510190125800,9.359125732421875,-0.22477638721466064,-0.32485663890838623,-0.12929168343544006
1667824510200133000,9.369133056640624,-0.25339311361312866,-0.3304540812969208,-0.09991514682769775
1667824510210141000,9.379140869140626,-0.292663037776947,-0.31978678703308105,-0.05324191600084305
1667824510220149000,9.38914892578125,-0.35011112689971924,-0.2838628888130188,-0.012263856828212738
1667824510230156000,9.399156005859375,-0.4071826934814453,-0.2305075079202652,0.0008857673965394497
1667824510240164000,9.4091640625,-0.45512276887893677,-0.1920165717601776,-0.014814365655183792
1667824510250172200,9.419172119140624,-0.47393640875816345,-0.1826941817998886,-0.05723612383008003
1667824510260179000,9.429178955078125,-0.47125035524368286,-0.2091500163078308,-0.1012541800737381
1667824510270187300,9.439187255859375,-0.45474353432655334,-0.23616060614585876,-0.10529473423957825
1667824510280194000,9.449194091796874,-0.4115084409713745,-0.2819552421569824,-0.05654396861791611
1667824510290202000,9.4592021484375,-0.3486538529396057,-0.341124564409256,0.06803284585475922
1667824510300210000,9.4692099609375,-0.2722533643245697,-0.3659881055355072,0.2532508969306946
1667824510310217200,9.47921728515625,-0.21218016743659973,-0.3477473258972168,0.47823473811149597
1667824510320225000,9.48922509765625,-0.18466386198997498,-0.28963980078697205,0.7047325968742371
1667824510330233000,9.499233154296874,-0.1871834695339203,-0.22477132081985474,0.8815070986747742
1667824510340240100,9.509240234375,-0.1883765608072281,-0.1561882644891739,0.9705126285552979
1667824510350248200,9.519248291015625,-0.15957342088222504,-0.1090383380651474,0.9860058426856995
1667824510360255000,9.5292548828125,-0.0996357798576355,-0.09375818073749542,0.9500946998596191
1667824510370263000,9.539262939453126,-0.025351695716381073,-0.08518866449594498,0.8945600390434265
1667824510380270800,9.549270751953125,0.05987878143787384,-0.07809160649776459,0.8403692841529846
1667824510390278100,9.559278076171875,0.1518702208995819,-0.08049803972244263,0.8049428462982178
1667824510400286000,9.569285888671875,0.24016892910003662,-0.10745082795619965,0.7805125713348389
1667824510410294000,9.5792939453125,0.3160836696624756,-0.13442492485046387,0.7551582455635071
1667824510420301000,9.589301025390625,0.39677610993385315,-0.1601041853427887,0.744854211807251
1667824510430309000,9.59930908203125,0.4674452245235443,-0.18916618824005127,0.7450991868972778
1667824510440316000,9.60931591796875,0.5255436897277832,-0.2029872089624405,0.7439225912094116
1667824510450324000,9.619323974609374,0.5795730948448181,-0.21035350859165192,0.7386311888694763
1667824510460332000,9.62933203125,0.6158298850059509,-0.20250223577022552,0.7188859581947327
1667824510470339000,9.639339111328125,0.6347473859786987,-0.1874641627073288,0.6779457330703735
1667824510480347100,9.64934716796875,0.6395384073257446,-0.15333735942840576,0.5983068346977234
1667824510490355000,9.65935498046875,0.6354430317878723,-0.1029847040772438,0.4748125970363617
1667824510500362200,9.6693623046875,0.6277691125869751,-0.050567835569381714,0.3264361619949341
1667824510510370000,9.6793701171875,0.6148623824119568,-0.011389275081455708,0.16154788434505463
1667824510520377000,9.689377197265625,0.6057567596435547,0.02008849009871483,0.0005190501105971634
1667824510530385000,9.699385009765624,0.5849907398223877,0.03888321667909622,-0.13137106597423553
1667824510540393200,9.709393310546876,0.5527492165565491,0.029993584379553795,-0.24303901195526123
1667824510550400000,9.71939990234375,0.513530969619751,0.012051869183778763,-0.3397655487060547
1667824510560408000,9.729407958984375,0.46951210498809814,-0.006015548016875982,-0.43326860666275024
1667824510570415900,9.739415771484374,0.41452768445014954,-0.018257834017276764,-0.5084648132324219
1667824510580423200,9.749423095703126,0.35143527388572693,-0.0309858787804842,-0.554189145565033
1667824510590431000,9.759430908203125,0.2765144109725952,-0.04945223778486252,-0.5611552000045776
1667824510600438000,9.76943798828125,0.19456414878368378,-0.07071465253829956,-0.535647988319397
1667824510610446000,9.779446044921874,0.1216936782002449,-0.08562089502811432,-0.48428305983543396
1667824510620454100,9.7894541015625,0.06256511062383652,-0.08355668187141418,-0.415131151676178
1667824510630461000,9.7994609375,0.016577377915382385,-0.05717886611819267,-0.34463515877723694
1667824510640469000,9.809468994140625,-0.015335546806454659,-0.005599029827862978,-0.2754254639148712
1667824510650477000,9.81947705078125,-0.043648943305015564,0.05187784507870674,-0.2123788446187973
1667824510660484000,9.829484130859376,-0.061887603253126144,0.12377014756202698,-0.1683053821325302
1667824510670492200,9.8394921875,-0.08483446389436722,0.19701506197452545,-0.1429118812084198
1667824510680499200,9.849499267578125,-0.0996118113398552,0.26993852853775024,-0.13399721682071686
1667824510690507300,9.85950732421875,-0.11893171072006226,0.3336900770664215,-0.14654549956321716
1667824510700515000,9.86951513671875,-0.14085325598716736,0.38767343759536743,-0.17703469097614288
1667824510710522000,9.879522216796875,-0.15228301286697388,0.39793139696121216,-0.22148126363754272
1667824510720530000,9.889530029296875,-0.1622200608253479,0.3859325051307678,-0.26298555731773376
1667824510730538200,9.899538330078125,-0.16398628056049347,0.3448394238948822,-0.2965238094329834
1667824510740545000,9.909544921875,-0.1487513929605484,0.29634830355644226,-0.30872562527656555
1667824510750553000,9.919552978515625,-0.12599122524261475,0.27023229002952576,-0.2842428982257843
1667824510760560000,9.92956005859375,-0.11556174606084824,0.2806231379508972,-0.24453304708003998
1667824510770568200,9.939568115234374,-0.10623668879270554,0.31714385747909546,-0.20854468643665314
1667824510780576000,9.949575927734376,-0.09122578054666519,0.3641822040081024,-0.1899465024471283
1667824510790583000,9.9595830078125,-0.06160717085003853,0.41242432594299316,-0.19955864548683167
1667824510800591000,9.969591064453125,-0.01678164303302765,0.456786185503006,-0.2468915432691574
1667824510810599200,9.97959912109375,0.026378877460956573,0.4832681119441986,-0.32284435629844666
1667824510820606000,9.98960595703125,0.07961999624967575,0.4647333323955536,-0.41927769780158997
1667824510830614000,9.999614013671875,0.1246335431933403,0.4110546410083771,-0.5209766030311584
1667824510840621800,10.009621826171875,0.16875094175338745,0.32516929507255554,-0.6174520254135132
1667824510850629000,10.019629150390625,0.21485398709774017,0.21125338971614838,-0.6955729126930237
1667824510860637000,10.029636962890624,0.26459571719169617,0.09640110284090042,-0.7464824318885803
1667824510870644000,10.03964404296875,0.3013145625591278,0.013187707401812077,-0.7628933787345886
1667824510880652000,10.049652099609375,0.3100907504558563,-0.02821512706577778,-0.7203672528266907
1667824510890660000,10.05966015625,0.2920292019844055,-0.02664972096681595,-0.63210529088974
1667824510900667000,10.0696669921875,0.26076287031173706,0.02377323992550373,-0.52376788854599
1667824510910675000,10.079675048828125,0.24127253890037537,0.10913634300231934,-0.4158179759979248
1667824510920682000,10.089681884765625,0.2471296340227127,0.21347099542617798,-0.3442156910896301
1667824510930690000,10.09968994140625,0.25190865993499756,0.29794272780418396,-0.334623783826828
1667824510940698000,10.109697998046874,0.25248897075653076,0.3319944441318512,-0.38561639189720154
1667824510950705200,10.119705078125,0.24601402878761292,0.31808024644851685,-0.47681769728660583
1667824510960713200,10.129713134765625,0.2350253015756607,0.27859222888946533,-0.6146261692047119
1667824510970721000,10.139720947265625,0.20969970524311066,0.21309949457645416,-0.7725659608840942
1667824510980728000,10.14972802734375,0.18359699845314026,0.10750941187143326,-0.885327160358429
1667824510990736100,10.159736083984376,0.16236335039138794,-0.019230952486395836,-0.9261624813079834
1667824511000743200,10.1697431640625,0.14329244196414948,-0.1372137814760208,-0.898479700088501
1667824511010751000,10.1797509765625,0.12139566987752914,-0.22653593122959137,-0.8024178743362427
1667824511020759000,10.189759033203124,0.0825851559638977,-0.2806290090084076,-0.6356342434883118
1667824511030766000,10.19976611328125,0.02298547700047493,-0.284973680973053,-0.3990885317325592
1667824511040774100,10.209774169921875,-0.0703873485326767,-0.22784274816513062,-0.12794065475463867
1667824511050782000,10.219781982421875,-0.20436911284923553,-0.13962101936340332,0.13334020972251892
1667824511060789000,10.2297890625,-0.3585653305053711,-0.04298501834273338,0.35408005118370056
1667824511070797000,10.239797119140626,-0.5146905183792114,0.014160826802253723,0.5129298567771912
1667824511080804000,10.24980419921875,-0.6514701843261719,0.04868524894118309,0.6075546741485596
1667824511090812000,10.25981201171875,-0.7625394463539124,0.06563413888216019,0.639129638671875
1667824511100820000,10.269820068359374,-0.8291613459587097,0.055143680423498154,0.6188549995422363
1667824511110827000,10.279826904296876,-0.8570834994316101,0.05391010269522667,0.5743692517280579
1667824511120835000,10.2898349609375,-0.851997971534729,0.06675266474485397,0.5122382640838623
1667824511130843100,10.299843017578125,-0.8027113676071167,0.08364269882440567,0.4570687413215637
1667824511140850200,10.30985009765625,-0.7219483256340027,0.10799916833639145,0.41803959012031555
1667824511150858200,10.319858154296876,-0.6189039945602417,0.11433030664920807,0.3881429433822632
1667824511160865000,10.329864990234375,-0.49474820494651794,0.07168963551521301,0.380387544631958
1667824511170873000,10.339873046875,-0.3656221926212311,0.0019241338595747948,0.38779911398887634
1667824511180881000,10.349880859375,-0.25171586871147156,-0.06504610925912857,0.41455110907554626
1667824511190888200,10.35988818359375,-0.13288934528827667,-0.15461008250713348,0.4587806165218353
1667824511200896000,10.36989599609375,-0.024651816114783287,-0.2489488273859024,0.5335254669189453
1667824511210904000,10.379904052734375,0.04724687337875366,-0.3101522624492645,0.6196107864379883
1667824511220911000,10.3899111328125,0.08425069600343704,-0.3337577283382416,0.6996992230415344
1667824511230919200,10.399919189453126,0.0914955586194992,-0.32425984740257263,0.7688138484954834
1667824511240926000,10.409926025390625,0.08333643525838852,-0.2953472137451172,0.8041800856590271
1667824511250934000,10.41993408203125,0.06415821611881256,-0.2560085952281952,0.7920869588851929
1667824511260942000,10.429942138671874,0.042878758162260056,-0.20918837189674377,0.7310718297958374
1667824511270949000,10.43994921875,0.027347467839717865,-0.16783401370048523,0.6295281052589417
1667824511280957000,10.44995703125,0.011237740516662598,-0.14640700817108154,0.5120869874954224
1667824511290965000,10.459965087890625,-0.010996191762387753,-0.1414996087551117,0.3788732886314392
1667824511300972000,10.469971923828124,-0.0431530624628067,-0.20189131796360016,0.23762960731983185
1667824511310980000,10.47997998046875,-0.06474757194519043,-0.2929519712924957,0.10481536388397217
1667824511320987000,10.48998681640625,-0.07750730961561203,-0.4192928671836853,-0.001017061178572476
1667824511330995200,10.4999951171875,-0.11198539286851883,-0.5450851321220398,-0.06379389017820358
1667824511341003300,10.510003173828125,-0.16949822008609772,-0.6456916332244873,-0.06664107739925385
1667824511351010000,10.520010009765626,-0.24333995580673218,-0.7346998453140259,-0.033778734505176544
1667824511361017900,10.530017822265625,-0.3342136740684509,-0.7858508825302124,0.026989273726940155
1667824511371026000,10.54002587890625,-0.44084957242012024,-0.7944949865341187,0.09855054318904877
1667824511381033000,10.550032958984374,-0.5515212416648865,-0.8314796090126038,0.17887014150619507
1667824511391041000,10.560041015625,-0.6598559617996216,-0.9072979688644409,0.28358298540115356
1667824511401048000,10.570048095703125,-0.768474280834198,-1.0311636924743652,0.4156683087348938
1667824511411056000,10.58005615234375,-0.8783890604972839,-1.2600359916687012,0.5542730689048767
1667824511421064200,10.590064208984375,-0.9863070249557495,-1.5957865715026855,0.6879091262817383
1667824511431071000,10.600071044921876,-1.078998327255249,-1.9224846363067627,0.8140343427658081
1667824511441079000,10.6100791015625,-1.1917208433151245,-2.0506625175476074,0.9323543310165405
1667824511451087000,10.620087158203125,-1.3521398305892944,-1.917095422744751,1.018335223197937
1667824511461094100,10.63009423828125,-1.4833191633224487,-1.6245460510253906,1.0296963453292847
1667824511471102000,10.64010205078125,-1.5326592922210693,-1.3113317489624023,0.990155041217804
1667824511481109200,10.650109130859375,-1.5314611196517944,-1.0145176649093628,0.9380431175231934
1667824511491117000,10.660116943359375,-1.523202657699585,-0.8022381067276001,0.9006555080413818
1667824511501125000,10.670125,-1.4390082359313965,-0.6852452158927917,0.8961571455001831
1667824511511132000,10.6801318359375,-1.2553517818450928,-0.6109757423400879,0.9215035438537598
1667824511521140200,10.69014013671875,-1.0644819736480713,-0.6392273902893066,1.0008069276809692
1667824511531148000,10.70014794921875,-0.9103446006774902,-0.7011290788650513,1.1008639335632324
1667824511541155000,10.710155029296875,-0.7790329456329346,-0.6797833442687988,1.169258713722229
1667824511551163000,10.720162841796874,-0.6576724052429199,-0.6380590200424194,1.196141004562378
1667824511561170200,10.730170166015625,-0.5375036597251892,-0.6207897663116455,1.1517066955566406
1667824511571178000,10.740177978515625,-0.39935803413391113,-0.6102010607719421,1.0267348289489746
1667824511581186000,10.75018603515625,-0.25180426239967346,-0.5898723602294922,0.8341651558876038
1667824511591193000,10.760193115234374,-0.09981074929237366,-0.5551135540008545,0.6035314202308655
1667824511601201200,10.770201171875,0.034938011318445206,-0.4787708520889282,0.3739517629146576
1667824511611209200,10.780209228515625,0.13312450051307678,-0.3479726314544678,0.16417455673217773
1667824511621216000,10.790216064453125,0.20165109634399414,-0.1799180954694748,-0.024584172293543816
1667824511631224000,10.80022412109375,0.26010721921920776,0.015567507594823837,-0.21714483201503754
1667824511641231000,10.810231201171876,0.34356215596199036,0.1488264948129654,-0.39847519993782043
1667824511651239200,10.8202392578125,0.42659154534339905,0.17252862453460693,-0.5552075505256653
1667824511661247000,10.8302470703125,0.48526203632354736,0.12855663895606995,-0.6768897771835327
1667824511671254300,10.840254150390624,0.5191829800605774,0.0551798976957798,-0.7493477463722229
1667824511681262000,10.850261962890626,0.5166844129562378,-0.05043094977736473,-0.7574948668479919
1667824511691270100,10.860270263671875,0.4855206310749054,-0.15024755895137787,-0.7015072703361511
1667824511701277000,10.87027685546875,0.43353918194770813,-0.2268877476453781,-0.5948673486709595
1667824511711285000,10.880284912109374,0.36667919158935547,-0.2603476941585541,-0.4506489336490631
1667824511721292000,10.8902919921875,0.29515042901039124,-0.2559620141983032,-0.29277247190475464
1667824511731300000,10.900300048828125,0.23614010214805603,-0.21506915986537933,-0.1423044204711914
1667824511741308000,10.910307861328125,0.18420925736427307,-0.165815070271492,-0.014256966300308704
1667824511751315200,10.920315185546874,0.13611921668052673,-0.12948262691497803,0.08168554306030273
1667824511761323000,10.930322998046876,0.09204497188329697,-0.10562815517187119,0.15296104550361633
1667824511771331000,10.9403310546875,0.057669419795274734,-0.09207506477832794,0.2018020898103714
1667824511781337900,10.950337890625,0.03417687863111496,-0.10286352783441544,0.24724841117858887
1667824511791346200,10.96034619140625,0.011817777529358864,-0.10783671587705612,0.2857430577278137
1667824511801353000,10.97035302734375,-0.0014165353495627642,-0.11221149563789368,0.3086329400539398
1667824511811361000,10.980361083984375,-0.006344448775053024,-0.10651685297489166,0.34568655490875244
1667824511821369000,10.990369140625,-0.016575781628489494,-0.0781235620379448,0.3922750949859619
1667824511831376100,11.000376220703124,-0.023368172347545624,-0.03961052745580673,0.4437774419784546
1667824511841383700,11.0103837890625,-0.024756744503974915,-0.005081311333924532,0.47584083676338196
1667824511851391700,11.020391845703125,-0.0160018689930439,0.00896872766315937,0.46496662497520447
1667824511861398800,11.030398681640625,0.012958941981196404,-0.007784153334796429,0.41751548647880554
1667824511871406800,11.04040673828125,0.05095985159277916,-0.042447324842214584,0.34380289912223816
1667824511881413600,11.05041357421875,0.0961931124329567,-0.08726193755865097,0.26163533329963684
1667824511891421700,11.060421630859375,0.1604815572500229,-0.1227557435631752,0.1814667284488678
1667824511901429800,11.0704296875,0.2266424596309662,-0.14108654856681824,0.12174640595912933
1667824511911436800,11.080436767578124,0.28534066677093506,-0.14249323308467865,0.10326060652732849
1667824511921444600,11.090444580078126,0.32633310556411743,-0.13853204250335693,0.13796958327293396
1667824511931452700,11.10045263671875,0.3396768867969513,-0.11142958700656891,0.2240743786096573
1667824511941459700,11.110459716796875,0.3327648937702179,-0.06584186106920242,0.32825830578804016
1667824511951467800,11.1204677734375,0.3292742967605591,-0.031327296048402786,0.42159438133239746
1667824511961475600,11.1304755859375,0.3443105220794678,-0.01841922104358673,0.4814491868019104
1667824511971483000,11.14048291015625,0.36711037158966064,-0.0313723050057888,0.5109303593635559
1667824511981490700,11.15049072265625,0.3802773058414459,-0.05763799697160721,0.5024418234825134
1667824511991497700,11.160497802734374,0.38753974437713623,-0.08676019310951233,0.46475303173065186
1667824512001505500,11.170505615234376,0.393688440322876,-0.11024235188961029,0.4009639322757721
1667824512011513600,11.180513671875,0.3907885253429413,-0.13567660748958588,0.31298214197158813
1667824512021520600,11.190520751953125,0.37893614172935486,-0.17320187389850616,0.2198423445224762
1667824512031528700,11.20052880859375,0.38328853249549866,-0.21040622889995575,0.10377433151006699
1667824512041536500,11.21053662109375,0.37667644023895264,-0.23143962025642395,-0.03529806807637215
1667824512051543800,11.220543701171875,0.35932832956314087,-0.24950356781482697,-0.19134892523288727
1667824512061551600,11.230551513671875,0.346200555562973,-0.2652239501476288,-0.3681125044822693
1667824512071558700,11.24055859375,0.32628169655799866,-0.2354372888803482,-0.5209971070289612
1667824512081566500,11.25056640625,0.2898541986942291,-0.17803604900836945,-0.6281137466430664
1667824512091574800,11.26057470703125,0.2512311637401581,-0.0963134840130806,-0.6635305881500244
1667824512101581600,11.27058154296875,0.2259545624256134,-0.0031843415927141905,-0.6312472224235535
1667824512111589600,11.280589599609375,0.21731527149677277,0.048951029777526855,-0.5508303642272949
1667824512121597700,11.29059765625,0.21527422964572906,0.05928942188620567,-0.4427625238895416
1667824512131604700,11.300604736328125,0.21251972019672394,0.01847408153116703,-0.32823434472084045
1667824512141612800,11.31061279296875,0.21152636408805847,-0.05862336605787277,-0.21872355043888092
1667824512151619600,11.32061962890625,0.18231335282325745,-0.16175641119480133,-0.11688081175088882
1667824512161627600,11.330627685546874,0.10812833160161972,-0.29200416803359985,-0.028847893700003624
1667824512171635700,11.3406357421875,-0.013717942871153355,-0.4137670695781708,0.04884929955005646
1667824512181642800,11.350642822265625,-0.15710227191448212,-0.5058818459510803,0.11585762351751328
1667824512191650600,11.360650634765625,-0.3124907910823822,-0.550662100315094,0.17382799088954926
1667824512201658600,11.37065869140625,-0.466867595911026,-0.5649629831314087,0.2149389386177063
1667824512211665700,11.380665771484376,-0.6060758233070374,-0.5155991911888123,0.24218013882637024
1667824512221673700,11.390673828125,-0.7339972853660583,-0.41367626190185547,0.2573859989643097
1667824512231680500,11.400680419921875,-0.8438745141029358,-0.2681797742843628,0.25091585516929626
1667824512241688800,11.410688720703124,-0.9095656275749207,-0.08686672151088715,0.21278443932533264
1667824512251696600,11.420696533203126,-0.9050345420837402,0.1097472682595253,0.13440653681755066
1667824512261703700,11.43070361328125,-0.8334431648254395,0.2873436212539673,0.019449064508080482
1667824512271711500,11.44071142578125,-0.7202506065368652,0.4102197587490082,-0.0931701585650444
1667824512281719800,11.4507197265625,-0.6102484464645386,0.4308600425720215,-0.18564549088478088
1667824512291726600,11.4607265625,-0.5242565870285034,0.33710265159606934,-0.23926211893558502
1667824512301734700,11.470734619140625,-0.46605291962623596,0.18461644649505615,-0.25916871428489685
1667824512311741700,11.48074169921875,-0.4221280813217163,0.009522665292024612,-0.2407449632883072
1667824512321749800,11.490749755859374,-0.4010920226573944,-0.1450011283159256,-0.184291273355484
1667824512331757800,11.5007578125,-0.3991878628730774,-0.23823706805706024,-0.13055454194545746
1667824512341764600,11.5107646484375,-0.3816989064216614,-0.2801605463027954,-0.07652194052934647
1667824512351772700,11.520772705078125,-0.3467710018157959,-0.28820914030075073,-0.029084116220474243
1667824512361780700,11.53078076171875,-0.28678810596466064,-0.2619759440422058,-0.007280283607542515
1667824512371787800,11.540787841796876,-0.194301038980484,-0.21552243828773499,-0.001116130850277841
1667824512381795600,11.550795654296875,-0.0851828083395958,-0.16295216977596283,-0.005910619627684355
1667824512391803600,11.5608037109375,0.03243676945567131,-0.11679772287607193,-0.005717007908970118
1667824512401810700,11.570810791015624,0.14620354771614075,-0.07647506892681122,-0.004167846869677305
1667824512411818800,11.58081884765625,0.24866947531700134,-0.07860959321260452,-0.010209227912127972
1667824512421825500,11.590825439453125,0.3149685859680176,-0.07329605519771576,-0.015966182574629784
1667824512431833900,11.600833740234375,0.36812448501586914,-0.09706316888332367,-0.05053161829710007
1667824512441841700,11.610841552734374,0.4404676556587219,-0.11588026583194733,-0.11670078337192535
1667824512451848700,11.6208486328125,0.5337187647819519,-0.11933651566505432,-0.2342149019241333
1667824512461856500,11.6308564453125,0.6695517301559448,-0.06645944714546204,-0.4188763499259949
1667824512471863800,11.64086376953125,0.7634878158569336,-0.13135908544063568,-0.6672899127006531
1667824512481871600,11.65087158203125,0.5749072432518005,-0.4337274730205536,-0.8753306865692139
1667824512491879700,11.660879638671876,0.32529234886169434,-0.7179749011993408,-1.107999324798584
1667824512501886700,11.67088671875,0.35447898507118225,-0.8460285067558289,-1.3921504020690918
1667824512511894800,11.680894775390625,0.5350985527038574,-0.8599482774734497,-1.6474591493606567
1667824512521902800,11.69090283203125,0.7032039761543274,-0.9225780963897705,-1.8470803499221802
1667824512531909600,11.70090966796875,0.861051619052887,-1.0082991123199463,-2.0823240280151367
1667824512541917700,11.710917724609375,1.0050183534622192,-1.1303787231445312,-2.256237268447876
1667824512551924700,11.7209248046875,1.0084176063537598,-1.7715134620666504,-2.1729323863983154
1667824512561932800,11.730932861328125,0.8337952494621277,-2.6152615547180176,-2.0239715576171875
1667824512571940600,11.740940673828124,0.7471210956573486,-3.2866063117980957,-1.944008231163025
1667824512581948000,11.750947998046875,0.664531946182251,-3.3094470500946045,-1.8144694566726685
1667824512591955700,11.760955810546875,0.9273030757904053,-3.7844486236572266,-1.3828871250152588
1667824512601963800,11.7709638671875,1.452056646347046,-3.8379626274108887,-0.5723567008972168
1667824512611970600,11.780970458984376,1.7279657125473022,-3.0126519203186035,0.2057049572467804
1667824512621979000,11.790978759765625,1.8355603218078613,-2.1858460903167725,1.0445530414581299
1667824512631985700,11.800985595703125,1.8472065925598145,-1.7531934976577759,1.9962104558944702
1667824512641993700,11.81099365234375,1.432173490524292,-1.4066736698150635,2.6373815536499023
1667824512652001500,11.82100146484375,0.5632279515266418,0.5682011246681213,2.1538844108581543
1667824512662008800,11.8310087890625,-0.2628001868724823,1.200050711631775,1.6034988164901733
1667824512672016600,11.8410166015625,-0.43193596601486206,0.5985819101333618,1.3925464153289795
1667824512682024700,11.851024658203125,-0.2578459084033966,0.08718150854110718,1.1678416728973389
1667824512692031700,11.86103173828125,-0.27756690979003906,-0.11963505297899246,0.8929603099822998
1667824512702039800,11.871039794921876,-0.3137102425098419,-0.12930312752723694,0.5079417824745178
1667824512712047600,11.881047607421875,-0.15736645460128784,0.04201829060912132,0.026874225586652756
1667824512722054700,11.8910546875,0.01708444394171238,0.08096648752689362,-0.3968227207660675
1667824512732062500,11.9010625,0.22891786694526672,0.11295824497938156,-0.7976002097129822
1667824512742069800,11.91106982421875,0.4053184688091278,0.09984403848648071,-1.1011446714401245
1667824512752077600,11.92107763671875,0.4859296977519989,-0.4115681052207947,-1.3868943452835083
1667824512762085600,11.931085693359375,0.5497779250144958,-0.5367281436920166,-1.8189033269882202
1667824512772092700,11.9410927734375,0.6212882995605469,0.3942122757434845,-2.2810308933258057
1667824512782100700,11.951100830078126,0.6389825940132141,1.0711792707443237,-2.4283804893493652
1667824512792108800,11.96110888671875,0.6437299847602844,1.1389000415802002,-2.264692783355713
1667824512802115600,11.971115478515625,0.5251631140708923,0.8891897797584534,-1.90409255027771
1667824512812123600,11.98112353515625,0.36551833152770996,0.3554409146308899,-1.385483980178833
1667824512822130700,11.991130615234376,0.28102049231529236,-0.3529157042503357,-0.766599714756012
1667824512832138800,12.001138671875,0.24135403335094452,-0.7378383874893188,-0.17047134041786194
1667824512842146800,12.011146728515625,0.29985541105270386,-0.6511855125427246,0.3096742331981659
1667824512852153900,12.02115380859375,0.5056711435317993,-0.3103104531764984,0.6437965631484985
1667824512862162000,12.031161865234376,0.6934019327163696,0.07254637032747269,0.85731440782547
1667824512872169700,12.041169677734375,0.7017695903778076,0.346722275018692,0.9313526749610901
1667824512882176800,12.0511767578125,0.48815956711769104,0.7350545525550842,0.8033958077430725
1667824512892184800,12.061184814453124,0.1933460235595703,1.3870179653167725,0.4968861937522888
1667824512902193000,12.07119287109375,-0.0028453213162720203,1.8377206325531006,0.2190018594264984
1667824512912199700,12.08119970703125,-0.08448398858308792,2.031951427459717,0.08416680991649628
1667824512922207700,12.091207763671875,-0.10106456279754639,2.0387656688690186,0.07819706946611404
1667824512932214800,12.10121484375,-0.08800549060106277,1.8378642797470093,0.13083603978157043
1667824512942222800,12.111222900390626,0.005797701422125101,1.5213699340820312,0.16911259293556213
1667824512952231000,12.12123095703125,0.17654894292354584,1.1406621932983398,0.17663069069385529
1667824512962238000,12.131238037109375,0.39607304334640503,0.7395683526992798,0.18363401293754578
1667824512972245800,12.141245849609374,0.6565997004508972,0.33718469738960266,0.19243521988391876
1667824512982253800,12.15125390625,0.9972856640815735,0.046425554901361465,0.17701579630374908
1667824512992260600,12.161260498046875,1.3409098386764526,-0.06309561431407928,0.18964795768260956
1667824513002268700,12.1712685546875,1.4493141174316406,-0.20757663249969482,0.30574288964271545
1667824513012277000,12.181277099609375,1.2863882780075073,-0.42631375789642334,0.4836718738079071
1667824513022283800,12.19128369140625,0.9885664582252502,-0.6105733513832092,0.6009622812271118
1667824513032291800,12.201291748046875,0.7022300362586975,-0.6672129034996033,0.5891681909561157
1667824513042299000,12.211298828125,0.4837762713432312,-0.6644608378410339,0.5074198246002197
1667824513052307000,12.221306884765625,0.3385295867919922,-0.7499322891235352,0.45022523403167725
1667824513062314800,12.231314697265624,0.2542778253555298,-0.9148309826850891,0.436797559261322
1667824513072321800,12.24132177734375,0.23760457336902618,-1.0412837266921997,0.4320422112941742
1667824513082329900,12.251329833984375,0.2767764627933502,-0.9859768152236938,0.40447744727134705
1667824513092338000,12.261337890625,0.3748362064361572,-0.7374138832092285,0.3345681428909302
1667824513102344700,12.2713447265625,0.5479152798652649,-0.389386385679245,0.2334340512752533
1667824513112352800,12.281352783203126,0.791551411151886,-0.03009878098964691,0.12516990303993225
1667824513122359800,12.29135986328125,1.0737096071243286,0.2953120768070221,0.062251921743154526
1667824513132368000,12.301367919921875,1.3257458209991455,0.5385431051254272,0.08080669492483139
1667824513142375700,12.311375732421874,1.5215318202972412,0.700169563293457,0.1770370900630951
1667824513152383000,12.321383056640625,1.6559876203536987,0.7740858197212219,0.34582316875457764
1667824513162390800,12.331390869140625,1.728801965713501,0.7451343536376953,0.5532666444778442
1667824513172398800,12.34139892578125,1.7461588382720947,0.6693836450576782,0.7711614370346069
1667824513182405600,12.351405517578126,1.7109736204147339,0.5932252407073975,0.945846438407898
1667824513192413700,12.36141357421875,1.6509294509887695,0.5574169158935547,1.0542218685150146
1667824513202420700,12.371420654296875,1.5991661548614502,0.5791416764259338,1.0784755945205688
1667824513212428800,12.3814287109375,1.5943412780761719,0.6760280132293701,1.0216509103775024
1667824513222436900,12.391436767578124,1.6349146366119385,0.862846851348877,0.8711255788803101
1667824513232444000,12.40144384765625,1.7124043703079224,1.1190879344940186,0.6589824557304382
1667824513242452000,12.411451904296875,1.7896291017532349,1.3640631437301636,0.40698400139808655
