time,seconds_elapsed,z,y,x
1667266112661371000,0.106370849609375,0,0,0
1667266112666166500,0.11116650390625,-0.14299964904785156,0.044437289237976074,0.04168921709060669
1667266112670962200,0.115962158203125,-0.28496360778808594,0.10450118780136108,0.07672172784805298
1667266112675757800,0.1207578125,-0.40340614318847656,0.17718350887298584,0.12679743766784668
1667266112680553200,0.12555322265625,-0.4930849075317383,0.2488330900669098,0.16937601566314697
1667266112685348900,0.130348876953125,-0.5680389404296875,0.33699965476989746,0.21985459327697754
1667266112690144500,0.13514453125,-0.6194257736206055,0.3865748941898346,0.2941216230392456
1667266112694940200,0.139940185546875,-0.6843032836914062,0.41333436965942383,0.38637852668762207
1667266112699735800,0.14473583984375,-0.7632074356079102,0.4335039258003235,0.4408954381942749
1667266112704531200,0.14953125,-0.8500118255615234,0.41765865683555603,0.5068197250366211
1667266112709326800,0.154326904296875,-0.927515983581543,0.38706663250923157,0.5538064241409302
1667266112714122500,0.15912255859375,-0.9324750900268555,0.3162517249584198,0.5375229120254517
1667266112718918100,0.163918212890625,-0.8349123001098633,0.26715144515037537,0.49115991592407227
1667266112723713500,0.168713623046875,-0.6799755096435547,0.18578943610191345,0.41677403450012207
1667266112728509200,0.17350927734375,-0.4725971221923828,0.13436539471149445,0.37914419174194336
1667266112733304800,0.178304931640625,-0.23066043853759766,0.06182553619146347,0.328769326210022
1667266112738100500,0.1831005859375,0.019916534423828125,-0.0077631548047065735,0.2687797546386719
1667266112742896000,0.187896240234375,0.27808475494384766,-0.04483882337808609,0.2101365327835083
1667266112747691500,0.19269140625,0.4893035888671875,-0.08663901686668396,0.14967429637908936
1667266112752487200,0.197487060546875,0.6489057540893555,-0.11831536889076233,0.1571028232574463
1667266112757282800,0.20228271484375,0.7530479431152344,-0.16556094586849213,0.1784672737121582
1667266112762078500,0.207078369140625,0.7771291732788086,-0.19471779465675354,0.18810796737670898
1667266112766873900,0.211873779296875,0.7497749328613281,-0.2181844711303711,0.20133841037750244
1667266112771669500,0.21666943359375,0.6969995498657227,-0.2144702672958374,0.2236253023147583
1667266112776465200,0.221465087890625,0.6310720443725586,-0.20315170288085938,0.2244405746459961
1667266112781260800,0.2262607421875,0.5694808959960938,-0.16840912401676178,0.2032872438430786
1667266112786056200,0.23105615234375,0.5371599197387695,-0.09955505281686783,0.17589688301086426
1667266112790851800,0.235851806640625,0.5514287948608398,-0.003355959430336952,0.16409969329833984
1667266112795647500,0.2406474609375,0.5552539825439453,0.08804553002119064,0.17274248600006104
1667266112800443100,0.245443115234375,0.5513839721679688,0.11836181581020355,0.16926586627960205
1667266112805238800,0.25023876953125,0.5377922058105469,0.15315519273281097,0.1686246395111084
1667266112810034200,0.2550341796875,0.5599737167358398,0.1934695988893509,0.1415407657623291
1667266112814829800,0.259829833984375,0.4845457077026367,0.15332482755184174,0.13973355293273926
1667266112819625500,0.26462548828125,0.38158226013183594,0.10942649096250534,0.1253199577331543
1667266112824421000,0.269421142578125,0.23887062072753906,0.07232846319675446,0.07772040367126465
1667266112829216500,0.274216552734375,0.08868694305419922,0.055967263877391815,-0.04994916915893555
1667266112834012200,0.27901220703125,-0.08522796630859375,0.06107350438833237,-0.17465901374816895
1667266112838807800,0.283807861328125,-0.2579164505004883,0.02564237266778946,-0.29497385025024414
1667266112843603500,0.288603515625,-0.3817462921142578,-0.008241210132837296,-0.40808939933776855
1667266112848398800,0.29339892578125,-0.475555419921875,-0.034473951905965805,-0.47260403633117676
1667266112853194500,0.298194580078125,-0.4654359817504883,-0.0718289315700531,-0.5108174085617065
1667266112857990100,0.302990234375,-0.38774681091308594,-0.09774267673492432,-0.5045912265777588
1667266112862785800,0.307785888671875,-0.19958209991455078,-0.05875539034605026,-0.48737573623657227
1667266112867581400,0.31258154296875,0.06400585174560547,0.007136490195989609,-0.3845299482345581
1667266112872376800,0.317376953125,0.36415672302246094,0.08839650452136993,-0.2820572853088379
1667266112877172500,0.32217236328125,0.65582275390625,0.15029272437095642,-0.19831013679504395
1667266112881968000,0.326968017578125,0.8727073669433594,0.1857318878173828,-0.2149965763092041
1667266112886763800,0.331763671875,1.014286994934082,0.23445825278759003,-0.2824321985244751
1667266112891559200,0.33655908203125,1.0951728820800781,0.26642435789108276,-0.4410659074783325
1667266112896354800,0.341354736328125,1.1729326248168945,0.2745743989944458,-0.6246649026870728
1667266112901150500,0.346150390625,1.3156824111938477,0.2697979211807251,-0.7926494479179382
1667266112905946000,0.350946044921875,1.5351238250732422,0.2991768717765808,-0.9216603636741638
1667266112910741800,0.35574169921875,1.7629928588867188,0.368965744972229,-0.979515552520752
1667266112915537200,0.360537109375,1.960524559020996,0.4374054968357086,-1.0028858184814453
1667266112920332800,0.365332763671875,2.0227432250976562,0.5094172954559326,-0.9954551458358765
1667266112925128400,0.37012841796875,1.8758907318115234,0.5500445365905762,-0.9413301944732666
1667266112929924000,0.374924072265625,1.6425390243530273,0.5893425941467285,-0.8377752900123596
1667266112934719500,0.379719482421875,1.432520866394043,0.6817819476127625,-0.7092320919036865
1667266112939515100,0.38451513671875,1.2090559005737305,0.7857404947280884,-0.5593318939208984
1667266112944310800,0.389310791015625,0.9723548889160156,0.9791373014450073,-0.4497576951980591
1667266112949106400,0.3941064453125,0.8296432495117188,1.2671966552734375,-0.36512184143066406
1667266112953902000,0.398902099609375,0.6955080032348633,1.6222630739212036,-0.45188188552856445
1667266112958697500,0.403697509765625,0.7518281936645508,1.9887375831604004,-0.5360718965530396
1667266112963493000,0.4084931640625,0.9750070571899414,2.42505145072937,-0.489925742149353
1667266112968288800,0.413288818359375,1.3138608932495117,2.976757764816284,-0.22068405151367188
1667266112973084400,0.41808447265625,1.582921028137207,3.409379720687866,0.09225583076477051
1667266112977879800,0.4228798828125,1.6336774826049805,3.6603164672851562,0.31211352348327637
1667266112982675500,0.427675537109375,1.5376920700073242,3.776423454284668,0.44152092933654785
1667266112987471000,0.43247119140625,1.502070426940918,3.9288434982299805,0.5225825309753418
1667266112992266800,0.437266845703125,1.5279006958007812,4.130624294281006,0.6326494216918945
1667266112997062400,0.4420625,1.5902280807495117,4.3654937744140625,0.6286728382110596
1667266113001857800,0.44685791015625,1.5747785568237305,4.486526966094971,0.5592706203460693
1667266113006653400,0.4516533203125,1.593118667602539,4.563251972198486,0.5302999019622803
1667266113011449000,0.456448974609375,1.7376070022583008,4.643895149230957,0.5790424346923828
1667266113016244700,0.46124462890625,2.0170392990112305,4.654805660247803,0.6577703952789307
1667266113021040000,0.4660400390625,2.450005531311035,4.605309009552002,0.7868340015411377
1667266113025835800,0.470835693359375,3.109553337097168,4.505925178527832,0.9255630970001221
1667266113030631400,0.47563134765625,3.9142980575561523,4.423267841339111,1.0494170188903809
1667266113035427000,0.480427001953125,4.75672721862793,4.348132133483887,1.2313807010650635
1667266113040222500,0.485222412109375,5.726153373718262,4.228981018066406,1.8740546703338623
1667266113045018000,0.49001806640625,6.428434371948242,4.314601421356201,2.0982799530029297
1667266113049813800,0.494813720703125,7.136991500854492,4.465513229370117,1.964116096496582
1667266113054609400,0.499609375,7.751626014709473,4.646137237548828,1.654252290725708
1667266113059405000,0.504405029296875,8.188981056213379,4.758039474487305,1.2489795684814453
1667266113064200400,0.509200439453125,8.444453239440918,4.712925910949707,0.9419434070587158
1667266113068996000,0.51399609375,8.434212684631348,4.629390239715576,0.8766155242919922
1667266113073791700,0.518791748046875,8.224623680114746,4.210425853729248,0.7526559829711914
1667266113078587400,0.52358740234375,7.905701637268066,3.6763882637023926,0.6152184009552002
1667266113083382800,0.5283828125,7.6048784255981445,3.237279176712036,0.4519529342651367
1667266113088178400,0.533178466796875,7.380547523498535,2.948312282562256,0.3448817729949951
1667266113092974000,0.53797412109375,7.137235641479492,2.7217962741851807,0.16672849655151367
1667266113097769700,0.542769775390625,6.737493515014648,2.4770450592041016,-0.18712306022644043
1667266113102565000,0.547565185546875,6.20902156829834,2.219325065612793,-0.6109936237335205
1667266113107360800,0.55236083984375,5.718798637390137,1.9226711988449097,-1.0805201530456543
1667266113112156400,0.557156494140625,5.304755210876465,1.6361348628997803,-1.4793014526367188
1667266113116952000,0.5619521484375,4.993371963500977,1.4035537242889404,-1.7672420740127563
1667266113121747700,0.566747802734375,4.78111457824707,1.2479963302612305,-1.9532631635665894
1667266113126543000,0.571543212890625,4.608807563781738,1.1322352886199951,-2.072270631790161
1667266113131338800,0.5763388671875,4.378772735595703,1.0550568103790283,-2.086399555206299
1667266113136134400,0.581134521484375,4.038032531738281,0.9552011489868164,-1.983955979347229
1667266113140930000,0.585929931640625,3.669057846069336,0.8754303455352783,-1.8311582803726196
1667266113145725400,0.590725341796875,3.232513427734375,0.7743897438049316,-1.6831218004226685
1667266113150521000,0.59552099609375,2.765064239501953,0.6041824817657471,-1.6186846494674683
1667266113155316700,0.600316650390625,2.3267011642456055,0.3942553997039795,-1.6828734874725342
1667266113160112400,0.6051123046875,1.998194694519043,0.14736413955688477,-1.7744075059890747
1667266113164908000,0.609907958984375,1.7351722717285156,-0.07109618186950684,-1.9500795602798462
1667266113169703400,0.614703369140625,1.5068140029907227,-0.35056209564208984,-2.1244242191314697
1667266113174499000,0.6194990234375,1.319549560546875,-0.6059396266937256,-2.2793495655059814
1667266113179294700,0.624294677734375,1.2095842361450195,-0.8387057781219482,-2.400712251663208
1667266113184090400,0.62909033203125,1.2366132736206055,-1.0708458423614502,-2.4670705795288086
1667266113188885800,0.6338857421875,1.3090314865112305,-1.2682719230651855,-2.5028159618377686
1667266113193681400,0.638681396484375,1.409794807434082,-1.5102720260620117,-2.464582681655884
1667266113198477000,0.64347705078125,1.4790735244750977,-1.8035988807678223,-2.424347162246704
1667266113203272700,0.648272705078125,1.4504175186157227,-2.1630916595458984,-2.428722858428955
1667266113208068000,0.653068115234375,1.3576116561889648,-2.5391359329223633,-2.485264301300049
1667266113212863700,0.65786376953125,1.2164230346679688,-2.8945155143737793,-2.595754623413086
1667266113217659400,0.662659423828125,1.0427751541137695,-3.2294270992279053,-2.7486486434936523
1667266113222455000,0.667455078125,0.8693513870239258,-3.4589555263519287,-2.9249587059020996
1667266113227250700,0.672250732421875,0.7194786071777344,-3.584918737411499,-3.0831644535064697
1667266113232046000,0.677046142578125,0.6462020874023438,-3.614222526550293,-3.260976791381836
1667266113236841700,0.681841796875,0.674835205078125,-3.5110762119293213,-3.4730381965637207
1667266113241637400,0.686637451171875,0.7510871887207031,-3.3425745964050293,-3.7035837173461914
1667266113246433000,0.69143310546875,0.8397331237792969,-3.213819980621338,-3.9098966121673584
1667266113251228400,0.696228515625,0.8356304168701172,-3.196730136871338,-4.062335014343262
1667266113256024000,0.701024169921875,0.7196636199951172,-3.3192226886749268,-4.194302558898926
1667266113260819700,0.70581982421875,0.47019481658935547,-3.5515360832214355,-4.263537406921387
1667266113265615400,0.710615478515625,0.11522579193115234,-3.8527169227600098,-4.252711296081543
1667266113270411000,0.715410888671875,-0.3342113494873047,-4.210399627685547,-4.145966529846191
1667266113275206400,0.720206298828125,-0.8578834533691406,-4.610889434814453,-4.009032249450684
1667266113280002000,0.725001953125,-1.4181127548217773,-4.98330020904541,-3.8440160751342773
1667266113284797700,0.729797607421875,-1.9927396774291992,-5.267121315002441,-3.688066005706787
1667266113289593300,0.73459326171875,-2.4291067123413086,-5.510584831237793,-3.6070923805236816
1667266113294388700,0.739388671875,-2.718343734741211,-5.678493976593018,-3.5706639289855957
1667266113299184400,0.744184326171875,-2.9335384368896484,-5.83713436126709,-3.4213171005249023
1667266113303980000,0.74897998046875,-3.041297435760498,-5.945763111114502,-3.2213635444641113
1667266113308775700,0.753775634765625,-3.0392465591430664,-5.960471153259277,-3.4597530364990234
1667266113313571300,0.7585712890625,-3.123396396636963,-5.956421852111816,-3.615154266357422
1667266113318366700,0.76336669921875,-3.2447457313537598,-5.971190452575684,-3.776724338531494
1667266113323162400,0.768162353515625,-3.327284336090088,-6.018436908721924,-4.004183292388916
1667266113327958000,0.7729580078125,-3.372663974761963,-6.07152795791626,-4.166658401489258
1667266113332753700,0.777753662109375,-3.352707862854004,-6.202931880950928,-4.177718162536621
1667266113337549000,0.782549072265625,-3.288041591644287,-6.315974235534668,-4.028837203979492
1667266113342344700,0.7873447265625,-3.192084789276123,-6.425141334533691,-3.7777254581451416
1667266113347140400,0.792140380859375,-3.0303831100463867,-6.467945575714111,-3.4826855659484863
1667266113351936000,0.79693603515625,-2.728215217590332,-6.472784996032715,-3.2277393341064453
1667266113356731600,0.801731689453125,-2.305178642272949,-6.36937141418457,-2.990443706512451
1667266113361527000,0.806527099609375,-1.648688793182373,-6.235652923583984,-2.7550454139709473
1667266113366322700,0.81132275390625,-0.7598686218261719,-6.107635021209717,-2.5280568599700928
1667266113371118300,0.816118408203125,0.264862060546875,-6.067530632019043,-2.309298038482666
1667266113375914000,0.8209140625,1.3201894760131836,-6.043611526489258,-2.145197868347168
1667266113380709400,0.82570947265625,2.2908334732055664,-6.110790252685547,-2.0658655166625977
1667266113385505000,0.830505126953125,3.157271385192871,-6.2835588455200195,-2.113891124725342
1667266113390300700,0.83530078125,3.8278961181640625,-6.487249374389648,-2.2921063899993896
1667266113395096300,0.840096435546875,4.277135848999023,-6.679291725158691,-2.5592751502990723
1667266113399892000,0.84489208984375,4.510448455810547,-6.824288368225098,-2.9364914894104004
1667266113404687400,0.849687255859375,4.577286720275879,-6.909390449523926,-3.339418888092041
1667266113409483000,0.85448291015625,4.432761192321777,-6.984860420227051,-3.7018094062805176
1667266113414278700,0.859278564453125,4.200957298278809,-7.038599967956543,-3.9764842987060547
1667266113419074300,0.86407421875,3.8851518630981445,-7.121844291687012,-4.147348403930664
1667266113423869700,0.86886962890625,3.513199806213379,-7.205471038818359,-4.256117820739746
1667266113428665300,0.873665283203125,3.064971923828125,-7.257930755615234,-4.284510612487793
1667266113433461000,0.8784609375,2.5095224380493164,-7.257033824920654,-4.242860794067383
1667266113438256600,0.883256591796875,1.8979244232177734,-7.226992130279541,-4.08148193359375
1667266113443052000,0.888052001953125,1.2937355041503906,-7.157073974609375,-3.864943504333496
1667266113447847700,0.89284765625,0.7707118988037109,-7.035682678222656,-3.6423864364624023
1667266113452643300,0.897643310546875,0.2785501480102539,-6.883602619171143,-3.428267240524292
1667266113457439000,0.90243896484375,-0.1945056915283203,-6.7347211837768555,-3.2432210445404053
1667266113462234600,0.907234619140625,-0.7418804168701172,-6.588347911834717,-3.0669896602630615
1667266113467030000,0.912030029296875,-1.3147315979003906,-6.481690883636475,-2.8657989501953125
1667266113471825700,0.91682568359375,-1.7713909149169922,-6.426053524017334,-2.6416542530059814
1667266113476621300,0.921621337890625,-2.068371295928955,-6.442718029022217,-2.3152108192443848
1667266113481417000,0.9264169921875,-2.207512378692627,-6.5245561599731445,-1.9716253280639648
1667266113486212400,0.93121240234375,-2.222611904144287,-6.5874786376953125,-1.59889554977417
1667266113491008000,0.936008056640625,-2.1569204330444336,-6.675303936004639,-1.1702849864959717
1667266113495803600,0.9408037109375,-2.04251766204834,-6.705654621124268,-0.6974453926086426
1667266113500599300,0.945599365234375,-1.888829231262207,-6.6691107749938965,-0.26679253578186035
1667266113505394700,0.950394775390625,-1.747929573059082,-6.552967071533203,0.1750190258026123
1667266113510190300,0.9551904296875,-1.6922087669372559,-6.442968845367432,0.603839635848999
1667266113514986000,0.959986083984375,-1.7605080604553223,-6.316936492919922,0.9836304187774658
1667266113519781600,0.96478173828125,-1.9426946640014648,-6.185930252075195,1.2461156845092773
1667266113524577300,0.969577392578125,-2.2085838317871094,-6.017726898193359,1.396888256072998
1667266113529372700,0.97437255859375,-2.5113725662231445,-5.8158860206604,1.4315273761749268
1667266113534168300,0.979168212890625,-2.864199638366699,-5.662182807922363,1.4002587795257568
1667266113538964000,0.9839638671875,-3.2491865158081055,-5.499791622161865,1.2624804973602295
1667266113543759600,0.988759521484375,-3.6438217163085938,-5.355374813079834,1.025285005569458
1667266113548555300,0.99355517578125,-3.973172187805176,-5.217497825622559,0.7253637313842773
1667266113553350700,0.9983505859375,-4.149682998657227,-5.046242713928223,0.42564916610717773
1667266113558146300,1.003146240234375,-4.169704914093018,-4.867763042449951,0.17407512664794922
1667266113562942000,1.00794189453125,-4.052176475524902,-4.6345601081848145,0.017538070678710938
1667266113567737600,1.012737548828125,-3.865939140319824,-4.403111457824707,-0.012561798095703125
1667266113572533000,1.017532958984375,-3.710158348083496,-4.238154411315918,0.05286717414855957
1667266113577328600,1.02232861328125,-3.631115436553955,-4.137105941772461,0.19461822509765625
1667266113582124300,1.027124267578125,-3.5898895263671875,-4.090513706207275,0.3501875400543213
1667266113586920000,1.031919921875,-3.588481903076172,-4.0837836265563965,0.563260555267334
1667266113591715600,1.036715576171875,-3.602412700653076,-4.062191009521484,0.8199412822723389
1667266113596511000,1.041510986328125,-3.661057472229004,-4.070023536682129,1.0767745971679688
1667266113601306600,1.046306640625,-3.7887063026428223,-4.105981826782227,1.274430274963379
1667266113606102300,1.051102294921875,-4.038198471069336,-4.16496467590332,1.3744134902954102
1667266113610898000,1.05589794921875,-4.978196144104004,-4.304134368896484,1.484968900680542
1667266113615693300,1.060693359375,-4.990440368652344,-4.221132278442383,1.2346832752227783
1667266113620489000,1.065489013671875,-4.747930526733398,-4.011221885681152,0.9940066337585449
1667266113625284600,1.07028466796875,-4.722435474395752,-3.806126832962036,0.8501300811767578
1667266113630080300,1.075080322265625,-4.5316667556762695,-3.592182159423828,0.6976017951965332
1667266113634876000,1.0798759765625,-4.237195014953613,-3.436357021331787,0.5584595203399658
1667266113639671300,1.08467138671875,-4.002311706542969,-3.2699391841888428,0.492401123046875
1667266113644467000,1.089467041015625,-3.6535067558288574,-3.049424648284912,0.39159226417541504
1667266113649262600,1.0942626953125,-3.384997844696045,-2.887451171875,0.3009181022644043
1667266113654058200,1.099058349609375,-3.1302947998046875,-2.798386573791504,0.20154976844787598
1667266113658854000,1.10385400390625,-2.923337459564209,-2.834397315979004,0.07790446281433105
1667266113663649300,1.108649169921875,-2.7743520736694336,-2.9923653602600098,-0.023319482803344727
1667266113668445000,1.11344482421875,-2.582942008972168,-3.1964685916900635,-0.09923624992370605
1667266113673240600,1.118240478515625,-2.388813018798828,-3.359156370162964,-0.21211981773376465
1667266113678036200,1.1230361328125,-2.189906120300293,-3.441007137298584,-0.35196352005004883
1667266113682831600,1.12783154296875,-1.876784324645996,-3.4721055030822754,-0.4957540035247803
1667266113687627300,1.132627197265625,-1.5729684829711914,-3.4702343940734863,-0.5229110717773438
1667266113692423000,1.1374228515625,-1.2452082633972168,-3.4975337982177734,-0.4048430919647217
1667266113697218600,1.142218505859375,-0.8664932250976562,-3.4741592407226562,-0.1601276397705078
1667266113702014000,1.147013916015625,-0.40035343170166016,-3.45452618598938,0.20299911499023438
1667266113706809600,1.1518095703125,-0.011540412902832031,-3.3389766216278076,0.5774407386779785
1667266113711605200,1.156605224609375,0.2514657974243164,-3.2702414989471436,0.9605510234832764
1667266113716401000,1.16140087890625,0.41430187225341797,-3.2329366207122803,1.2551848888397217
1667266113721196500,1.166196533203125,0.4620532989501953,-3.2141501903533936,1.476402759552002
1667266113725992000,1.170991943359375,0.3799591064453125,-3.2521347999572754,1.6219394207000732
1667266113730787600,1.17578759765625,0.17244338989257812,-3.265644073486328,1.635349988937378
1667266113735583200,1.180583251953125,-0.14165401458740234,-3.260796070098877,1.565920352935791
1667266113740379000,1.18537890625,-0.5328788757324219,-3.2959861755371094,1.4206714630126953
1667266113745174300,1.19017431640625,-0.9884872436523438,-3.3360819816589355,1.2625679969787598
1667266113749970000,1.194969970703125,-1.5784177780151367,-3.388470411300659,1.0686933994293213
1667266113754765600,1.199765625,-2.0918736457824707,-3.4219841957092285,0.7745299339294434
1667266113759561200,1.204561279296875,-2.3346939086914062,-3.377197504043579,0.46015214920043945
1667266113764356900,1.20935693359375,-2.300518035888672,-3.2181453704833984,0.2678873538970947
1667266113769152300,1.21415234375,-2.069397449493408,-2.9480717182159424,0.2461632490158081
1667266113773948000,1.218947998046875,-1.708055019378662,-2.6143128871917725,0.3724879026412964
1667266113778743600,1.22374365234375,-1.3293848037719727,-2.286716938018799,0.6139005422592163
1667266113783539200,1.228539306640625,-0.9693422317504883,-2.0312044620513916,0.9177236557006836
1667266113788334800,1.2333349609375,-0.6148056983947754,-1.8099141120910645,1.2805657386779785
1667266113793130200,1.238130126953125,-0.29944705963134766,-1.597641944885254,1.65713369846344
1667266113797926000,1.24292578125,-0.14630985260009766,-1.471484661102295,2.0450305938720703
1667266113802721500,1.247721435546875,-0.15764808654785156,-1.4292478561401367,2.3439781665802
1667266113807517200,1.25251708984375,-0.3200874328613281,-1.4330430030822754,2.4953293800354004
1667266113812325600,1.25732568359375,-0.6036758422851562,-1.4663348197937012,2.504729747772217
1667266113817108200,1.262108154296875,-0.9691257476806641,-1.5624504089355469,2.410858154296875
1667266113821904000,1.26690380859375,-1.386561393737793,-1.7109084129333496,2.2924325466156006
1667266113826699500,1.271699462890625,-1.7845306396484375,-1.9368047714233398,2.2286365032196045
1667266113831495200,1.2764951171875,-2.1910200119018555,-2.197028160095215,2.077089786529541
1667266113836290600,1.28129052734375,-2.5310001373291016,-2.483940601348877,1.883086919784546
1667266113841086200,1.286086181640625,-2.792917251586914,-2.7720766067504883,1.6512351036071777
1667266113845881900,1.2908818359375,-2.9601011276245117,-3.020073890686035,1.4968243837356567
1667266113850677500,1.295677490234375,-2.993252754211426,-3.2772579193115234,1.3686249256134033
1667266113855473200,1.30047314453125,-3.1440134048461914,-3.531768321990967,1.2588361501693726
1667266113860268500,1.3052685546875,-3.272991180419922,-3.7826452255249023,1.1401691436767578
1667266113865064200,1.310064208984375,-3.3940391540527344,-4.0024189949035645,1.0901530981063843
1667266113869859800,1.31485986328125,-3.475846290588379,-4.1387715339660645,1.0213676691055298
1667266113874655500,1.319655517578125,-3.427731990814209,-4.059596538543701,0.9998078346252441
1667266113879451000,1.324450927734375,-3.3666515350341797,-3.931623935699463,1.0660591125488281
1667266113884246500,1.32924658203125,-3.2588939666748047,-3.8029415607452393,1.1584529876708984
1667266113889042200,1.334042236328125,-2.976935386657715,-3.5904085636138916,1.3385891914367676
1667266113893837800,1.338837890625,-2.5560083389282227,-3.279217481613159,1.6123178005218506
1667266113898633500,1.343633544921875,-2.001681327819824,-2.9500508308410645,1.9781982898712158
1667266113903428900,1.348428955078125,-1.3423471450805664,-2.657133102416992,2.344759702682495
1667266113908224500,1.353224609375,-0.706392765045166,-2.451047420501709,2.7457287311553955
1667266113913020200,1.358020263671875,-0.18854522705078125,-2.294832944869995,3.1359221935272217
1667266113917815800,1.36281591796875,0.19681072235107422,-2.189993381500244,3.5987448692321777
1667266113922611200,1.367611083984375,0.5032253265380859,-2.154604434967041,4.054975509643555
1667266113927406800,1.37240673828125,0.7363090515136719,-2.1300997734069824,4.470585823059082
1667266113932202500,1.377202392578125,0.8946723937988281,-2.0798521041870117,4.8078107833862305
1667266113936998100,1.381998046875,0.965153694152832,-2.0530097484588623,5.013958930969238
1667266113941793500,1.38679345703125,0.9085912704467773,-2.0711233615875244,5.100467681884766
1667266113946589200,1.391589111328125,0.7387256622314453,-2.130661964416504,5.141256332397461
1667266113951384800,1.396384765625,0.5121774673461914,-2.193192481994629,5.089239597320557
1667266113956180500,1.401180419921875,0.23464202880859375,-2.262357711791992,4.846086502075195
1667266113960976100,1.40597607421875,-0.09059810638427734,-2.3620219230651855,4.9614715576171875
1667266113965771500,1.410771484375,-0.4161252975463867,-2.432452440261841,4.907171249389648
1667266113970567200,1.415567138671875,-0.7185811996459961,-2.483287811279297,4.8832902908325195
1667266113975362800,1.42036279296875,-0.8794097900390625,-2.467978000640869,4.650513648986816
1667266113980158500,1.425158447265625,-0.958287239074707,-2.3234171867370605,4.175759315490723
1667266113984954000,1.4299541015625,-0.9587898254394531,-2.0786285400390625,3.7129015922546387
1667266113989749500,1.43474951171875,-0.9299802780151367,-1.8326679468154907,3.3541219234466553
1667266113994545200,1.439545166015625,-0.9040737152099609,-1.6295790672302246,3.116495132446289
1667266113999340800,1.4443408203125,-0.9145002365112305,-1.4964020252227783,2.9731287956237793
1667266114004136400,1.449136474609375,-0.9863591194152832,-1.4541833400726318,2.8691341876983643
1667266114008932000,1.45393212890625,-1.0778942108154297,-1.4940851926803589,2.7690155506134033
1667266114013727500,1.4587275390625,-1.0807957649230957,-1.5035865306854248,2.7713658809661865
1667266114018523100,1.463523193359375,-0.9277639389038086,-1.462476134300232,2.8948378562927246
1667266114023318800,1.46831884765625,-0.6723136901855469,-1.3244779109954834,3.0582501888275146
1667266114028114400,1.473114501953125,-0.30455780029296875,-1.159064769744873,3.1543543338775635
1667266114032910000,1.47791015625,0.10067939758300781,-1.0105912685394287,3.2147836685180664
1667266114037705500,1.48270556640625,0.4211702346801758,-0.9279270172119141,3.2194907665252686
1667266114042501000,1.487501220703125,0.6474637985229492,-0.8678445816040039,3.2408101558685303
1667266114047296800,1.492296875,0.8167800903320312,-0.8481273651123047,3.281330108642578
1667266114052092400,1.497092529296875,0.9602136611938477,-0.8134794235229492,3.3100500106811523
1667266114056887800,1.5018876953125,1.0835237503051758,-0.7958757877349854,3.320502281188965
1667266114061683500,1.506683349609375,1.1613731384277344,-0.7938065528869629,3.225364923477173
1667266114066479000,1.51147900390625,1.196028709411621,-0.848583459854126,3.0565972328186035
1667266114071274800,1.516274658203125,1.0993719100952148,-0.9656171798706055,2.8225934505462646
1667266114076070400,1.5210703125,0.8529853820800781,-1.159670352935791,2.560683488845825
1667266114080865800,1.52586572265625,0.5090799331665039,-1.4275894165039062,2.2442500591278076
1667266114085661400,1.530661376953125,0.23784828186035156,-1.6637402772903442,1.9253802299499512
1667266114090457000,1.53545703125,0.10028743743896484,-1.7963076829910278,1.6227214336395264
1667266114095252700,1.540252685546875,0.13097763061523438,-1.7885072231292725,1.3859009742736816
1667266114100048100,1.545048095703125,0.18887805938720703,-1.682316541671753,1.1667251586914062
1667266114104843800,1.54984375,0.2791118621826172,-1.5008525848388672,0.9874510765075684
1667266114109639400,1.554639404296875,0.3766918182373047,-1.2979702949523926,0.9352288246154785
1667266114114435000,1.55943505859375,0.48876190185546875,-1.1285014152526855,0.9817450046539307
1667266114119230500,1.56423046875,0.6356019973754883,-0.9149982929229736,1.2148711681365967
1667266114124026000,1.569026123046875,0.868260383605957,-0.6696949005126953,1.652482032775879
1667266114128821800,1.57382177734375,1.1613035202026367,-0.42856359481811523,2.2716329097747803
1667266114133617400,1.578617431640625,1.4856557846069336,-0.09145426750183105,3.0310218334198
1667266114138413000,1.5834130859375,1.8505163192749023,0.2636082172393799,3.840771198272705
1667266114143208400,1.58820849609375,2.1741456985473633,0.5937554836273193,4.57126522064209
1667266114148004000,1.593004150390625,2.4983654022216797,0.8666157722473145,5.110207557678223
1667266114152799700,1.5977998046875,2.765873908996582,1.044405221939087,5.526155471801758
1667266114157595400,1.602595458984375,3.0080032348632812,1.0930304527282715,5.754371643066406
1667266114162391000,1.60739111328125,3.3646326065063477,0.9545695781707764,5.909170150756836
1667266114167186400,1.6121865234375,3.939311981201172,0.7272639274597168,5.974115371704102
1667266114171982000,1.616982177734375,4.762267112731934,0.4578244686126709,5.829836368560791
1667266114176777700,1.62177783203125,5.729781150817871,0.15458440780639648,5.554035186767578
1667266114181573400,1.626573486328125,6.7766008377075195,-0.22188258171081543,5.222067356109619
1667266114186368800,1.63136865234375,7.811387062072754,-0.6331982612609863,4.9020609855651855
1667266114191164400,1.636164306640625,8.687026977539062,-1.0754916667938232,4.557855606079102
1667266114195960000,1.6409599609375,9.261857986450195,-1.5577640533447266,4.21796178817749
1667266114200755700,1.645755615234375,9.569051742553711,-2.0589146614074707,3.8574085235595703
1667266114205551400,1.65055126953125,9.6466064453125,-2.5792317390441895,3.4517409801483154
1667266114210346800,1.6553466796875,9.480119705200195,-3.010516405105591,2.990090847015381
1667266114215142400,1.660142333984375,9.165159225463867,-3.3642184734344482,2.4500417709350586
1667266114219938000,1.66493798828125,8.768424987792969,-3.632888078689575,1.8269237279891968
1667266114224733700,1.669733642578125,8.274229049682617,-3.8141684532165527,1.1103155612945557
1667266114229529300,1.674529296875,7.748120307922363,-3.997941493988037,0.34192001819610596
1667266114234324700,1.67932470703125,7.193354606628418,-4.187166690826416,-0.4843939542770386
1667266114239120400,1.684120361328125,6.752740859985352,-4.431762218475342,-1.2921651601791382
1667266114243916000,1.688916015625,6.352504730224609,-4.652247905731201,-2.109205722808838
1667266114248711700,1.693711669921875,6.140994071960449,-4.774595737457275,-2.807201862335205
1667266114253507300,1.69850732421875,6.438820838928223,-4.63077974319458,-3.2697293758392334
1667266114258302700,1.703302734375,7.227564811706543,-4.231480121612549,-3.3713793754577637
1667266114263098400,1.708098388671875,8.283285140991211,-3.6292989253997803,-3.1397037506103516
1667266114267894000,1.71289404296875,9.37785530090332,-2.9455981254577637,-2.6668567657470703
1667266114272689700,1.717689697265625,10.293416976928711,-2.378774642944336,-1.9121689796447754
1667266114277485000,1.722485107421875,10.859455108642578,-1.986889362335205,-0.9741849303245544
1667266114282280700,1.72728076171875,11.032578468322754,-1.752098560333252,-0.0482335090637207
1667266114287076400,1.732076416015625,10.916507720947266,-1.6838948726654053,0.8675302267074585
1667266114291872000,1.7368720703125,10.674307823181152,-1.7594139575958252,1.781003475189209
1667266114296667400,1.74166748046875,10.466087341308594,-1.9139877557754517,2.524089813232422
1667266114301463000,1.746463134765625,10.376142501831055,-2.0843403339385986,2.8467273712158203
1667266114306258700,1.7512587890625,10.340629577636719,-2.3101143836975098,2.733961820602417
1667266114311054300,1.756054443359375,10.099167823791504,-2.7080576419830322,2.5489420890808105
1667266114315850000,1.76085009765625,9.682225227355957,-3.1318864822387695,2.177295446395874
1667266114320645400,1.765645263671875,9.310997009277344,-3.4498393535614014,1.5765563249588013
1667266114325441000,1.77044091796875,9.108051300048828,-3.5593245029449463,0.8030986785888672
1667266114330236700,1.775236572265625,9.059673309326172,-3.509357452392578,-0.03991377353668213
1667266114335032300,1.7800322265625,9.044777870178223,-3.393381118774414,-0.8292862176895142
1667266114339827700,1.78482763671875,8.962957382202148,-3.1874685287475586,-1.5222810506820679
1667266114344623400,1.789623291015625,8.807221412658691,-2.9452502727508545,-2.0788135528564453
1667266114349419000,1.7944189453125,8.553899765014648,-2.741582155227661,-2.442121982574463
1667266114354214700,1.799214599609375,8.208046913146973,-2.569899082183838,-2.57122802734375
1667266114359010300,1.80401025390625,7.79744815826416,-2.43559193611145,-2.5103397369384766
1667266114363805700,1.8088056640625,7.337919235229492,-2.3237533569335938,-2.4422969818115234
1667266114368601300,1.813601318359375,6.821429252624512,-2.1811444759368896,-2.348170280456543
1667266114373397000,1.81839697265625,6.2519025802612305,-2.0023868083953857,-2.2926747798919678
1667266114378192600,1.823192626953125,5.690566062927246,-1.8117645978927612,-2.272397518157959
1667266114382988300,1.82798828125,5.160277366638184,-1.5714914798736572,-2.2325735092163086
1667266114387783700,1.83278369140625,4.698128700256348,-1.2653659582138062,-2.2222084999084473
1667266114392579300,1.837579345703125,4.358884811401367,-0.9107740521430969,-2.210383415222168
1667266114397375000,1.842375,4.095561981201172,-0.5863625407218933,-2.144975423812866
1667266114402170600,1.847170654296875,3.9817562103271484,-0.2952801287174225,-2.060305595397949
1667266114406966000,1.851966064453125,3.924859046936035,-0.06626705080270767,-1.9484515190124512
1667266114411761700,1.85676171875,3.8958444595336914,0.1080252081155777,-1.7888399362564087
1667266114416557300,1.861557373046875,3.8026113510131836,0.1990661770105362,-1.647718906402588
1667266114421353000,1.86635302734375,3.58917236328125,0.20459675788879395,-1.5903356075286865
1667266114426148600,1.871148681640625,3.3024826049804688,0.13097666203975677,-1.5798633098602295
1667266114430944000,1.875944091796875,2.9427614212036133,0.0010146424174308777,-1.5410544872283936
1667266114435739600,1.88073974609375,2.567594528198242,-0.206615149974823,-1.5460704565048218
1667266114440535300,1.885535400390625,2.1962108612060547,-0.4153279662132263,-1.54506254196167
1667266114445331000,1.8903310546875,1.869394302368164,-0.5323396921157837,-1.584450364112854
1667266114450126600,1.895126708984375,1.6062698364257812,-0.5735911130905151,-1.6313526630401611
1667266114454922000,1.899921875,1.4055824279785156,-0.6244147419929504,-1.7470203638076782
1667266114459717600,1.904717529296875,1.2207326889038086,-0.631509006023407,-1.922202467918396
1667266114464513300,1.90951318359375,1.0672969818115234,-0.6097296476364136,-2.0710697174072266
1667266114469309000,1.914308837890625,0.940312385559082,-0.5501247644424438,-2.201328992843628
1667266114474104300,1.919104248046875,1.005293846130371,-0.3913949429988861,-2.406634569168091
1667266114478900000,1.92389990234375,1.0111913681030273,-0.26303714513778687,-2.460752010345459
1667266114483695600,1.928695556640625,0.8329906463623047,-0.22123020887374878,-2.3278450965881348
1667266114488491300,1.9334912109375,0.6014938354492188,-0.24287879467010498,-2.1379268169403076
1667266114493287000,1.938286865234375,0.3873739242553711,-0.2633521556854248,-1.9330627918243408
1667266114498082300,1.943082275390625,0.21802139282226562,-0.2685251235961914,-1.792919397354126
1667266114502878000,1.9478779296875,0.13622093200683594,-0.2551271617412567,-1.7036290168762207
1667266114507673600,1.952673583984375,0.11169147491455078,-0.22820651531219482,-1.6771825551986694
1667266114512469200,1.95746923828125,0.12017440795898438,-0.19048860669136047,-1.713641881942749
1667266114517264600,1.9622646484375,0.1648540496826172,-0.12436977028846741,-1.7436227798461914
1667266114522060300,1.967060302734375,0.1867990493774414,-0.05745312571525574,-1.7695715427398682
1667266114526856000,1.97185595703125,0.17383384704589844,-0.0686158835887909,-1.8061413764953613
1667266114531651600,1.976651611328125,0.10901641845703125,-0.09796017408370972,-1.8177722692489624
1667266114536447000,1.981447021484375,-0.025671005249023438,-0.17610472440719604,-1.827789545059204
1667266114541242600,1.98624267578125,-0.2148122787475586,-0.28010833263397217,-1.8211703300476074
1667266114546038300,1.991038330078125,-0.3928394317626953,-0.3689195513725281,-1.824871301651001
1667266114550834000,1.995833984375,-0.6114559173583984,-0.4312721788883209,-1.835630178451538
1667266114555629600,2.000629638671875,-0.8505010604858398,-0.46554332971572876,-1.8743823766708374
1667266114560425000,2.005425048828125,-1.1221818923950195,-0.5297118425369263,-1.9498283863067627
1667266114565220600,2.010220703125,-1.4207191467285156,-0.5551161170005798,-2.1078124046325684
1667266114570016300,2.015016357421875,-1.6866083145141602,-0.5734904408454895,-2.2805895805358887
1667266114574812000,2.01981201171875,-1.9536466598510742,-0.5547045469284058,-2.4148592948913574
1667266114579607300,2.024607177734375,-2.230299472808838,-0.5104345679283142,-2.521186590194702
1667266114584403000,2.02940283203125,-2.5476341247558594,-0.4725937247276306,-2.614973783493042
1667266114589198600,2.034198486328125,-2.8014297485351562,-0.4459080398082733,-2.7171730995178223
1667266114593994200,2.038994140625,-3.0214157104492188,-0.40278324484825134,-2.828444004058838
1667266114598790000,2.043789794921875,-3.276644706726074,-0.4040735065937042,-2.950599193572998
1667266114603585300,2.048585205078125,-3.532017230987549,-0.4425513744354248,-3.1000587940216064
1667266114608381000,2.053380859375,-3.7476701736450195,-0.4678707718849182,-3.220590591430664
1667266114613176600,2.058176513671875,-3.9806032180786133,-0.4851263463497162,-3.386204719543457
1667266114617972200,2.06297216796875,-4.193394660949707,-0.45616549253463745,-3.533235549926758
1667266114622767900,2.067767822265625,-4.377484321594238,-0.4075782299041748,-3.628932237625122
1667266114627563300,2.072563232421875,-4.581716537475586,-0.31227463483810425,-3.716883897781372
1667266114632359000,2.07735888671875,-4.772401332855225,-0.20047324895858765,-3.7702224254608154
1667266114637154600,2.082154541015625,-4.983980655670166,-0.060812532901763916,-3.785017490386963
1667266114641950200,2.0869501953125,-5.213874816894531,0.0775597095489502,-3.757108449935913
1667266114646745600,2.09174560546875,-5.429760932922363,0.23660603165626526,-3.7286508083343506
1667266114651541200,2.096541259765625,-5.575556755065918,0.3824465870857239,-3.6650378704071045
1667266114656337000,2.1013369140625,-5.702776908874512,0.5421367287635803,-3.572434902191162
1667266114661132500,2.106132568359375,-5.792301177978516,0.6757778525352478,-3.4883127212524414
1667266114665928200,2.11092822265625,-5.882410049438477,0.7449042797088623,-3.409301280975342
