time,seconds_elapsed,z,y,x
1667266112643390500,0.088390380859375,0.08857285231351852,0.11178504675626755,0.34879377484321594
1667266112645788200,0.0907880859375,0.10873081535100937,0.11972606182098389,0.395218163728714
1667266112648186000,0.09318603515625,0.129499614238739,0.12461283802986145,0.43858832120895386
1667266112650583800,0.095583740234375,0.1459924876689911,0.12339114397764206,0.47585001587867737
1667266112652981500,0.0979814453125,0.16309621930122375,0.1185043677687645,0.5088357925415039
1667266112655379500,0.10037939453125,0.17897824943065643,0.10750912129878998,0.5375455617904663
1667266112657777200,0.102777099609375,0.19241689145565033,0.09468132257461548,0.5595360994338989
1667266112660175000,0.105175048828125,0.20585553348064423,0.08368607610464096,0.578472375869751
1667266112662572800,0.10757275390625,0.21685077250003815,0.07207997888326645,0.5913001298904419
1667266112664970500,0.109970458984375,0.22723518311977386,0.05925218388438225,0.5992411375045776
1667266112667368400,0.112368408203125,0.23823043704032898,0.042759306728839874,0.6022953987121582
1667266112669766100,0.11476611328125,0.24372805655002594,0.028098974376916885,0.6004628539085388
1667266112672164000,0.1171640625,0.2486148327589035,0.011606098152697086,0.5937435626983643
1667266112674561800,0.119561767578125,0.25411245226860046,-0.0006108472589403391,0.5845808386802673
1667266112676959500,0.12195947265625,0.25533416867256165,-0.014049487188458443,0.569309651851654
1667266112679357400,0.124357421875,0.2583884000778198,-0.02870982140302658,0.5522059202194214
1667266112681755100,0.126755126953125,0.2583884000778198,-0.04214845970273018,0.5320479869842529
1667266112684153000,0.129153076171875,0.25594499707221985,-0.053143709897994995,0.5082249045372009
1667266112686550800,0.13155078125,0.2522799074649811,-0.06658235192298889,0.4831801950931549
1667266112688948500,0.133948486328125,0.24617144465446472,-0.07635590434074402,0.4569137394428253
1667266112691346400,0.136346435546875,0.23823043704032898,-0.08612946420907974,0.4294256269931793
1667266112693744000,0.138744140625,0.23334364593029022,-0.09712471067905426,0.40010493993759155
1667266112696141800,0.141141845703125,0.2235700935125351,-0.1044548824429512,0.3689517378807068
1667266112698539800,0.143539794921875,0.21379654109477997,-0.11178504675626755,0.3396310806274414
1667266112700937500,0.1459375,0.20096874237060547,-0.11911521852016449,0.30786702036857605
1667266112703335400,0.14833544921875,0.18814095854759216,-0.12461283802986145,0.2773246467113495
1667266112705733000,0.150733154296875,0.17653486132621765,-0.1301104724407196,0.24556060135364532
1667266112708131000,0.153131103515625,0.16248537600040436,-0.13621893525123596,0.21623992919921875
1667266112710528800,0.15552880859375,0.14721418917179108,-0.15087927877902985,0.18691925704479218
1667266112712926500,0.157926513671875,0.13377554714679718,-0.16859383881092072,0.1582094430923462
1667266112715324400,0.160324462890625,0.11911521852016449,-0.18997350335121155,0.130721315741539
1667266112717722000,0.16272216796875,0.1056765764951706,-0.21501824259757996,0.10628741979598999
1667266112720119800,0.165119873046875,0.0922379344701767,-0.24189551174640656,0.08490777015686035
1667266112722517800,0.167517822265625,0.07757759839296341,-0.26816195249557495,0.06413896381855011
1667266112724915500,0.16991552734375,0.0653606578707695,-0.2919849753379822,0.04459185153245926
1667266112727313400,0.1723134765625,0.05375456064939499,-0.3133646547794342,0.028098974376916885
1667266112729711000,0.174711181640625,0.04214845970273018,-0.3304683566093445,0.014049487188458443
1667266112732108800,0.17710888671875,0.030542362481355667,-0.34512871503829956,0.0012216945178806782
1667266112734506800,0.1795068359375,0.02076880633831024,-0.3549022674560547,-0.009773556143045425
1667266112736904400,0.181904541015625,0.013438640162348747,-0.35978904366493225,-0.020157959312200546
1667266112739302100,0.18430224609375,0.0030542362947016954,-0.35917818546295166,-0.02870982140302658
1667266112741700000,0.1867001953125,-0.004275931045413017,-0.3542914092540741,-0.03542914241552353
1667266112744097800,0.189097900390625,-0.00916270911693573,-0.342074453830719,-0.0390942245721817
1667266112746495700,0.191495849609375,-0.012827792204916477,-0.3274141252040863,-0.042759306728839874
1667266112748893400,0.1938935546875,-0.018936265259981155,-0.30725616216659546,-0.04825693368911743
1667266112751291400,0.19629150390625,-0.02076880633831024,-0.28404396772384644,-0.051922015845775604
1667266112753689000,0.198689208984375,-0.024433890357613564,-0.25655585527420044,-0.056808795779943466
1667266112756086800,0.201086669921875,-0.026877280324697495,-0.22540263831615448,-0.061084724962711334
1667266112758484700,0.203484619140625,-0.028098974376916885,-0.19302773475646973,-0.0647498071193695
1667266112760882400,0.20588232421875,-0.031153209507465363,-0.16309621930122375,-0.06902574002742767
1667266112763280100,0.208280029296875,-0.031153209507465363,-0.1313321590423584,-0.07330167293548584
1667266112765678000,0.210677978515625,-0.031153209507465363,-0.10201149433851242,-0.07574506103992462
1667266112768075800,0.21307568359375,-0.029320668429136276,-0.07330167293548584,-0.07757759839296341
1667266112770473700,0.2154736328125,-0.028098974376916885,-0.04581354558467865,-0.08063183724880219
1667266112772871400,0.217871337890625,-0.02504473738372326,-0.017714571207761765,-0.08185353130102158
1667266112775269000,0.22026904296875,-0.023823043331503868,0.004886778071522713,-0.08124268800020218
1667266112777667000,0.2226669921875,-0.017714571207761765,0.026877280324697495,-0.08246438205242157
1667266112780064800,0.225064697265625,-0.014049487188458443,0.04947862774133682,-0.08246438205242157
1667266112782462700,0.227462646484375,-0.013438640162348747,0.07024743407964706,-0.0787992998957634
1667266112784860400,0.2298603515625,-0.006719320081174374,0.09345962852239609,-0.0781884491443634
1667266112787258000,0.232258056640625,-0.005497625097632408,0.11483928561210632,-0.07574506103992462
1667266112789656000,0.234656005859375,-0.0018325417768210173,0.13377554714679718,-0.07574506103992462
1667266112792053800,0.2370537109375,-0.0006108472589403391,0.15210096538066864,-0.07269082218408585
1667266112794451500,0.239451416015625,-0.0006108472589403391,0.16859383881092072,-0.06719319522380829
1667266112796849400,0.241849365234375,-0.0012216945178806782,0.17836740612983704,-0.0659715011715889
1667266112799247000,0.2442470703125,-0.004886778071522713,0.18875180184841156,-0.06352811306715012
1667266112801645000,0.24664501953125,-0.009773556143045425,0.18936264514923096,-0.05864133685827255
1667266112804042800,0.249042724609375,-0.014660334214568138,0.19363857805728912,-0.054365407675504684
1667266112806440400,0.2514404296875,-0.021379653364419937,0.19363857805728912,-0.05008947476744652
1667266112808838400,0.25383837890625,-0.029320668429136276,0.19424942135810852,-0.04581354558467865
1667266112811236000,0.256236083984375,-0.037261683493852615,0.19363857805728912,-0.04092676565051079
1667266112813634000,0.258634033203125,-0.045202698558568954,0.19302773475646973,-0.03542914241552353
1667266112816031700,0.26103173828125,-0.054365407675504684,0.19119518995285034,-0.034818295389413834
1667266112818429400,0.263429443359375,-0.06352811306715012,0.19241689145565033,-0.02993151545524597
1667266112820827400,0.265827392578125,-0.07207997888326645,0.19058434665203094,-0.02748812735080719
1667266112823225000,0.26822509765625,-0.0794101431965828,0.19241689145565033,-0.023823043331503868
1667266112825623000,0.270623046875,-0.08612946420907974,0.19058434665203094,-0.022601349279284477
1667266112828020700,0.273020751953125,-0.08979454636573792,0.19119518995285034,-0.021990500390529633
1667266112830418400,0.27541845703125,-0.09345962852239609,0.19180603325366974,-0.021379653364419937
1667266112832816400,0.27781640625,-0.09407047927379608,0.18569757044315338,-0.02076880633831024
1667266112835214000,0.280214111328125,-0.09590301662683487,0.17653486132621765,-0.024433890357613564
1667266112837611800,0.28261181640625,-0.09407047927379608,0.16431790590286255,-0.02748812735080719
1667266112840009700,0.285009765625,-0.0916270911693573,0.14843589067459106,-0.03237490355968475
1667266112842407400,0.287407470703125,-0.08796200156211853,0.1313321590423584,-0.0397050715982914
1667266112844805400,0.289805419921875,-0.08551861345767975,0.11300674080848694,-0.04581354558467865
1667266112847203000,0.292203125,-0.08124268800020218,0.09284878522157669,-0.056808795779943466
1667266112849600800,0.294600830078125,-0.07574506103992462,0.06963659077882767,-0.06963659077882767
1667266112851998700,0.296998779296875,-0.06780404597520828,0.04947862774133682,-0.08002099394798279
1667266112854396400,0.299396484375,-0.062306419014930725,0.02993151545524597,-0.0916270911693573
1667266112856794000,0.301794189453125,-0.05619794875383377,0.008551862090826035,-0.1044548824429512
1667266112859192000,0.304192138671875,-0.05131116881966591,-0.007941014133393764,-0.11972606182098389
1667266112861589800,0.30658984375,-0.04459185153245926,-0.023823043331503868,-0.1313321590423584
1667266112863987700,0.30898779296875,-0.04031591862440109,-0.04092676565051079,-0.1441599577665329
1667266112866385400,0.311385498046875,-0.033596597611904144,-0.056808795779943466,-0.15332266688346863
1667266112868783400,0.313783447265625,-0.02993151545524597,-0.07391251623630524,-0.16004198789596558
1667266112871181000,0.31618115234375,-0.02626643143594265,-0.08979454636573792,-0.16431790590286255
1667266112873578800,0.318578857421875,-0.02076880633831024,-0.1044548824429512,-0.16615045070648193
1667266112875976700,0.320976806640625,-0.017714571207761765,-0.11545012891292572,-0.16431790590286255
1667266112878374400,0.32337451171875,-0.012216945178806782,-0.1301104724407196,-0.15943112969398499
1667266112880772000,0.325772216796875,-0.007330167107284069,-0.1441599577665329,-0.15087927877902985
1667266112883170000,0.328170166015625,-0.0012216945178806782,-0.16065283119678497,-0.14110571146011353
1667266112885567700,0.330567626953125,0.00916270911693573,-0.18019993603229523,-0.12400199472904205
1667266112887965700,0.332965576171875,0.017714571207761765,-0.20402298867702484,-0.10262233763933182
1667266112890363400,0.33536328125,0.02748812735080719,-0.22845686972141266,-0.08063183724880219
1667266112892761000,0.337760986328125,0.0397050715982914,-0.2522799074649811,-0.05741964280605316
1667266112895159000,0.340158935546875,0.054365407675504684,-0.2773246467113495,-0.02870982140302658
1667266112897556700,0.342556640625,0.07024743407964706,-0.2987042963504791,-0.0012216945178806782
1667266112899954400,0.344954345703125,0.08796200156211853,-0.31886225938796997,0.02748812735080719
1667266112902352400,0.347352294921875,0.1056765764951706,-0.33718767762184143,0.05864133685827255
1667266112904750000,0.34975,0.12644538283348083,-0.3530697226524353,0.08857285231351852
1667266112907148000,0.35214794921875,0.14721418917179108,-0.3689517378807068,0.12033691257238388
1667266112909545700,0.354545654296875,0.1704263836145401,-0.3830012381076813,0.15393351018428802
1667266112911943700,0.356943603515625,0.19424942135810852,-0.39888325333595276,0.18630841374397278
1667266112914341400,0.35934130859375,0.21623992919921875,-0.41232189536094666,0.21685077250003815
1667266112916739000,0.361739013671875,0.24006296694278717,-0.4318690001964569,0.2510582208633423
1667266112919137000,0.364136962890625,0.2638860046863556,-0.45324867963790894,0.27976804971694946
1667266112921534700,0.36653466796875,0.2895416021347046,-0.4831801950931549,0.30908870697021484
1667266112923932400,0.368932373046875,0.3170297145843506,-0.5198310017585754,0.33474430441856384
1667266112926330400,0.371330322265625,0.34451785683631897,-0.5607577562332153,0.36162158846855164
1667266112928728000,0.37372802734375,0.37261682748794556,-0.6096255779266357,0.38910970091819763
1667266112931126000,0.3761259765625,0.4031592011451721,-0.6664343476295471,0.41232189536094666
1667266112933523700,0.378523681640625,0.4337015450000763,-0.7299624681472778,0.43614494800567627
1667266112935921400,0.38092138671875,0.46729815006256104,-0.7977665066719055,0.4593571424484253
1667266112938319400,0.3833193359375,0.5002838969230652,-0.8710681796073914,0.47707170248031616
1667266112940717000,0.385717041015625,0.5338805317878723,-0.948034942150116,0.497229665517807
1667266112943114800,0.38811474609375,0.5632011890411377,-1.0219475030899048,0.5118899941444397
1667266112945512700,0.3905126953125,0.5931326746940613,-1.0970816612243652,0.5253286361694336
1667266112947910400,0.392910400390625,0.6255075931549072,-1.165496587753296,0.5344913601875305
1667266112950308400,0.395308349609375,0.6560499668121338,-1.22963547706604,0.5381564497947693
1667266112952706000,0.3977060546875,0.6853706240653992,-1.2840009927749634,0.5375455617904663
1667266112955103700,0.400103759765625,0.7140804529190063,-1.321873426437378,0.5363239049911499
1667266112957501700,0.402501708984375,0.735460102558136,-1.3445512056350708,0.5277720093727112
1667266112959899400,0.4048994140625,0.7501204609870911,-1.349437952041626,0.5143333673477173
1667266112962297000,0.407297119140625,0.7605048418045044,-1.339664340019226,0.4966188073158264
1667266112964695000,0.409695068359375,0.7617265582084656,-1.3145432472229004,0.474017471075058
1667266112967092700,0.4120927734375,0.7525638341903687,-1.285833477973938,0.4477510452270508
1667266112969490700,0.41449072265625,0.7372926473617554,-1.2589561939239502,0.416597843170166
1667266112971888400,0.416888427734375,0.7153021693229675,-1.2363548278808594,0.3823903799057007
1667266112974286300,0.419286376953125,0.6853706240653992,-1.2216944694519043,0.3432961702346802
1667266112976684000,0.42168408203125,0.6536065936088562,-1.2088667154312134,0.3035911023616791
1667266112979081700,0.424081787109375,0.6175665855407715,-1.1935955286026,0.2608317732810974
1667266112981479700,0.426479736328125,0.5796940326690674,-1.1819894313812256,0.21257483959197998
1667266112983877400,0.42887744140625,0.5405998229980469,-1.1685508489608765,0.16492876410484314
1667266112986275000,0.431275146484375,0.499673068523407,-1.1496145725250244,0.11056335270404816
1667266112988673000,0.433673095703125,0.4575245976448059,-1.1251806020736694,0.055587101727724075
1667266112991070700,0.43607080078125,0.4172086715698242,-1.0952491760253906,-0.0024433890357613564
1667266112993468700,0.43846875,0.3781144618988037,-1.0579874515533447,-0.06780404597520828
1667266112995866400,0.440866455078125,0.3390202224254608,-1.0133955478668213,-0.13499724864959717
1667266112998264000,0.44326416015625,0.3035911023616791,-0.9633061289787292,-0.2095206081867218
1667266113000662000,0.445662109375,0.2742704153060913,-0.9083298444747925,-0.2883199155330658
1667266113003059700,0.448059814453125,0.24494975805282593,-0.8478559851646423,-0.3683409094810486
1667266113005457400,0.45045751953125,0.21929416060447693,-0.7812736630439758,-0.45324867963790894
1667266113007855400,0.45285546875,0.1954711228609085,-0.707361102104187,-0.5393781065940857
1667266113010253000,0.455253173828125,0.17409147322177887,-0.6267293095588684,-0.6273401379585266
1667266113012651000,0.457651123046875,0.15332266688346863,-0.5412106513977051,-0.7134696245193481
1667266113015048700,0.460048583984375,0.13316470384597778,-0.4556920528411865,-0.7959339618682861
1667266113017446400,0.4624462890625,0.1178935244679451,-0.3689517378807068,-0.8729007244110107
1667266113019844400,0.46484423828125,0.10078980028629303,-0.288930743932724,-0.943759024143219
1667266113022242000,0.467241943359375,0.08551861345767975,-0.21623992919921875,-1.0042328834533691
1667266113024640000,0.469639892578125,0.07330167293548584,-0.14904673397541046,-1.0512681007385254
1667266113027037700,0.47203759765625,0.05925218388438225,-0.08307522535324097,-1.0830321311950684
1667266113029435400,0.474435302734375,0.05070032179355621,-0.023823043331503868,-1.1019684076309204
1667266113031833300,0.476833251953125,0.0397050715982914,0.02870982140302658,-1.1056334972381592
1667266113034231000,0.47923095703125,0.01954711228609085,0.08246438205242157,-1.0940274000167847
1667266113036629000,0.48162890625,-0.01038440316915512,0.1313321590423584,-1.0659284591674805
1667266113039026700,0.484026611328125,-0.04031591862440109,0.1582094430923462,-1.0250016450881958
1667266113041424400,0.48642431640625,-0.0659715011715889,0.16676130890846252,-0.9718579649925232
1667266113043822300,0.488822265625,-0.08918370306491852,0.1698155403137207,-0.9052756428718567
1667266113046220000,0.491219970703125,-0.11117420345544815,0.1692046970129013,-0.8258655071258545
1667266113048617700,0.49361767578125,-0.12827792763710022,0.16676130890846252,-0.7360709309577942
1667266113051015700,0.496015625,-0.1459924876689911,0.15943112969398499,-0.6371136903762817
1667266113053413400,0.498413330078125,-0.16431790590286255,0.15332266688346863,-0.5308262705802917
1667266113055811300,0.500811279296875,-0.17958909273147583,0.15332266688346863,-0.4190412163734436
1667266113058209000,0.503208984375,-0.19424942135810852,0.17286977171897888,-0.314586341381073
1667266113060606700,0.505606689453125,-0.21318569779396057,0.21929416060447693,-0.21990501880645752
1667266113063004700,0.508004638671875,-0.24067382514476776,0.2748812735080719,-0.1301104724407196
1667266113065402400,0.51040234375,-0.27121618390083313,0.3304683566093445,-0.038483377546072006
1667266113067800300,0.51280029296875,-0.3023693859577179,0.37261682748794556,0.0525328628718853
1667266113070198000,0.515197998046875,-0.3255815804004669,0.4062134325504303,0.14843589067459106
1667266113072595700,0.517595703125,-0.3439069986343384,0.4324798583984375,0.24617144465446472
1667266113074993700,0.51999365234375,-0.35917818546295166,0.45202696323394775,0.3439069986343384
1667266113077391400,0.522391357421875,-0.3671191930770874,0.474017471075058,0.4422534108161926
1667266113079789000,0.5247890625,-0.37444937229156494,0.5002838969230652,0.5357130169868469
1667266113082187000,0.52718701171875,-0.3793361485004425,0.5393781065940857,0.6267293095588684
1667266113084584700,0.529584716796875,-0.38544461131095886,0.5919110178947449,0.7159129977226257
1667266113086982700,0.531982666015625,-0.390942245721817,0.6542174220085144,0.7971556782722473
1667266113089380400,0.53438037109375,-0.3970507085323334,0.7256865501403809,0.8765658140182495
1667266113091778000,0.536778076171875,-0.4031592011451721,0.7873821258544922,0.9547542929649353
1667266113094176000,0.539176025390625,-0.4074351191520691,0.8386932611465454,1.0286667346954346
1667266113096573700,0.54157373046875,-0.4086568057537079,0.8661814332008362,1.1019684076309204
1667266113098971600,0.5439716796875,-0.4080459773540497,0.8722898960113525,1.170383334159851
1667266113101369300,0.546369384765625,-0.40132665634155273,0.8551861643791199,1.2406307458877563
1667266113103767000,0.54876708984375,-0.3939964771270752,0.80937260389328,1.3096565008163452
1667266113106165000,0.5511650390625,-0.3836120665073395,0.7488987445831299,1.3799803256988525
1667266113108562700,0.553562744140625,-0.3689517378807068,0.6725428104400635,1.450838565826416
1667266113110960400,0.55596044921875,-0.3536805510520935,0.5900784730911255,1.520475149154663
1667266113113358300,0.5583583984375,-0.3365768492221832,0.5063923597335815,1.5882792472839355
1667266113115756000,0.560756103515625,-0.31947311758995056,0.4196520745754242,1.6566941738128662
1667266113118154000,0.563154052734375,-0.30481278896331787,0.33718767762184143,1.7232764959335327
1667266113120551700,0.5655517578125,-0.2901524603366852,0.2583884000778198,1.7916914224624634
1667266113122949400,0.567949462890625,-0.2779355049133301,0.1820324808359146,1.8576629161834717
1667266113125347300,0.570347412109375,-0.26938363909721375,0.10689827054738998,1.9199693202972412
1667266113127745000,0.5727451171875,-0.2626643180847168,0.03542914241552353,1.982886552810669
1667266113130143000,0.57514306640625,-0.2626643180847168,-0.03420744836330414,2.040917158126831
1667266113132540700,0.577540771484375,-0.26694026589393616,-0.10323318839073181,2.0946714878082275
1667266113134938400,0.5799384765625,-0.2779355049133301,-0.16676130890846252,2.1435394287109375
1667266113137336300,0.58233642578125,-0.29381752014160156,-0.22723518311977386,2.1893529891967773
1667266113139734000,0.584734130859375,-0.3151971995830536,-0.28221142292022705,2.2272255420684814
1667266113142131700,0.587131591796875,-0.337798535823822,-0.33169007301330566,2.258378744125366
1667266113144529700,0.58952978515625,-0.3640649616718292,-0.3793361485004425,2.2815909385681152
1667266113146927400,0.59192724609375,-0.38788801431655884,-0.4227063059806824,2.2999162673950195
1667266113149325300,0.5943251953125,-0.41537612676620483,-0.45447036623954773,2.307246446609497
1667266113151723000,0.596722900390625,-0.44042086601257324,-0.47829338908195496,2.30968976020813
1667266113154120700,0.59912060546875,-0.4605788290500641,-0.497229665517807,2.3048031330108643
1667266113156518700,0.6015185546875,-0.4831801950931549,-0.5076140761375427,2.2968621253967285
1667266113158916400,0.603916259765625,-0.497229665517807,-0.5076140761375427,2.28342342376709
1667266113161314300,0.606314208984375,-0.5063923597335815,-0.5033381581306458,2.2657089233398438
1667266113163712000,0.6087119140625,-0.5118899941444397,-0.49234288930892944,2.246161699295044
1667266113166109700,0.611109619140625,-0.5137225389480591,-0.47585001587867737,2.220506191253662
1667266113168507600,0.613507568359375,-0.5094466209411621,-0.4581354558467865,2.1930179595947266
1667266113170905300,0.6159052734375,-0.5015056133270264,-0.43736663460731506,2.163086414337158
1667266113173303000,0.618302978515625,-0.48928865790367126,-0.41232189536094666,2.133765935897827
1667266113175701000,0.620700927734375,-0.47707170248031616,-0.38727715611457825,2.104445219039917
1667266113178098700,0.6230986328125,-0.4605788290500641,-0.35856732726097107,2.0769569873809814
1667266113180496600,0.62549658203125,-0.4422534108161926,-0.33291175961494446,2.0482470989227295
1667266113182894300,0.627894287109375,-0.42576053738594055,-0.3011476993560791,2.0256459712982178
1667266113185292000,0.6302919921875,-0.4056025743484497,-0.2620534598827362,2.0024337768554688
1667266113187690000,0.63268994140625,-0.38422292470932007,-0.21990501880645752,1.978610634803772
1667266113190087700,0.635087646484375,-0.3671191930770874,-0.1716480851173401,1.9633394479751587
1667266113192485600,0.637485595703125,-0.34573954343795776,-0.11972606182098389,1.9462357759475708
1667266113194883300,0.63988330078125,-0.3255815804004669,-0.06291726976633072,1.9327970743179321
1667266113197281000,0.642281005859375,-0.30481278896331787,0.0018325417768210173,1.9156934022903442
1667266113199679000,0.644678955078125,-0.27976804971694946,0.06841489672660828,1.900422215461731
1667266113202076700,0.64707666015625,-0.25533416867256165,0.1429382562637329,1.8827075958251953
1667266113204474400,0.649474365234375,-0.22784602642059326,0.22051586210727692,1.8656039237976074
1667266113206872300,0.651872314453125,-0.1966928243637085,0.2987042963504791,1.8448350429534912
1667266113209270000,0.65427001953125,-0.16309621930122375,0.3830012381076813,1.8222336769104004
1667266113211668000,0.65666796875,-0.12461283802986145,0.4679090082645416,1.8008540868759155
1667266113214065700,0.659065673828125,-0.08124268800020218,0.5528167486190796,1.77642023563385
1667266113216463400,0.66146337890625,-0.037261683493852615,0.633448600769043,1.7556513547897339
1667266113218861300,0.663861328125,0.015271181240677834,0.7128587365150452,1.734271764755249
1667266113221259000,0.666259033203125,0.0647498071193695,0.7831062078475952,1.7165571451187134
1667266113223657000,0.668656982421875,0.12155860662460327,0.8448017835617065,1.7000643014907837
1667266113226054700,0.6710546875,0.17836740612983704,0.8942803740501404,1.690901517868042
1667266113228452400,0.673452392578125,0.2339545041322708,0.9290986657142639,1.686625599861145
1667266113230850300,0.675850341796875,0.2907632887363434,0.9504783153533936,1.6884582042694092
1667266113233248000,0.678248046875,0.34757208824157715,0.9541434049606323,1.6957883834838867
1667266113235646000,0.68064599609375,0.40254834294319153,0.948034942150116,1.7073944807052612
1667266113238043600,0.683043701171875,0.45385950803756714,0.9272661209106445,1.733049988746643
1667266113240441300,0.68544140625,0.5021164417266846,0.8955020904541016,1.7629815340042114
1667266113242839300,0.68783935546875,0.546097457408905,0.8545753359794617,1.8008540868759155
1667266113245237000,0.690237060546875,0.5870242118835449,0.8075400590896606,1.8423917293548584
1667266113247634700,0.692634765625,0.624285876750946,0.7562289237976074,1.8900377750396729
1667266113250032600,0.69503271484375,0.6597150564193726,0.6981984376907349,1.941348910331726
1667266113252430300,0.697430419921875,0.6927008032798767,0.6328377723693848,1.9963252544403076
1667266113254828300,0.699828369140625,0.7262973785400391,0.5662553906440735,2.0506906509399414
1667266113257226000,0.70222607421875,0.758672297000885,0.4953971207141876,2.1056668758392334
1667266113259623700,0.704623779296875,0.7928797602653503,0.42637139558792114,2.1606431007385254
1667266113262021600,0.707021728515625,0.8246437907218933,0.3549022674560547,2.211954355239868
1667266113264419300,0.70941943359375,0.8588512539863586,0.2864873707294464,2.257767915725708
1667266113266817000,0.711817138671875,0.893058717250824,0.21623992919921875,2.3005270957946777
1667266113269215000,0.714215087890625,0.9303203821182251,0.1447708010673523,2.3371779918670654
1667266113271612700,0.71661279296875,0.966971218585968,0.0787992998957634,2.36833119392395
1667266113274010600,0.7190107421875,1.003622055053711,0.012216945178806782,2.391543388366699
1667266113276408300,0.721408203125,1.0408837795257568,-0.05497625470161438,2.4123122692108154
1667266113278806300,0.72380615234375,1.0781453847885132,-0.11483928561210632,2.420253276824951
1667266113281204000,0.726203857421875,1.1178505420684814,-0.17470231652259827,2.4214749336242676
1667266113283601700,0.7286015625,1.1575555801391602,-0.23823043704032898,2.4190316200256348
1667266113285999600,0.73099951171875,1.2015365362167358,-0.2993151545524597,2.413533926010132
1667266113288397300,0.733397216796875,1.2449066638946533,-0.3567348122596741,2.400095224380493
1667266113290795000,0.735794921875,1.2864443063735962,-0.4056025743484497,2.3829915523529053
1667266113293193000,0.73819287109375,1.3267602920532227,-0.45202696323394775,2.3603901863098145
1667266113295590700,0.740590576171875,1.3647091388702393,-0.49051034450531006,2.3322911262512207
1667266113297988600,0.742988525390625,1.3983057737350464,-0.5234960913658142,2.301137924194336
1667266113300386300,0.74538623046875,1.428848147392273,-0.555260181427002,2.266319751739502
1667266113302784000,0.747783935546875,1.460612177848816,-0.5741963982582092,2.2302796840667725
1667266113305182000,0.750181884765625,1.4935978651046753,-0.5876350402832031,2.194239616394043
1667266113307579600,0.75257958984375,1.5284161567687988,-0.5986303091049194,2.1551454067230225
1667266113309977300,0.754977294921875,1.5595693588256836,-0.6047387719154358,2.1142187118530273
1667266113312375300,0.757375244140625,1.593776822090149,-0.6157340407371521,2.072070360183716
1667266113314773000,0.75977294921875,1.6279842853546143,-0.6279509663581848,2.0244240760803223
1667266113317171000,0.7621708984375,1.6670784950256348,-0.6438329815864563,1.9773889780044556
1667266113319568600,0.764568603515625,1.7043402194976807,-0.6572716236114502,1.9230235815048218
1667266113321966600,0.766966552734375,1.7434344291687012,-0.675597071647644,1.8692690134048462
1667266113324364300,0.7693642578125,1.7825286388397217,-0.6957550048828125,1.8149036169052124
1667266113326762000,0.771761962890625,1.8197903633117676,-0.7171346545219421,1.7568731307983398
1667266113329160000,0.774159912109375,1.8594954013824463,-0.7409577369689941,1.6982316970825195
1667266113331557600,0.7765576171875,1.894924521446228,-0.7611156702041626,1.640201210975647
1667266113333955300,0.778955322265625,1.927910327911377,-0.786771297454834,1.5827815532684326
1667266113336353300,0.781353271484375,1.9547876119613647,-0.8148702383041382,1.52475106716156
1667266113338751000,0.7837509765625,1.9792214632034302,-0.8429692387580872,1.464888095855713
1667266113341149000,0.78614892578125,1.9987685680389404,-0.8710681796073914,1.4050250053405762
1667266113343546600,0.788546630859375,2.014650583267212,-0.9009997248649597,1.3476054668426514
1667266113345944300,0.7909443359375,2.0256459712982178,-0.9284878373146057,1.2907202243804932
1667266113348342300,0.79334228515625,2.0329761505126953,-0.9559759497642517,1.2375766038894653
1667266113350740000,0.795739990234375,2.0372519493103027,-0.9822424054145813,1.1856545209884644
1667266113353137700,0.7981376953125,2.0360302925109863,-1.0085088014602661,1.136786699295044
1667266113355535600,0.80053564453125,2.0317542552948,-1.032942771911621,1.0915840864181519
1667266113357933300,0.802933349609375,2.026867628097534,-1.0524898767471313,1.0512681007385254
1667266113360331300,0.805331298828125,2.0195374488830566,-1.0628741979599,1.01706063747406
1667266113362729000,0.80772900390625,2.008542060852051,-1.068982720375061,0.9907942414283752
1667266113365127000,0.810126953125,1.997546911239624,-1.0628741979599,0.9706363081932068
1667266113367524600,0.812524658203125,1.9810540676116943,-1.0476030111312866,0.9547542929649353
1667266113369922300,0.81492236328125,1.965782880783081,-1.0146173238754272,0.9498674869537354
1667266113372320300,0.8173203125,1.9505116939544678,-0.9688037633895874,0.9498674869537354
1667266113374718000,0.819718017578125,1.9303536415100098,-0.9119949340820312,0.9578084945678711
1667266113377115600,0.82211572265625,1.9132499694824219,-0.846023440361023,0.9724688529968262
1667266113379513600,0.824513671875,1.8943136930465698,-0.7702783942222595,0.994459331035614
1667266113381911300,0.826911376953125,1.8753774166107178,-0.6853706240653992,1.0201148986816406
1667266113384309200,0.829309326171875,1.8643821477890015,-0.5949652194976807,1.050046443939209
1667266113386707000,0.83170703125,1.853997826576233,-0.5015056133270264,1.0873081684112549
1667266113389104600,0.834104736328125,1.8454458713531494,-0.4056025743484497,1.1300674676895142
1667266113391502600,0.836502685546875,1.8436133861541748,-0.31886225938796997,1.1740484237670898
1667266113393900300,0.838900390625,1.84850013256073,-0.22967857122421265,1.2241379022598267
1667266113396298000,0.841298095703125,1.8564411401748657,-0.14721418917179108,1.2754490375518799
1667266113398696000,0.843696044921875,1.872934103012085,-0.06780404597520828,1.3304253816604614
1667266113401093600,0.84609375,1.8937028646469116,0.004275931045413017,1.3842562437057495
1667266113403491600,0.84849169921875,1.9205801486968994,0.06780404597520828,1.4410650730133057
1667266113405889300,0.85088916015625,1.9492899179458618,0.11972606182098389,1.4960412979125977
1667266113408287000,0.853286865234375,1.9841082096099854,0.1698155403137207,1.553460955619812
1667266113410685000,0.855684814453125,2.0189266204833984,0.21257483959197998,1.6108806133270264
1667266113413082600,0.85808251953125,2.0574100017547607,0.2498365342617035,1.6652460098266602
1667266113415480600,0.86048046875,2.095893383026123,0.28037887811660767,1.7202222347259521
1667266113417878300,0.862878173828125,2.139874219894409,0.30786702036857605,1.7794743776321411
1667266113420276000,0.86527587890625,2.185687780380249,0.33230090141296387,1.833839774131775
1667266113422674000,0.867673828125,2.2308905124664307,0.3555130958557129,1.8894269466400146
1667266113425071600,0.870071533203125,2.278536558151245,0.3762819170951843,1.9407380819320679
1667266113427469600,0.872469482421875,2.326793670654297,0.39827242493629456,1.9896059036254883
1667266113429867300,0.8748671875,2.376272201538086,0.4172086715698242,2.0360302925109863
1667266113432265000,0.877264892578125,2.425139904022217,0.4349232614040375,2.0745136737823486
1667266113434663000,0.879662841796875,2.472175121307373,0.45202696323394775,2.10688853263855
1667266113437060600,0.882060546875,2.51554536819458,0.46851983666419983,2.1325440406799316
1667266113439458300,0.884458251953125,2.555861234664917,0.4856235682964325,2.1520912647247314
1667266113441856300,0.886856201171875,2.5980098247528076,0.503948986530304,2.161864757537842
1667266113444254000,0.88925390625,2.63649320602417,0.5302154421806335,2.1624755859375
1667266113446652000,0.89165185546875,2.671922206878662,0.5601469278335571,2.160032272338867
1667266113449049600,0.894049560546875,2.706129789352417,0.5961869359016418,2.148426055908203
1667266113451447300,0.896447265625,2.7403371334075928,0.6383354067802429,2.1349875926971436
1667266113453845200,0.89884521484375,2.7708795070648193,0.6829272508621216,2.1117753982543945
1667266113456243000,0.901242919921875,2.801421880722046,0.7317950129508972,2.086730480194092
1667266113458641000,0.903640869140625,2.8295209407806396,0.7800519466400146,2.0561883449554443
1667266113461038600,0.90603857421875,2.8576197624206543,0.8252546191215515,2.0219807624816895
1667266113463436300,0.908436279296875,2.88510799407959,0.8643488883972168,1.9816648960113525
1667266113465834200,0.910834228515625,2.9125959873199463,0.8979454636573792,1.9352405071258545
1667266113468232000,0.91323193359375,2.9394733905792236,0.9284878373146057,1.886372685432434
1667266113470629600,0.915629638671875,2.9651288986206055,0.9523108601570129,1.8350615501403809
1667266113473027600,0.918027587890625,2.984065294265747,0.9675820469856262,1.7819178104400635
1667266113475425300,0.92042529296875,3.0060558319091797,0.9846857786178589,1.7318283319473267
1667266113477823200,0.9228232421875,3.021937847137451,0.9999569654464722,1.6805171966552734
1667266113480221000,0.925220947265625,3.033543825149536,1.007897973060608,1.631649374961853
1667266113482619000,0.927618896484375,3.0439281463623047,1.0133955478668213,1.585224986076355
1667266113485016600,0.9300166015625,3.053091049194336,1.022558331489563,1.544909119606018
1667266113487414300,0.932414306640625,3.0573668479919434,1.0286667346954346,1.5076473951339722
1667266113489812200,0.934812255859375,3.0555343627929688,1.0384403467178345,1.4728291034698486
1667266113492210000,0.9372099609375,3.0518691539764404,1.0488247871398926,1.4428975582122803
1667266113494607600,0.939607666015625,3.0439281463623047,1.0567657947540283,1.4196853637695312
1667266113497005600,0.942005615234375,3.030489683151245,1.0702043771743774,1.3995274305343628
1667266113499403300,0.9444033203125,3.015218496322632,1.0836430788040161,1.383034586906433
1667266113501801200,0.94680126953125,2.993227958679199,1.0934165716171265,1.3732609748840332
1667266113504199000,0.949198974609375,2.963907241821289,1.1074661016464233,1.3677634000778198
1667266113506596600,0.9515966796875,2.9296998977661133,1.1215155124664307,1.364098310470581
1667266113508994600,0.95399462890625,2.8893837928771973,1.138619303703308,1.3634874820709229
1667266113511392300,0.956392333984375,2.842959403991699,1.1563338041305542,1.362265706062317
1667266113513790000,0.9587900390625,2.7947025299072266,1.1764918565750122,1.362265706062317
1667266113516188000,0.96118798828125,2.7372829914093018,1.1984822750091553,1.362265706062317
1667266113518585600,0.963585693359375,2.6786415576934814,1.2192511558532715,1.3610440492630005
1667266113520983600,0.965983642578125,2.6181676387786865,1.2387982606887817,1.3573789596557617
1667266113523381200,0.96838134765625,2.553417921066284,1.2595670223236084,1.3524922132492065
1667266113525779200,0.970779296875,2.4880571365356445,1.2797249555587769,1.3421077728271484
1667266113528177000,0.973177001953125,2.423307418823242,1.2949961423873901,1.3334795236587524
1667266113530574600,0.97557470703125,2.35855770111084,1.3114891052246094,1.3206517696380615
1667266113532972500,0.97797265625,2.292586088180542,1.323706030845642,1.3029371500015259
1667266113535370200,0.980370361328125,2.2308905124664307,1.3328686952590942,1.2797249555587769
1667266113537768000,0.982767822265625,2.1673624515533447,1.3421077728271484,1.2552911043167114
1667266113540166000,0.985165771484375,2.108110189437866,1.349437952041626,1.2259705066680908
1667266113542563600,0.9875634765625,2.050079822540283,1.353713870048523,1.1923738718032837
1667266113544961500,0.98996142578125,1.997546911239624,1.3561573028564453,1.1538904905319214
1667266113547359200,0.992359130859375,1.9474574327468872,1.3561573028564453,1.115407109260559
1667266113549757000,0.9947568359375,1.9016438722610474,1.3549355268478394,1.0738694667816162
1667266113552155000,0.99715478515625,1.8619388341903687,1.3531030416488647,1.0286667346954346
1667266113554552600,0.999552490234375,1.821012020111084,1.3561573028564453,0.9846857786178589
1667266113556950300,1.0019501953125,1.783750295639038,1.3604332208633423,0.9382613897323608
1667266113559348200,1.00434814453125,1.7464886903762817,1.372650146484375,0.8912261724472046
1667266113561746000,1.006745849609375,1.7092269659042358,1.3866996765136719,0.8472451567649841
1667266113564143900,1.009143798828125,1.6719653606414795,1.409911870956421,0.8020424246788025
1667266113566541600,1.01154150390625,1.6328710317611694,1.436178207397461,0.758672297000885
1667266113568939500,1.013939453125,1.593776822090149,1.4691640138626099,0.7171346545219421
1667266113571337200,1.016337158203125,1.5540717840194702,1.5039823055267334,0.679872989654541
1667266113573735000,1.01873486328125,1.5131449699401855,1.543687343597412,0.6413896083831787
1667266113576132900,1.0211328125,1.4716074466705322,1.5833925008773804,0.6035171151161194
1667266113578530600,1.023530517578125,1.4294589757919312,1.6194324493408203,0.5662553906440735
1667266113580928300,1.02592822265625,1.385477900505066,1.654861569404602,0.5351021885871887
1667266113583326200,1.028326171875,1.3457728624343872,1.6902906894683838,0.5015056133270264
1667266113585724000,1.030723876953125,1.3066022396087646,1.7251089811325073,0.4691306948661804
1667266113588121900,1.033121826171875,1.266897201538086,1.7538188695907593,0.43797749280929565
1667266113590519600,1.03551953125,1.230857253074646,1.7813069820404053,0.4092676639556885
1667266113592917200,1.037917236328125,1.1917630434036255,1.8087950944900513,0.38483378291130066
1667266113595315200,1.040315185546875,1.1545013189315796,1.8332289457321167,0.35795649886131287
1667266113597713000,1.042712890625,1.1227372884750366,1.8521652221679688,0.33352261781692505
1667266113600110800,1.04511083984375,1.0897514820098877,1.8662147521972656,0.3115321099758148
1667266113602508500,1.047508544921875,1.0598199367523193,1.8747665882110596,0.2877090573310852
1667266113604906200,1.04990625,1.0292776823043823,1.8478893041610718,0.24678228795528412
1667266113607304200,1.05230419921875,0.999346137046814,1.7929130792617798,0.19180603325366974
1667266113609702000,1.054701904296875,0.9724688529968262,1.7446560859680176,0.13682979345321655
1667266113612099600,1.057099609375,0.9486457705497742,1.709837794303894,0.0916270911693573
1667266113614497500,1.05949755859375,0.9297095537185669,1.6872364282608032,0.04825693368911743
1667266113616895200,1.061895263671875,0.9119949340820312,1.6756303310394287,0.012827792204916477
1667266113619293200,1.064293212890625,0.8961129188537598,1.6615809202194214,-0.02870982140302658
1667266113621691000,1.06669091796875,0.8790091872215271,1.6499748229980469,-0.06841489672660828
1667266113624088600,1.069088623046875,0.8667922616004944,1.6432554721832275,-0.1056765764951706
1667266113626486500,1.071486572265625,0.8527427911758423,1.6389795541763306,-0.14049486815929413
1667266113628884200,1.07388427734375,0.8411366939544678,1.6493639945983887,-0.16615045070648193
1667266113631282200,1.0762822265625,0.8319739699363708,1.663413405418396,-0.19058434665203094
1667266113633680000,1.078679931640625,0.8197570443153381,1.6756303310394287,-0.21623992919921875
1667266113636077600,1.08107763671875,0.8081509470939636,1.6970100402832031,-0.23823043704032898
1667266113638475500,1.0834755859375,0.7953231334686279,1.7128920555114746,-0.25350162386894226
1667266113640873200,1.085873291015625,0.786771297454834,1.7293848991394043,-0.2638860046863556
1667266113643271200,1.088271240234375,0.7788302302360535,1.7464886903762817,-0.2724378705024719
1667266113645668900,1.0906689453125,0.7678350210189819,1.757483959197998,-0.2761029601097107
1667266113648066600,1.093066650390625,0.758672297000885,1.7672574520111084,-0.27976804971694946
1667266113650464500,1.095464599609375,0.7525638341903687,1.7697008848190308,-0.27854636311531067
1667266113652862200,1.0978623046875,0.7440119385719299,1.7672574520111084,-0.2767138183116913
1667266113655260000,1.100260009765625,0.7366818189620972,1.7587056159973145,-0.27060532569885254
1667266113657657900,1.102657958984375,0.7324058413505554,1.7397693395614624,-0.26632940769195557
1667266113660055600,1.1050556640625,0.7293516397476196,1.714113712310791,-0.2602209448814392
1667266113662453500,1.10745361328125,0.7299624681472778,1.6847931146621704,-0.25655585527420044
1667266113664851200,1.109851318359375,0.731184184551239,1.6536399126052856,-0.2498365342617035
1667266113667249200,1.112249267578125,0.7360709309577942,1.6206541061401367,-0.24556060135364532
1667266113669646800,1.114646728515625,0.7458444833755493,1.5858358144760132,-0.24311721324920654
1667266113672044500,1.11704443359375,0.7568397521972656,1.5528501272201538,-0.24067382514476776
1667266113674442500,1.1194423828125,0.7690566778182983,1.5253620147705078,-0.24128466844558716
1667266113676840200,1.121840087890625,0.7873821258544922,1.5009280443191528,-0.24128466844558716
1667266113679238000,1.12423779296875,0.8081509470939636,1.479548454284668,-0.24128466844558716
1667266113681635800,1.1266357421875,0.8289197087287903,1.4612230062484741,-0.24006296694278717
1667266113684033500,1.129033447265625,0.8557969927787781,1.4453409910202026,-0.24128466844558716
1667266113686431500,1.131431396484375,0.8808417320251465,1.4312914609909058,-0.24433889985084534
1667266113688829200,1.1338291015625,0.9107732772827148,1.4221287965774536,-0.2473931461572647
1667266113691227000,1.136226806640625,0.9400939345359802,1.4166311025619507,-0.2473931461572647
1667266113693624800,1.138624755859375,0.9706363081932068,1.4166311025619507,-0.2498365342617035
1667266113696022500,1.1410224609375,0.999346137046814,1.4215179681777954,-0.2504473626613617
1667266113698420500,1.14342041015625,1.022558331489563,1.4441193342208862,-0.2492256760597229
1667266113700818200,1.145818115234375,1.0427162647247314,1.4746615886688232,-0.24494975805282593
1667266113703215900,1.1482158203125,1.064706802368164,1.5021498203277588,-0.237008735537529
1667266113705613800,1.15061376953125,1.081810474395752,1.5369681119918823,-0.22906772792339325
1667266113708011500,1.153011474609375,1.0983033180236816,1.5760623216629028,-0.21685077250003815
1667266113710409200,1.1554091796875,1.111131191253662,1.618821620941162,-0.20280128717422485
1667266113712807200,1.15780712890625,1.1215155124664307,1.6664676666259766,-0.18875180184841156
1667266113715204900,1.160204833984375,1.133732557296753,1.715335488319397,-0.1710372269153595
1667266113717602800,1.162602783203125,1.1441168785095215,1.7666466236114502,-0.15332266688346863
1667266113720000500,1.16500048828125,1.152668833732605,1.8204011917114258,-0.13377554714679718
1667266113722398200,1.167398193359375,1.1606098413467407,1.8692690134048462,-0.11056335270404816
1667266113724796200,1.169796142578125,1.166107416152954,1.9163042306900024,-0.09040539711713791
1667266113727193900,1.17219384765625,1.1740484237670898,1.964561104774475,-0.06780404597520828
1667266113729591800,1.174591796875,1.1850436925888062,2.0042662620544434,-0.045202698558568954
1667266113731989500,1.176989501953125,1.1917630434036255,2.0335869789123535,-0.023823043331503868
1667266113734387200,1.17938720703125,1.2027583122253418,2.0561883449554443,0
1667266113736785200,1.18178515625,1.2143644094467163,2.0732920169830322,0.021990500390529633
1667266113739182800,1.184182861328125,1.2284138202667236,2.0775678157806396,0.04581354558467865
1667266113741580800,1.186580810546875,1.2449066638946533,2.0690159797668457,0.0659715011715889
1667266113743978500,1.188978515625,1.266897201538086,2.0396952629089355,0.08735115826129913
1667266113746376200,1.191376220703125,1.2980504035949707,1.9993793964385986,0.10262233763933182
1667266113748774100,1.193774169921875,1.3328686952590942,1.946846604347229,0.11117420345544815
1667266113751171800,1.196171875,1.3714284896850586,1.8765991926193237,0.12216944992542267
1667266113753569500,1.198569580078125,1.4166311025619507,1.793523907661438,0.13438639044761658
1667266113755967500,1.200967529296875,1.4618338346481323,1.700675129890442,0.1447708010673523
1667266113758365200,1.203365234375,1.5100908279418945,1.6047720909118652,0.1588202863931656
1667266113760763100,1.20576318359375,1.5614019632339478,1.5021498203277588,0.17592400312423706
1667266113763160800,1.208160888671875,1.608437180519104,1.391586422920227,0.1985253542661667
1667266113765558800,1.210558837890625,1.6524181365966797,1.2888877391815186,0.22479179501533508
1667266113767956500,1.21295654296875,1.6933449506759644,1.1935955286026,0.2498365342617035
1667266113770354200,1.215354248046875,1.728163242340088,1.110520362854004,0.2767138183116913
1667266113772752100,1.217752197265625,1.7580947875976562,1.037218689918518,0.3054236173629761
1667266113775149800,1.22014990234375,1.783750295639038,0.9743013978004456,0.33718767762184143
1667266113777547500,1.222547607421875,1.797799825668335,0.9229902029037476,0.3695625960826874
1667266113779945500,1.224945556640625,1.8100167512893677,0.8808417320251465,0.40193748474121094
1667266113782343200,1.22734326171875,1.8155144453048706,0.8386932611465454,0.4367557764053345
1667266113784741000,1.2297412109375,1.8142926692962646,0.8087617754936218,0.47585001587867737
1667266113787138800,1.232138916015625,1.8087950944900513,0.7837170362472534,0.5161659121513367
1667266113789536500,1.23453662109375,1.7941347360610962,0.7660024762153625,0.5577035546302795
1667266113791934500,1.2369345703125,1.7776418924331665,0.7525638341903687,0.5961869359016418
1667266113794332200,1.239332275390625,1.7544296979904175,0.7507312893867493,0.629172682762146
1667266113796730000,1.241730224609375,1.7251089811325073,0.7470661997795105,0.6621584296226501
1667266113799127800,1.2441279296875,1.6933449506759644,0.7513421177864075,0.6884248852729797
1667266113801525500,1.246525390625,1.6536399126052856,0.7592831254005432,0.7098045349121094
1667266113803923500,1.24892333984375,1.6114914417266846,0.7696675658226013,0.7250757217407227
1667266113806321200,1.251321044921875,1.5644562244415283,0.7806627750396729,0.7379034757614136
1667266113808718800,1.25371875,1.5125341415405273,0.791047215461731,0.7434011101722717
1667266113811116800,1.25611669921875,1.4618338346481323,0.8050966858863831,0.7427902817726135
1667266113813527600,1.258527587890625,1.414798617362976,0.8160919547080994,0.7366818189620972
1667266113815912400,1.260912353515625,1.364098310470581,0.8307522535324097,0.7232431769371033
1667266113818310100,1.26331005859375,1.318819284439087,0.8423583507537842,0.7055285573005676
1667266113820708000,1.2657080078125,1.2742273807525635,0.8539644479751587,0.6835380792617798
1667266113823105800,1.268105712890625,1.235133171081543,0.8588512539863586,0.6572716236114502
1667266113825503500,1.27050341796875,1.1997040510177612,0.8619054555892944,0.6267293095588684
1667266113827901400,1.2729013671875,1.170383334159851,0.8686248064041138,0.5894675850868225
1667266113830299100,1.275299072265625,1.1496145725250244,0.8777875304222107,0.5467082858085632
1667266113832696800,1.27769677734375,1.1355650424957275,0.8820634484291077,0.5033381581306458
1667266113835094800,1.2800947265625,1.1245697736740112,0.8912261724472046,0.4611896872520447
1667266113837492500,1.282492431640625,1.1202938556671143,0.9009997248649597,0.41476529836654663
1667266113839890400,1.284890380859375,1.1209046840667725,0.9095515608787537,0.3689517378807068
1667266113842288000,1.2872880859375,1.1288456916809082,0.9199360013008118,0.3261924386024475
1667266113844685800,1.289685791015625,1.1447277069091797,0.9303203821182251,0.288930743932724
1667266113847083800,1.292083740234375,1.1630531549453735,0.9364288449287415,0.25533416867256165
1667266113849481500,1.2944814453125,1.1874871253967285,0.9425373077392578,0.2223484069108963
1667266113851879200,1.296879150390625,1.2180293798446655,0.9376505613327026,0.19363857805728912
1667266113854277000,1.299277099609375,1.252847671508789,0.9248227477073669,0.16431790590286255
1667266113856674800,1.3016748046875,1.2913310527801514,0.9003888368606567,0.13744063675403595
1667266113859072800,1.30407275390625,1.3334795236587524,0.8625163435935974,0.11361759155988693
1667266113861470500,1.306470458984375,1.3818128108978271,0.8124268651008606,0.09284878522157669
1667266113863868400,1.308868408203125,1.4337348937988281,0.7470661997795105,0.07024743407964706
1667266113866266000,1.31126611328125,1.4893219470977783,0.6731536984443665,0.047646086663007736
1667266113868663800,1.313663818359375,1.5455199480056763,0.5937435626983643,0.02870982140302658
1667266113871061800,1.316061767578125,1.6017178297042847,0.5112791657447815,0.007941014133393764
1667266113873459500,1.31845947265625,1.6579158306121826,0.4202629029750824,-0.012827792204916477
1667266113875857200,1.320857177734375,1.714113712310791,0.32374903559684753,-0.03237490355968475
1667266113878255000,1.323255126953125,1.7715333700180054,0.2211267054080963,-0.04886778071522713
1667266113880652800,1.32565283203125,1.8320072889328003,0.11300674080848694,-0.06413896381855011
1667266113883050800,1.32805078125,1.8930920362472534,0.0024433890357613564,-0.07574506103992462
1667266113885448400,1.330448486328125,1.951122522354126,-0.10384403169155121,-0.08612946420907974
1667266113887846100,1.33284619140625,2.0097639560699463,-0.20280128717422485,-0.09345962852239609
1667266113890244000,1.335244140625,2.0653510093688965,-0.2980934679508209,-0.09590301662683487
1667266113892641800,1.337641845703125,2.1178839206695557,-0.38544461131095886,-0.09773556143045425
1667266113895039700,1.340039794921875,2.163086414337158,-0.4587462842464447,-0.09895725548267365
1667266113897437400,1.3424375,2.205845832824707,-0.517998456954956,-0.09529217332601547
1667266113899835100,1.344835205078125,2.243107557296753,-0.5638120174407959,-0.09040539711713791
1667266113902233000,1.347233154296875,2.272428274154663,-0.5876350402832031,-0.08307522535324097
1667266113904630800,1.349630859375,2.2968621253967285,-0.5992411375045776,-0.07330167293548584
1667266113907028700,1.35202880859375,2.313354969024658,-0.5986303091049194,-0.06047387793660164
1667266113909426400,1.354426513671875,2.324960947036743,-0.5790832042694092,-0.04459185153245926
1667266113911824100,1.35682421875,2.327404499053955,-0.5497625470161438,-0.03298575058579445
1667266113914222000,1.35922216796875,2.324350118637085,-0.5094466209411621,-0.01832541823387146
1667266113916619800,1.361619873046875,2.315798282623291,-0.4563029110431671,-0.0024433890357613564
1667266113919017700,1.364017822265625,2.2962512969970703,-0.3915531039237976,0.013438640162348747
1667266113921415400,1.36641552734375,2.2712063789367676,-0.31825143098831177,0.02870982140302658
1667266113923813000,1.368813232421875,2.2424967288970947,-0.2339545041322708,0.042759306728839874
1667266113926211000,1.371211181640625,2.2070674896240234,-0.1429382562637329,0.054365407675504684
1667266113928608800,1.37360888671875,2.164919137954712,-0.04337015375494957,0.0653606578707695
1667266113931006500,1.37600634765625,2.1203272342681885,0.06352811306715012,0.0781884491443634
1667266113933404400,1.378404296875,2.0714592933654785,0.17409147322177887,0.09040539711713791
1667266113935802000,1.380802001953125,2.0195374488830566,0.2864873707294464,0.10078980028629303
1667266113938200000,1.383199951171875,1.9651719331741333,0.39949411153793335,0.10873081535100937
1667266113940597800,1.38559765625,1.908974051475525,0.5149442553520203,0.1178935244679451
1667266113942995500,1.387995361328125,1.852776050567627,0.624896764755249,0.12888877093791962
1667266113945393400,1.390393310546875,1.793523907661438,0.7330167293548584,0.13805148005485535
1667266113947791000,1.392791015625,1.734271764755249,0.833195686340332,0.14660334587097168
1667266113950189000,1.39518896484375,1.6792954206466675,0.9339854717254639,0.15393351018428802
1667266113952586800,1.397586669921875,1.6285951137542725,1.0274450778961182,0.16187451779842377
1667266113954984400,1.399984375,1.5778948068618774,1.0995250940322876,0.1716480851173401
1667266113957382400,1.40238232421875,1.5223077535629272,1.1575555801391602,0.17897824943065643
1667266113959780000,1.404780029296875,1.4734399318695068,1.207645058631897,0.18875180184841156
1667266113962178000,1.407177978515625,1.4245721101760864,1.245517611503601,0.1973036676645279
1667266113964575700,1.40957568359375,1.3744826316833496,1.2693406343460083,0.20646637678146362
1667266113966973400,1.411973388671875,1.323706030845642,1.2736165523529053,0.21501824259757996
1667266113969371400,1.414371337890625,1.273005723953247,1.2705622911453247,0.2223484069108963
1667266113971769000,1.41676904296875,1.2229162454605103,1.2577345371246338,0.23273280262947083
1667266113974166800,1.419166748046875,1.1771026849746704,1.2320789098739624,0.23945212364196777
1667266113976564700,1.421564697265625,1.1318999528884888,1.1960389614105225,0.2492256760597229
1667266113978962400,1.42396240234375,1.0952491760253906,1.1545013189315796,0.2583884000778198
1667266113981360400,1.4263603515625,1.0592091083526611,1.106244444847107,0.26877278089523315
1667266113983758000,1.428758056640625,1.0213366746902466,1.0524898767471313,0.27854636311531067
1667266113986155800,1.43115576171875,0.9883508682250977,0.994459331035614,0.2877090573310852
1667266113988553700,1.4335537109375,0.9571976661682129,0.9327637553215027,0.29565006494522095
1667266113990951400,1.435951416015625,0.9260444641113281,0.869235634803772,0.3017585575580597
1667266113993349400,1.438349365234375,0.8961129188537598,0.8032641410827637,0.3115321099758148
1667266113995747000,1.4407470703125,0.869235634803772,0.7366818189620972,0.3164188861846924
1667266113998144800,1.443144775390625,0.8393041491508484,0.6664343476295471,0.32191649079322815
1667266114000542700,1.445542724609375,0.80937260389328,0.6022953987121582,0.3261924386024475
1667266114002940400,1.4479404296875,0.7794411182403564,0.5393781065940857,0.3292466700077057
1667266114005338400,1.45033837890625,0.7519529461860657,0.4746283292770386,0.3310792148113251
1667266114007736000,1.452736083984375,0.7214106321334839,0.4172086715698242,0.33230090141296387
1667266114010133800,1.4551337890625,0.6896465420722961,0.36284327507019043,0.33169007301330566
1667266114012531700,1.45753173828125,0.6578825116157532,0.3133646547794342,0.3304683566093445
1667266114014929400,1.459929443359375,0.6218425035476685,0.26877278089523315,0.3286358118057251
1667266114017327400,1.462327392578125,0.5845808386802673,0.23151111602783203,0.3255815804004669
1667266114019725000,1.46472509765625,0.5436540842056274,0.20096874237060547,0.32008397579193115
1667266114022122800,1.467122802734375,0.4966188073158264,0.18019993603229523,0.3158080279827118
1667266114024520700,1.469520751953125,0.448361873626709,0.16798299551010132,0.30908870697021484
1667266114026918400,1.47191845703125,0.40071579813957214,0.16187451779842377,0.3029802441596985
1667266114029316000,1.474316162109375,0.34635040163993835,0.16859383881092072,0.29320669174194336
1667266114031714000,1.476714111328125,0.29259583353996277,0.18142163753509521,0.2870981991291046
1667266114034111700,1.47911181640625,0.2363978922367096,0.20280128717422485,0.27915719151496887
1667266114036509700,1.481509765625,0.17775654792785645,0.23273280262947083,0.2718270421028137
1667266114038907400,1.483907470703125,0.12094775587320328,0.265718549489975,0.2608317732810974
1667266114041305300,1.486305419921875,0.05864133685827255,0.2993151545524597,0.2510582208633423
1667266114043703000,1.488703125,-0.004275931045413017,0.33596599102020264,0.24006296694278717
1667266114046100700,1.491100830078125,-0.0647498071193695,0.37261682748794556,0.22967857122421265
1667266114048498700,1.493498779296875,-0.12583453953266144,0.41171106696128845,0.21807247400283813
1667266114050896400,1.495896484375,-0.1844758689403534,0.448361873626709,0.20280128717422485
1667266114053294000,1.498294189453125,-0.24433889985084534,0.49112120270729065,0.18997350335121155
1667266114055692000,1.500692138671875,-0.3011476993560791,0.5387672781944275,0.17348061501979828
1667266114058089700,1.50308984375,-0.3567348122596741,0.5913001298904419,0.15393351018428802
1667266114060487700,1.50548779296875,-0.40987852215766907,0.652384877204895,0.13744063675403595
1667266114062885400,1.507885498046875,-0.4605788290500641,0.7189671993255615,0.1185043677687645
1667266114065283000,1.510282958984375,-0.5070032477378845,0.790436327457428,0.09773556143045425
1667266114067681000,1.512680908203125,-0.550373375415802,0.860683798789978,0.07757759839296341
1667266114070078700,1.51507861328125,-0.5913001298904419,0.9315420985221863,0.05497625470161438
1667266114072476700,1.5174765625,-0.6255075931549072,0.998735249042511,0.03298575058579445
1667266114074874400,1.519874267578125,-0.6560499668121338,1.058598279953003,0.007941014133393764
1667266114077272000,1.52227197265625,-0.6804838180541992,1.1123528480529785,-0.018936265259981155
1667266114079670000,1.524669921875,-0.6994200944900513,1.155722975730896,-0.046424392610788345
1667266114082067700,1.527067626953125,-0.7104153633117676,1.1911520957946777,-0.07207997888326645
1667266114084465700,1.529465576171875,-0.7195780873298645,1.216196894645691,-0.10017894953489304
1667266114086863400,1.53186328125,-0.7220214605331421,1.2345223426818848,-0.1313321590423584
1667266114089261000,1.534260986328125,-0.7171346545219421,1.245517611503601,-0.15943112969398499
1667266114091659000,1.536658935546875,-0.7091936469078064,1.2467392683029175,-0.18691925704479218
1667266114094056700,1.539056640625,-0.6981984376907349,1.2406307458877563,-0.21501824259757996
1667266114096454400,1.541454345703125,-0.6829272508621216,1.225359559059143,-0.24433889985084534
1667266114098852400,1.543852294921875,-0.6664343476295471,1.2039799690246582,-0.2748812735080719
1667266114101250000,1.54625,-0.6493306159973145,1.1728267669677734,-0.3042019307613373
1667266114103648000,1.54864794921875,-0.6328377723693848,1.1318999528884888,-0.33291175961494446
1667266114106045700,1.551045654296875,-0.6132906675338745,1.081810474395752,-0.35917818546295166
1667266114108443400,1.553443359375,-0.5937435626983643,1.0304993391036987,-0.3897205591201782
1667266114110841300,1.55584130859375,-0.578472375869751,0.9730796813964844,-0.4190412163734436
1667266114113239000,1.558239013671875,-0.5619794726371765,0.9144383668899536,-0.45202696323394775
1667266114115637000,1.560636962890625,-0.5522059202194214,0.8515210747718811,-0.4844018816947937
1667266114118034700,1.56303466796875,-0.5448757410049438,0.786160409450531,-0.5161659121513367
1667266114120432400,1.565432373046875,-0.5454866290092468,0.7250757217407227,-0.5467082858085632
1667266114122830300,1.567830322265625,-0.5534276366233826,0.6627692580223083,-0.5803049206733704
1667266114125228000,1.57022802734375,-0.569309651851654,0.6016845703125,-0.6157340407371521
1667266114127625700,1.572625732421875,-0.5943543910980225,0.5357130169868469,-0.6511631608009338
1667266114130023700,1.575023681640625,-0.6303943991661072,0.4752391576766968,-0.6914790868759155
1667266114132421400,1.57742138671875,-0.6768187880516052,0.416597843170166,-0.7317950129508972
1667266114134819300,1.5798193359375,-0.7372926473617554,0.35978904366493225,-0.7739434838294983
1667266114137217000,1.582217041015625,-0.8063184022903442,0.30725616216659546,-0.8167027831077576
1667266114139615000,1.584614990234375,-0.883895993232727,0.2644968628883362,-0.8643488883972168
1667266114142012700,1.5870126953125,-0.9749122262001038,0.22906772792339325,-0.916270911693573
1667266114144410400,1.589410400390625,-1.0750911235809326,0.1960819661617279,-0.9657495021820068
1667266114146808300,1.591808349609375,-1.1856545209884644,0.16309621930122375,-1.01706063747406
1667266114149206000,1.5942060546875,-1.3011046648025513,0.12827792763710022,-1.0708152055740356
1667266114151603700,1.596603759765625,-1.4245721101760864,0.09040539711713791,-1.1276240348815918
1667266114154001700,1.599001708984375,-1.5528501272201538,0.047646086663007736,-1.1868761777877808
1667266114156399400,1.6013994140625,-1.683571457862854,-0.0018325417768210173,-1.2473500967025757
1667266114158797300,1.60379736328125,-1.8173469305038452,-0.054365407675504684,-1.309045672416687
1667266114161195000,1.606195068359375,-1.951122522354126,-0.11483928561210632,-1.3708176612854004
1667266114163592700,1.6085927734375,-2.083676338195801,-0.17348061501979828,-1.4343457221984863
1667266114165990700,1.61099072265625,-2.214397668838501,-0.22906772792339325,-1.4923762083053589
1667266114168388400,1.613388427734375,-2.3432865142822266,-0.27854636311531067,-1.5473524332046509
1667266114170786300,1.615786376953125,-2.4642341136932373,-0.32008397579193115,-1.6017178297042847
1667266114173184000,1.61818408203125,-2.579684257507324,-0.34512871503829956,-1.6566941738128662
1667266114175581700,1.620581787109375,-2.691469430923462,-0.35917818546295166,-1.705561876296997
1667266114177979600,1.622979736328125,-2.7940917015075684,-0.3518480062484741,-1.7501537799835205
1667266114180377300,1.62537744140625,-2.8899946212768555,-0.33230090141296387,-1.7929130792617798
1667266114182775300,1.627775390625,-2.9797892570495605,-0.29626092314720154,-1.833839774131775
1667266114185173000,1.630173095703125,-3.062253713607788,-0.24311721324920654,-1.8698798418045044
1667266114187570700,1.63257080078125,-3.1386096477508545,-0.1704263836145401,-1.9059197902679443
1667266114189968600,1.63496875,-3.211911201477051,-0.08918370306491852,-1.9395164251327515
1667266114192366300,1.637366455078125,-3.2766611576080322,0.005497625097632408,-1.9737238883972168
1667266114194764300,1.639764404296875,-3.3346915245056152,0.10384403169155121,-2.006098747253418
1667266114197162000,1.642161865234375,-3.3902785778045654,0.20707722008228302,-2.0421388149261475
1667266114199559700,1.6445595703125,-3.434870481491089,0.31031039357185364,-2.0775678157806396
1667266114201957600,1.64695751953125,-3.4770190715789795,0.416597843170166,-2.1142187118530273
1667266114204355300,1.649355224609375,-3.5112264156341553,0.5161659121513367,-2.1557562351226807
1667266114206753000,1.6517529296875,-3.536271095275879,0.6132906675338745,-2.1954615116119385
1667266114209151000,1.65415087890625,-3.5576508045196533,0.7012526392936707,-2.238220691680908
1667266114211548700,1.656548583984375,-3.5723111629486084,0.7806627750396729,-2.284034252166748
1667266114213946600,1.658946533203125,-3.5784196853637695,0.8466343283653259,-2.3316802978515625
1667266114216344300,1.66134423828125,-3.579641342163086,0.9003888368606567,-2.376272201538086
1667266114218742300,1.6637421875,-3.5729219913482666,0.9443698525428772,-2.4269726276397705
1667266114221140000,1.666139892578125,-3.56192684173584,0.9706363081932068,-2.474618673324585
1667266114223537700,1.66853759765625,-3.5466556549072266,0.9773555994033813,-2.5247080326080322
1667266114225935600,1.670935546875,-3.5209999084472656,0.9633061289787292,-2.569910764694214
1667266114228333300,1.673333251953125,-3.4880142211914062,0.9333745837211609,-2.6151134967803955
1667266114230731000,1.67573095703125,-3.4507524967193604,0.8777875304222107,-2.6584837436676025
1667266114233129000,1.67812890625,-3.4049389362335205,0.8069292306900024,-2.695134401321411
1667266114235526700,1.680526611328125,-3.354238748550415,0.7189671993255615,-2.729341983795166
1667266114237924600,1.682924560546875,-3.2955973148345947,0.6114581227302551,-2.7537758350372314
1667266114240322300,1.685322265625,-3.2253499031066895,0.4850127100944519,-2.778209686279297
1667266114242720000,1.687719970703125,-3.1465506553649902,0.3396310806274414,-2.798978567123413
1667266114245118000,1.690117919921875,-3.06164288520813,0.17592400312423706,-2.8148605823516846
1667266114247515600,1.692515625,-2.9736807346343994,-0.0018325417768210173,-2.8240232467651367
1667266114249913300,1.694913330078125,-2.8832755088806152,-0.1850867122411728,-2.8344075679779053
1667266114252311300,1.697311279296875,-2.792870044708252,-0.365286648273468,-2.8350183963775635
1667266114254709000,1.699708984375,-2.7024645805358887,-0.5308262705802917,-2.8319642543792725
1667266114257107000,1.70210693359375,-2.6200003623962402,-0.6780404448509216,-2.821579933166504
1667266114259504600,1.704504638671875,-2.5424225330352783,-0.7977665066719055,-2.8038651943206787
1667266114261902600,1.706902587890625,-2.4733970165252686,-0.8826742768287659,-2.778209686279297
1667266114264300300,1.70930029296875,-2.413533926010132,-0.939483106136322,-2.747056484222412
1667266114266698000,1.711697998046875,-2.367720365524292,-0.9730796813964844,-2.709794759750366
1667266114269096000,1.714095947265625,-2.3310694694519043,-0.9773555994033813,-2.6700897216796875
1667266114271493600,1.71649365234375,-2.307246446609497,-0.9657495021820068,-2.6236653327941895
1667266114273891300,1.718891357421875,-2.2962512969970703,-0.9431481957435608,-2.5723540782928467
1667266114276289300,1.721289306640625,-2.2962512969970703,-0.9083298444747925,-2.5167670249938965
1667266114278687000,1.72368701171875,-2.3090789318084717,-0.8667922616004944,-2.4617908000946045
1667266114281085000,1.7260849609375,-2.3322911262512207,-0.8246437907218933,-2.404982089996338
1667266114283482600,1.728482666015625,-2.36833119392395,-0.7898254990577698,-2.3463406562805176
1667266114285880300,1.73088037109375,-2.4147555828094482,-0.7580614686012268,-2.290142774581909
1667266114288278300,1.7332783203125,-2.472175121307373,-0.730573296546936,-2.232112169265747
1667266114290676000,1.735676025390625,-2.5399792194366455,-0.7061394453048706,-2.1753034591674805
1667266114293074000,1.738073974609375,-2.6126701831817627,-0.684148907661438,-2.1203272342681885
1667266114295471600,1.7404716796875,-2.688415050506592,-0.6572716236114502,-2.06412935256958
1667266114297869300,1.742869384765625,-2.7659926414489746,-0.629172682762146,-2.006098747253418
1667266114300267300,1.745267333984375,-2.8344075679779053,-0.5870242118835449,-1.9480682611465454
1667266114302665000,1.7476650390625,-2.8985466957092285,-0.5405998229980469,-1.8882052898406982
1667266114305062700,1.750062744140625,-2.96024227142334,-0.49356457591056824,-1.825287938117981
1667266114307460600,1.752460693359375,-3.0146076679229736,-0.45202696323394775,-1.7611490488052368
1667266114309858300,1.7548583984375,-3.0555343627929688,-0.41476529836654663,-1.696399211883545
1667266114312256300,1.75725634765625,-3.0897417068481445,-0.38727715611457825,-1.6328710317611694
1667266114314654000,1.759654052734375,-3.1092889308929443,-0.3640649616718292,-1.5668995380401611
1667266114317052000,1.762052001953125,-3.116619110107422,-0.3426853120326996,-1.4997063875198364
1667266114319449600,1.76444970703125,-3.1105105876922607,-0.31825143098831177,-1.436178207397461
1667266114321847300,1.766847412109375,-3.0921852588653564,-0.29442837834358215,-1.3689850568771362
1667266114324245200,1.769245361328125,-3.062253713607788,-0.261442631483078,-1.3023263216018677
1667266114326643000,1.771642822265625,-3.0225486755371094,-0.22540263831615448,-1.2363548278808594
1667266114329040600,1.77404052734375,-2.9742915630340576,-0.1966928243637085,-1.1728267669677734
1667266114331438600,1.7764384765625,-2.9156503677368164,-0.16676130890846252,-1.1074661016464233
1667266114333836300,1.778836181640625,-2.8490679264068604,-0.13438639044761658,-1.0396620035171509
1667266114336234200,1.781234130859375,-2.775766372680664,-0.10750912129878998,-0.9743013978004456
1667266114338632000,1.7836318359375,-2.6963560581207275,-0.07757759839296341,-0.9083298444747925
1667266114341029600,1.786029541015625,-2.6206111907958984,-0.05070032179355621,-0.8411366939544678
1667266114343427600,1.788427490234375,-2.5405900478363037,-0.02504473738372326,-0.7800519466400146
1667266114345825300,1.7908251953125,-2.45995831489563,-0.0036650835536420345,-0.7165238261222839
1667266114348223000,1.793222900390625,-2.3860456943511963,0.01832541823387146,-0.6591041684150696
1667266114350621000,1.795620849609375,-2.312744140625,0.04214845970273018,-0.6047387719154358
1667266114353018600,1.7980185546875,-2.243718385696411,0.06047387793660164,-0.5522059202194214
1667266114355416600,1.80041650390625,-2.1820228099823,0.07513421028852463,-0.5033381581306458
1667266114357814300,1.802814208984375,-2.1233813762664795,0.08918370306491852,-0.4581354558467865
1667266114360212200,1.805212158203125,-2.072070360183716,0.09529217332601547,-0.4159869849681854
1667266114362610000,1.80760986328125,-2.0256459712982178,0.09956810623407364,-0.3781144618988037
1667266114365007600,1.810007568359375,-1.9865516424179077,0.09651386737823486,-0.342074453830719
1667266114367405600,1.812405517578125,-1.9517333507537842,0.08490777015686035,-0.312142938375473
1667266114369803300,1.81480322265625,-1.9218018054962158,0.06719319522380829,-0.2883199155330658
1667266114372201000,1.817200927734375,-1.8967571258544922,0.04214845970273018,-0.2651077210903168
1667266114374599000,1.819598876953125,-1.880264163017273,0.009773556143045425,-0.2510582208633423
1667266114376996600,1.82199658203125,-1.8680472373962402,-0.029320668429136276,-0.24006296694278717
1667266114379394600,1.82439453125,-1.8594954013824463,-0.0781884491443634,-0.2357870489358902
1667266114381792300,1.826792236328125,-1.8564411401748657,-0.1319430023431778,-0.2351761907339096
1667266114384190000,1.82918994140625,-1.8576629161834717,-0.19241689145565033,-0.24006296694278717
1667266114386588000,1.831587890625,-1.8649930953979492,-0.2596100866794586,-0.2492256760597229
1667266114388985600,1.833985595703125,-1.8765991926193237,-0.3292466700077057,-0.26632940769195557
1667266114391383600,1.836383544921875,-1.890648603439331,-0.39643988013267517,-0.2852656841278076
1667266114393781200,1.83878125,-1.9083632230758667,-0.46424391865730286,-0.3054236173629761
1667266114396179000,1.841178955078125,-1.9309645891189575,-0.5241069197654724,-0.3292466700077057
1667266114398577000,1.843576904296875,-1.955398440361023,-0.5760289430618286,-0.3542914092540741
1667266114400974600,1.845974609375,-1.9834973812103271,-0.6200099587440491,-0.3836120665073395
1667266114403372300,1.848372314453125,-2.0128180980682373,-0.6536065936088562,-0.41232189536094666
1667266114405770200,1.850770263671875,-2.0415279865264893,-0.6774296164512634,-0.43858832120895386
1667266114408168000,1.85316796875,-2.072681188583374,-0.6890357136726379,-0.46546560525894165
1667266114410566000,1.85556591796875,-2.103834390640259,-0.6969767212867737,-0.49417543411254883
1667266114412963600,1.857963623046875,-2.139874219894409,-0.7000309824943542,-0.5216635465621948
1667266114415361500,1.860361572265625,-2.1753034591674805,-0.7000309824943542,-0.550373375415802
1667266114417759200,1.86275927734375,-2.2107326984405518,-0.6975875496864319,-0.5790832042694092
1667266114420157000,1.865156982421875,-2.2479941844940186,-0.6927008032798767,-0.6053496599197388
1667266114422555000,1.867554931640625,-2.284034252166748,-0.6902574300765991,-0.6352811455726624
1667266114424952600,1.86995263671875,-2.3206851482391357,-0.6908682584762573,-0.6646018028259277
1667266114427350300,1.872350341796875,-2.3542816638946533,-0.6927008032798767,-0.6939224600791931
1667266114429748200,1.874748291015625,-2.385434865951538,-0.6927008032798767,-0.7214106321334839
1667266114432146000,1.87714599609375,-2.41414475440979,-0.6939224600791931,-0.7495095729827881
1667266114434543900,1.8795439453125,-2.4379677772521973,-0.6994200944900513,-0.7757760286331177
1667266114436941600,1.881941650390625,-2.4587366580963135,-0.707361102104187,-0.8044858574867249
1667266114439339300,1.88433935546875,-2.477672815322876,-0.7140804529190063,-0.8289197087287903
1667266114441737200,1.8867373046875,-2.4905006885528564,-0.7281299233436584,-0.856407880783081
1667266114444135000,1.889135009765625,-2.503328323364258,-0.7482879161834717,-0.8765658140182495
1667266114446532600,1.89153271484375,-2.5137128829956055,-0.7696675658226013,-0.8979454636573792
1667266114448930600,1.8939306640625,-2.514934539794922,-0.7959339618682861,-0.9181034564971924
1667266114451328300,1.896328369140625,-2.518599510192871,-0.8234221339225769,-0.9345963001251221
1667266114453726200,1.898726318359375,-2.5161561965942383,-0.8515210747718811,-0.9504783153533936
1667266114456124000,1.9011240234375,-2.510047674179077,-0.8845068216323853,-0.9633061289787292
1667266114458521900,1.90352197265625,-2.5027174949645996,-0.9168817400932312,-0.9724688529968262
1667266114460919600,1.90591943359375,-2.4911115169525146,-0.9553651213645935,-0.9816315174102783
1667266114463317200,1.908317138671875,-2.4770619869232178,-0.9926267862319946,-0.9859074950218201
1667266114465715200,1.910715087890625,-2.463012456893921,-1.0280559062957764,-0.9895725846290588
1667266114468113000,1.91311279296875,-2.445297956466675,-1.0616525411605835,-0.9889616966247559
1667266114470510600,1.915510498046875,-2.425139904022217,-1.0799779891967773,-0.9852966070175171
1667266114472908500,1.917908447265625,-2.4019277095794678,-1.086086392402649,-0.9767447710037231
1667266114475306200,1.92030615234375,-2.3805482387542725,-1.1019684076309204,-0.9657495021820068
1667266114477704200,1.9227041015625,-2.362222671508789,-1.1227372884750366,-0.9559759497642517
1667266114480102000,1.925101806640625,-2.346951484680176,-1.1447277069091797,-0.9455915689468384
1667266114482499600,1.92749951171875,-2.332901954650879,-1.1722159385681152,-0.9339854717254639
1667266114484897500,1.9298974609375,-2.3255717754364014,-1.206423282623291,-0.9260444641113281
1667266114487295200,1.932295166015625,-2.318241596221924,-1.2400199174880981,-0.9193251132965088
1667266114489693200,1.934693115234375,-2.3170199394226074,-1.2736165523529053,-0.9138274788856506
1667266114492091000,1.9370908203125,-2.321295976638794,-1.3102673292160034,-0.9107732772827148
1667266114494488600,1.939488525390625,-2.326793670654297,-1.3439403772354126,-0.9052756428718567
1667266114496886500,1.941886474609375,-2.3365671634674072,-1.3757044076919556,-0.9016105532646179
1667266114499284200,1.9442841796875,-2.3463406562805176,-1.4050250053405762,-0.896723747253418
1667266114501682200,1.94668212890625,-2.3610010147094727,-1.4325132369995117,-0.8912261724472046
1667266114504080000,1.949079833984375,-2.3750505447387695,-1.4526711702346802,-0.8851176500320435
1667266114506477600,1.9514775390625,-2.387878179550171,-1.469774842262268,-0.8790091872215271
1667266114508875500,1.95387548828125,-2.400095224380493,-1.4807701110839844,-0.8680139780044556
1667266114511273200,1.956273193359375,-2.41414475440979,-1.488100290298462,-0.8588512539863586
1667266114513671000,1.9586708984375,-2.4275834560394287,-1.4899327754974365,-0.8484668135643005
1667266114516068900,1.96106884765625,-2.44041109085083,-1.4832135438919067,-0.8356390595436096
1667266114518466600,1.963466552734375,-2.4532389640808105,-1.4764941930770874,-0.8209787011146545
1667266114520864500,1.965864501953125,-2.463623285293579,-1.4575579166412354,-0.8087617754936218
1667266114523262200,1.96826220703125,-2.4764511585235596,-1.4386216402053833,-0.7928797602653503
1667266114525660000,1.970659912109375,-2.4874463081359863,-1.412966012954712,-0.7800519466400146
1667266114528057900,1.973057861328125,-2.500885009765625,-1.3848670721054077,-0.763559103012085
1667266114530455600,1.97545556640625,-2.511880397796631,-1.3506596088409424,-0.7488987445831299
1667266114532853500,1.977853515625,-2.5222647190093994,-1.3127107620239258,-0.7348492741584778
1667266114535251200,1.980251220703125,-2.5338706970214844,-1.273005723953247,-0.7250757217407227
1667266114537649000,1.98264892578125,-2.5424225330352783,-1.2314680814743042,-0.7116370797157288
1667266114540046800,1.985046875,-2.5521962642669678,-1.1850436925888062,-0.7000309824943542
1667266114542444500,1.987444580078125,-2.5607481002807617,-1.132510781288147,-0.6914790868759155
1667266114544842200,1.98984228515625,-2.5692999362945557,-1.0824213027954102,-0.6829272508621216
1667266114547240200,1.992240234375,-2.573575973510742,-1.0262234210968018,-0.6749862432479858
1667266114549638000,1.994637939453125,-2.5747976303100586,-0.9645278453826904,-0.6719319820404053
1667266114552035800,1.997035888671875,-2.578462600708008,-0.9009997248649597,-0.6664343476295471
1667266114554433500,1.99943359375,-2.575408458709717,-0.8362498879432678,-0.6652126908302307
1667266114556831500,2.00183154296875,-2.5711324214935303,-0.7641699314117432,-0.6652126908302307
1667266114559229200,2.004229248046875,-2.5625805854797363,-0.6902574300765991,-0.6658235192298889
1667266114561627000,2.006626953125,-2.5485310554504395,-0.6132906675338745,-0.6682668924331665
1667266114564024800,2.00902490234375,-2.535703420639038,-0.5320479869842529,-0.6713211536407471
1667266114566422500,2.011422607421875,-2.5167670249938965,-0.448361873626709,-0.6762079000473022
1667266114568820200,2.0138203125,-2.494776487350464,-0.36039987206459045,-0.6829272508621216
1667266114571218200,2.01621826171875,-2.4733970165252686,-0.26877278089523315,-0.6896465420722961
1667266114573615900,2.018615966796875,-2.448962926864624,-0.17225892841815948,-0.6963658928871155
1667266114576013800,2.021013916015625,-2.426361560821533,-0.07452336698770523,-0.7055285573005676
1667266114578411500,2.02341162109375,-2.403149366378784,0.02504473738372326,-0.7153021693229675
1667266114580809200,2.025809326171875,-2.376272201538086,0.12339114397764206,-0.7244648337364197
1667266114583207200,2.028207275390625,-2.3493947982788086,0.22723518311977386,-0.7366818189620972
1667266114585604900,2.03060498046875,-2.318852663040161,0.3249707520008087,-0.7470661997795105
1667266114588002600,2.03300244140625,-2.2883102893829346,0.4190412163734436,-0.7550072073936462
1667266114590400500,2.035400390625,-2.257767915725708,0.5118899941444397,-0.7660024762153625
1667266114592798200,2.037798095703125,-2.2247819900512695,0.5992411375045776,-0.7745543122291565
1667266114595196200,2.040196044921875,-2.194239616394043,0.6829272508621216,-0.7824953198432922
1667266114597593900,2.04259375,-2.158810615539551,0.7660024762153625,-0.7916580438613892
1667266114599991800,2.04499169921875,-2.124603033065796,0.8411366939544678,-0.7989882230758667
1667266114602389500,2.047389404296875,-2.089784860610962,0.9132166504859924,-0.8063184022903442
1667266114604787200,2.049787109375,-2.052523136138916,0.9810206890106201,-0.8118160367012024
1667266114607185200,2.05218505859375,-2.0128180980682373,1.0396620035171509,-0.8197570443153381
1667266114609582800,2.054582763671875,-1.9779998064041138,1.0940274000167847,-0.8252546191215515
1667266114611980500,2.05698046875,-1.9376838207244873,1.142895221710205,-0.8283088803291321
1667266114614378500,2.05937841796875,-1.8985896110534668,1.1850436925888062,-0.8301414251327515
1667266114616776200,2.061776123046875,-1.8576629161834717,1.2241379022598267,-0.832584798336029
1667266114619174100,2.064174072265625,-1.8130710124969482,1.2595670223236084,-0.8344173431396484
1667266114621571800,2.06657177734375,-1.774587631225586,1.2925528287887573,-0.8338065147399902
1667266114623969500,2.068969482421875,-1.7324391603469849,1.3206517696380615,-0.8344173431396484
1667266114626367500,2.071367431640625,-1.692123293876648,1.3506596088409424,-0.8295305967330933
1667266114628765200,2.07376513671875,-1.6518073081970215,1.372650146484375,-0.8276980519294739
1667266114631163100,2.0761630859375,-1.6114914417266846,1.3970839977264404,-0.8228112459182739
1667266114633560800,2.078560791015625,-1.5730080604553223,1.4123551845550537,-0.8154810667037964
1667266114635958500,2.08095849609375,-1.5363571643829346,1.4264047145843506,-0.8069292306900024
1667266114638356500,2.0833564453125,-1.4990955591201782,1.438010811805725,-0.7947123050689697
1667266114640754200,2.085754150390625,-1.4642772674560547,1.4459518194198608,-0.7837170362472534
1667266114643152000,2.08815185546875,-1.4294589757919312,1.452060341835022,-0.7678350210189819
1667266114645549800,2.0905498046875,-1.3970839977264404,1.4569470882415771,-0.7501204609870911
1667266114647947500,2.092947509765625,-1.3665416240692139,1.4642772674560547,-0.7262973785400391
