time,seconds_elapsed,z,y,x
1667824837973679400,0.025679443359375,-1.572411060333252,-0.7547647356987,-0.19751296937465668
1667824837983687400,0.0356875,-1.784735918045044,-0.7312633991241455,-0.08999050408601761
1667824837993695200,0.0456953125,-1.9960060119628906,-0.7436761260032654,0.08712887763977051
1667824838003702500,0.05570263671875,-2.1697728633880615,-0.8318648934364319,0.25767454504966736
1667824838013710300,0.06571044921875,-2.31497859954834,-0.9761000275611877,0.36455515027046204
1667824838023718400,0.075718505859375,-2.4360084533691406,-1.176039218902588,0.42020347714424133
1667824838033725200,0.08572509765625,-2.5661375522613525,-1.4929323196411133,0.4566250741481781
1667824838043733200,0.095733154296875,-2.6888020038604736,-1.8982603549957275,0.48421141505241394
1667824838053740300,0.105740234375,-2.764667272567749,-2.384053945541382,0.500957190990448
1667824838063748400,0.115748291015625,-2.8610427379608154,-2.168412685394287,0.35135865211486816
1667824838073756200,0.125756103515625,-2.905298948287964,-1.426688551902771,0.14758062362670898
1667824838083763500,0.135763427734375,-2.8228631019592285,-1.0014550685882568,-0.008170626126229763
1667824838093771300,0.145771240234375,-2.842820405960083,-0.4783073961734772,-0.212472602725029
1667824838103778300,0.1557783203125,-2.9127988815307617,-0.1525993049144745,-0.40996596217155457
1667824838113786000,0.1657861328125,-2.981691360473633,-0.0016280331183224916,-0.5806071758270264
1667824838123794400,0.17579443359375,-2.945801258087158,0.06298451125621796,-0.73080974817276
1667824838133801200,0.18580126953125,-2.811523199081421,0.03675173595547676,-0.8496426939964294
1667824838143809300,0.195809326171875,-2.5547709465026855,-0.26330822706222534,-0.9508755803108215
1667824838153817000,0.205817138671875,-2.304738998413086,-0.6671550869941711,-1.1010806560516357
1667824838163824400,0.215824462890625,-2.048624277114868,-1.0202395915985107,-1.2323483228683472
1667824838173832200,0.225832275390625,-1.7840410470962524,-1.2628459930419922,-1.3511942625045776
1667824838183840300,0.23584033203125,-1.505233883857727,-1.4137548208236694,-1.482574701309204
1667824838193847300,0.245847412109375,-1.2197195291519165,-1.4596095085144043,-1.600630760192871
1667824838203855400,0.25585546875,-0.9266617894172668,-1.3433066606521606,-1.6585755348205566
1667824838213862100,0.265862060546875,-0.6598654389381409,-1.1086899042129517,-1.6630892753601074
1667824838223870200,0.2758701171875,-0.5102549195289612,-0.8122731447219849,-1.7505691051483154
1667824838233878300,0.285878173828125,-0.4797862470149994,-0.43397894501686096,-2.015183448791504
1667824838243885300,0.29588525390625,-0.4801023602485657,-0.30996647477149963,-2.2813022136688232
1667824838253893400,0.305893310546875,-0.4840370714664459,-0.3182692527770996,-2.588592767715454
1667824838263901200,0.315901123046875,-0.48148950934410095,-0.38857218623161316,-2.9028425216674805
1667824838273908500,0.325908447265625,-0.38382017612457275,-0.47856229543685913,-3.1952102184295654
1667824838283916300,0.335916259765625,-0.1655922532081604,-0.6810080409049988,-3.406337261199951
1667824838293923300,0.34592333984375,0.08192981034517288,-1.1201142072677612,-3.4603817462921143
1667824838303931100,0.35593115234375,0.4055134654045105,-1.7099430561065674,-3.3047053813934326
1667824838313939500,0.365939453125,0.8608153462409973,-2.5124049186706543,-3.019090175628662
1667824838323946200,0.3759462890625,1.3935514688491821,-3.5943875312805176,-2.7978508472442627
1667824838333954300,0.385954345703125,1.917655110359192,-4.754621505737305,-2.741964817047119
1667824838343962000,0.395962158203125,2.3817389011383057,-5.844860076904297,-2.8109872341156006
1667824838353969400,0.405969482421875,2.8303003311157227,-6.795071125030518,-2.868898391723633
1667824838363977200,0.415977294921875,3.2800259590148926,-7.196885585784912,-2.722074270248413
1667824838373985300,0.4259853515625,3.6926937103271484,-6.821715831756592,-2.275681972503662
1667824838383992300,0.435992431640625,3.887402296066284,-5.814153671264648,-1.5857131481170654
1667824838394000400,0.44600048828125,3.7143003940582275,-4.680482387542725,-0.7606760859489441
1667824838404007200,0.456007080078125,3.1884210109710693,-3.6879994869232178,-0.06366904079914093
1667824838414015200,0.46601513671875,2.482994556427002,-2.8324553966522217,0.25966694951057434
1667824838424023300,0.476023193359375,1.738370656967163,-1.93900728225708,0.19172623753547668
1667824838434030300,0.4860302734375,1.0093059539794922,-0.940710186958313,-0.11425714194774628
1667824838444038400,0.496038330078125,0.3858940303325653,0.02887587994337082,-0.4706059396266937
1667824838454046200,0.506046142578125,-0.06084681302309036,0.8240195512771606,-0.7544313073158264
1667824838464053500,0.516053466796875,-0.3164101541042328,1.502632737159729,-0.8785144090652466
1667824838474061300,0.526061279296875,-0.3905946910381317,2.017115354537964,-0.854690432548523
1667824838484068400,0.536068359375,-0.3008834421634674,2.2744998931884766,-0.7233380079269409
1667824838494076200,0.546076171875,-0.07818471640348434,2.295600175857544,-0.5326505303382874
1667824838504084200,0.556084228515625,0.22452081739902496,2.1168384552001953,-0.3354405164718628
1667824838514091300,0.56609130859375,0.5381571650505066,1.7809325456619263,-0.1600673347711563
1667824838524099300,0.576099365234375,0.7839242815971375,1.3260151147842407,-0.03012743778526783
1667824838534107100,0.586107177734375,0.9228460788726807,0.8253024816513062,0.05837465077638626
1667824838544114400,0.596114501953125,0.9599878787994385,0.33777278661727905,0.10388141870498657
1667824838554122200,0.606122314453125,0.9251438975334167,-0.09970048815011978,0.1234593316912651
1667824838564130300,0.61613037109375,0.8383243083953857,-0.44545629620552063,0.159528911113739
1667824838574137000,0.62613720703125,0.7191280126571655,-0.6407951712608337,0.24458786845207214
1667824838584145400,0.6361455078125,0.5840578079223633,-0.6861993670463562,0.3789113163948059
1667824838594152200,0.646152099609375,0.42390480637550354,-0.6288449168205261,0.5631636381149292
1667824838604160300,0.65616015625,0.2610487639904022,-0.49272650480270386,0.7715786695480347
1667824838614168300,0.666168212890625,0.13218677043914795,-0.30139175057411194,0.9786509275436401
1667824838624175400,0.67617529296875,0.0494237057864666,-0.10158918052911758,1.1528962850570679
1667824838634183400,0.686183349609375,0.00684958603233099,0.08831033855676651,1.264129400253296
1667824838644191200,0.696191162109375,0.0019238032400608063,0.2646976113319397,1.3127038478851318
1667824838654198500,0.706198486328125,0.020604388788342476,0.408329039812088,1.2921174764633179
1667824838664206300,0.716206298828125,0.057675860822200775,0.49935001134872437,1.2048799991607666
1667824838674213400,0.72621337890625,0.11293008178472519,0.5276638269424438,1.069457769393921
1667824838684221200,0.73622119140625,0.17425602674484253,0.481100857257843,0.9146419167518616
1667824838694229200,0.746229248046875,0.25781360268592834,0.3677894175052643,0.7571976780891418
1667824838704236300,0.756236328125,0.3690168261528015,0.186884343624115,0.62746262550354
1667824838714244400,0.766244384765625,0.49913689494132996,-0.023580949753522873,0.5883322358131409
1667824838724252200,0.776252197265625,0.6317711472511292,-0.18003420531749725,0.710641622543335
1667824838734259500,0.786259521484375,0.7393512725830078,-0.2641672194004059,0.986228346824646
1667824838744267300,0.796267333984375,0.7961612343788147,-0.32243025302886963,1.3766437768936157
1667824838754275300,0.806275390625,0.8066118359565735,-0.35750022530555725,1.8365154266357422
1667824838764282000,0.8162822265625,0.7619144320487976,-0.3584959805011749,2.2517168521881104
1667824838774290400,0.82629052734375,0.6823319792747498,-0.3596875071525574,2.519695997238159
1667824838784297200,0.836297119140625,0.6045804619789124,-0.3704930245876312,2.606917381286621
1667824838794305300,0.84630517578125,0.538375198841095,-0.3834117650985718,2.5494837760925293
1667824838804313000,0.85631298828125,0.5038078427314758,-0.35360726714134216,2.4206690788269043
1667824838814320400,0.8663203125,0.4938720464706421,-0.2501882016658783,2.2729907035827637
1667824838824328200,0.876328125,0.5021068453788757,-0.08383543789386749,2.137571096420288
1667824838834336300,0.886336181640625,0.5290971994400024,0.09691131860017776,2.011516571044922
1667824838844343300,0.89634326171875,0.5473353266716003,0.2360130101442337,1.9011555910110474
1667824838854351400,0.906351318359375,0.5548872947692871,0.3296179175376892,1.8005425930023193
1667824838864358100,0.916358154296875,0.5417091846466064,0.3791620433330536,1.688862681388855
1667824838874366200,0.9263662109375,0.5104597806930542,0.3815676271915436,1.560400366783142
1667824838884374300,0.936374267578125,0.46710216999053955,0.3695748746395111,1.4416366815567017
1667824838894381300,0.94638134765625,0.4142851233482361,0.34277239441871643,1.3365259170532227
1667824838904389400,0.956389404296875,0.36342141032218933,0.311202734708786,1.2514197826385498
1667824838914397200,0.966397216796875,0.32119470834732056,0.2764884829521179,1.1643409729003906
1667824838924404500,0.976404541015625,0.28188005089759827,0.22780777513980865,1.0662575960159302
1667824838934412300,0.986412353515625,0.24915310740470886,0.16025079786777496,0.9592046141624451
1667824838944419300,0.99641943359375,0.22878603637218475,0.09541986882686615,0.85579514503479
1667824838954427100,1.00642724609375,0.23070235550403595,0.033866167068481445,0.7634328603744507
1667824838964435500,1.016435546875,0.2462347149848938,-0.03590039908885956,0.6650218963623047
1667824838974442200,1.026442138671875,0.27147534489631653,-0.12492046505212784,0.5612566471099854
1667824838984450300,1.0364501953125,0.30316802859306335,-0.2639284133911133,0.44972240924835205
1667824838994458000,1.0464580078125,0.3244633674621582,-0.48418837785720825,0.30628126859664917
1667824839004465400,1.05646533203125,0.29883041977882385,-0.7677862644195557,0.10459503531455994
1667824839014473200,1.06647314453125,0.21421220898628235,-1.1046686172485352,-0.23232518136501312
1667824839024481300,1.076481201171875,0.050288788974285126,-1.481240153312683,-0.7440518736839294
1667824839034488300,1.08648828125,-0.15922245383262634,-1.7848868370056152,-1.371466040611267
1667824839044496400,1.096496337890625,-0.3911030888557434,-1.9386383295059204,-2.0330822467803955
1667824839054503200,1.106503173828125,-0.6237863898277283,-1.9525609016418457,-2.653096914291382
1667824839064511200,1.11651123046875,-0.8290268778800964,-1.8577589988708496,-3.196685314178467
1667824839074519300,1.126519287109375,-0.9897490739822388,-1.7564499378204346,-3.675377368927002
1667824839084526300,1.1365263671875,-1.1020058393478394,-1.697553038597107,-4.116622447967529
1667824839094534400,1.146534423828125,-1.2070988416671753,-1.585055947303772,-4.509030342102051
1667824839104542200,1.156542236328125,-1.3035273551940918,-1.3710968494415283,-4.8030266761779785
1667824839114549500,1.166549560546875,-1.348702311515808,-1.0524893999099731,-4.928572177886963
1667824839124557300,1.176557373046875,-1.3650604486465454,-0.7083933353424072,-4.893052101135254
1667824839134565400,1.1865654296875,-1.3725409507751465,-0.3703562319278717,-4.7180070877075195
1667824839144572400,1.196572509765625,-1.3835885524749756,-0.04345082491636276,-4.443414211273193
1667824839154580500,1.20658056640625,-1.414275884628296,0.2315613180398941,-4.156684398651123
1667824839164587500,1.21658740234375,-1.4791229963302612,0.4473860263824463,-3.9016005992889404
1667824839174595300,1.22659521484375,-1.5575577020645142,0.6060330271720886,-3.7029576301574707
1667824839184603400,1.236603271484375,-1.6233506202697754,0.7563743591308594,-3.5654499530792236
1667824839194610400,1.2466103515625,-1.6587040424346924,0.9006972908973694,-3.4626598358154297
1667824839204618500,1.256618408203125,-1.6360818147659302,1.0301923751831055,-3.37626051902771
1667824839214626600,1.26662646484375,-1.572031021118164,1.1184028387069702,-3.301762580871582
1667824839224633300,1.27663330078125,-1.4802286624908447,1.1489604711532593,-3.266880512237549
1667824839234641700,1.2866416015625,-1.3785407543182373,1.090522050857544,-3.3094608783721924
1667824839244648400,1.2966484375,-1.2621649503707886,0.9727056622505188,-3.4273083209991455
1667824839254656500,1.306656494140625,-1.156842827796936,0.8397238254547119,-3.5959677696228027
1667824839264664300,1.316664306640625,-1.0590916872024536,0.6867119073867798,-3.7506625652313232
1667824839274671600,1.326671630859375,-0.9522987604141235,0.48567742109298706,-3.849820375442505
1667824839284679400,1.336679443359375,-0.8710281252861023,0.217932790517807,-3.8576793670654297
1667824839294687500,1.3466875,-0.8127947449684143,-0.11582566052675247,-3.79491925239563
1667824839304694500,1.356694580078125,-0.7678136825561523,-0.4591936767101288,-3.680710792541504
1667824839314702600,1.36670263671875,-0.7240579128265381,-0.7765481472015381,-3.5296576023101807
1667824839324710400,1.37671044921875,-0.6742472052574158,-1.0732133388519287,-3.355248212814331
1667824839334717400,1.386717529296875,-0.6218084096908569,-1.3629460334777832,-3.1479063034057617
1667824839344725200,1.396725341796875,-0.569658637046814,-1.6406795978546143,-2.897688627243042
1667824839354732500,1.406732666015625,-0.531271755695343,-1.9011555910110474,-2.6169657707214355
1667824839364740400,1.416740234375,-0.5112341642379761,-2.125237226486206,-2.3343358039855957
1667824839374748400,1.42674853515625,-0.5179571509361267,-2.2810187339782715,-2.062417984008789
1667824839384755500,1.43675537109375,-0.5448388457298279,-2.3111205101013184,-1.8059625625610352
1667824839394763500,1.446763427734375,-0.5947046875953674,-2.2057886123657227,-1.5687059164047241
1667824839404771600,1.456771484375,-0.6478968262672424,-2.0158872604370117,-1.3487080335617065
1667824839414778400,1.4667783203125,-0.69868403673172,-1.7872495651245117,-1.1224764585494995
1667824839424786700,1.47678662109375,-0.7438850402832031,-1.621790885925293,-0.8845317363739014
1667824839434794500,1.48679443359375,-0.8006128668785095,-1.5460402965545654,-0.6450042128562927
1667824839444801500,1.496801513671875,-0.836358368396759,-1.5415328741073608,-0.4031963348388672
1667824839454809300,1.506809326171875,-0.8504968881607056,-1.5597264766693115,-0.1918688863515854
1667824839464816600,1.516816650390625,-0.8262213468551636,-1.5794570446014404,-0.036546409130096436
1667824839474824400,1.526824462890625,-0.773016631603241,-1.601505160331726,0.06535045802593231
1667824839484832500,1.53683251953125,-0.6868529915809631,-1.6383532285690308,0.1326352208852768
1667824839494839600,1.546839599609375,-0.581222414970398,-1.7176684141159058,0.16167601943016052
1667824839504847600,1.55684765625,-0.4601902365684509,-1.844375491142273,0.1737057864665985
1667824839514855400,1.56685546875,-0.33537182211875916,-1.9673516750335693,0.1713850349187851
1667824839524862500,1.576862548828125,-0.20995183289051056,-2.081871271133423,0.14549271762371063
1667824839534870300,1.586870361328125,-0.08110008388757706,-2.1906232833862305,0.09273584187030792
1667824839544877600,1.596877685546875,0.05374055355787277,-2.273325204849243,0.0022717188112437725
1667824839554885400,1.606885498046875,0.19400683045387268,-2.291501522064209,-0.14920519292354584
1667824839564893400,1.6168935546875,0.33406728506088257,-2.2679176330566406,-0.36906349658966064
1667824839574900500,1.626900390625,0.4915432631969452,-2.2171103954315186,-0.6483534574508667
1667824839584908500,1.636908447265625,0.6553756594657898,-2.153777837753296,-0.9774149656295776
1667824839594916400,1.646916259765625,0.8040878176689148,-2.0607223510742188,-1.3336000442504883
1667824839604923400,1.65692333984375,0.9116725921630859,-1.9051803350448608,-1.6455429792404175
1667824839614931500,1.666931396484375,0.9773848652839661,-1.7363085746765137,-1.8648135662078857
1667824839624939500,1.676939453125,1.0066980123519897,-1.5580317974090576,-2.01166033744812
1667824839634946300,1.6869462890625,1.0218709707260132,-1.3526170253753662,-2.082509756088257
1667824839644954400,1.696954345703125,1.0296703577041626,-1.1503283977508545,-2.058941125869751
1667824839654961400,1.70696142578125,1.0388720035552979,-1.0161092281341553,-1.9174822568893433
1667824839664969500,1.716969482421875,1.0271013975143433,-0.9717153310775757,-1.6295558214187622
1667824839674977500,1.7269775390625,0.9846804738044739,-0.9803197383880615,-1.199293613433838
1667824839684984300,1.736984375,0.9304262399673462,-1.0512208938598633,-0.6477569341659546
1667824839694992600,1.74699267578125,0.9090728163719177,-1.2382583618164062,-0.028517775237560272
1667824839705000400,1.75700048828125,0.9063822627067566,-1.545055627822876,0.6270643472671509
1667824839715007500,1.767007568359375,0.8836455345153809,-1.9446464776992798,1.2584540843963623
1667824839725015300,1.777015380859375,0.8300672769546509,-2.393690586090088,1.831405520439148
1667824839735023600,1.787023681640625,0.7527207136154175,-2.838264226913452,2.312469005584717
1667824839745030400,1.797030517578125,0.672664225101471,-3.1856675148010254,2.706151008605957
1667824839755038500,1.80703857421875,0.6130639910697937,-3.411303997039795,3.044508934020996
1667824839765046300,1.81704638671875,0.5535263419151306,-3.5253148078918457,3.3371503353118896
1667824839775053600,1.827053466796875,0.4577811062335968,-3.5263450145721436,3.59818959236145
1667824839785061400,1.837061279296875,0.3035404086112976,-3.4281005859375,3.8170464038848877
1667824839795068400,1.847068359375,0.10199045389890671,-3.2647554874420166,3.9837794303894043
1667824839805076500,1.857076416015625,-0.13231366872787476,-3.05846905708313,4.072413921356201
1667824839815084500,1.86708447265625,-0.3741391897201538,-2.8545615673065186,4.093522071838379
1667824839825091300,1.87709130859375,-0.5825145244598389,-2.6647377014160156,4.051531791687012
1667824839835099400,1.887099365234375,-0.7437739372253418,-2.499562978744507,3.9595787525177
1667824839845107500,1.897107421875,-0.8924683928489685,-2.3859853744506836,3.8078691959381104
1667824839855114500,1.907114501953125,-1.0056475400924683,-2.268754243850708,3.6153485774993896
1667824839865122600,1.91712255859375,-1.0449602603912354,-2.1021716594696045,3.4010422229766846
1667824839875130400,1.92713037109375,-1.010359287261963,-1.9419020414352417,3.1516199111938477
1667824839885137700,1.9371376953125,-0.9377343654632568,-1.8178986310958862,2.8713557720184326
1667824839895145500,1.9471455078125,-0.8510794043540955,-1.7117187976837158,2.564075231552124
1667824839905152500,1.957152587890625,-0.7644305229187012,-1.6172630786895752,2.244508743286133
1667824839915160300,1.967160400390625,-0.6910074353218079,-1.5111160278320312,1.9207561016082764
1667824839925168600,1.977168701171875,-0.6461440920829773,-1.3404459953308105,1.6011403799057007
1667824839935175400,1.987175537109375,-0.6316165328025818,-1.1307979822158813,1.2961105108261108
1667824839945183500,1.99718359375,-0.642419695854187,-0.896126389503479,1.0200326442718506
1667824839955191300,2.00719140625,-0.6697205901145935,-0.6897091269493103,0.7860471606254578
1667824839965198600,2.017198486328125,-0.7087087035179138,-0.5366204977035522,0.6077413558959961
1667824839975206400,2.027206298828125,-0.7401542663574219,-0.42924484610557556,0.5158783197402954
1667824839985213400,2.03721337890625,-0.757387101650238,-0.3980794847011566,0.5130524635314941
1667824839995221500,2.047221435546875,-0.7761859893798828,-0.41878655552864075,0.5668478608131409
1667824840005229600,2.0572294921875,-0.8057558536529541,-0.46329331398010254,0.6372104287147522
1667824840015236400,2.067236328125,-0.8342862725257874,-0.4805421233177185,0.7061190605163574
1667824840025244400,2.077244384765625,-0.860534131526947,-0.4838726818561554,0.7607353925704956
1667824840035252500,2.08725244140625,-0.8629571199417114,-0.5067027807235718,0.7937572002410889
1667824840045259500,2.097259521484375,-0.8308764100074768,-0.559515118598938,0.8230447769165039
1667824840055267600,2.107267578125,-0.7911523580551147,-0.6594487428665161,0.8543239235877991
1667824840065275400,2.117275390625,-0.7549318075180054,-0.8411985635757446,0.9141438603401184
1667824840075282700,2.12728271484375,-0.7202746868133545,-1.1212847232818604,1.0090070962905884
1667824840085290500,2.13729052734375,-0.6785152554512024,-1.4646881818771362,1.1403642892837524
1667824840095298600,2.147298583984375,-0.6500594019889832,-1.7721444368362427,1.2675821781158447
1667824840105305300,2.157305419921875,-0.6430603861808777,-1.9847296476364136,1.3616598844528198
1667824840115313400,2.1673134765625,-0.6361932754516602,-2.083211898803711,1.3977339267730713
1667824840125320400,2.177320556640625,-0.6465654969215393,-2.092210054397583,1.3789143562316895
1667824840135328500,2.18732861328125,-0.6639509201049805,-2.0799505710601807,1.346176028251648
1667824840145336300,2.19733642578125,-0.6748381853103638,-2.056239366531372,1.326722502708435
1667824840155343600,2.207343505859375,-0.6679152846336365,-1.9809385538101196,1.3188234567642212
1667824840165351400,2.217351318359375,-0.6584376692771912,-1.8256714344024658,1.3025877475738525
1667824840175359500,2.227359375,-0.6707584261894226,-1.5741968154907227,1.2516329288482666
1667824840185366300,2.2373662109375,-0.715111255645752,-1.2680020332336426,1.1472820043563843
1667824840195374600,2.24737451171875,-0.8022945523262024,-0.9536099433898926,0.9976726174354553
1667824840205382400,2.25738232421875,-0.9221429228782654,-0.6758803725242615,0.8207926750183105
1667824840215389400,2.267389404296875,-1.0619207620620728,-0.44545978307724,0.6237964630126953
1667824840225397200,2.277397216796875,-1.2211778163909912,-0.2632468342781067,0.42142075300216675
1667824840235404500,2.287404541015625,-1.3792072534561157,-0.15917247533798218,0.22696737945079803
1667824840245412400,2.297412353515625,-1.5305233001708984,-0.15008869767189026,0.05725478380918503
1667824840255420400,2.30742041015625,-1.6597744226455688,-0.22506174445152283,-0.07705920189619064
1667824840265427500,2.317427490234375,-1.749222755432129,-0.346614807844162,-0.17583584785461426
1667824840275435500,2.327435546875,-1.8033621311187744,-0.4643576443195343,-0.24506880342960358
1667824840285443300,2.337443359375,-1.7974176406860352,-0.5804104804992676,-0.2952518165111542
1667824840295450400,2.347450439453125,-1.714175820350647,-0.7007495760917664,-0.33435726165771484
1667824840305458400,2.35745849609375,-1.54947829246521,-0.8438652157783508,-0.35368674993515015
1667824840315466500,2.367466552734375,-1.2683193683624268,-1.053794503211975,-0.33410021662712097
1667824840325473300,2.377473388671875,-0.8960784077644348,-1.3182579278945923,-0.2459501177072525
1667824840335481300,2.3874814453125,-0.4692768156528473,-1.5799258947372437,-0.10395869612693787
1667824840345488400,2.39748828125,-0.043850671499967575,-1.7742985486984253,0.07823801040649414
1667824840355496400,2.407496337890625,0.32227128744125366,-1.8757832050323486,0.2813097834587097
1667824840365504500,2.41750439453125,0.6025050282478333,-1.9122560024261475,0.47739940881729126
1667824840375511300,2.42751123046875,0.7870161533355713,-1.8952797651290894,0.6646260023117065
1667824840385519600,2.43751953125,0.8882074952125549,-1.853533148765564,0.8461822271347046
1667824840395527400,2.44752734375,0.9370468854904175,-1.7904484272003174,1.0128804445266724
1667824840405534500,2.457534423828125,0.9611050486564636,-1.6884973049163818,1.159096598625183
1667824840415542300,2.467542236328125,0.9582399129867554,-1.5383803844451904,1.2628428936004639
1667824840425550300,2.47755029296875,0.9402800798416138,-1.3293837308883667,1.3075331449508667
1667824840435557400,2.487557373046875,0.9393476843833923,-1.0504720211029053,1.2975075244903564
1667824840445565400,2.4975654296875,0.9740409255027771,-0.7509835362434387,1.2248690128326416
1667824840455573200,2.5075732421875,1.0497246980667114,-0.4592432677745819,1.1004854440689087
1667824840465580500,2.51758056640625,1.1592328548431396,-0.1823783814907074,0.9475850462913513
1667824840475588400,2.52758837890625,1.3238438367843628,0.07851410657167435,0.7907584309577942
1667824840485595400,2.537595458984375,1.521615982055664,0.3023964762687683,0.6259790658950806
1667824840495603200,2.547603271484375,1.7175214290618896,0.4662401080131531,0.46178388595581055
1667824840505611500,2.557611572265625,1.8588215112686157,0.5827171802520752,0.3028829097747803
1667824840515618300,2.567618408203125,1.9305269718170166,0.655749499797821,0.14738959074020386
1667824840525626400,2.57762646484375,1.9403319358825684,0.6938907504081726,-0.003077136818319559
1667824840535634400,2.587634521484375,1.8920387029647827,0.6954569816589355,-0.15262237191200256
1667824840545641500,2.597641357421875,1.8099606037139893,0.6789970993995667,-0.2959132194519043
1667824840555649500,2.6076494140625,1.7124663591384888,0.6424444913864136,-0.44351398944854736
1667824840565657300,2.6176572265625,1.6098861694335938,0.5894582271575928,-0.5910544395446777
1667824840575664600,2.62766455078125,1.5052835941314697,0.5201834440231323,-0.7262850999832153
1667824840585672400,2.63767236328125,1.4249943494796753,0.4185284674167633,-0.8441483378410339
1667824840595679500,2.647679443359375,1.3762636184692383,0.31067711114883423,-0.9254104495048523
1667824840605687300,2.657687255859375,1.3456056118011475,0.22327561676502228,-0.9898815751075745
1667824840615695400,2.6676953125,1.3072668313980103,0.157174214720726,-1.03482186794281
1667824840625702400,2.677702392578125,1.258589506149292,0.1319066733121872,-1.0391627550125122
1667824840635710500,2.68771044921875,1.2022594213485718,0.1334151029586792,-1.0334935188293457
1667824840645718300,2.69771826171875,1.1447948217391968,0.1754874587059021,-1.022472858428955
1667824840655725600,2.7077255859375,1.0672640800476074,0.23131144046783447,-1.0109800100326538
1667824840665733400,2.7177333984375,0.9898947477340698,0.3002380430698395,-1.0057597160339355
1667824840675741400,2.727741455078125,0.9222972393035889,0.41452139616012573,-1.0206029415130615
1667824840685748200,2.737748291015625,0.8551538586616516,0.5774921774864197,-1.062692642211914
1667824840695756500,2.747756591796875,0.7910968661308289,0.7693918347358704,-1.1156126260757446
1667824840705764600,2.7577646484375,0.7421010732650757,0.9523038864135742,-1.1730018854141235
1667824840715771400,2.767771484375,0.7233831286430359,1.1385103464126587,-1.2437571287155151
1667824840725779500,2.777779541015625,0.705595850944519,1.3167282342910767,-1.3212615251541138
1667824840735786500,2.787786376953125,0.664787769317627,1.473828673362732,-1.3989530801773071
1667824840745794600,2.797794677734375,0.6409716606140137,1.6213648319244385,-1.4571980237960815
1667824840755802400,2.80780224609375,0.6274636387825012,1.741064190864563,-1.464004397392273
1667824840765809400,2.817809326171875,0.6240241527557373,1.8327741622924805,-1.4134621620178223
1667824840775817500,2.8278173828125,0.6153614521026611,1.8678311109542847,-1.3267807960510254
1667824840785825500,2.837825439453125,0.5979955196380615,1.8562051057815552,-1.2374845743179321
1667824840795832300,2.847832275390625,0.5571498870849609,1.779117465019226,-1.145564317703247
1667824840805840400,2.85784033203125,0.4942875802516937,1.6279772520065308,-1.0414745807647705
1667824840815848400,2.867848388671875,0.4287428855895996,1.401207447052002,-0.9117811918258667
1667824840825855500,2.87785546875,0.381529837846756,1.1398200988769531,-0.7327651381492615
1667824840835863300,2.88786328125,0.37261468172073364,0.8721340298652649,-0.49611058831214905
1667824840845871400,2.897871337890625,0.417039155960083,0.5731550455093384,-0.2000240534543991
1667824840855878400,2.90787841796875,0.5209528207778931,0.2084197998046875,0.17270740866661072
1667824840865886500,2.917886474609375,0.6581996083259583,-0.23818033933639526,0.6243204474449158
1667824840875893200,2.927893310546875,0.7899813055992126,-0.7659865617752075,1.1243412494659424
1667824840885901600,2.937901611328125,0.8841951489448547,-1.3112586736679077,1.6305760145187378
1667824840895909400,2.947909423828125,0.9116566181182861,-1.8287017345428467,2.118130922317505
1667824840905916400,2.95791650390625,0.8830835223197937,-2.2981393337249756,2.5810294151306152
1667824840915924200,2.96792431640625,0.7786520719528198,-2.6929850578308105,3.0121726989746094
1667824840925932300,2.977932373046875,0.587592601776123,-2.9969937801361084,3.403564691543579
1667824840935939300,2.987939208984375,0.35061678290367126,-3.2065470218658447,3.727280855178833
1667824840945947400,2.997947509765625,0.10860548168420792,-3.3054213523864746,3.93985652923584
1667824840955955500,3.00795556640625,-0.1124291643500328,-3.3201868534088135,4.00963020324707
1667824840965962500,3.01796240234375,-0.27192962169647217,-3.243739366531372,3.9403486251831055
1667824840975970600,3.027970458984375,-0.3637818992137909,-3.081101417541504,3.730440616607666
1667824840985978400,3.037978271484375,-0.40259745717048645,-2.859849691390991,3.4231131076812744
1667824840995985400,3.0479853515625,-0.3969045877456665,-2.588064670562744,3.0364553928375244
1667824841005993500,3.057993408203125,-0.3581364154815674,-2.281388998031616,2.5943386554718018
1667824841016000500,3.06800048828125,-0.3074958026409149,-1.9516966342926025,2.1278350353240967
1667824841026008300,3.07800830078125,-0.2763535976409912,-1.6307649612426758,1.655716896057129
1667824841036016400,3.088016357421875,-0.2744453549385071,-1.3371137380599976,1.2043476104736328
1667824841046023400,3.0980234375,-0.3011784255504608,-1.0799096822738647,0.7918977737426758
1667824841056031500,3.108031494140625,-0.36777007579803467,-0.8386088013648987,0.43429917097091675
1667824841066039300,3.118039306640625,-0.4560922086238861,-0.6388387084007263,0.1498168259859085
1667824841076046600,3.128046630859375,-0.5767410397529602,-0.48037829995155334,-0.04962891340255737
1667824841086054400,3.138054443359375,-0.7169730067253113,-0.373189240694046,-0.1764529049396515
1667824841096062500,3.1480625,-0.8534331917762756,-0.2831137180328369,-0.2350492924451828
1667824841106069200,3.1580693359375,-0.9632542133331299,-0.21619275212287903,-0.25153639912605286
1667824841116077300,3.168077392578125,-1.0414526462554932,-0.1758187860250473,-0.2492668777704239
1667824841126085600,3.178085693359375,-1.0723628997802734,-0.1745750904083252,-0.22307708859443665
1667824841136092700,3.1880927734375,-1.0621721744537354,-0.2154950648546219,-0.19379043579101562
1667824841146100700,3.198100830078125,-1.0290272235870361,-0.2746817171573639,-0.16763046383857727
1667824841156107800,3.208107666015625,-0.973522961139679,-0.3503558337688446,-0.14267881214618683
1667824841166115800,3.21811572265625,-0.8994284868240356,-0.4317130148410797,-0.11500430107116699
1667824841176123600,3.22812353515625,-0.8136726021766663,-0.506751537322998,-0.104279063642025
1667824841186130700,3.238130615234375,-0.7222241759300232,-0.5707579255104065,-0.10795928537845612
1667824841196138500,3.248138427734375,-0.6263919472694397,-0.6244577169418335,-0.12255612015724182
1667824841206146800,3.258146728515625,-0.5335975885391235,-0.6524845361709595,-0.15076884627342224
1667824841216153600,3.268153564453125,-0.45719560980796814,-0.6605602502822876,-0.1890101581811905
1667824841226161700,3.27816162109375,-0.40144792199134827,-0.6321994662284851,-0.23003029823303223
1667824841236169500,3.28816943359375,-0.3753960430622101,-0.5786124467849731,-0.2744288146495819
1667824841246176800,3.2981767578125,-0.38293519616127014,-0.5096349716186523,-0.30742886662483215
1667824841256184600,3.3081845703125,-0.41784846782684326,-0.4171912372112274,-0.3418542742729187
1667824841266192600,3.318192626953125,-0.44811156392097473,-0.29850107431411743,-0.3820831775665283
1667824841276199700,3.32819970703125,-0.4718354046344757,-0.19470253586769104,-0.4107937216758728
1667824841286207700,3.338207763671875,-0.4832305312156677,-0.09398818016052246,-0.4215105473995209
1667824841296215800,3.3482158203125,-0.505315363407135,0.006933530326932669,-0.4294836223125458
1667824841306222600,3.35822265625,-0.5486308932304382,0.1009092926979065,-0.4290415346622467
1667824841316230700,3.368230712890625,-0.6375370621681213,0.1821976751089096,-0.42641928791999817
1667824841326237700,3.37823779296875,-0.7657690644264221,0.26328322291374207,-0.42145463824272156
1667824841336245800,3.388245849609375,-0.9234991073608398,0.32813912630081177,-0.41242843866348267
1667824841346253600,3.398253662109375,-1.1067692041397095,0.3807852864265442,-0.40341150760650635
1667824841356260900,3.4082607421875,-1.299584984779358,0.4303309917449951,-0.39280784130096436
1667824841366268700,3.4182685546875,-1.502957820892334,0.43027934432029724,-0.3859992027282715
1667824841376276700,3.42827685546875,-1.732947587966919,0.3915165364742279,-0.40163853764533997
1667824841386283500,3.438283447265625,-1.9768308401107788,0.35257577896118164,-0.44918742775917053
1667824841396291800,3.448291748046875,-2.1972925662994385,0.32753661274909973,-0.5483799576759338
1667824841406299600,3.458299560546875,-2.3747055530548096,0.3369666039943695,-0.7020328640937805
1667824841416306700,3.468306640625,-2.4873294830322266,0.3713793456554413,-0.893315315246582
1667824841426314500,3.478314453125,-2.516528606414795,0.4386390745639801,-1.1067522764205933
1667824841436322800,3.48832275390625,-2.434422731399536,0.49897947907447815,-1.3256804943084717
1667824841446329600,3.49832958984375,-2.223012685775757,0.5187153220176697,-1.5085800886154175
1667824841456337700,3.508337646484375,-1.8766828775405884,0.4884445071220398,-1.6224192380905151
1667824841466345700,3.518345703125,-1.4338219165802002,0.39486581087112427,-1.6313714981079102
1667824841476352800,3.528352783203125,-0.9437100887298584,0.25776994228363037,-1.5230332612991333
1667824841486360600,3.538360595703125,-0.47877463698387146,0.10617243498563766,-1.3172392845153809
1667824841496367600,3.54836767578125,-0.10094845294952393,-0.02494320087134838,-1.0467417240142822
1667824841506375400,3.55837548828125,0.17105136811733246,-0.11706753075122833,-0.7385744452476501
1667824841516383700,3.5683837890625,0.3444519639015198,-0.175776407122612,-0.41137462854385376
1667824841526390500,3.578390625,0.41974005103111267,-0.2000737488269806,-0.09506859630346298
1667824841536398600,3.588398681640625,0.4266124367713928,-0.19223812222480774,0.17751692235469818
1667824841546406700,3.59840673828125,0.36010584235191345,-0.1556020826101303,0.384665846824646
1667824841556413700,3.60841357421875,0.2531016767024994,-0.07963855564594269,0.5069561004638672
1667824841566421800,3.618421875,0.15888062119483948,0.05081985145807266,0.535076916217804
1667824841576429600,3.6284296875,0.1163807138800621,0.20746898651123047,0.4762662947177887
1667824841586436900,3.638436767578125,0.14113080501556396,0.38362404704093933,0.3582341969013214
1667824841596444700,3.648444580078125,0.24380914866924286,0.5770401954650879,0.21161676943302155
1667824841606451700,3.65845166015625,0.4174589514732361,0.79842609167099,0.05939553305506706
1667824841616459500,3.66845947265625,0.6603502631187439,1.0049867630004883,-0.07698414474725723
1667824841626467600,3.678467529296875,0.9394817352294922,1.1544013023376465,-0.18990270793437958
1667824841636474600,3.688474609375,1.2125869989395142,1.2491580247879028,-0.2698954641819
1667824841646482700,3.698482666015625,1.4438519477844238,1.3005074262619019,-0.32439330220222473
1667824841656490500,3.708490478515625,1.6027445793151855,1.3133153915405273,-0.34637346863746643
1667824841666497800,3.718497802734375,1.7111603021621704,1.2996642589569092,-0.3359413146972656
1667824841676505600,3.728505615234375,1.7812694311141968,1.2325589656829834,-0.3121185898780823
1667824841686513700,3.738513671875,1.796889066696167,1.1138429641723633,-0.2916080057621002
1667824841696520400,3.7485205078125,1.7689964771270752,0.9509636759757996,-0.29404333233833313
1667824841706528800,3.75852880859375,1.6979007720947266,0.780787467956543,-0.31939929723739624
1667824841716536800,3.768536865234375,1.610033392906189,0.6192671060562134,-0.37090542912483215
1667824841726543600,3.778543701171875,1.5106940269470215,0.5069179534912109,-0.45301228761672974
1667824841736551700,3.7885517578125,1.4188953638076782,0.43859076499938965,-0.5656766295433044
1667824841746559700,3.798559814453125,1.3348102569580078,0.3970734179019928,-0.6944263577461243
1667824841756566800,3.80856689453125,1.2603930234909058,0.38566601276397705,-0.8277962803840637
1667824841766574600,3.81857470703125,1.2134835720062256,0.39586538076400757,-0.9419936537742615
1667824841776582000,3.828581787109375,1.2018128633499146,0.4220801889896393,-1.0184063911437988
1667824841786589700,3.838589599609375,1.216192603111267,0.4668383300304413,-1.0598925352096558
1667824841796597800,3.84859765625,1.2470002174377441,0.5183391571044922,-1.0702682733535767
1667824841806604500,3.8586044921875,1.2778273820877075,0.5807260870933533,-1.0598790645599365
1667824841816612600,3.868612548828125,1.3188492059707642,0.655101478099823,-1.037986397743225
1667824841826620700,3.87862060546875,1.3777031898498535,0.7200703620910645,-1.0070931911468506
1667824841836627700,3.888627685546875,1.445960521697998,0.7658861875534058,-0.978330135345459
1667824841846635500,3.898635498046875,1.5026408433914185,0.7837892770767212,-0.9767817854881287
1667824841856643600,3.9086435546875,1.5178418159484863,0.8003823757171631,-0.9911726713180542
1667824841866650600,3.918650634765625,1.5241601467132568,0.8017336130142212,-1.0182479619979858
1667824841876658700,3.92865869140625,1.5382076501846313,0.8418512940406799,-1.043540596961975
1667824841886666800,3.938666748046875,1.5725550651550293,0.882265031337738,-1.0306808948516846
1667824841896673800,3.948673828125,1.5998332500457764,0.8912535309791565,-0.966132640838623
1667824841906681900,3.958681884765625,1.5973302125930786,0.857528030872345,-0.852578341960907
1667824841916689700,3.968689697265625,1.5529518127441406,0.7861457467079163,-0.7085631489753723
1667824841926696700,3.97869677734375,1.4605848789215088,0.6677919030189514,-0.557957112789154
1667824841936704500,3.98870458984375,1.3117117881774902,0.5148134231567383,-0.42519792914390564
1667824841946711800,3.9987119140625,1.1367013454437256,0.33896782994270325,-0.2750963270664215
1667824841956719600,4.0087197265625,0.995037317276001,0.16959422826766968,-0.07609608769416809
1667824841966727700,4.018727783203125,0.926516056060791,-0.007799998857080936,0.24031701683998108
1667824841976734700,4.028734619140625,0.9485481381416321,-0.24285832047462463,0.6641523241996765
1667824841986742800,4.03874267578125,1.012791395187378,-0.5317080020904541,1.138192057609558
1667824841996750600,4.04875048828125,1.0471289157867432,-0.847381591796875,1.5911355018615723
1667824842006757600,4.058757568359375,1.0300735235214233,-1.1758290529251099,1.981397271156311
1667824842016765700,4.068765625,0.9425996541976929,-1.5016047954559326,2.303879976272583
1667824842026773800,4.078773681640625,0.7769457101821899,-1.822625756263733,2.556928873062134
1667824842036780500,4.088780517578125,0.5561458468437195,-2.108025312423706,2.758239269256592
1667824842046788600,4.09878857421875,0.29556912183761597,-2.34354305267334,2.8904542922973633
1667824842056796700,4.108796630859375,0.03654906526207924,-2.524610996246338,2.945374011993408
1667824842066803700,4.1188037109375,-0.18645818531513214,-2.651305913925171,2.9284145832061768
1667824842076811500,4.1288115234375,-0.3483273684978485,-2.719882011413574,2.8397645950317383
1667824842086819600,4.138819580078125,-0.4345000684261322,-2.6784064769744873,2.6744723320007324
1667824842096826600,4.14882666015625,-0.4578952491283417,-2.538398504257202,2.405850887298584
1667824842106834700,4.158834716796875,-0.43809837102890015,-2.3204174041748047,2.0475316047668457
1667824842116841500,4.168841552734375,-0.4016388952732086,-2.059953212738037,1.6024508476257324
1667824842126849500,4.178849609375,-0.3668191134929657,-1.7822840213775635,1.1142817735671997
1667824842136857600,4.188857666015625,-0.3527873456478119,-1.4775038957595825,0.6102739572525024
1667824842146864600,4.19886474609375,-0.38374873995780945,-1.1387956142425537,0.13811735808849335
1667824842156872400,4.20887255859375,-0.46605241298675537,-0.7963539361953735,-0.2604752779006958
1667824842166880500,4.218880615234375,-0.5971888303756714,-0.4691616892814636,-0.5603727698326111
1667824842176887600,4.228887451171875,-0.7509492635726929,-0.18950633704662323,-0.7638852596282959
1667824842186895600,4.2388955078125,-0.9098811149597168,0.032116059213876724,-0.868022084236145
1667824842196903400,4.2489033203125,-1.0625258684158325,0.1876286417245865,-0.894288182258606
1667824842206910700,4.25891064453125,-1.1945738792419434,0.2895022928714752,-0.86299067735672
1667824842216918500,4.26891845703125,-1.2906731367111206,0.3585880994796753,-0.803229033946991
1667824842226926600,4.278926513671875,-1.3469241857528687,0.3852836489677429,-0.727078378200531
1667824842236933400,4.288933349609375,-1.362992525100708,0.36791738867759705,-0.6484668850898743
1667824842246941400,4.29894140625,-1.342597484588623,0.3120861053466797,-0.5673502087593079
1667824842256949500,4.308949462890625,-1.2983509302139282,0.21157118678092957,-0.47577354311943054
1667824842266956500,4.31895654296875,-1.2432917356491089,0.07773882150650024,-0.3741190731525421
1667824842276964400,4.32896435546875,-1.1904386281967163,-0.07622647285461426,-0.2733890414237976
1667824842286972400,4.338972412109375,-1.137954831123352,-0.23095905780792236,-0.1719212681055069
1667824842296979500,4.3489794921875,-1.083414077758789,-0.39599862694740295,-0.09046939760446548
1667824842306987500,4.358987548828125,-1.0433473587036133,-0.5603497624397278,-0.031447622925043106
1667824842316994300,4.368994384765625,-1.0426489114761353,-0.6970698237419128,-0.0180819071829319
1667824842327002600,4.379002685546875,-1.064444661140442,-0.7940678000450134,-0.04912078380584717
1667824842337010700,4.3890107421875,-1.0834507942199707,-0.8381102681159973,-0.10901588201522827
1667824842347017500,4.399017578125,-1.076857089996338,-0.8439574837684631,-0.18008925020694733
1667824842357025500,4.409025634765625,-1.0515685081481934,-0.820790708065033,-0.2579411566257477
1667824842367033600,4.41903369140625,-1.010883092880249,-0.7764389514923096,-0.32656335830688477
1667824842377040600,4.42904052734375,-0.9606537818908691,-0.7115573287010193,-0.3969765305519104
1667824842387048400,4.43904833984375,-0.9052509665489197,-0.6222705841064453,-0.4454441964626312
1667824842397056500,4.449056396484375,-0.844241201877594,-0.5253209471702576,-0.463415265083313
1667824842407063600,4.4590634765625,-0.7865747213363647,-0.4379596710205078,-0.4535333514213562
1667824842417071600,4.469071533203125,-0.7504130601882935,-0.3620619475841522,-0.4094043970108032
1667824842427079400,4.479079345703125,-0.7346503138542175,-0.2921353280544281,-0.3556458353996277
1667824842437086500,4.48908642578125,-0.7505658864974976,-0.2370411902666092,-0.29285603761672974
1667824842447094500,4.499094482421875,-0.8147892951965332,-0.20321105420589447,-0.2405686229467392
1667824842457102600,4.5091025390625,-0.9178057312965393,-0.17677059769630432,-0.19357751309871674
1667824842467109400,4.519109375,-1.0619661808013916,-0.15429405868053436,-0.16774378716945648
1667824842477117400,4.529117431640625,-1.2288364171981812,-0.139032244682312,-0.17216038703918457
1667824842487124500,4.53912451171875,-1.4137239456176758,-0.1387976109981537,-0.19923993945121765
1667824842497132500,4.549132568359375,-1.608701467514038,-0.14672985672950745,-0.26991334557533264
1667824842507140600,4.559140625,-1.79392671585083,-0.13647907972335815,-0.37872156500816345
1667824842517147600,4.569147705078125,-1.9301847219467163,-0.08147239685058594,-0.5302331447601318
1667824842527155700,4.57915576171875,-2.014786720275879,0.011514533311128616,-0.7033564448356628
1667824842537163500,4.58916357421875,-2.0212574005126953,0.10395543277263641,-0.8701221942901611
1667824842547170600,4.599170654296875,-1.9479000568389893,0.17174486815929413,-1.0084513425827026
1667824842557178600,4.6091787109375,-1.7837945222854614,0.20654043555259705,-1.1170717477798462
1667824842567186700,4.619186767578125,-1.5493165254592896,0.20483893156051636,-1.1701260805130005
1667824842577193500,4.629193359375,-1.2719240188598633,0.1811782568693161,-1.1710125207901
1667824842587201500,4.639201416015625,-0.9848957657814026,0.1315595805644989,-1.1219233274459839
1667824842597209300,4.649209228515625,-0.7082315683364868,0.08625774830579758,-1.0266472101211548
1667824842607216600,4.659216552734375,-0.4394212067127228,0.038530703634023666,-0.8841879963874817
1667824842617224400,4.669224365234375,-0.18331007659435272,-0.005896560847759247,-0.6953670382499695
1667824842627232500,4.679232421875,0.04849039763212204,-0.03317984566092491,-0.47083592414855957
1667824842637239600,4.689239501953125,0.251506507396698,-0.045853812247514725,-0.23097039759159088
1667824842647247600,4.69924755859375,0.4145478904247284,-0.040314435958862305,0.0008282242342829704
1667824842657254400,4.70925439453125,0.5182827711105347,-0.015086740255355835,0.192607119679451
1667824842667262500,4.719262451171875,0.5646979212760925,0.029609093442559242,0.3417752981185913
1667824842677270500,4.7292705078125,0.5682784914970398,0.09728200733661652,0.44017302989959717
1667824842687277600,4.739277587890625,0.56497722864151,0.21805371344089508,0.47281432151794434
1667824842697285600,4.74928564453125,0.5878965854644775,0.35571736097335815,0.4642867147922516
1667824842707293400,4.75929345703125,0.6443808674812317,0.46767133474349976,0.43997737765312195
1667824842717300700,4.76930078125,0.740767776966095,0.5502163767814636,0.41962486505508423
1667824842727308500,4.77930859375,0.86882084608078,0.6025989055633545,0.4179399013519287
1667824842737316600,4.789316650390625,1.0287786722183228,0.6319505572319031,0.43680959939956665
1667824842747323400,4.799323486328125,1.2026621103286743,0.6422839164733887,0.4586421847343445
1667824842757331700,4.809331787109375,1.3744553327560425,0.6475021839141846,0.4776640832424164
1667824842767339500,4.819339599609375,1.5246105194091797,0.6386812329292297,0.4918358325958252
1667824842777346600,4.8293466796875,1.6439815759658813,0.6197726726531982,0.5008805990219116
1667824842787354400,4.839354248046875,1.728222131729126,0.5799674987792969,0.5193155407905579
1667824842797361700,4.849361572265625,1.779693603515625,0.5154232382774353,0.5484170913696289
1667824842807369500,4.859369384765625,1.7822678089141846,0.4420992136001587,0.5708398222923279
1667824842817377500,4.86937744140625,1.7392807006835938,0.36327874660491943,0.570194661617279
1667824842827384600,4.879384521484375,1.6666916608810425,0.29163169860839844,0.5302538871765137
1667824842837392600,4.889392578125,1.5879197120666504,0.24155910313129425,0.4457100033760071
1667824842847400400,4.899400390625,1.5343153476715088,0.21231520175933838,0.31468406319618225
1667824842857407500,4.909407470703125,1.5096886157989502,0.20223021507263184,0.15335586667060852
1667824842867415600,4.91941552734375,1.4964165687561035,0.20829981565475464,-0.026471426710486412
1667824842877423600,4.929423583984375,1.475947380065918,0.21956025063991547,-0.21311011910438538
1667824842887430400,4.939430419921875,1.4382109642028809,0.2593231201171875,-0.3845148980617523
1667824842897438500,4.9494384765625,1.396051049232483,0.3230650722980499,-0.5351622700691223
1667824842907446500,4.959446533203125,1.357195496559143,0.40202566981315613,-0.6564239859580994
1667824842917453600,4.96945361328125,1.331044316291809,0.4851861894130707,-0.7505630850791931
1667824842927461600,4.979461669921875,1.3151715993881226,0.588451087474823,-0.817063570022583
1667824842937469400,4.989469482421875,1.3239327669143677,0.7128627300262451,-0.859952986240387
1667824842947476700,4.999476806640625,1.335280179977417,0.8437648415565491,-0.8839075565338135
1667824842957484500,5.009484619140625,1.3421075344085693,0.9596617817878723,-0.8792110681533813
1667824842967492600,5.01949267578125,1.3647515773773193,1.0566973686218262,-0.8694998621940613
1667824842977499400,5.02949951171875,1.3906618356704712,1.1433616876602173,-0.8560605645179749
1667824842987507500,5.039507568359375,1.4051674604415894,1.2106797695159912,-0.8297376036643982
1667824842997514500,5.049514404296875,1.3967041969299316,1.2548761367797852,-0.7850526571273804
1667824843007522600,5.0595224609375,1.3887672424316406,1.2682462930679321,-0.7277608513832092
1667824843017530400,5.0695302734375,1.3802895545959473,1.274330496788025,-0.6524093747138977
1667824843027537700,5.07953759765625,1.356872320175171,1.2747118473052979,-0.5646422505378723
1667824843037545500,5.08954541015625,1.2816187143325806,1.2719274759292603,-0.4522381126880646
1667824843047553500,5.099553466796875,1.1688055992126465,1.2497907876968384,-0.3118770122528076
1667824843057560300,5.109560302734375,1.0559755563735962,1.1987378597259521,-0.15383924543857574
1667824843067568600,5.119568603515625,0.8928539752960205,1.0780210494995117,-0.0031986015383154154
1667824843077576700,5.12957666015625,0.6771198511123657,0.9040150046348572,0.12725749611854553
1667824843087583500,5.13958349609375,0.43601271510124207,0.7234052419662476,0.21273884177207947
1667824843097591600,5.149591552734375,0.2092791497707367,0.5610357522964478,0.31774216890335083
1667824843107599600,5.159599609375,0.07017824798822403,0.38929861783981323,0.4898976683616638
1667824843117606700,5.169606689453125,0.052267443388700485,0.16861502826213837,0.7221238017082214
1667824843127614500,5.179614501953125,0.14331425726413727,-0.12537293136119843,0.9693381190299988
1667824843137622500,5.18962255859375,0.2577662765979767,-0.4964454472064972,1.165967583656311
1667824843147629600,5.199629638671875,0.3261874318122864,-0.8851969242095947,1.3028823137283325
1667824843157637600,5.2096376953125,0.3103502690792084,-1.2331211566925049,1.4232498407363892
1667824843167644400,5.21964453125,0.19835451245307922,-1.5505797863006592,1.5635966062545776
1667824843177652500,5.229652587890625,0.014122188091278076,-1.802541732788086,1.719779133796692
1667824843187660500,5.23966064453125,-0.21385426819324493,-1.952340841293335,1.8651671409606934
1667824843197667600,5.24966748046875,-0.45415565371513367,-2.006824016571045,1.9572334289550781
1667824843207675400,5.25967529296875,-0.6729561686515808,-1.9736735820770264,1.960236668586731
1667824843217683500,5.269683349609375,-0.8496417999267578,-1.8493748903274536,1.8678371906280518
1667824843227690500,5.2796904296875,-0.953845202922821,-1.6614269018173218,1.6711944341659546
1667824843237698600,5.289698486328125,-0.9839732050895691,-1.4147449731826782,1.3578153848648071
1667824843247706600,5.29970654296875,-0.9521644115447998,-1.136912226676941,0.9535789489746094
1667824843257713700,5.309713623046875,-0.8790563941001892,-0.8473467826843262,0.4862106740474701
1667824843267721700,5.3197216796875,-0.7774221897125244,-0.5875562429428101,0.014113971963524818
1667824843277729500,5.3297294921875,-0.6585630178451538,-0.38177725672721863,-0.40507832169532776
1667824843287736600,5.339736572265625,-0.5560632348060608,-0.2488730400800705,-0.726693868637085
1667824843297744600,5.34974462890625,-0.49809858202934265,-0.1985742598772049,-0.9320560693740845
1667824843307752700,5.359752685546875,-0.47125309705734253,-0.19339574873447418,-1.004582166671753
1667824843317759500,5.369759521484375,-0.4620760381221771,-0.22119399905204773,-0.9646369218826294
1667824843327767600,5.379767578125,-0.46054020524024963,-0.26356834173202515,-0.8333422541618347
1667824843337774600,5.389774658203125,-0.4397755265235901,-0.32674193382263184,-0.6257017254829407
1667824843347782700,5.39978271484375,-0.40859097242355347,-0.39634472131729126,-0.37960484623908997
1667824843357790500,5.40979052734375,-0.3673454523086548,-0.46926426887512207,-0.12943284213542938
1667824843367797500,5.419797607421875,-0.332213819026947,-0.5385242700576782,0.09130299091339111
1667824843377805600,5.4298056640625,-0.3160817623138428,-0.6004627346992493,0.26684409379959106
1667824843387813600,5.439813720703125,-0.3196850121021271,-0.652341365814209,0.3847233057022095
1667824843397820400,5.4498203125,-0.3319980204105377,-0.6952040791511536,0.44255661964416504
1667824843407828500,5.459828369140625,-0.3493778109550476,-0.7194835543632507,0.45882266759872437
1667824843417836500,5.46983642578125,-0.3543762266635895,-0.7254266738891602,0.45431065559387207
1667824843427843600,5.479843505859375,-0.35974037647247314,-0.7235800623893738,0.42717355489730835
1667824843437851400,5.489851318359375,-0.3692244589328766,-0.717858612537384,0.39501476287841797
1667824843447859500,5.499859375,-0.3884042799472809,-0.7310985326766968,0.3418567180633545
1667824843457866500,5.509866455078125,-0.4294182360172272,-0.752386748790741,0.2546525299549103
1667824843467874600,5.51987451171875,-0.4915172755718231,-0.7784441709518433,0.13540945947170258
1667824843477882600,5.529882568359375,-0.566624104976654,-0.7888912558555603,-0.016542479395866394
1667824843487889400,5.539889404296875,-0.6359999775886536,-0.770148754119873,-0.18534481525421143
1667824843497897700,5.549897705078125,-0.6887744665145874,-0.7451251745223999,-0.34904515743255615
1667824843507905500,5.559905517578125,-0.7246565818786621,-0.7124798893928528,-0.4837840795516968
1667824843517912600,5.56991259765625,-0.7480180263519287,-0.6730552911758423,-0.5884394645690918
1667824843527920400,5.57992041015625,-0.7669802308082581,-0.6200311779975891,-0.6633861660957336
1667824843537927700,5.589927734375,-0.7877336740493774,-0.580686092376709,-0.6900960206985474
1667824843547935500,5.599935546875,-0.810698390007019,-0.5388158559799194,-0.6784180402755737
1667824843557943600,5.609943603515625,-0.8367171287536621,-0.5046299695968628,-0.634875476360321
1667824843567950600,5.61995068359375,-0.8812049627304077,-0.47644364833831787,-0.5719878673553467
1667824843577958700,5.629958740234375,-0.9535717368125916,-0.46071475744247437,-0.5104756355285645
1667824843587966500,5.639966552734375,-1.0587286949157715,-0.44507133960723877,-0.4497448801994324
1667824843597973500,5.649973388671875,-1.1913710832595825,-0.42815959453582764,-0.3989320397377014
1667824843607981600,5.659981689453125,-1.3439282178878784,-0.43599486351013184,-0.3583718240261078
1667824843617989600,5.66998974609375,-1.5214300155639648,-0.46663784980773926,-0.3401140868663788
1667824843627996400,5.679996337890625,-1.73531973361969,-0.5227245688438416,-0.3758222758769989
1667824843638004500,5.69000439453125,-1.9594659805297852,-0.5447445511817932,-0.4765240550041199
1667824843648012500,5.700012451171875,-2.1536362171173096,-0.4947942793369293,-0.6389153003692627
1667824843658019600,5.71001953125,-2.275042772293091,-0.4035886824131012,-0.8405495882034302
1667824843668027600,5.720027587890625,-2.308128833770752,-0.30177417397499084,-1.0372501611709595
1667824843678035500,5.730035400390625,-2.23752498626709,-0.17743392288684845,-1.1919832229614258
1667824843688042800,5.740042724609375,-2.0553035736083984,-0.07113278657197952,-1.2642682790756226
1667824843698050600,5.750050537109375,-1.7900570631027222,0.0014512795023620129,-1.2549923658370972
1667824843708058600,5.76005859375,-1.4901165962219238,0.01866781711578369,-1.161294937133789
1667824843718065400,5.7700654296875,-1.1941120624542236,0.014229425229132175,-1.0034668445587158
1667824843728073500,5.780073486328125,-0.9367356300354004,-0.02217172645032406,-0.779155969619751
1667824843738080500,5.79008056640625,-0.7406330108642578,-0.05035269632935524,-0.528065025806427
1667824843748088600,5.800088623046875,-0.6115202903747559,-0.055624958127737045,-0.26675406098365784
1667824843758096400,5.810096435546875,-0.522628664970398,-0.03245415538549423,-0.011594284325838089
1667824843768103700,5.820103759765625,-0.4490913152694702,0.028105858713388443,0.21646177768707275
1667824843778111500,5.830111572265625,-0.37652787566185,0.11256954073905945,0.4126322269439697
1667824843788119600,5.84011962890625,-0.2930729389190674,0.20674878358840942,0.5419427752494812
1667824843798126300,5.850126220703125,-0.18310049176216125,0.3015825152397156,0.6140896081924438
1667824843808134700,5.860134765625,-0.06610383093357086,0.381979376077652,0.6300725340843201
1667824843818142700,5.870142822265625,0.0551784448325634,0.4674488604068756,0.608684241771698
1667824843828149500,5.8801494140625,0.1865987926721573,0.5585508346557617,0.5720117092132568
1667824843838157600,5.890157470703125,0.33306199312210083,0.6448947787284851,0.5300682783126831
1667824843848165600,5.90016552734375,0.4970809817314148,0.711173415184021,0.49841955304145813
1667824843858172700,5.910172607421875,0.663885235786438,0.7490367293357849,0.47735270857810974
1667824843868180500,5.920180419921875,0.826465368270874,0.7551766037940979,0.4769846498966217
1667824843878188500,5.9301884765625,0.971031904220581,0.7280551195144653,0.4942123293876648
1667824843888195600,5.940195556640625,1.0955618619918823,0.6853588223457336,0.5318702459335327
1667824843898203600,5.95020361328125,1.2148540019989014,0.620530903339386,0.578941285610199
1667824843908210400,5.96021044921875,1.3162384033203125,0.5288417339324951,0.615317165851593
1667824843918218500,5.970218505859375,1.396111249923706,0.42596784234046936,0.6269028186798096
1667824843928226600,5.9802265625,1.4605169296264648,0.34148329496383667,0.608046293258667
1667824843938233600,5.990233642578125,1.506645679473877,0.2786564528942108,0.5465540289878845
1667824843948241400,6.000241455078125,1.5518534183502197,0.23249667882919312,0.4365180432796478
1667824843958249500,6.01024951171875,1.6038087606430054,0.20346195995807648,0.29019272327423096
1667824843968256500,6.020256591796875,1.6588587760925293,0.1854475438594818,0.10446973890066147
1667824843978264600,6.0302646484375,1.7083722352981567,0.17535905539989471,-0.09940139949321747
1667824843988272400,6.0402724609375,1.7582842111587524,0.17441070079803467,-0.3069290220737457
1667824843998279700,6.05027978515625,1.7951655387878418,0.17163637280464172,-0.4896804094314575
1667824844008287500,6.06028759765625,1.7836817502975464,0.16193100810050964,-0.6353657245635986
1667824844018295600,6.070295654296875,1.7220922708511353,0.17081290483474731,-0.7601238489151001
1667824844028302300,6.08030224609375,1.6526896953582764,0.2329052984714508,-0.8829043507575989
1667824844038310400,6.090310302734375,1.5983705520629883,0.3213467001914978,-0.9907578229904175
1667824844048317400,6.1003173828125,1.5678064823150635,0.43581122159957886,-1.0774801969528198
1667824844058325500,6.110325439453125,1.5657551288604736,0.565572202205658,-1.1445910930633545
1667824844068333600,6.12033349609375,1.5848979949951172,0.7049348950386047,-1.1974987983703613
1667824844078340600,6.130340576171875,1.610867977142334,0.8572392463684082,-1.2502124309539795
1667824844088348700,6.1403486328125,1.6019370555877686,1.0199532508850098,-1.3060165643692017
1667824844098356500,6.1503564453125,1.541679859161377,1.1519218683242798,-1.3584858179092407
1667824844108363500,6.160363525390625,1.4593309164047241,1.2649497985839844,-1.4010013341903687
1667824844118371600,6.17037158203125,1.3912599086761475,1.3753101825714111,-1.4473460912704468
1667824844128379600,6.180379638671875,1.3315305709838867,1.470597267150879,-1.4805504083633423
1667824844138386400,6.190386474609375,1.263706088066101,1.5138576030731201,-1.4960048198699951
1667824844148394200,6.200394287109375,1.190204381942749,1.5532091856002808,-1.485329270362854
1667824844158402600,6.210402587890625,1.114909052848816,1.5958248376846313,-1.4429800510406494
1667824844168409300,6.220409423828125,1.0389167070388794,1.6026047468185425,-1.3480255603790283
1667824844178417400,6.23041748046875,0.9766542315483093,1.5740246772766113,-1.1985465288162231
1667824844188425200,6.24042529296875,0.9176269173622131,1.5114878416061401,-1.0014880895614624
1667824844198432500,6.2504326171875,0.8392317891120911,1.4068608283996582,-0.7874611020088196
1667824844208440300,6.2604404296875,0.7494798302650452,1.2864155769348145,-0.5560259819030762
1667824844218448400,6.270448486328125,0.6459126472473145,1.1473662853240967,-0.318703830242157
1667824844228455400,6.280455322265625,0.5421436429023743,0.9915581941604614,-0.08782695978879929
1667824844238463500,6.29046337890625,0.45651957392692566,0.8100095987319946,0.13013872504234314
1667824844248470300,6.30047021484375,0.37595707178115845,0.610407292842865,0.33088594675064087
1667824844258478300,6.310478271484375,0.289565771818161,0.411996990442276,0.5286338329315186
1667824844268486400,6.320486328125,0.20440348982810974,0.18624934554100037,0.7499337196350098
1667824844278493400,6.330493408203125,0.14847636222839355,-0.08262352645397186,1.0054152011871338
1667824844288501500,6.34050146484375,0.11339853703975677,-0.4138435423374176,1.278251051902771
1667824844298509300,6.35050927734375,0.11219558864831924,-0.792862594127655,1.542326807975769
1667824844308516600,6.3605166015625,0.10234694927930832,-1.1709725856781006,1.781947374343872
1667824844318524400,6.3705244140625,0.05703060328960419,-1.5204954147338867,2.0090503692626953
1667824844328532500,6.380532470703125,-0.007438398897647858,-1.805124282836914,2.230787754058838
1667824844338539300,6.390539306640625,-0.08713243901729584,-2.028198003768921,2.418489694595337
1667824844348547600,6.400547607421875,-0.1854579597711563,-2.162853717803955,2.549001455307007
1667824844358555400,6.410555419921875,-0.2853866517543793,-2.2042508125305176,2.5942583084106445
1667824844368562400,6.4205625,-0.3770414888858795,-2.130059003829956,2.526496171951294
1667824844378570200,6.4305703125,-0.4607795476913452,-1.9541923999786377,2.332171678543091
1667824844388578300,6.440578369140625,-0.529688835144043,-1.6938502788543701,2.015995740890503
1667824844398585300,6.45058544921875,-0.582696259021759,-1.3780384063720703,1.6013723611831665
1667824844408593400,6.460593505859375,-0.6218748688697815,-1.0342237949371338,1.1064432859420776
1667824844418600400,6.470600341796875,-0.6587561964988708,-0.677839457988739,0.580829918384552
1667824844428608500,6.4806083984375,-0.7049732208251953,-0.36030516028404236,0.06698813289403915
1667824844438616600,6.490616455078125,-0.757106363773346,-0.09869737178087234,-0.3677240312099457
1667824844448623400,6.500623291015625,-0.8018642067909241,0.10125409066677094,-0.6926440000534058
1667824844458631400,6.51063134765625,-0.8267349004745483,0.24198122322559357,-0.8808162808418274
1667824844468639500,6.520639404296875,-0.8267399668693542,0.29520314931869507,-0.9440447688102722
1667824844478646500,6.530646484375,-0.8127635717391968,0.28999680280685425,-0.9073320031166077
1667824844488654300,6.540654296875,-0.792503297328949,0.2340480387210846,-0.7932754755020142
1667824844498662400,6.550662353515625,-0.7600107192993164,0.12086458504199982,-0.6245585680007935
1667824844508669400,6.56066943359375,-0.7204872369766235,-0.019998254254460335,-0.407248318195343
1667824844518677500,6.570677490234375,-0.6753573417663574,-0.18780139088630676,-0.17313820123672485
1667824844528685300,6.580685302734375,-0.6342860460281372,-0.37563571333885193,0.057236943393945694
1667824844538692400,6.5906923828125,-0.6094636917114258,-0.5736250281333923,0.27583056688308716
1667824844548700400,6.600700439453125,-0.6104807257652283,-0.7592803835868835,0.458305299282074
1667824844558708500,6.61070849609375,-0.6066733002662659,-0.9036105871200562,0.5868889093399048
1667824844568715300,6.62071533203125,-0.5868210196495056,-0.9941410422325134,0.6488833427429199
1667824844578723300,6.630723388671875,-0.5590858459472656,-1.0311405658721924,0.6515200734138489
1667824844588730400,6.64073046875,-0.5130158066749573,-1.036700963973999,0.6138118505477905
1667824844598738400,6.650738525390625,-0.45715653896331787,-1.0240494012832642,0.5438382625579834
1667824844608746500,6.66074658203125,-0.4062422215938568,-1.0200589895248413,0.45497044920921326
1667824844618753500,6.67075341796875,-0.3749551773071289,-1.0116907358169556,0.3462337851524353
1667824844628761600,6.68076171875,-0.36951062083244324,-0.9934146404266357,0.23251758515834808
1667824844638769400,6.690769287109375,-0.3877488672733307,-0.96875,0.1269841492176056
1667824844648776400,6.7007763671875,-0.4284089505672455,-0.9280151128768921,0.03532187268137932
1667824844658784500,6.710784423828125,-0.4722205400466919,-0.8653737306594849,-0.04710361361503601
1667824844668792600,6.72079248046875,-0.5229489207267761,-0.7960631251335144,-0.09636543691158295
1667824844678799400,6.73079931640625,-0.566282331943512,-0.7270568013191223,-0.10883034020662308
1667824844688807400,6.740807373046875,-0.6169819831848145,-0.6427099704742432,-0.09524422138929367
1667824844698815200,6.750815185546875,-0.6692922115325928,-0.5539411306381226,-0.06825339049100876
1667824844708822500,6.760822509765625,-0.7246829867362976,-0.45807403326034546,-0.04751189053058624
1667824844718830300,6.770830322265625,-0.796663761138916,-0.370383083820343,-0.03528684005141258
1667824844728838400,6.78083837890625,-0.8830345869064331,-0.3410148024559021,-0.032416485249996185
1667824844738845400,6.790845458984375,-1.0320618152618408,-0.3520883023738861,-0.040636926889419556
1667824844748853500,6.800853515625,-1.2578270435333252,-0.3691413402557373,-0.08542010933160782
1667824844758860300,6.8108603515625,-1.5269770622253418,-0.3739892840385437,-0.17141057550907135
1667824844768868400,6.820868408203125,-1.8155497312545776,-0.35889583826065063,-0.3077085018157959
1667824844778876400,6.83087646484375,-2.083979845046997,-0.32067734003067017,-0.4951336681842804
1667824844788883500,6.840883544921875,-2.303021192550659,-0.23687030375003815,-0.737064003944397
1667824844798891300,6.850891357421875,-2.4415853023529053,-0.11603613197803497,-1.004980444908142
1667824844808899300,6.8608994140625,-2.472318410873413,0.0036929273046553135,-1.2465462684631348
1667824844818906400,6.87090625,-2.396151542663574,0.09363351762294769,-1.4296607971191406
1667824844828914400,6.88091455078125,-2.252639055252075,0.12395546585321426,-1.5447874069213867
1667824844838922500,6.890922607421875,-2.087432384490967,0.14063018560409546,-1.5973126888275146
1667824844848929300,6.90092919921875,-1.9115736484527588,0.13672465085983276,-1.568817377090454
1667824844858937600,6.9109375,-1.7507851123809814,0.09819535166025162,-1.4588104486465454
1667824844868945400,6.9209453125,-1.606157660484314,0.029898056760430336,-1.283333659172058
1667824844878952400,6.930952392578125,-1.4671086072921753,-0.0311984121799469,-1.0625096559524536
1667824844888960300,6.940960205078125,-1.3257945775985718,-0.08866649866104126,-0.8227162957191467
1667824844898968600,6.950968505859375,-1.1715022325515747,-0.12560835480690002,-0.5615128874778748
1667824844908975400,6.960975341796875,-0.996577262878418,-0.14125920832157135,-0.3057897984981537
1667824844918983400,6.9709833984375,-0.8051296472549438,-0.12139233946800232,-0.06890848278999329
1667824844928991200,6.9809912109375,-0.6024460196495056,-0.08492673933506012,0.14048922061920166
1667824844938998500,6.99099853515625,-0.3962070345878601,-0.024111870676279068,0.3157932758331299
1667824844949006300,7.00100634765625,-0.1981581300497055,0.051238540560007095,0.4418470859527588
1667824844959013400,7.011013427734375,-0.013318724930286407,0.13332141935825348,0.5250116586685181
1667824844969021400,7.021021484375,0.1657668799161911,0.2262018322944641,0.5744694471359253
1667824844979029500,7.031029541015625,0.33962637186050415,0.30793288350105286,0.6085353493690491
1667824844989036300,7.041036376953125,0.48984917998313904,0.37827175855636597,0.6195520162582397
1667824844999044400,7.05104443359375,0.6312276124954224,0.43798524141311646,0.6161184310913086
1667824845009052400,7.061052490234375,0.7749791741371155,0.47164517641067505,0.5960139632225037
1667824845019059500,7.0710595703125,0.9190006256103516,0.4851875901222229,0.5762624144554138
1667824845029067500,7.081067626953125,1.075340747833252,0.48467788100242615,0.5613212585449219
1667824845039075300,7.091075439453125,1.22685706615448,0.47782936692237854,0.5346187949180603
1667824845049082600,7.10108251953125,1.3923108577728271,0.4608413279056549,0.48412179946899414
1667824845059090400,7.11109033203125,1.5699563026428223,0.42581409215927124,0.41246283054351807
1667824845069098500,7.121098388671875,1.7507662773132324,0.3841542601585388,0.3270438015460968
1667824845079105300,7.131105224609375,1.9194222688674927,0.3369970917701721,0.22828438878059387
1667824845089113600,7.141113525390625,2.062004327774048,0.2961133122444153,0.11819597333669662
1667824845099121400,7.151121337890625,2.166171073913574,0.2761327922344208,0.00876996386796236
1667824845109128400,7.16112841796875,2.231168746948242,0.2561764121055603,-0.10070992261171341
1667824845119136300,7.17113623046875,2.266728162765503,0.22460202872753143,-0.21159924566745758
1667824845129143600,7.1811435546875,2.273515224456787,0.21462556719779968,-0.322541743516922
1667824845139152000,7.19115185546875,2.2555835247039795,0.23417429625988007,-0.4316905736923218
1667824845149160000,7.201159912109375,2.222371816635132,0.28947246074676514,-0.5324864387512207
1667824845159166700,7.211166748046875,2.180544853210449,0.3618156313896179,-0.6350151896476746
1667824845169174800,7.2211748046875,2.129182815551758,0.45937255024909973,-0.7315401434898376
1667824845179183000,7.23118310546875,2.0844976902008057,0.5986616611480713,-0.8308514952659607
1667824845189190000,7.24118994140625,2.059704542160034,0.7808269262313843,-0.9146324396133423
1667824845199198000,7.251197998046875,2.0589895248413086,0.9766536355018616,-0.9754757881164551
1667824845209205800,7.261205810546875,2.0605485439300537,1.1484259366989136,-1.0065356492996216
1667824845219213000,7.271213134765625,2.0416979789733887,1.2593352794647217,-1.010595679283142
1667824845229220900,7.281220947265625,2.000444173812866,1.3310421705245972,-1.0088467597961426
1667824845239229000,7.29122900390625,1.9217050075531006,1.3951061964035034,-1.0124143362045288
1667824845249236000,7.301236083984375,1.7784154415130615,1.4528330564498901,-1.0059607028961182
1667824845259244000,7.311244140625,1.6177548170089722,1.488961100578308,-0.97630774974823
1667824845269251800,7.321251953125,1.494899034500122,1.517218828201294,-0.9224109649658203
1667824845279259000,7.3312587890625,1.4077064990997314,1.5432099103927612,-0.843575119972229
1667824845289267000,7.341266845703125,1.3454612493515015,1.5279262065887451,-0.7493087649345398
1667824845299275000,7.35127490234375,1.2994773387908936,1.4796886444091797,-0.6204395294189453
1667824845309281800,7.36128173828125,1.2599648237228394,1.3653475046157837,-0.4881976246833801
1667824845319289900,7.371289794921875,1.182806134223938,1.162017583847046,-0.3841588497161865
1667824845329297000,7.381296875,1.039177417755127,0.9470546245574951,-0.31106841564178467
1667824845339305000,7.391304931640625,0.8535954356193542,0.8167852163314819,-0.21710249781608582
1667824845349313000,7.40131298828125,0.7116952538490295,0.74317467212677,-0.030297724530100822
1667824845359319800,7.41131982421875,0.6767870187759399,0.6223680377006531,0.27624523639678955
1667824845369328000,7.421328125,0.7464880347251892,0.41099217534065247,0.6606791615486145
1667824845379336000,7.4313359375,0.8166926503181458,0.07859852910041809,1.0822465419769287
1667824845389343000,7.441343017578125,0.8390206098556519,-0.3233579695224762,1.5251668691635132
1667824845399350800,7.451350830078125,0.789344072341919,-0.7044321894645691,2.0098209381103516
1667824845409359000,7.461359130859375,0.6798122525215149,-1.0861449241638184,2.519862651824951
1667824845419366000,7.471365966796875,0.5246609449386597,-1.4916523694992065,3.0176706314086914
1667824845429374000,7.4813740234375,0.32980412244796753,-1.88209867477417,3.443142890930176
1667824845439381800,7.4913818359375,0.1404147744178772,-2.2307257652282715,3.7199015617370605
1667824845449389000,7.50138916015625,-0.016540750861167908,-2.5145602226257324,3.814117431640625
1667824845459396900,7.51139697265625,-0.12076763808727264,-2.7103500366210938,3.702035665512085
1667824845469405000,7.521405029296875,-0.1653423011302948,-2.7957727909088135,3.3878426551818848
1667824845479412000,7.531411865234375,-0.1574144810438156,-2.7683000564575195,2.89807391166687
1667824845489420000,7.541419921875,-0.11462200433015823,-2.6328024864196777,2.2924160957336426
1667824845499426800,7.5514267578125,-0.06329893320798874,-2.4117431640625,1.6133036613464355
1667824845509435000,7.561434814453125,-0.047760721296072006,-2.1383180618286133,0.9551205039024353
1667824845519443000,7.57144287109375,-0.10371389985084534,-1.8451342582702637,0.354291707277298
1667824845529450000,7.581449951171875,-0.23438189923763275,-1.5077452659606934,-0.15911968052387238
1667824845539458000,7.5914580078125,-0.4270855486392975,-1.1125013828277588,-0.5821611285209656
1667824845549465900,7.6014658203125,-0.656328558921814,-0.6683349013328552,-0.915367066860199
1667824845559473000,7.611472900390625,-0.8823599219322205,-0.21919986605644226,-1.181314468383789
1667824845569481000,7.62148095703125,-1.078708291053772,0.21140559017658234,-1.3926879167556763
1667824845579489000,7.631489013671875,-1.2327091693878174,0.5730082988739014,-1.5374165773391724
1667824845589495800,7.641495849609375,-1.3437576293945312,0.8813046216964722,-1.6190794706344604
1667824845599504000,7.65150390625,-1.4065378904342651,1.1429954767227173,-1.6278973817825317
1667824845609512000,7.661511962890625,-1.4128568172454834,1.3235687017440796,-1.5754696130752563
1667824845619519000,7.67151904296875,-1.381577491760254,1.4174377918243408,-1.4590948820114136
1667824845629526800,7.68152685546875,-1.3321175575256348,1.3919428586959839,-1.2995712757110596
1667824845639534800,7.691534912109375,-1.2721495628356934,1.2690664529800415,-1.1076627969741821
1667824845649542000,7.7015419921875,-1.225579023361206,1.0637143850326538,-0.8970009088516235
1667824845659550000,7.711550048828125,-1.2022851705551147,0.7849854230880737,-0.6727103590965271
1667824845669557800,7.721557861328125,-1.193686604499817,0.47693121433258057,-0.4627629816532135
1667824845679565000,7.73156494140625,-1.1886996030807495,0.17179754376411438,-0.2751304507255554
1667824845689572900,7.74157275390625,-1.175297498703003,-0.1406378597021103,-0.1176055371761322
1667824845699580000,7.751579833984375,-1.1515026092529297,-0.4535689651966095,-0.00768758449703455
1667824845709587700,7.761587646484375,-1.1172226667404175,-0.7102490067481995,0.05234645679593086
1667824845719596000,7.771595947265625,-1.0790952444076538,-0.8759291172027588,0.04280303046107292
1667824845729602800,7.781602783203125,-1.0324171781539917,-0.9639313817024231,0.0015237689949572086
1667824845739611000,7.79161083984375,-0.986002504825592,-1.0100616216659546,-0.054685644805431366
1667824845749619000,7.801618896484375,-0.9283772706985474,-1.0258980989456177,-0.10486040264368057
1667824845759626000,7.8116259765625,-0.8778268694877625,-1.0080065727233887,-0.15216737985610962
1667824845769634000,7.821634033203125,-0.8471376895904541,-0.9556025266647339,-0.18639034032821655
1667824845779641900,7.831641845703125,-0.8366490602493286,-0.878350555896759,-0.2053930163383484
1667824845789649000,7.84164892578125,-0.8336108922958374,-0.7940990924835205,-0.1936255693435669
1667824845799657000,7.851656982421875,-0.8299715518951416,-0.6974996328353882,-0.16098925471305847
1667824845809665000,7.8616650390625,-0.8183311223983765,-0.6332820057868958,-0.11038706451654434
1667824845819671800,7.871671875,-0.8430864810943604,-0.594426155090332,-0.0643841102719307
1667824845829679900,7.881679931640625,-0.9225869178771973,-0.5723738670349121,-0.03939646854996681
1667824845839688000,7.89168798828125,-1.051719069480896,-0.5539981126785278,-0.03641095757484436
1667824845849695000,7.901695068359375,-1.235013723373413,-0.5443809032440186,-0.06821176409721375
1667824845859702800,7.911702880859375,-1.4391958713531494,-0.5283937454223633,-0.14717541635036469
1667824845869710000,7.9217099609375,-1.6329370737075806,-0.47745364904403687,-0.28703904151916504
1667824845879718000,7.9317177734375,-1.773590326309204,-0.39545944333076477,-0.47921863198280334
1667824845889726000,7.941725830078125,-1.8442448377609253,-0.30077847838401794,-0.6912069916725159
1667824845899732700,7.951732666015625,-1.8275146484375,-0.20421166718006134,-0.8848164081573486
1667824845909740800,7.96174072265625,-1.7345596551895142,-0.10365070402622223,-1.0427676439285278
1667824845919749000,7.9717490234375,-1.5776945352554321,-0.03036612831056118,-1.136094093322754
1667824845929756000,7.981755859375,-1.3863906860351562,-0.020892729982733727,-1.1533087491989136
1667824845939764000,7.991763916015625,-1.186029076576233,-0.062234535813331604,-1.0760473012924194
1667824845949771800,8.001771728515624,-0.9998626708984375,-0.12499938160181046,-0.9273928999900818
1667824845959779000,8.011779052734376,-0.8508675694465637,-0.21080143749713898,-0.7280178666114807
1667824845969787000,8.021786865234375,-0.7397085428237915,-0.2677696645259857,-0.5110034942626953
1667824845979795000,8.031794921875,-0.6597577333450317,-0.2896881401538849,-0.3007993698120117
1667824845989802000,8.041802001953124,-0.5789371728897095,-0.27409666776657104,-0.11058493703603745
1667824845999810000,8.05181005859375,-0.4768056571483612,-0.2460433691740036,0.04402218759059906
1667824846009817900,8.06181787109375,-0.354025661945343,-0.19729740917682648,0.16279704868793488
1667824846019825000,8.071824951171875,-0.21777458488941193,-0.12117651104927063,0.24236948788166046
1667824846029833000,8.0818330078125,-0.07521611452102661,-0.01343566831201315,0.2995752692222595
1667824846039840000,8.091840087890626,0.07130561769008636,0.09547071158885956,0.3464789092540741
1667824846049847800,8.101847900390625,0.2147189825773239,0.1903596669435501,0.3944070339202881
1667824846059856000,8.11185595703125,0.3502989709377289,0.27441173791885376,0.4514167010784149
1667824846069863000,8.12186279296875,0.47356951236724854,0.3323807716369629,0.5209422707557678
1667824846079871000,8.13187109375,0.5888633131980896,0.3661702871322632,0.5994558930397034
1667824846089879000,8.141879150390626,0.6880170702934265,0.3918426036834717,0.6776971817016602
1667824846099885800,8.1518857421875,0.7916516065597534,0.40506303310394287,0.753868818283081
1667824846109894000,8.161893798828125,0.9052317142486572,0.4079890251159668,0.819989025592804
1667824846119902000,8.17190185546875,1.031721591949463,0.3945903480052948,0.8753548264503479
1667824846129908700,8.18190869140625,1.1758172512054443,0.37711814045906067,0.9113687872886658
1667824846139917300,8.191917236328125,1.3220915794372559,0.35805684328079224,0.9247881174087524
1667824846149925000,8.201925048828125,1.4593826532363892,0.33984774351119995,0.9102405905723572
1667824846159932400,8.211932373046874,1.5849419832229614,0.3063477873802185,0.878480851650238
1667824846169940200,8.221940185546876,1.6884294748306274,0.2623821794986725,0.8321107029914856
1667824846179948300,8.2319482421875,1.779488205909729,0.20089413225650787,0.7710769772529602
1667824846189955300,8.241955322265625,1.859073519706726,0.128353089094162,0.6925550103187561
1667824846199963400,8.25196337890625,1.916918158531189,0.06187862902879715,0.5829251408576965
1667824846209971200,8.26197119140625,1.9577497243881226,0.005510692019015551,0.45674461126327515
1667824846219978200,8.271978271484375,1.9804476499557495,-0.02219300903379917,0.3196104168891907
1667824846229986300,8.281986328125,1.9946447610855103,-0.026736095547676086,0.17723889648914337
1667824846239994400,8.291994384765625,2.0006766319274902,-0.0005360152572393417,0.04720316827297211
1667824846250001200,8.302001220703126,1.9803740978240967,0.04236298054456711,-0.07210511714220047
1667824846260009200,8.31200927734375,1.9403460025787354,0.11328136175870895,-0.18306118249893188
1667824846270016300,8.322016357421875,1.8799161911010742,0.20632688701152802,-0.29377785325050354
1667824846280024300,8.3320244140625,1.8146827220916748,0.3393995463848114,-0.4184674024581909
1667824846290032400,8.342032470703124,1.767988920211792,0.5121391415596008,-0.5669019222259521
1667824846300039200,8.3520390625,1.7336225509643555,0.7183685302734375,-0.7317507863044739
1667824846310047500,8.362047607421875,1.6972360610961914,0.9218121767044067,-0.909943163394928
1667824846320055300,8.37205517578125,1.6309436559677124,1.1243631839752197,-1.0766645669937134
1667824846330062300,8.382062255859376,1.562402367591858,1.314638614654541,-1.2384846210479736
1667824846340070100,8.392070068359375,1.4968034029006958,1.497258186340332,-1.3827718496322632
1667824846350078500,8.402078369140625,1.4383177757263184,1.6702762842178345,-1.522512435913086
1667824846360085200,8.412085205078125,1.383325457572937,1.8312830924987793,-1.6355996131896973
1667824846370093300,8.42209326171875,1.3196301460266113,1.9863057136535645,-1.7003061771392822
1667824846380101000,8.43210107421875,1.2437187433242798,2.1133153438568115,-1.6852835416793823
1667824846390108400,8.4421083984375,1.1342644691467285,2.1825292110443115,-1.5714682340621948
1667824846400116200,8.4521162109375,1.0000038146972656,2.1986472606658936,-1.3759536743164062
1667824846410124300,8.462124267578124,0.8676629066467285,2.168158769607544,-1.1307889223098755
1667824846420131300,8.47213134765625,0.7357919812202454,2.0812149047851562,-0.8598052859306335
1667824846430139400,8.482139404296875,0.5998163223266602,1.914277195930481,-0.5653718113899231
1667824846440146200,8.492146240234375,0.45945504307746887,1.701389193534851,-0.24465309083461761
1667824846450154200,8.502154296875,0.3348105847835541,1.4804147481918335,0.08709315210580826
1667824846460162300,8.512162353515626,0.23494744300842285,1.2346171140670776,0.4407038986682892
1667824846470169300,8.52216943359375,0.19591641426086426,0.9363617300987244,0.82023686170578
1667824846480177400,8.532177490234375,0.22157324850559235,0.5698091387748718,1.1971652507781982
1667824846490185200,8.542185302734374,0.26258859038352966,0.12650814652442932,1.5486745834350586
1667824846500192500,8.552192626953126,0.26532626152038574,-0.3536949157714844,1.8684252500534058
1667824846510200300,8.562200439453125,0.2089732438325882,-0.8198549151420593,2.163644313812256
1667824846520208400,8.57220849609375,0.0961693674325943,-1.2426047325134277,2.43056058883667
1667824846530215200,8.582215087890624,-0.040795937180519104,-1.6017154455184937,2.6357340812683105
1667824846540223500,8.592223388671876,-0.18294258415699005,-1.882408857345581,2.7592074871063232
1667824846550231300,8.602231201171875,-0.32021018862724304,-2.0744621753692627,2.7669854164123535
1667824846560238300,8.61223828125,-0.4318030774593353,-2.1565189361572266,2.6445486545562744
1667824846570246100,8.62224609375,-0.49467259645462036,-2.1273579597473145,2.3945183753967285
1667824846580254200,8.632254150390626,-0.5051221251487732,-2.0034217834472656,2.029719829559326
1667824846590261200,8.64226123046875,-0.4757690727710724,-1.8045258522033691,1.5705138444900513
1667824846600269300,8.652269287109375,-0.4314662218093872,-1.5705550909042358,1.0435619354248047
1667824846610276000,8.662276123046874,-0.4015845060348511,-1.3442500829696655,0.4895094037055969
1667824846620284400,8.672284423828126,-0.4115758240222931,-1.1292355060577393,-0.03766526281833649
1667824846630292200,8.682292236328125,-0.4685347080230713,-0.9245609641075134,-0.48747795820236206
1667824846640299300,8.69229931640625,-0.5614368915557861,-0.7290276288986206,-0.8174998164176941
1667824846650307000,8.70230712890625,-0.6690405607223511,-0.5554779171943665,-1.0318069458007812
1667824846660315400,8.7123154296875,-0.767976701259613,-0.3809041380882263,-1.1225546598434448
1667824846670322200,8.722322265625,-0.8549981117248535,-0.22603145241737366,-1.105950951576233
1667824846680330200,8.732330322265625,-0.9197964072227478,-0.09490710496902466,-0.984092116355896
1667824846690338300,8.74233837890625,-0.9454778432846069,-0.0067868344485759735,-0.7933724522590637
1667824846700345300,8.752345458984376,-0.9426823854446411,0.014046404510736465,-0.5643057227134705
1667824846710353400,8.762353515625,-0.9316155910491943,-0.01927000656723976,-0.34061959385871887
1667824846720361200,8.772361328125,-0.9260533452033997,-0.09842135012149811,-0.1399444043636322
1667824846730368300,8.7823681640625,-0.9292531609535217,-0.18704256415367126,0.021192297339439392
1667824846740376300,8.792376220703124,-0.942814290523529,-0.25527724623680115,0.12397491186857224
1667824846750384400,8.80238427734375,-0.9500556588172913,-0.3133557140827179,0.18089225888252258
1667824846760391200,8.81239111328125,-0.9321155548095703,-0.37440574169158936,0.20525246858596802
1667824846770399200,8.822399169921875,-0.8849784135818481,-0.45689451694488525,0.2085856795310974
1667824846780407300,8.8324072265625,-0.8232008814811707,-0.5485434532165527,0.20695020258426666
1667824846790414300,8.842414306640626,-0.7545499205589294,-0.6453129053115845,0.18424275517463684
1667824846800422100,8.852422119140625,-0.6945272088050842,-0.7431877255439758,0.13690228760242462
1667824846810429400,8.862429443359375,-0.6462957859039307,-0.8283021450042725,0.047956690192222595
1667824846820437200,8.872437255859374,-0.6060035824775696,-0.8676406741142273,-0.06001104786992073
1667824846830445300,8.8824453125,-0.5690016150474548,-0.8853027820587158,-0.16390709578990936
1667824846840452000,8.8924521484375,-0.5310452580451965,-0.8709478378295898,-0.2417919635772705
1667824846850460400,8.90246044921875,-0.4861622154712677,-0.8366013169288635,-0.28678208589553833
1667824846860468500,8.912468505859374,-0.440903902053833,-0.7964213490486145,-0.28476202487945557
1667824846870475300,8.922475341796876,-0.40189817547798157,-0.7494146823883057,-0.24933692812919617
1667824846880483300,8.9324833984375,-0.37584686279296875,-0.6919112205505371,-0.1751662939786911
1667824846890491100,8.9424912109375,-0.3722638487815857,-0.6363688111305237,-0.0741531103849411
1667824846900498400,8.95249853515625,-0.3843265473842621,-0.5903624892234802,0.029920589178800583
1667824846910506200,8.96250634765625,-0.4359266459941864,-0.5709578990936279,0.11889706552028656
1667824846920514300,8.972514404296875,-0.5536813139915466,-0.5600469708442688,0.15309904515743256
1667824846930521300,8.982521240234375,-0.7406501173973083,-0.5439431071281433,0.13599570095539093
1667824846940529400,8.992529296875,-0.9800573587417603,-0.5091435313224792,0.056946199387311935
1667824846950536200,9.0025361328125,-1.2281092405319214,-0.45817938446998596,-0.0810374990105629
1667824846960544300,9.012544189453125,-1.4552147388458252,-0.3991644084453583,-0.2779824435710907
1667824846970552300,9.02255224609375,-1.6476178169250488,-0.34796327352523804,-0.5323947072029114
1667824846980559400,9.032559326171874,-1.8077296018600464,-0.3191159665584564,-0.8353854417800903
1667824846990567200,9.042567138671876,-1.9342241287231445,-0.2862600088119507,-1.1711560487747192
1667824847000575200,9.0525751953125,-2.0398614406585693,-0.20696428418159485,-1.5191987752914429
1667824847010582300,9.062582275390625,-2.088317394256592,-0.05935857445001602,-1.8626275062561035
1667824847020590300,9.07259033203125,-2.0659122467041016,0.11536208540201187,-2.145073413848877
1667824847030598400,9.082598388671874,-1.9460351467132568,0.25412288308143616,-2.329528331756592
1667824847040605200,9.092605224609375,-1.7361927032470703,0.32633301615715027,-2.4064838886260986
1667824847050613500,9.102613525390625,-1.48189377784729,0.34473732113838196,-2.3607571125030518
1667824847060621300,9.112621337890625,-1.2109426259994507,0.32521894574165344,-2.1945273876190186
1667824847070628400,9.12262841796875,-0.9594302773475647,0.2642410695552826,-1.9159799814224243
1667824847080636200,9.13263623046875,-0.7333864569664001,0.17822548747062683,-1.564799427986145
1667824847090644500,9.14264453125,-0.5445411801338196,0.09661157429218292,-1.1865671873092651
1667824847100651300,9.1526513671875,-0.3997480869293213,0.03946733474731445,-0.7971615195274353
1667824847110659300,9.162659423828124,-0.2765966057777405,-0.008190195076167583,-0.42281028628349304
1667824847120667100,9.172667236328126,-0.1697535663843155,-0.027985021471977234,-0.07814815640449524
1667824847130674400,9.18267431640625,-0.07241767644882202,-0.03043726086616516,0.22319598495960236
1667824847140682000,9.192681884765625,0.028574377298355103,-0.004974727518856525,0.46444597840309143
1667824847150689000,9.20268896484375,0.1405203491449356,0.053971681743860245,0.6426053047180176
1667824847160697000,9.212697021484376,0.27389588952064514,0.13172578811645508,0.761979877948761
1667824847170705200,9.222705078125,0.4468431770801544,0.2017964869737625,0.8416044116020203
1667824847180712000,9.2327119140625,0.6459077000617981,0.2380134016275406,0.9176317453384399
1667824847190720000,9.242719970703124,0.8600798845291138,0.254068523645401,0.998104453086853
1667824847200728000,9.25272802734375,1.0664883852005005,0.24551720917224884,1.0857267379760742
1667824847210735000,9.262735107421875,1.2635862827301025,0.20216308534145355,1.1850354671478271
1667824847220743200,9.2727431640625,1.4259742498397827,0.1360267549753189,1.2949490547180176
1667824847230751000,9.2827509765625,1.55169677734375,0.04776081070303917,1.414386510848999
1667824847240758300,9.29275830078125,1.6429686546325684,-0.06440801918506622,1.5362945795059204
1667824847250766000,9.30276611328125,1.7039960622787476,-0.16769792139530182,1.638358473777771
1667824847260774100,9.312774169921875,1.7567683458328247,-0.2715737521648407,1.6970840692520142
1667824847270781000,9.322781005859374,1.793934941291809,-0.3517117202281952,1.7048420906066895
1667824847280789200,9.332789306640626,1.808061122894287,-0.39892399311065674,1.645071268081665
1667824847290797000,9.342797119140625,1.8237271308898926,-0.4020902216434479,1.5194984674453735
1667824847300804000,9.35280419921875,1.8592355251312256,-0.3619069457054138,1.3342441320419312
1667824847310812000,9.36281201171875,1.9055378437042236,-0.29532498121261597,1.1118168830871582
1667824847320819200,9.372819091796876,1.9502075910568237,-0.22597305476665497,0.8720744848251343
1667824847330827000,9.382826904296875,1.9691709280014038,-0.15182532370090485,0.6291545033454895
1667824847340835000,9.3928349609375,1.9603127241134644,-0.0674900934100151,0.3885440528392792
1667824847350842000,9.402842041015624,1.9110865592956543,0.01996917836368084,0.17153187096118927
1667824847360850200,9.41285009765625,1.839824914932251,0.10465941578149796,-0.021154772490262985
1667824847370858200,9.422858154296875,1.753151774406433,0.2026216685771942,-0.20597629249095917
1667824847380865000,9.432864990234375,1.6482038497924805,0.32388636469841003,-0.3836779296398163
1667824847390873000,9.442873046875,1.5362119674682617,0.45553305745124817,-0.5629246234893799
1667824847400881200,9.452881103515624,1.4287023544311523,0.6195154786109924,-0.7261801958084106
1667824847410888200,9.46288818359375,1.3684417009353638,0.8021351099014282,-0.8773790001869202
1667824847420896000,9.47289599609375,1.3347079753875732,0.9925628900527954,-1.0183852910995483
1667824847430904000,9.482904052734375,1.3112149238586426,1.1921778917312622,-1.136458396911621
1667824847440911000,9.4929111328125,1.2825613021850586,1.3651841878890991,-1.2248817682266235
1667824847450919200,9.502919189453126,1.2529388666152954,1.4987059831619263,-1.2722184658050537
1667824847460927000,9.512927001953125,1.2087242603302002,1.5861566066741943,-1.2761495113372803
1667824847470934300,9.522934326171875,1.1496132612228394,1.6312657594680786,-1.2312970161437988
1667824847480942000,9.532942138671874,1.066790223121643,1.6467459201812744,-1.1301541328430176
1667824847490950100,9.5429501953125,0.9486919045448303,1.6285719871520996,-0.9762269854545593
1667824847500957000,9.55295703125,0.7990966439247131,1.5505188703536987,-0.7836651802062988
1667824847510965000,9.562965087890625,0.6202949285507202,1.4211294651031494,-0.5731103420257568
1667824847520972000,9.572971923828124,0.41135770082473755,1.238846778869629,-0.36180540919303894
1667824847530980000,9.58297998046875,0.17940807342529297,1.0510209798812866,-0.16866151988506317
1667824847540988000,9.59298779296875,-0.02645614743232727,0.8796448707580566,0.014859270304441452
1667824847550995200,9.6029951171875,-0.19156068563461304,0.7090451717376709,0.20978188514709473
1667824847561003000,9.6130029296875,-0.2932732105255127,0.5170056223869324,0.4199267625808716
1667824847571011000,9.623010986328126,-0.3263201117515564,0.2815041244029999,0.6397411823272705
1667824847581017900,9.633017822265625,-0.3211764395236969,0.004274338483810425,0.8501225709915161
1667824847591026200,9.643026123046875,-0.30401796102523804,-0.3292791545391083,1.0692298412322998
1667824847601034200,9.6530341796875,-0.29719993472099304,-0.6833569407463074,1.3221261501312256
1667824847611041000,9.663041015625,-0.3335435688495636,-1.01595938205719,1.6178447008132935
1667824847621049000,9.673049072265625,-0.4432479739189148,-1.3197100162506104,1.9296001195907593
1667824847631057200,9.68305712890625,-0.6052376627922058,-1.5676462650299072,2.2013237476348877
1667824847641064200,9.693064208984374,-0.797989010810852,-1.745750069618225,2.3768246173858643
1667824847651072000,9.703072021484376,-0.9891784191131592,-1.872407078742981,2.4453787803649902
1667824847661080000,9.713080078125,-1.1615461111068726,-1.9483002424240112,2.3971567153930664
1667824847671087000,9.723087158203125,-1.2736008167266846,-1.9677506685256958,2.2179393768310547
1667824847681095200,9.73309521484375,-1.318627119064331,-1.9294018745422363,1.930047631263733
1667824847691102000,9.74310205078125,-1.298688530921936,-1.8147886991500854,1.5613057613372803
1667824847701110000,9.753110107421875,-1.2410345077514648,-1.6578742265701294,1.1452507972717285
1667824847711118000,9.7631181640625,-1.166608214378357,-1.4617393016815186,0.7031317353248596
1667824847721125000,9.773125,-1.0911900997161865,-1.2571461200714111,0.2809339165687561
1667824847731133000,9.7831328125,-1.0448449850082397,-1.0752862691879272,-0.08178672939538956
1667824847741141000,9.79314111328125,-1.0359101295471191,-0.9261926412582397,-0.34817156195640564
1667824847751148000,9.80314794921875,-1.0423262119293213,-0.7948117256164551,-0.5229910016059875
1667824847761156000,9.813156005859375,-1.0498416423797607,-0.6964935660362244,-0.613856852054596
1667824847771164200,9.8231640625,-1.0374503135681152,-0.6315534114837646,-0.6309181451797485
1667824847781171200,9.833171142578125,-1.0038257837295532,-0.604602575302124,-0.5928036570549011
1667824847791179300,9.84317919921875,-0.9362062215805054,-0.5976821184158325,-0.5182148814201355
1667824847801187000,9.85318701171875,-0.8392414450645447,-0.6255889534950256,-0.40506160259246826
1667824847811194000,9.863194091796874,-0.7382445335388184,-0.7140383720397949,-0.26790928840637207
1667824847821202000,9.873201904296875,-0.6543469429016113,-0.8411241173744202,-0.12125831842422485
1667824847831210200,9.883210205078125,-0.6085208654403687,-0.9744083881378174,0.010211298242211342
1667824847841217000,9.893217041015625,-0.5947386026382446,-1.1082772016525269,0.12058352679014206
1667824847851225000,9.90322509765625,-0.6062325835227966,-1.264796257019043,0.21909412741661072
1667824847861232000,9.913232177734375,-0.6370651125907898,-1.4482753276824951,0.3375723659992218
1667824847871240200,9.923240234375,-0.6868851780891418,-1.6439965963363647,0.45289015769958496
1667824847881248000,9.933248046875,-0.7587688565254211,-1.8367199897766113,0.5519535541534424
1667824847891255000,9.943255126953124,-0.8382120132446289,-1.9928538799285889,0.6259505748748779
1667824847901263000,9.95326318359375,-0.933890700340271,-2.114743947982788,0.6606369018554688
1667824847911271200,9.963271240234375,-1.0382436513900757,-2.206178665161133,0.661729633808136
1667824847921278000,9.97327783203125,-1.14594566822052,-2.2456254959106445,0.615215539932251
1667824847931286000,9.9832861328125,-1.2581888437271118,-2.226757287979126,0.5216466784477234
1667824847941294000,9.993294189453126,-1.3901461362838745,-2.160505533218384,0.37915125489234924
1667824847951301000,10.003301025390625,-1.5333629846572876,-2.0557665824890137,0.18967746198177338
1667824847961309200,10.01330908203125,-1.6897964477539062,-1.8948930501937866,-0.03640832379460335
1667824847971317000,10.02331689453125,-1.8402842283248901,-1.6696114540100098,-0.298169881105423
1667824847981324300,10.03332421875,-1.9836121797561646,-1.3902645111083984,-0.5958152413368225
1667824847991332000,10.04333203125,-2.103699207305908,-1.0516483783721924,-0.9082865715026855
1667824848001340200,10.053340087890625,-2.2005128860473633,-0.7032078504562378,-1.2120261192321777
1667824848011347000,10.063346923828124,-2.2746365070343018,-0.40871602296829224,-1.4672986268997192
1667824848021355300,10.073355224609376,-2.329204797744751,-0.19016142189502716,-1.6603833436965942
1667824848031362000,10.083362060546875,-2.3767361640930176,-0.06320507079362869,-1.7798426151275635
1667824848041370000,10.0933701171875,-2.439328193664551,-0.04013461619615555,-1.8413292169570923
1667824848051378000,10.1033779296875,-2.533978223800659,-0.08172386884689331,-1.8521161079406738
1667824848061385200,10.11338525390625,-2.6554713249206543,-0.14345107972621918,-1.8330492973327637
1667824848071393000,10.12339306640625,-2.78759503364563,-0.20882689952850342,-1.7991856336593628
1667824848081401000,10.133401123046875,-2.9166107177734375,-0.2554674446582794,-1.7517951726913452
1667824848091408100,10.143408203125,-3.000354528427124,-0.2750912010669708,-1.705570936203003
1667824848101416200,10.153416259765624,-3.02586030960083,-0.24498192965984344,-1.6783831119537354
1667824848111424000,10.163424072265625,-2.999518394470215,-0.1709955781698227,-1.6756634712219238
1667824848121431000,10.17343115234375,-2.918478012084961,-0.07177933305501938,-1.6963069438934326
1667824848131438800,10.18343896484375,-2.7812960147857666,-0.0027206395752727985,-1.7095026969909668
1667824848141446100,10.193446044921876,-2.6015560626983643,0.011617086827754974,-1.6997045278549194
1667824848151453200,10.203453125,-2.403388023376465,0.0012557923328131437,-1.655503511428833
1667824848161461000,10.2134609375,-2.1914479732513428,-0.053030770272016525,-1.587189793586731
1667824848171469300,10.22346923828125,-1.974147915840149,-0.15607593953609467,-1.4819834232330322
1667824848181476000,10.23347607421875,-1.776942253112793,-0.2761686146259308,-1.3451370000839233
1667824848191484200,10.243484130859375,-1.6089372634887695,-0.35702991485595703,-1.1882716417312622
1667824848201492000,10.253491943359375,-1.4661005735397339,-0.3957323729991913,-1.018131136894226
1667824848211499300,10.263499267578124,-1.3402334451675415,-0.39835426211357117,-0.819760262966156
1667824848221507000,10.273507080078126,-1.241980791091919,-0.378913551568985,-0.5922898650169373
1667824848231514000,10.28351416015625,-1.1755610704421997,-0.36419132351875305,-0.348593533039093
1667824848241522200,10.293522216796875,-1.145424723625183,-0.3650255501270294,-0.10418441146612167
1667824848251530200,10.3035302734375,-1.1694518327713013,-0.3626401424407959,0.11429332941770554
1667824848261537000,10.313537109375,-1.2345460653305054,-0.3424987494945526,0.28718534111976624
1667824848271545000,10.323545166015625,-1.3074032068252563,-0.3003867268562317,0.4079887270927429
1667824848281553200,10.33355322265625,-1.379837989807129,-0.230894535779953,0.47717323899269104
1667824848291560200,10.343560302734375,-1.4368078708648682,-0.15323248505592346,0.5012298226356506
1667824848301568300,10.353568359375,-1.4671756029129028,-0.06356340646743774,0.4773867130279541
1667824848311576000,10.363576171875,-1.4943859577178955,0.052983179688453674,0.41861391067504883
1667824848321583400,10.373583251953125,-1.5014013051986694,0.17299139499664307,0.3457008898258209
1667824848331591200,10.383591064453125,-1.489915132522583,0.2914280295372009,0.27980494499206543
1667824848341599200,10.39359912109375,-1.474501609802246,0.4148108959197998,0.20738862454891205
1667824848351606000,10.40360595703125,-1.4676092863082886,0.5284624099731445,0.11406426876783371
1667824848361614300,10.4136142578125,-1.4432237148284912,0.5968838930130005,0.02195504494011402
1667824848371622100,10.4236220703125,-1.41446852684021,0.6312205791473389,-0.06327968835830688
1667824848381629200,10.433629150390624,-1.3804810047149658,0.6339383125305176,-0.1497887521982193
1667824848391637000,10.443636962890626,-1.3441661596298218,0.6285907030105591,-0.24405986070632935
1667824848401644300,10.453644287109375,-1.318074345588684,0.5994191765785217,-0.3516952097415924
1667824848411652000,10.463652099609375,-1.2814165353775024,0.5833659172058105,-0.48136797547340393
1667824848421660200,10.47366015625,-1.2384306192398071,0.6024416089057922,-0.6249831318855286
1667824848431667200,10.483667236328126,-1.189129114151001,0.6651071310043335,-0.7760021686553955
1667824848441675300,10.49367529296875,-1.138284683227539,0.7571623921394348,-0.9170994758605957
1667824848451683300,10.503683349609375,-1.0895516872406006,0.8144193291664124,-1.0470242500305176
1667824848461690000,10.513690185546874,-1.0858079195022583,0.8658190369606018,-1.1757017374038696
1667824848471698200,10.5236982421875,-1.1097688674926758,0.926540195941925,-1.3113466501235962
1667824848481706200,10.533706298828125,-1.1595407724380493,1.0118869543075562,-1.4680540561676025
1667824848491713300,10.54371337890625,-1.2295864820480347,1.1330466270446777,-1.6531280279159546
1667824848501721000,10.55372119140625,-1.3024922609329224,1.285722017288208,-1.8632112741470337
1667824848511729200,10.563729248046876,-1.3535650968551636,1.4510496854782104,-2.0957703590393066
1667824848521736200,10.573736083984375,-1.3694292306900024,1.6443560123443604,-2.3549463748931885
1667824848531744300,10.583744140625,-1.3710423707962036,1.8923994302749634,-2.641683578491211
1667824848541752000,10.593751953125,-1.353696584701538,2.1615540981292725,-2.950784683227539
1667824848551759400,10.60375927734375,-1.320617914199829,2.4130403995513916,-3.2522451877593994
1667824848561767200,10.61376708984375,-1.2961797714233398,2.621657371520996,-3.5341670513153076
1667824848571774200,10.623774169921875,-1.2624436616897583,2.7565252780914307,-3.7955026626586914
1667824848581782000,10.633781982421874,-1.2124148607254028,2.8880839347839355,-4.017879962921143
1667824848591790000,10.6437900390625,-1.1583044528961182,3.0994319915771484,-4.093174457550049
1667824848601797000,10.653797119140625,-1.0734533071517944,3.4420628547668457,-3.996950626373291
1667824848611805200,10.66380517578125,-0.9320781826972961,3.7452855110168457,-3.790119171142578
1667824848621813000,10.67381298828125,-0.8449989557266235,3.959289789199829,-3.5946803092956543
1667824848631820300,10.6838203125,-0.8206885457038879,4.181338787078857,-3.4477803707122803
1667824848641828000,10.693828125,-0.8311895728111267,4.3785200119018555,-3.373166084289551
1667824848651836200,10.703836181640625,-0.860214352607727,4.4860758781433105,-3.3580026626586914
1667824848661843000,10.713843017578125,-0.884335458278656,4.574375629425049,-3.3514745235443115
1667824848671851300,10.723851318359374,-0.8750191926956177,4.642935276031494,-3.330491542816162
1667824848681859300,10.733859375,-0.8355375528335571,4.697431564331055,-3.278200149536133
1667824848691866000,10.7438662109375,-0.7962993383407593,4.604069232940674,-3.1778101921081543
1667824848701874200,10.753874267578125,-0.7015600800514221,4.404818058013916,-3.029634952545166
1667824848711882200,10.76388232421875,-0.5171087384223938,4.213451385498047,-2.8191492557525635
1667824848721889300,10.77388916015625,-0.2850344777107239,4.117282390594482,-2.573585271835327
1667824848731897000,10.78389697265625,-0.06975144147872925,3.9869542121887207,-2.3452131748199463
1667824848741905200,10.7939052734375,0.11606691032648087,3.7552573680877686,-2.137772560119629
1667824848751912200,10.803912109375,0.3047257661819458,3.47088885307312,-1.9617788791656494
1667824848761920300,10.813920166015626,0.5241678953170776,3.260890483856201,-1.8223271369934082
1667824848771927000,10.823927001953125,0.6939627528190613,3.1251752376556396,-1.7805871963500977
1667824848781935000,10.83393505859375,0.7121873497962952,2.9640791416168213,-1.8389331102371216
1667824848791943200,10.843943115234374,0.6329801082611084,2.7795422077178955,-1.9136254787445068
1667824848801950200,10.8539501953125,0.5605895519256592,2.7157909870147705,-1.955918788909912
1667824848811958000,10.8639580078125,0.47451668977737427,2.6319057941436768,-1.9818000793457031
1667824848821966000,10.873966064453125,0.31785038113594055,2.599120616912842,-1.9392726421356201
1667824848831973000,10.88397314453125,0.13293591141700745,2.5950214862823486,-1.8094656467437744
1667824848841981200,10.893981201171876,-0.08703910559415817,2.697199583053589,-1.6474100351333618
1667824848851989200,10.9039892578125,-0.33416473865509033,2.892942190170288,-1.5368562936782837
1667824848861996300,10.913996337890625,-0.5800801515579224,3.0274064540863037,-1.5304005146026611
1667824848872004400,10.92400439453125,-0.8054727911949158,3.06337571144104,-1.6252939701080322
1667824848882012200,10.93401220703125,-0.9582405090332031,3.05725359916687,-1.8032727241516113
1667824848892019200,10.944019287109375,-1.022133469581604,2.94172739982605,-1.9955934286117554
1667824848902027000,10.954027099609375,-1.0679821968078613,2.6357758045196533,-2.0585741996765137
1667824848912035300,10.964035400390625,-1.1860249042510986,2.4707107543945312,-1.9129817485809326
1667824848922042000,10.9740419921875,-1.3920377492904663,2.795732021331787,-1.483547329902649
1667824848932050200,10.98405029296875,-1.5398517847061157,3.859086513519287,-0.6573734879493713
1667824848942057200,10.99405712890625,-1.681625247001648,4.474024295806885,0.31098446249961853
1667824848952065300,11.004065185546875,-1.861392855644226,4.094457626342773,1.1418925523757935
1667824848962073000,11.014072998046874,-2.0146450996398926,3.1784024238586426,1.8123692274093628
1667824848972080000,11.024080078125,-2.0210018157958984,2.4258596897125244,2.3458006381988525
1667824848982088200,11.034088134765625,-1.95989990234375,1.7540709972381592,2.698726177215576
1667824848992096300,11.04409619140625,-1.9603195190429688,1.2378123998641968,2.8569605350494385
1667824849002103000,11.05410302734375,-2.105940103530884,0.6163444519042969,2.9707367420196533
1667824849012111000,11.064111083984375,-2.2328498363494873,-0.034028783440589905,3.0372726917266846
1667824849022119200,11.074119140625,-2.363133192062378,-0.4741891622543335,3.0965499877929688
1667824849032126200,11.084126220703125,-2.452571392059326,-0.650795578956604,3.2235262393951416
1667824849042134300,11.09413427734375,-2.4455349445343018,-0.6145927906036377,3.339703321456909
1667824849052142000,11.10414208984375,-2.2911195755004883,-0.42617493867874146,3.2800676822662354
1667824849062149400,11.1141494140625,-2.0113368034362793,-0.35466599464416504,2.871004819869995
1667824849072157200,11.1241572265625,-1.7378968000411987,-0.6726391911506653,2.0468482971191406
1667824849082165200,11.134165283203124,-1.5663418769836426,-0.7643734216690063,1.1412688493728638
1667824849092172000,11.144172119140626,-1.4772449731826782,-0.3420317471027374,0.3962956368923187
1667824849102180400,11.154180419921875,-1.4242570400238037,0.22763730585575104,-0.15270712971687317
1667824849112188200,11.164188232421875,-1.3550822734832764,0.5007977485656738,-0.4791789948940277
1667824849122195200,11.1741953125,-1.283761739730835,0.4471810460090637,-0.5863823294639587
1667824849132203000,11.184203125,-1.2702642679214478,0.29713961482048035,-0.4874410629272461
1667824849142210300,11.194210205078125,-1.316438913345337,0.17300520837306976,-0.2237778902053833
1667824849152218000,11.204218017578125,-1.3977607488632202,0.07195129990577698,0.12499818950891495
1667824849162226200,11.21422607421875,-1.4605121612548828,-0.09948204457759857,0.4578912556171417
1667824849172233200,11.224233154296876,-1.481111764907837,-0.27322906255722046,0.7279475331306458
1667824849182241300,11.2342412109375,-1.4555989503860474,-0.4062573313713074,0.9122795462608337
1667824849192249000,11.2442490234375,-1.3918431997299194,-0.4957965314388275,1.0412026643753052
1667824849202256100,11.254256103515624,-1.2863792181015015,-0.535358726978302,1.1184388399124146
1667824849212264000,11.264263916015626,-1.1376323699951172,-0.5163522958755493,1.1567034721374512
1667824849222272300,11.274272216796875,-0.9720063209533691,-0.44287461042404175,1.1240735054016113
1667824849232279000,11.284279052734375,-0.7989144325256348,-0.2867566645145416,1.0168941020965576
1667824849242287000,11.294287109375,-0.6624762415885925,-0.09946116805076599,0.84701007604599
1667824849252295200,11.304295166015624,-0.5911517143249512,0.003157621016725898,0.6049793362617493
1667824849262302200,11.31430224609375,-0.5803115963935852,-0.0004196844529360533,0.30993589758872986
1667824849272310300,11.324310302734375,-0.6200310587882996,-0.060840148478746414,0.015968983992934227
1667824849282318000,11.334318115234375,-0.673900306224823,-0.1342582106590271,-0.20851293206214905
1667824849292325400,11.344325439453126,-0.7134021520614624,-0.19655007123947144,-0.329027384519577
1667824849302333200,11.354333251953125,-0.7371739745140076,-0.25953105092048645,-0.36181503534317017
1667824849312341200,11.36434130859375,-0.7498415112495422,-0.328572154045105,-0.3594541549682617
1667824849322348000,11.37434814453125,-0.7458505630493164,-0.3810417652130127,-0.3633403778076172
1667824849332356000,11.384356201171874,-0.7221929430961609,-0.4479598104953766,-0.3753371238708496
1667824849342364200,11.3943642578125,-0.70146244764328,-0.5651686191558838,-0.3920772075653076
1667824849352371200,11.40437109375,-0.6889245510101318,-0.6991583704948425,-0.3722156286239624
1667824849362379000,11.41437890625,-0.6922322511672974,-0.7996538281440735,-0.29331231117248535
1667824849372386300,11.42438623046875,-0.6926724910736084,-0.8115442991256714,-0.13981571793556213
1667824849382394000,11.43439404296875,-0.6847546100616455,-0.7300099730491638,0.07307130098342896
1667824849392402200,11.444402099609375,-0.664920449256897,-0.6018466949462891,0.27492424845695496
1667824849402409000,11.454408935546875,-0.62636798620224,-0.4644502103328705,0.4113815724849701
1667824849412417300,11.464417236328124,-0.5872714519500732,-0.35537591576576233,0.4672698676586151
1667824849422425300,11.47442529296875,-0.5569599866867065,-0.22864367067813873,0.48892271518707275
1667824849432432000,11.48443212890625,-0.528227686882019,-0.2170160412788391,0.4829934537410736
1667824849442440200,11.494440185546875,-0.4936111569404602,-0.4063364565372467,0.43339911103248596
1667824849452448300,11.5044482421875,-0.4630846679210663,-0.5741627216339111,0.4290080964565277
1667824849462455300,11.514455322265626,-0.469450980424881,-0.7913980484008789,0.45408084988594055
1667824849472463000,11.524463134765625,-0.5009692311286926,-1.0103919506072998,0.49943503737449646
1667824849482471200,11.53447119140625,-0.5584659576416016,-1.183840274810791,0.5433868169784546
1667824849492478200,11.544478271484374,-0.6469550728797913,-1.2540040016174316,0.5672615766525269
1667824849502486300,11.554486328125,-0.7763967514038086,-1.238174557685852,0.5750537514686584
1667824849512494000,11.564494140625,-0.9480265378952026,-1.1913100481033325,0.5740185976028442
1667824849522501000,11.574501220703125,-1.1249465942382812,-1.1401557922363281,0.6208993792533875
