time,seconds_elapsed,z,y,x
1667266447194038300,0.090038330078125,0.1832541823387146,-0.34818294644355774,0.14049486815929413
1667266447196436000,0.09243603515625,0.18691925704479218,-0.34757208824157715,0.16431790590286255
1667266447198834000,0.094833984375,0.19119518995285034,-0.3432961702346802,0.1844758689403534
1667266447201231600,0.097231689453125,0.1966928243637085,-0.3390202224254608,0.20707722008228302
1667266447203629300,0.09962939453125,0.20280128717422485,-0.33474430441856384,0.22662433981895447
1667266447206027300,0.10202734375,0.2095206081867218,-0.3274141252040863,0.24494975805282593
1667266447208425000,0.104425048828125,0.21623992919921875,-0.32130566239356995,0.2620534598827362
1667266447210823000,0.106822998046875,0.2223484069108963,-0.314586341381073,0.2767138183116913
1667266447213220600,0.109220703125,0.22662433981895447,-0.3054236173629761,0.288930743932724
1667266447215618300,0.111618408203125,0.22967857122421265,-0.2999260127544403,0.2980934679508209
1667266447218016300,0.114016357421875,0.23334364593029022,-0.29687178134918213,0.3029802441596985
1667266447220414000,0.1164140625,0.23273280262947083,-0.29442837834358215,0.30847787857055664
1667266447222812000,0.11881201171875,0.2339545041322708,-0.29687178134918213,0.31031039357185364
1667266447225209600,0.121209716796875,0.23334364593029022,-0.3011476993560791,0.30908870697021484
1667266447227607300,0.123607177734375,0.23151111602783203,-0.30786702036857605,0.30725616216659546
1667266447230005200,0.126005126953125,0.22845686972141266,-0.314586341381073,0.3023693859577179
1667266447232403000,0.12840283203125,0.2229592502117157,-0.32008397579193115,0.29381752014160156
1667266447234800600,0.130800537109375,0.21501824259757996,-0.3298575282096863,0.28037887811660767
1667266447237198600,0.133198486328125,0.208298921585083,-0.34451785683631897,0.2644968628883362
1667266447239596300,0.13559619140625,0.20035789906978607,-0.35978904366493225,0.24433889985084534
1667266447241994200,0.137994140625,0.19119518995285034,-0.37567105889320374,0.2211267054080963
1667266447244392000,0.140391845703125,0.182643324136734,-0.3946073353290558,0.19302773475646973
1667266447246789600,0.14278955078125,0.17470231652259827,-0.4159869849681854,0.16370706260204315
1667266447249187600,0.1451875,0.16615045070648193,-0.43919917941093445,0.13499724864959717
1667266447251585300,0.147585205078125,0.16187451779842377,-0.46241137385368347,0.1044548824429512
1667266447253983200,0.149983154296875,0.1557660549879074,-0.4862344264984131,0.07207997888326645
1667266447256381000,0.152380859375,0.15149012207984924,-0.5070032477378845,0.037261683493852615
1667266447258778600,0.154778564453125,0.1453816443681717,-0.5259394645690918,0.0036650835536420345
1667266447261176600,0.157176513671875,0.14171656966209412,-0.5454866290092468,-0.02870982140302658
1667266447263574300,0.15957421875,0.13744063675403595,-0.5607577562332153,-0.06413896381855011
1667266447265972000,0.161971923828125,0.1301104724407196,-0.5723638534545898,-0.10017894953489304
1667266447268370000,0.164369873046875,0.12583453953266144,-0.5790832042694092,-0.13499724864959717
1667266447270767600,0.166767578125,0.12094775587320328,-0.5882459282875061,-0.1704263836145401
1667266447273165600,0.16916552734375,0.1172826737165451,-0.5955760478973389,-0.20280128717422485
1667266447275563300,0.171563232421875,0.10995250940322876,-0.6065713167190552,-0.23273280262947083
1667266447277961000,0.1739609375,0.1044548824429512,-0.6175665855407715,-0.2638860046863556
1667266447280359000,0.17635888671875,0.10017894953489304,-0.629172682762146,-0.291374146938324
1667266447282756600,0.178756591796875,0.09590301662683487,-0.6413896083831787,-0.3151971995830536
1667266447285154600,0.181154541015625,0.09040539711713791,-0.6542174220085144,-0.3384093940258026
1667266447287552300,0.18355224609375,0.08735115826129913,-0.6670452356338501,-0.36039987206459045
1667266447289950000,0.185949951171875,0.08429691940546036,-0.6829272508621216,-0.3775036036968231
1667266447292348000,0.188347900390625,0.08124268800020218,-0.6981984376907349,-0.3946073353290558
1667266447294745600,0.19074560546875,0.07696675509214401,-0.7116370797157288,-0.4068242609500885
1667266447297143600,0.1931435546875,0.07635590434074402,-0.7226322889328003,-0.418430358171463
1667266447299541200,0.195541259765625,0.07146912813186646,-0.730573296546936,-0.4282039403915405
1667266447301939000,0.19793896484375,0.06841489672660828,-0.7372926473617554,-0.4355340898036957
1667266447304337000,0.2003369140625,0.06841489672660828,-0.7391251921653748,-0.4422534108161926
1667266447306734600,0.202734619140625,0.0653606578707695,-0.7385143637657166,-0.4489727318286896
1667266447309132300,0.20513232421875,0.0659715011715889,-0.735460102558136,-0.45141613483428955
1667266447311530200,0.2075302734375,0.0659715011715889,-0.7275190949440002,-0.4563029110431671
1667266447313928000,0.209927978515625,0.06780404597520828,-0.7159129977226257,-0.4587462842464447
1667266447316326000,0.212325927734375,0.07330167293548584,-0.70308518409729,-0.4599680006504059
1667266447318723600,0.2147236328125,0.0787992998957634,-0.6890357136726379,-0.46363306045532227
1667266447321121500,0.21712158203125,0.08490777015686035,-0.6743753552436829,-0.46607646346092224
1667266447323519200,0.219519287109375,0.0916270911693573,-0.6578825116157532,-0.46424391865730286
1667266447325917000,0.2219169921875,0.09712471067905426,-0.6426113247871399,-0.46546560525894165
1667266447328315000,0.22431494140625,0.10384403169155121,-0.6255075931549072,-0.46668729186058044
1667266447330712600,0.226712646484375,0.11239589750766754,-0.6114581227302551,-0.469741553068161
1667266447333110300,0.2291103515625,0.12094775587320328,-0.5949652194976807,-0.4715740978717804
1667266447335508200,0.23150830078125,0.12766708433628082,-0.5803049206733704,-0.4715740978717804
1667266447337906000,0.233906005859375,0.13316470384597778,-0.5656445622444153,-0.4734066128730774
1667266447340304000,0.236303955078125,0.14110571146011353,-0.554649293422699,-0.47768256068229675
1667266447342701600,0.23870166015625,0.1447708010673523,-0.5467082858085632,-0.4819584786891937
1667266447345099300,0.241099365234375,0.15087927877902985,-0.5375455617904663,-0.4886777997016907
1667266447347497200,0.243497314453125,0.15332266688346863,-0.5344913601875305,-0.49295374751091003
1667266447349895000,0.24589501953125,0.16126367449760437,-0.5320479869842529,-0.4990622103214264
1667266447352292900,0.24829296875,0.16370706260204315,-0.5326588153839111,-0.5045598149299622
1667266447354690600,0.250690673828125,0.16676130890846252,-0.5375455617904663,-0.5118899941444397
1667266447357088300,0.253088134765625,0.1698155403137207,-0.5454866290092468,-0.5192201733589172
1667266447359486200,0.255486328125,0.1716480851173401,-0.5528167486190796,-0.5234960913658142
1667266447361884000,0.2578837890625,0.17653486132621765,-0.5650337338447571,-0.5296045541763306
1667266447364281600,0.260281494140625,0.17775654792785645,-0.5766398310661316,-0.5369347333908081
1667266447366679600,0.262679443359375,0.182643324136734,-0.5900784730911255,-0.5424323678016663
1667266447369077200,0.2650771484375,0.18569757044315338,-0.601073682308197,-0.5473191738128662
1667266447371475200,0.26747509765625,0.18691925704479218,-0.6084038615226746,-0.5497625470161438
1667266447373873000,0.269872802734375,0.19058434665203094,-0.6139014959335327,-0.5528167486190796
1667266447376270600,0.2722705078125,0.1954711228609085,-0.6163448691368103,-0.554649293422699
1667266447378668500,0.27466845703125,0.1985253542661667,-0.6175665855407715,-0.5564818382263184
1667266447381066200,0.277066162109375,0.20280128717422485,-0.6163448691368103,-0.5558710098266602
1667266447383464200,0.279464111328125,0.20585553348064423,-0.6114581227302551,-0.5577035546302795
1667266447385862000,0.28186181640625,0.2089097648859024,-0.6029062271118164,-0.5558710098266602
1667266447388259600,0.284259521484375,0.21379654109477997,-0.5925218462944031,-0.555260181427002
1667266447390657500,0.286657470703125,0.21623992919921875,-0.5760289430618286,-0.555260181427002
1667266447393055200,0.28905517578125,0.2235700935125351,-0.5583143830299377,-0.5540384650230408
1667266447395453200,0.291453125,0.22784602642059326,-0.5332696437835693,-0.5534276366233826
1667266447397851000,0.293850830078125,0.23151111602783203,-0.5051707029342651,-0.5534276366233826
1667266447400248600,0.29624853515625,0.2376195788383484,-0.47646087408065796,-0.5534276366233826
1667266447402646500,0.298646484375,0.24250635504722595,-0.45263782143592834,-0.5558710098266602
1667266447405044200,0.301044189453125,0.2480039894580841,-0.42881476879119873,-0.5589252710342407
1667266447407442000,0.30344189453125,0.25533416867256165,-0.4068242609500885,-0.5650337338447571
1667266447409839900,0.30583984375,0.2602209448814392,-0.390942245721817,-0.5723638534545898
1667266447412237600,0.308237548828125,0.265718549489975,-0.37689274549484253,-0.5815265774726868
1667266447414635500,0.310635498046875,0.26938363909721375,-0.3683409094810486,-0.5955760478973389
1667266447417033200,0.313033203125,0.26816195249557495,-0.36101073026657104,-0.6114581227302551
1667266447419431200,0.31543115234375,0.2632751762866974,-0.3549022674560547,-0.6273401379585266
1667266447421828900,0.317828857421875,0.25411245226860046,-0.3390202224254608,-0.6468872427940369
1667266447424226600,0.3202265625,0.23945212364196777,-0.3298575282096863,-0.6719319820404053
1667266447426624500,0.32262451171875,0.2229592502117157,-0.3274141252040863,-0.6975875496864319
1667266447429022200,0.325022216796875,0.20035789906978607,-0.3292466700077057,-0.7275190949440002
1667266447431420000,0.327419921875,0.17531315982341766,-0.3426853120326996,-0.762948215007782
1667266447433817900,0.32981787109375,0.15026842057704926,-0.36162158846855164,-0.8020424246788025
1667266447436215600,0.332215576171875,0.12339114397764206,-0.3897205591201782,-0.8448017835617065
1667266447438613500,0.334613525390625,0.09345962852239609,-0.420873761177063,-0.888171911239624
1667266447441011200,0.33701123046875,0.06352811306715012,-0.45141613483428955,-0.9339854717254639
1667266447443409000,0.339408935546875,0.028098974376916885,-0.46607646346092224,-0.9797990322113037
1667266447445806800,0.341806884765625,-0.008551862090826035,-0.4752391576766968,-1.0262234210968018
1667266447448204500,0.34420458984375,-0.042759306728839874,-0.48806697130203247,-1.0750911235809326
1667266447450602500,0.3466025390625,-0.07635590434074402,-0.497229665517807,-1.1227372884750366
1667266447453000200,0.349000244140625,-0.11178504675626755,-0.503948986530304,-1.1728267669677734
1667266447455398000,0.35139794921875,-0.1459924876689911,-0.5015056133270264,-1.2198619842529297
1667266447457795800,0.3537958984375,-0.17836740612983704,-0.49295374751091003,-1.2656755447387695
1667266447460193500,0.356193603515625,-0.2101314514875412,-0.47585001587867737,-1.3114891052246094
1667266447462591500,0.358591552734375,-0.24006296694278717,-0.45385950803756714,-1.3573789596557617
1667266447464989200,0.3609892578125,-0.27060532569885254,-0.4294256269931793,-1.3995274305343628
1667266447467387000,0.363386962890625,-0.2993151545524597,-0.4031592011451721,-1.4404542446136475
1667266447469784800,0.365784912109375,-0.3268032968044281,-0.3781144618988037,-1.4789376258850098
1667266447472182500,0.3681826171875,-0.3549022674560547,-0.3439069986343384,-1.5161992311477661
1667266447474580200,0.370580322265625,-0.3811686933040619,-0.30725616216659546,-1.5485742092132568
1667266447476978200,0.372978271484375,-0.4056025743484497,-0.28282228112220764,-1.5772839784622192
1667266447479376000,0.3753759765625,-0.42331716418266296,-0.265718549489975,-1.604161262512207
1667266447481773800,0.37777392578125,-0.43614494800567627,-0.2522799074649811,-1.625540852546692
1667266447484171500,0.380171630859375,-0.4459185004234314,-0.24006296694278717,-1.6469205617904663
1667266447486569200,0.3825693359375,-0.45202696323394775,-0.2241809368133545,-1.6609700918197632
1667266447488967200,0.38496728515625,-0.45202696323394775,-0.20524467527866364,-1.6707435846328735
1667266447491364900,0.38736474609375,-0.4471401870250702,-0.1820324808359146,-1.6768521070480347
1667266447493762800,0.3897626953125,-0.43797749280929565,-0.15515519678592682,-1.6756303310394287
1667266447496160500,0.392160400390625,-0.42759308218955994,-0.130721315741539,-1.6713544130325317
1667266447498558200,0.39455810546875,-0.41110020875930786,-0.1050657257437706,-1.663413405418396
1667266447500956200,0.3969560546875,-0.3915531039237976,-0.08063183724880219,-1.6487531661987305
1667266447503353900,0.399353759765625,-0.3695625960826874,-0.05619794875383377,-1.6304277181625366
1667266447505751600,0.40175146484375,-0.3426853120326996,-0.03237490355968475,-1.6066046953201294
1667266447508149500,0.4041494140625,-0.314586341381073,-0.00916270911693573,-1.5797274112701416
1667266447510547200,0.406547119140625,-0.2858765125274658,0.0036650835536420345,-1.549185037612915
1667266447512945200,0.408945068359375,-0.25655585527420044,0.014660334214568138,-1.5125341415405273
1667266447515342800,0.4113427734375,-0.2229592502117157,0.020157959312200546,-1.4758833646774292
1667266447517740800,0.41374072265625,-0.19241689145565033,0.01832541823387146,-1.4367891550064087
1667266447520138500,0.416138427734375,-0.16187451779842377,0.015271181240677834,-1.3891429901123047
1667266447522536200,0.4185361328125,-0.12766708433628082,0.006108472589403391,-1.340886116027832
1667266447524934100,0.42093408203125,-0.09651386737823486,-0.006719320081174374,-1.2907202243804932
1667266447527331800,0.423331787109375,-0.0647498071193695,-0.02504473738372326,-1.2345223426818848
1667266447529729500,0.4257294921875,-0.03665083646774292,-0.045202698558568954,-1.1777135133743286
1667266447532127500,0.42812744140625,-0.00916270911693573,-0.06413896381855011,-1.1147962808609009
1667266447534525200,0.430525146484375,0.015271181240677834,-0.08307522535324097,-1.0512681007385254
1667266447536923100,0.432923095703125,0.03665083646774292,-0.09834641218185425,-0.9852966070175171
1667266447539320800,0.43532080078125,0.05619794875383377,-0.11117420345544815,-0.9181034564971924
1667266447541718500,0.437718505859375,0.07085828483104706,-0.11972606182098389,-0.8484668135643005
1667266447544116500,0.440116455078125,0.08124268800020218,-0.12522368133068085,-0.7794411182403564
1667266447546514200,0.44251416015625,0.08918370306491852,-0.1313321590423584,-0.7091936469078064
1667266447548912000,0.444912109375,0.09529217332601547,-0.13927318155765533,-0.6371136903762817
1667266447551309800,0.447309814453125,0.09956810623407364,-0.14904673397541046,-0.5644228458404541
1667266447553707500,0.44970751953125,0.09956810623407364,-0.16004198789596558,-0.49173203110694885
1667266447556105500,0.45210546875,0.09834641218185425,-0.16187451779842377,-0.4214846193790436
1667266447558503200,0.454503173828125,0.09468132257461548,-0.16370706260204315,-0.34940463304519653
1667266447560901000,0.456901123046875,0.0910162404179573,-0.16065283119678497,-0.28037887811660767
1667266447563298800,0.459298828125,0.08063183724880219,-0.15332266688346863,-0.2107423096895218
1667266447565696500,0.461696533203125,0.07146912813186646,-0.1423274129629135,-0.1447708010673523
1667266447568094500,0.464094482421875,0.061084724962711334,-0.12827792763710022,-0.0781884491443634
1667266447570492200,0.4664921875,0.046424392610788345,-0.10995250940322876,-0.01710372418165207
1667266447572890000,0.46889013671875,0.03298575058579445,-0.08796200156211853,0.042759306728839874
1667266447575287800,0.471287841796875,0.01832541823387146,-0.0647498071193695,0.09590301662683487
1667266447577685500,0.473685546875,0.0018325417768210173,-0.0390942245721817,0.14660334587097168
1667266447580083500,0.47608349609375,-0.016492875292897224,-0.015271181240677834,0.19363857805728912
1667266447582481200,0.478481201171875,-0.033596597611904144,0.007941014133393764,0.23212195932865143
1667266447584878800,0.48087890625,-0.05375456064939499,0.030542362481355667,0.26938363909721375
1667266447587276800,0.48327685546875,-0.07146912813186646,0.053143709897994995,0.2999260127544403
1667266447589674500,0.485674560546875,-0.08918370306491852,0.07513421028852463,0.32130566239356995
1667266447592072400,0.488072509765625,-0.10384403169155121,0.09345962852239609,0.3408527672290802
1667266447594470100,0.49047021484375,-0.1185043677687645,0.11483928561210632,0.3524588644504547
1667266447596868000,0.4928681640625,-0.1319430023431778,0.12766708433628082,0.3573456406593323
1667266447599265800,0.495265869140625,-0.14049486815929413,0.13866232335567474,0.35795649886131287
1667266447601663500,0.49766357421875,-0.14721418917179108,0.13866232335567474,0.3536805510520935
1667266447604061400,0.5000615234375,-0.15087927877902985,0.129499614238739,0.3439069986343384
1667266447606459100,0.502459228515625,-0.15210096538066864,0.11545012891292572,0.3255815804004669
1667266447608856800,0.50485693359375,-0.14904673397541046,0.09284878522157669,0.3023693859577179
1667266447611254800,0.5072548828125,-0.1435490995645523,0.06658235192298889,0.2736595869064331
1667266447613652500,0.509652587890625,-0.1325538605451584,0.03542914241552353,0.2357870489358902
1667266447616050400,0.512050537109375,-0.11972606182098389,-0.004275931045413017,0.1966928243637085
1667266447618448100,0.5144482421875,-0.1056765764951706,-0.05375456064939499,0.14721418917179108
1667266447620845800,0.516845703125,-0.08857285231351852,-0.11117420345544815,0.09834641218185425
1667266447623243800,0.519243896484375,-0.06719319522380829,-0.16676130890846252,0.04092676565051079
1667266447625641500,0.521641357421875,-0.042759306728839874,-0.21196399629116058,-0.01954711228609085
1667266447628039400,0.524039306640625,-0.014660334214568138,-0.24678228795528412,-0.08368607610464096
1667266447630437000,0.52643701171875,0.01038440316915512,-0.27915719151496887,-0.15515519678592682
1667266447632834800,0.528834716796875,0.038483377546072006,-0.312142938375473,-0.22845686972141266
1667266447635232800,0.531232666015625,0.06291726976633072,-0.3439069986343384,-0.30664533376693726
1667266447637630500,0.53363037109375,0.08918370306491852,-0.37689274549484253,-0.3903313875198364
1667266447640028200,0.536028076171875,0.11545012891292572,-0.41293275356292725,-0.47768256068229675
1667266447642426000,0.538426025390625,0.14171656966209412,-0.4416425824165344,-0.5650337338447571
1667266447644823800,0.54082373046875,0.16553960740566254,-0.4691306948661804,-0.6554391384124756
1667266447647221800,0.5432216796875,0.1850867122411728,-0.4990622103214264,-0.7464553713798523
1667266447649619500,0.545619384765625,0.20463383197784424,-0.5241069197654724,-0.8362498879432678
1667266447652017400,0.548017333984375,0.21807247400283813,-0.5369347333908081,-0.9248227477073669
1667266447654415000,0.5504150390625,0.22845686972141266,-0.5344913601875305,-1.0048437118530273
1667266447656812800,0.552812744140625,0.23151111602783203,-0.5082249045372009,-1.0763128995895386
1667266447659210800,0.555210693359375,0.22723518311977386,-0.46668729186058044,-1.1349542140960693
1667266447661608400,0.5576083984375,0.21623992919921875,-0.41476529836654663,-1.1850436925888062
1667266447664006100,0.560006103515625,0.1979145109653473,-0.34940463304519653,-1.221083641052246
1667266447666404000,0.562404052734375,0.16859383881092072,-0.28098973631858826,-1.2449066638946533
1667266447668801800,0.5648017578125,0.1325538605451584,-0.208298921585083,-1.2577345371246338
1667266447671199700,0.56719970703125,0.09284878522157669,-0.13805148005485535,-1.2601778507232666
1667266447673597400,0.569597412109375,0.045202698558568954,-0.07207997888326645,-1.2577345371246338
1667266447675995400,0.571995361328125,-0.0024433890357613564,-0.017714571207761765,-1.2461284399032593
1667266447678393000,0.57439306640625,-0.051922015845775604,0.02993151545524597,-1.226581335067749
1667266447680790800,0.576790771484375,-0.09712471067905426,0.05986303091049194,-1.199093222618103
1667266447683188700,0.579188720703125,-0.13682979345321655,0.0794101431965828,-1.1673290729522705
1667266447685586400,0.58158642578125,-0.1698155403137207,0.08796200156211853,-1.1306782960891724
1667266447687984000,0.583984130859375,-0.19241689145565033,0.08002099394798279,-1.0952491760253906
1667266447690382000,0.586382080078125,-0.20280128717422485,0.06658235192298889,-1.060430884361267
1667266447692779800,0.58877978515625,-0.20219044387340546,0.047646086663007736,-1.01706063747406
1667266447695177700,0.591177734375,-0.1954711228609085,0.03176405653357506,-0.9761339426040649
1667266447697575400,0.593575439453125,-0.17653486132621765,0.023212196305394173,-0.9315420985221863
1667266447699973000,0.59597314453125,-0.14721418917179108,0.01588202826678753,-0.8863393664360046
1667266447702371000,0.59837109375,-0.10934165865182877,0.012827792204916477,-0.8393041491508484
1667266447704768800,0.600768798828125,-0.06719319522380829,0.010995250195264816,-0.7934905886650085
1667266447707166700,0.603166748046875,-0.01710372418165207,0.01588202826678753,-0.7488987445831299
1667266447709564400,0.605564453125,0.037261683493852615,0.023212196305394173,-0.6981984376907349
1667266447711962000,0.607962158203125,0.09284878522157669,0.034818295389413834,-0.652384877204895
1667266447714360000,0.610360107421875,0.1588202863931656,0.04703523963689804,-0.6065713167190552
1667266447716757800,0.6127578125,0.2229592502117157,0.06291726976633072,-0.5632011890411377
1667266447719155500,0.615155517578125,0.2877090573310852,0.0781884491443634,-0.5173876285552979
1667266447721553400,0.617553466796875,0.3530697226524353,0.0916270911693573,-0.4752391576766968
1667266447723951000,0.619951171875,0.4190412163734436,0.10934165865182877,-0.4312581717967987
1667266447726349000,0.62234912109375,0.4844018816947937,0.12827792763710022,-0.38727715611457825
1667266447728746800,0.624746826171875,0.5491516590118408,0.1453816443681717,-0.34573954343795776
1667266447731144700,0.627144775390625,0.6096255779266357,0.1563768982887268,-0.30664533376693726
1667266447733542400,0.62954248046875,0.6688777208328247,0.1582094430923462,-0.2724378705024719
1667266447735940000,0.631940185546875,0.7226322889328003,0.15149012207984924,-0.24006296694278717
1667266447738338000,0.634338134765625,0.7733326554298401,0.1313321590423584,-0.21685077250003815
1667266447740735700,0.63673583984375,0.8209787011146545,0.10384403169155121,-0.19302773475646973
1667266447743133700,0.6391337890625,0.8631271719932556,0.0647498071193695,-0.17348061501979828
1667266447745531400,0.641531494140625,0.9034430980682373,0.014660334214568138,-0.1569877415895462
1667266447747929000,0.64392919921875,0.9376505613327026,-0.04153761267662048,-0.1447708010673523
1667266447750327000,0.6463271484375,0.9694145917892456,-0.1050657257437706,-0.13377554714679718
1667266447752724700,0.648724853515625,0.9981244206428528,-0.1704263836145401,-0.12094775587320328
1667266447755122400,0.651122314453125,1.0250016450881958,-0.24006296694278717,-0.10995250940322876
1667266447757520400,0.653520263671875,1.0463813543319702,-0.30786702036857605,-0.09956810623407364
1667266447759918000,0.65591796875,1.064706802368164,-0.3683409094810486,-0.08368607610464096
1667266447762316000,0.65831591796875,1.0811996459960938,-0.42392799258232117,-0.0659715011715889
1667266447764713700,0.660713623046875,1.0976924896240234,-0.4715740978717804,-0.04459185153245926
1667266447767111700,0.663111572265625,1.109298586845398,-0.5112791657447815,-0.02076880633831024
1667266447769509400,0.66550927734375,1.1178505420684814,-0.5436540842056274,0.005497625097632408
1667266447771907000,0.667906982421875,1.1251806020736694,-0.5711421966552734,0.03237490355968475
1667266447774305000,0.670304931640625,1.1288456916809082,-0.5913001298904419,0.06291726976633072
1667266447776702700,0.67270263671875,1.1312891244888306,-0.6053496599197388,0.0922379344701767
1667266447779100400,0.675100341796875,1.12823486328125,-0.610236406326294,0.12155860662460327
1667266447781498400,0.677498291015625,1.1270132064819336,-0.6096255779266357,0.15087927877902985
1667266447783896000,0.67989599609375,1.1227372884750366,-0.6108472347259521,0.18142163753509521
1667266447786294000,0.6822939453125,1.1141854524612427,-0.6035171151161194,0.20646637678146362
1667266447788691700,0.684691650390625,1.1031901836395264,-0.5925218462944031,0.23090025782585144
1667266447791089700,0.687089599609375,1.09219491481781,-0.5760289430618286,0.25533416867256165
1667266447793487400,0.6894873046875,1.0805888175964355,-0.5564818382263184,0.2779355049133301
1667266447795885000,0.691885009765625,1.0744802951812744,-0.5320479869842529,0.29687178134918213
1667266447798283000,0.694282958984375,1.0640959739685059,-0.4984513521194458,0.3133646547794342
1667266447800680700,0.6966806640625,1.0555440187454224,-0.45263782143592834,0.3280249834060669
1667266447803078400,0.699078369140625,1.0476030111312866,-0.39888325333595276,0.3390202224254608
1667266447805476400,0.701476318359375,1.035996913909912,-0.3298575282096863,0.34818294644355774
1667266447807874000,0.7038740234375,1.0250016450881958,-0.25594499707221985,0.3549022674560547
1667266447810272000,0.70627197265625,1.0158389806747437,-0.1698155403137207,0.35856732726097107
1667266447812669700,0.708669677734375,1.0060654878616333,-0.08185353130102158,0.35795649886131287
1667266447815067400,0.7110673828125,0.9956810474395752,0.010995250195264816,0.3542914092540741
1667266447817465300,0.71346533203125,0.9877400398254395,0.10628741979598999,0.34512871503829956
1667266447819863000,0.715863037109375,0.9797990322113037,0.1948602795600891,0.33169007301330566
1667266447822261000,0.718260986328125,0.9718579649925232,0.28037887811660767,0.3164188861846924
1667266447824658700,0.72065869140625,0.9706363081932068,0.36039987206459045,0.29565006494522095
1667266447827056600,0.723056640625,0.9730796813964844,0.4337015450000763,0.2748812735080719
1667266447829454300,0.725454345703125,0.9810206890106201,0.4978405237197876,0.2516690790653229
1667266447831852000,0.72785205078125,0.9920159578323364,0.550373375415802,0.23151111602783203
1667266447834250000,0.73025,1.0048437118530273,0.5992411375045776,0.20768806338310242
1667266447836647700,0.732647705078125,1.0219475030899048,0.6371136903762817,0.19058434665203094
1667266447839045400,0.73504541015625,1.0408837795257568,0.6688777208328247,0.17225892841815948
1667266447841443300,0.737443359375,1.0610417127609253,0.6957550048828125,0.15332266688346863
1667266447843841000,0.739841064453125,1.081810474395752,0.7177455425262451,0.14110571146011353
1667266447846239000,0.742239013671875,1.100746750831604,0.731184184551239,0.129499614238739
1667266447848636700,0.74463671875,1.1178505420684814,0.7427902817726135,0.12155860662460327
1667266447851034400,0.747034423828125,1.1343433856964111,0.7440119385719299,0.11606097966432571
1667266447853432300,0.749432373046875,1.1483927965164185,0.7415685653686523,0.1178935244679451
1667266447855830000,0.751830078125,1.1581664085388184,0.730573296546936,0.11483928561210632
1667266447858228000,0.75422802734375,1.1630531549453735,0.7134696245193481,0.1178935244679451
1667266447860625700,0.756625732421875,1.1636639833450317,0.6896465420722961,0.12339114397764206
1667266447863023400,0.7590234375,1.1587772369384766,0.660936713218689,0.13316470384597778
1667266447865421300,0.76142138671875,1.1502254009246826,0.6236750483512878,0.1429382562637329
1667266447867819000,0.763819091796875,1.1392301321029663,0.5858024954795837,0.15393351018428802
1667266447870216700,0.766216796875,1.1257915496826172,0.5387672781944275,0.16798299551010132
1667266447872614700,0.76861474609375,1.1123528480529785,0.4862344264984131,0.17592400312423706
1667266447875012400,0.771012451171875,1.0970816612243652,0.4300364851951599,0.18753011524677277
1667266447877410300,0.773410400390625,1.0769237279891968,0.3787252902984619,0.19913621246814728
1667266447879808000,0.77580810546875,1.0524898767471313,0.3298575282096863,0.21440738439559937
1667266447882206000,0.7782060546875,1.0237799882888794,0.2858765125274658,0.23028941452503204
1667266447884603600,0.780603759765625,0.9932376146316528,0.24372805655002594,0.24617144465446472
1667266447887001300,0.78300146484375,0.9590302109718323,0.20280128717422485,0.2651077210903168
1667266447889399300,0.7853994140625,0.9236010313034058,0.16431790590286255,0.2864873707294464
1667266447891797000,0.787796875,0.8875610828399658,0.12827792763710022,0.30786702036857605
1667266447894195000,0.79019482421875,0.8509102463722229,0.0910162404179573,0.33291175961494446
1667266447896592600,0.792592529296875,0.8197570443153381,0.055587101727724075,0.35795649886131287
1667266447898990300,0.794990234375,0.7855495810508728,0.024433890357613564,0.3817795515060425
1667266447901388300,0.79738818359375,0.7568397521972656,-0.006719320081174374,0.4074351191520691
1667266447903786000,0.799785888671875,0.7330167293548584,-0.037261683493852615,0.4330907166004181
1667266447906184000,0.802183837890625,0.7098045349121094,-0.06047387793660164,0.4563029110431671
1667266447908581600,0.80458154296875,0.6933116316795349,-0.0787992998957634,0.4813476502895355
1667266447910979300,0.806979248046875,0.6792621612548828,-0.08918370306491852,0.5045598149299622
1667266447913377300,0.809377197265625,0.6707102656364441,-0.0910162404179573,0.5277720093727112
1667266447915775000,0.81177490234375,0.6646018028259277,-0.08429691940546036,0.5497625470161438
1667266447918173000,0.8141728515625,0.6639909744262695,-0.07146912813186646,0.5680879354476929
1667266447920570600,0.816570556640625,0.6658235192298889,-0.05008947476744652,0.5851916670799255
1667266447922968300,0.81896826171875,0.6731536984443665,-0.025655584409832954,0.5992411375045776
1667266447925366300,0.8213662109375,0.6829272508621216,0.004886778071522713,0.6108472347259521
1667266447927764000,0.823763916015625,0.6945333480834961,0.03787253051996231,0.6181774139404297
1667266447930162000,0.826161865234375,0.7098045349121094,0.07085828483104706,0.6230642199516296
1667266447932559600,0.8285595703125,0.7275190949440002,0.10934165865182877,0.6255075931549072
1667266447934957300,0.830957275390625,0.7470661997795105,0.1453816443681717,0.6267293095588684
1667266447937355300,0.833355224609375,0.7647807598114014,0.1844758689403534,0.6297835111618042
1667266447939753000,0.8357529296875,0.7849387526512146,0.22479179501533508,0.6279509663581848
1667266447942151000,0.83815087890625,0.8032641410827637,0.26877278089523315,0.6267293095588684
1667266447944548600,0.840548583984375,0.8148702383041382,0.30908870697021484,0.6273401379585266
1667266447946946300,0.8429462890625,0.8283088803291321,0.3512371778488159,0.624896764755249
1667266447949344300,0.84534423828125,0.8393041491508484,0.393385648727417,0.6255075931549072
1667266447951742000,0.847741943359375,0.8472451567649841,0.4300364851951599,0.624285876750946
1667266447954140000,0.850139892578125,0.8496885299682617,0.46851983666419983,0.624896764755249
1667266447956537600,0.85253759765625,0.8502993583679199,0.503948986530304,0.624285876750946
1667266447958935300,0.854935302734375,0.8454126119613647,0.5381564497947693,0.624896764755249
1667266447961333200,0.857333251953125,0.8393041491508484,0.5680879354476929,0.624285876750946
1667266447963731000,0.85973095703125,0.8289197087287903,0.5949652194976807,0.6236750483512878
1667266447966128600,0.862128662109375,0.8160919547080994,0.6132906675338745,0.624896764755249
1667266447968526600,0.864526611328125,0.7995990514755249,0.6285618543624878,0.6236750483512878
1667266447970924300,0.86692431640625,0.7824953198432922,0.6395570635795593,0.6261184215545654
1667266447973322200,0.869322265625,0.7617265582084656,0.6407787799835205,0.6267293095588684
1667266447975720000,0.871719970703125,0.7409577369689941,0.6395570635795593,0.6273401379585266
1667266447978118000,0.874117919921875,0.7177455425262451,0.6310052275657654,0.6316160559654236
1667266447980515600,0.876515625,0.6951441764831543,0.6187883019447327,0.6346703171730042
1667266447982913300,0.878913330078125,0.6682668924331665,0.5980194807052612,0.6377245187759399
1667266447985311200,0.881311279296875,0.6438329815864563,0.5754181146621704,0.6420004963874817
1667266447987709000,0.883708984375,0.6120689511299133,0.5473191738128662,0.6462764143943787
1667266447990107000,0.88610693359375,0.5833591222763062,0.5161659121513367,0.6511631608009338
1667266447992504600,0.888504638671875,0.5491516590118408,0.4813476502895355,0.6536065936088562
1667266447994902300,0.89090234375,0.5112791657447815,0.4459185004234314,0.6584933400154114
1667266447997300200,0.89330029296875,0.4721849262714386,0.4080459773540497,0.6591041684150696
1667266447999698000,0.895697998046875,0.4330907166004181,0.3640649616718292,0.6578825116157532
1667266448002095900,0.898095947265625,0.390942245721817,0.31947311758995056,0.6529957056045532
1667266448004493600,0.90049365234375,0.34818294644355774,0.2742704153060913,0.6450546979904175
1667266448006891300,0.902891357421875,0.3054236173629761,0.22784602642059326,0.6383354067802429
1667266448009289200,0.905289306640625,0.258999228477478,0.1850867122411728,0.6255075931549072
1667266448011687000,0.90768701171875,0.21623992919921875,0.13988402485847473,0.6120689511299133
1667266448014084900,0.9100849609375,0.17409147322177887,0.09590301662683487,0.5967977643013
1667266448016482600,0.912482666015625,0.1313321590423584,0.05741964280605316,0.5772506594657898
1667266448018880300,0.91488037109375,0.09040539711713791,0.02504473738372326,0.5577035546302795
1667266448021278200,0.9172783203125,0.05070032179355621,-0.007330167107284069,0.5363239049911499
1667266448023676000,0.919676025390625,0.012216945178806782,-0.03420744836330414,0.5112791657447815
1667266448026073900,0.922073974609375,-0.024433890357613564,-0.05803048983216286,0.4856235682964325
1667266448028471600,0.924471435546875,-0.05741964280605316,-0.0794101431965828,0.4593571424484253
1667266448030869200,0.926869140625,-0.09040539711713791,-0.09895725548267365,0.4324798583984375
1667266448033267200,0.92926708984375,-0.1178935244679451,-0.11422843486070633,0.4049917459487915
1667266448035665000,0.931664794921875,-0.14049486815929413,-0.1301104724407196,0.37444937229156494
1667266448038062600,0.9340625,-0.15393351018428802,-0.1459924876689911,0.3402419090270996
1667266448040460500,0.93646044921875,-0.16798299551010132,-0.15271180868148804,0.30908870697021484
1667266448042858200,0.938858154296875,-0.17775654792785645,-0.15149012207984924,0.28037887811660767
1667266448045256200,0.941256103515625,-0.1850867122411728,-0.1429382562637329,0.25289076566696167
1667266448047654000,0.94365380859375,-0.18691925704479218,-0.13316470384597778,0.22723518311977386
1667266448050051800,0.9460517578125,-0.183865025639534,-0.12461283802986145,0.20585553348064423
1667266448052449500,0.948449462890625,-0.17775654792785645,-0.11606097966432571,0.19302773475646973
1667266448054847200,0.95084716796875,-0.16798299551010132,-0.10995250940322876,0.17653486132621765
1667266448057245200,0.9532451171875,-0.14843589067459106,-0.11300674080848694,0.16004198789596558
1667266448059643000,0.955642822265625,-0.1301104724407196,-0.12094775587320328,0.14660334587097168
1667266448062040800,0.958040771484375,-0.10750912129878998,-0.12461283802986145,0.13316470384597778
1667266448064438500,0.9604384765625,-0.08429691940546036,-0.12400199472904205,0.12461283802986145
1667266448066836200,0.962836181640625,-0.05497625470161438,-0.1178935244679451,0.11606097966432571
1667266448069234200,0.965234130859375,-0.02748812735080719,-0.10628741979598999,0.11056335270404816
1667266448071632000,0.9676318359375,0.004275931045413017,-0.08979454636573792,0.10811996459960938
1667266448074029800,0.97002978515625,0.037261683493852615,-0.07024743407964706,0.11178504675626755
1667266448076427500,0.972427490234375,0.07024743407964706,-0.04703523963689804,0.11361759155988693
1667266448078825200,0.9748251953125,0.1056765764951706,-0.01710372418165207,0.11911521852016449
1667266448081223200,0.97722314453125,0.13988402485847473,0.014660334214568138,0.1325538605451584
1667266448083620900,0.979620849609375,0.17653486132621765,0.04703523963689804,0.1435490995645523
1667266448086018800,0.982018798828125,0.21379654109477997,0.08185353130102158,0.1582094430923462
1667266448088416500,0.98441650390625,0.2480039894580841,0.11361759155988693,0.17775654792785645
1667266448090814200,0.986814208984375,0.28343313932418823,0.14660334587097168,0.19974705576896667
1667266448093212200,0.989212158203125,0.31947311758995056,0.17714570462703705,0.22601348161697388
1667266448095609900,0.99160986328125,0.3549022674560547,0.20463383197784424,0.25716668367385864
1667266448098007800,0.9940078125,0.38788801431655884,0.22967857122421265,0.2919849753379822
1667266448100405500,0.996405517578125,0.4190412163734436,0.25289076566696167,0.3286358118057251
1667266448102803500,0.998803466796875,0.4489727318286896,0.28037887811660767,0.365286648273468
1667266448105201200,1.001201171875,0.47646087408065796,0.30786702036857605,0.41110020875930786
1667266448107598800,1.003598876953125,0.499673068523407,0.3408527672290802,0.4575245976448059
1667266448109996800,1.005996826171875,0.517998456954956,0.37506023049354553,0.503948986530304
1667266448112394500,1.00839453125,0.5363239049911499,0.41293275356292725,0.5522059202194214
1667266448114792200,1.010792236328125,0.5497625470161438,0.45141613483428955,0.6035171151161194
1667266448117190100,1.013190185546875,0.5601469278335571,0.49417543411254883,0.6536065936088562
1667266448119587800,1.015587890625,0.5656445622444153,0.5381564497947693,0.70308518409729
1667266448121985800,1.01798583984375,0.5705313682556152,0.578472375869751,0.754396378993988
1667266448124383500,1.020383544921875,0.5741963982582092,0.6200099587440491,0.8032641410827637
1667266448126781200,1.02278125,0.5766398310661316,0.6591041684150696,0.8533536195755005
1667266448129179100,1.02517919921875,0.5766398310661316,0.6902574300765991,0.9022213816642761
1667266448131576800,1.027576904296875,0.5729747414588928,0.7195780873298645,0.9486457705497742
1667266448133974800,1.029974853515625,0.5705313682556152,0.7464553713798523,0.9938485026359558
1667266448136372500,1.03237255859375,0.5656445622444153,0.763559103012085,1.0384403467178345
1667266448138770400,1.0347705078125,0.5595360994338989,0.7715001106262207,1.0787562131881714
1667266448141168000,1.037168212890625,0.5509842038154602,0.7647807598114014,1.1172395944595337
1667266448143565800,1.03956591796875,0.5473191738128662,0.7421793937683105,1.1465603113174438
1667266448145963800,1.0419638671875,0.5424323678016663,0.6975875496864319,1.1709941625595093
1667266448148361500,1.044361572265625,0.5399889945983887,0.6352811455726624,1.1868761777877808
1667266448150759200,1.04675927734375,0.5393781065940857,0.5601469278335571,1.192984700202942
1667266448153157000,1.0491572265625,0.5405998229980469,0.4715740978717804,1.1942063570022583
1667266448155554800,1.051554931640625,0.546097457408905,0.37139514088630676,1.1905412673950195
1667266448157952800,1.053952880859375,0.5515950918197632,0.27121618390083313,1.1819894313812256
1667266448160350500,1.0563505859375,0.5558710098266602,0.17531315982341766,1.175881028175354
1667266448162748400,1.05874853515625,0.5650337338447571,0.0781884491443634,1.1642749309539795
1667266448165146000,1.06114599609375,0.5748072862625122,-0.016492875292897224,1.1532796621322632
1667266448167543800,1.063543701171875,0.582748293876648,-0.10995250940322876,1.138619303703308
1667266448169941800,1.065941650390625,0.5906893014907837,-0.20585553348064423,1.1227372884750366
1667266448172339500,1.06833935546875,0.5980194807052612,-0.29687178134918213,1.1013575792312622
1667266448174737400,1.0707373046875,0.605960488319397,-0.38605546951293945,1.0824213027954102
1667266448177135000,1.073135009765625,0.6114581227302551,-0.46485477685928345,1.0671501159667969
1667266448179532800,1.07553271484375,0.6151232123374939,-0.5369347333908081,1.0482138395309448
1667266448181930800,1.0779306640625,0.6187883019447327,-0.6004628539085388,1.0347752571105957
1667266448184328400,1.080328369140625,0.6218425035476685,-0.6578825116157532,1.0237799882888794
1667266448186726400,1.082726318359375,0.6175665855407715,-0.7067502737045288,1.012784719467163
1667266448189124000,1.0851240234375,0.6163448691368103,-0.7488987445831299,1.0048437118530273
1667266448191521800,1.087521728515625,0.6126797795295715,-0.7849387526512146,1.0011786222457886
1667266448193919700,1.089919677734375,0.6065713167190552,-0.8130376935005188,0.9981244206428528
1667266448196317400,1.0923173828125,0.6004628539085388,-0.8338065147399902,0.998735249042511
1667266448198715400,1.09471533203125,0.5931326746940613,-0.846023440361023,1.0011786222457886
1667266448201113000,1.097113037109375,0.582748293876648,-0.8454126119613647,1.0017894506454468
1667266448203510800,1.0995107421875,0.5729747414588928,-0.8441908955574036,1.0030112266540527
1667266448205908700,1.10190869140625,0.5613686442375183,-0.8313631415367126,1.003622055053711
1667266448208306400,1.104306396484375,0.5485408306121826,-0.8124268651008606,1.003622055053711
1667266448210704400,1.106704345703125,0.5338805317878723,-0.7922688722610474,1.0030112266540527
1667266448213102000,1.10910205078125,0.518609344959259,-0.7666133046150208,0.998735249042511
1667266448215499800,1.111499755859375,0.5063923597335815,-0.7403468489646912,0.994459331035614
1667266448217897700,1.113897705078125,0.49173203110694885,-0.7134696245193481,0.9883508682250977
1667266448220295400,1.11629541015625,0.4752391576766968,-0.6872031688690186,0.9846857786178589
1667266448222693400,1.118693359375,0.4587462842464447,-0.6597150564193726,0.9749122262001038
1667266448225091000,1.121091064453125,0.44103172421455383,-0.6328377723693848,0.9663603901863098
1667266448227489000,1.123489013671875,0.42331716418266296,-0.6047387719154358,0.9553651213645935
1667266448229886700,1.12588671875,0.4080459773540497,-0.577861487865448,0.9455915689468384
1667266448232284400,1.128284423828125,0.3897205591201782,-0.5491516590118408,0.9352071285247803
1667266448234682400,1.130682373046875,0.37506023049354553,-0.5241069197654724,0.9236010313034058
1667266448237080000,1.133080078125,0.36284327507019043,-0.4990622103214264,0.9126058220863342
1667266448239477800,1.135477783203125,0.3530697226524353,-0.47768256068229675,0.9016105532646179
1667266448241875700,1.137875732421875,0.34573954343795776,-0.4581354558467865,0.8918370008468628
1667266448244273400,1.1402734375,0.3414636254310608,-0.43797749280929565,0.8869501948356628
1667266448246671400,1.14267138671875,0.3402419090270996,-0.4214846193790436,0.8747332692146301
1667266448249069000,1.145069091796875,0.342074453830719,-0.4080459773540497,0.8667922616004944
1667266448251467000,1.147467041015625,0.34573954343795776,-0.39643988013267517,0.860683798789978
1667266448253864700,1.14986474609375,0.3530697226524353,-0.38849884271621704,0.8557969927787781
1667266448256262400,1.152262451171875,0.3573456406593323,-0.3781144618988037,0.8502993583679199
1667266448258660400,1.154660400390625,0.3665083646774292,-0.37383851408958435,0.846023440361023
1667266448261058000,1.15705810546875,0.3762819170951843,-0.3695625960826874,0.8423583507537842
1667266448263456000,1.1594560546875,0.38666632771492004,-0.3665083646774292,0.8386932611465454
1667266448265853700,1.161853759765625,0.39643988013267517,-0.3671191930770874,0.8380824327468872
1667266448268251400,1.16425146484375,0.4056025743484497,-0.365286648273468,0.8350282311439514
1667266448270649300,1.1666494140625,0.41476529836654663,-0.365286648273468,0.8362498879432678
1667266448273047000,1.169047119140625,0.42453885078430176,-0.36284327507019043,0.836860716342926
1667266448275445000,1.171445068359375,0.4330907166004181,-0.36284327507019043,0.8362498879432678
1667266448277842700,1.1738427734375,0.43981003761291504,-0.35856732726097107,0.837471604347229
1667266448280240400,1.176240478515625,0.444085955619812,-0.3536805510520935,0.8393041491508484
1667266448282638300,1.178638427734375,0.4471401870250702,-0.34879377484321594,0.8386932611465454
1667266448285036000,1.1810361328125,0.4477510452270508,-0.3402419090270996,0.8399149775505066
1667266448287434000,1.18343408203125,0.4459185004234314,-0.33291175961494446,0.8393041491508484
1667266448289831700,1.185831787109375,0.444085955619812,-0.3249707520008087,0.8411366939544678
1667266448292229400,1.1882294921875,0.43981003761291504,-0.3151971995830536,0.8405258059501648
1667266448294627300,1.19062744140625,0.4318690001964569,-0.3035911023616791,0.8386932611465454
1667266448297025000,1.19302490234375,0.4220954477787018,-0.2907632887363434,0.8362498879432678
1667266448299423000,1.195423095703125,0.41171106696128845,-0.2773246467113495,0.8356390595436096
1667266448301820700,1.197820556640625,0.40010493993759155,-0.2626643180847168,0.833195686340332
1667266448304218600,1.200218505859375,0.38483378291130066,-0.24494975805282593,0.8276980519294739
1667266448306616300,1.2026162109375,0.3689517378807068,-0.2241809368133545,0.8234221339225769
1667266448309014000,1.205013916015625,0.3530697226524353,-0.20463383197784424,0.818535327911377
1667266448311412000,1.207411865234375,0.33413344621658325,-0.18875180184841156,0.8112051486968994
1667266448313809700,1.2098095703125,0.3158080279827118,-0.16737215220928192,0.7959339618682861
1667266448316207600,1.21220751953125,0.29626092314720154,-0.14721418917179108,0.7800519466400146
1667266448318605300,1.214605224609375,0.2761029601097107,-0.1301104724407196,0.7623373866081238
1667266448321003000,1.2170029296875,0.25350162386894226,-0.11606097966432571,0.7440119385719299
1667266448323401000,1.21940087890625,0.23273280262947083,-0.11056335270404816,0.7287407517433167
1667266448325798700,1.221798583984375,0.21379654109477997,-0.10811996459960938,0.7140804529190063
1667266448328196400,1.2241962890625,0.1979145109653473,-0.10811996459960938,0.6994200944900513
1667266448330594300,1.22659423828125,0.1820324808359146,-0.11117420345544815,0.6872031688690186
1667266448332992000,1.228991943359375,0.16859383881092072,-0.11606097966432571,0.6737645268440247
1667266448335390000,1.231389892578125,0.15332266688346863,-0.12216944992542267,0.6603258848190308
1667266448337787600,1.23378759765625,0.1423274129629135,-0.130721315741539,0.6474980711936951
1667266448340185600,1.236185546875,0.1313321590423584,-0.13438639044761658,0.6358919739723206
1667266448342583300,1.238583251953125,0.11667182296514511,-0.13805148005485535,0.6200099587440491
1667266448344981000,1.24098095703125,0.1044548824429512,-0.1423274129629135,0.605960488319397
1667266448347379000,1.24337890625,0.0916270911693573,-0.1441599577665329,0.5888567566871643
1667266448349776600,1.245776611328125,0.07696675509214401,-0.14110571146011353,0.5717530250549316
1667266448352174600,1.248174560546875,0.06169557198882103,-0.13988402485847473,0.5540384650230408
1667266448354572300,1.250572265625,0.046424392610788345,-0.13438639044761658,0.5357130169868469
1667266448356970000,1.252969970703125,0.031153209507465363,-0.12766708433628082,0.5167768001556396
1667266448359368000,1.255367919921875,0.015271181240677834,-0.12033691257238388,0.5002838969230652
1667266448361765600,1.257765625,-0.0030542362947016954,-0.11422843486070633,0.4837910234928131
1667266448364163600,1.26016357421875,-0.01954711228609085,-0.10750912129878998,0.46668729186058044
1667266448366561300,1.262561279296875,-0.03787253051996231,-0.10078980028629303,0.45202696323394775
1667266448368959000,1.264958984375,-0.05986303091049194,-0.09895725548267365,0.4349232614040375
1667266448371357000,1.26735693359375,-0.08063183724880219,-0.09468132257461548,0.418430358171463
1667266448373754600,1.269754638671875,-0.10078980028629303,-0.0910162404179573,0.4037700295448303
1667266448376152600,1.272152587890625,-0.12155860662460327,-0.08857285231351852,0.38849884271621704
1667266448378550300,1.27455029296875,-0.1453816443681717,-0.08918370306491852,0.37444937229156494
1667266448380948000,1.276947998046875,-0.1710372269153595,-0.0910162404179573,0.35856732726097107
1667266448383346000,1.279345947265625,-0.1948602795600891,-0.09712471067905426,0.3432961702346802
1667266448385743600,1.28174365234375,-0.21990501880645752,-0.1050657257437706,0.3286358118057251
1667266448388141600,1.2841416015625,-0.2473931461572647,-0.11117420345544815,0.3139754831790924
1667266448390539300,1.286539306640625,-0.2730487287044525,-0.12094775587320328,0.2987042963504791
1667266448392937200,1.288937255859375,-0.2999260127544403,-0.12766708433628082,0.27854636311531067
1667266448395335000,1.2913349609375,-0.3261924386024475,-0.13560809195041656,0.2583884000778198
1667266448397732600,1.293732666015625,-0.3524588644504547,-0.1423274129629135,0.23884128034114838
1667266448400130600,1.296130615234375,-0.3793361485004425,-0.14782503247261047,0.21929416060447693
1667266448402528300,1.2985283203125,-0.4056025743484497,-0.15210096538066864,0.1960819661617279
1667266448404926200,1.30092626953125,-0.4312581717967987,-0.1569877415895462,0.17470231652259827
1667266448407324000,1.303323974609375,-0.4581354558467865,-0.16004198789596558,0.15210096538066864
1667266448409721600,1.3057216796875,-0.48073679208755493,-0.16187451779842377,0.130721315741539
1667266448412119600,1.30811962890625,-0.5057815313339233,-0.16126367449760437,0.10995250940322876
1667266448414517200,1.310517333984375,-0.5265503525733948,-0.16065283119678497,0.08857285231351852
1667266448416915200,1.312915283203125,-0.5473191738128662,-0.16309621930122375,0.06902574002742767
1667266448419313000,1.31531298828125,-0.5674771070480347,-0.16492876410484314,0.05070032179355621
1667266448421710600,1.317710693359375,-0.5851916670799255,-0.16492876410484314,0.034818295389413834
1667266448424108500,1.320108642578125,-0.5998520255088806,-0.16187451779842377,0.016492875292897224
1667266448426506200,1.32250634765625,-0.6145123243331909,-0.1563768982887268,0.0024433890357613564
1667266448428904200,1.324904296875,-0.6285618543624878,-0.15332266688346863,-0.014049487188458443
1667266448431302000,1.327302001953125,-0.6420004963874817,-0.14721418917179108,-0.02626643143594265
1667266448433699600,1.329699462890625,-0.6536065936088562,-0.1423274129629135,-0.037261683493852615
1667266448436097500,1.33209765625,-0.6652126908302307,-0.13866232335567474,-0.04886778071522713
1667266448438495200,1.3344951171875,-0.6749862432479858,-0.13316470384597778,-0.056808795779943466
1667266448440893200,1.33689306640625,-0.6829272508621216,-0.12888877093791962,-0.06902574002742767
1667266448443291000,1.339290771484375,-0.6908682584762573,-0.12766708433628082,-0.07635590434074402
1667266448445688800,1.341688720703125,-0.6981984376907349,-0.12461283802986145,-0.08490777015686035
1667266448448086500,1.34408642578125,-0.7049177289009094,-0.12583453953266144,-0.08918370306491852
1667266448450484200,1.346484130859375,-0.7116370797157288,-0.12644538283348083,-0.09529217332601547
1667266448452882200,1.348882080078125,-0.7140804529190063,-0.12827792763710022,-0.09956810623407364
1667266448455279900,1.35127978515625,-0.7165238261222839,-0.130721315741539,-0.10140064358711243
1667266448457677800,1.353677734375,-0.7189671993255615,-0.13682979345321655,-0.10201149433851242
1667266448460075500,1.356075439453125,-0.7195780873298645,-0.14721418917179108,-0.10323318839073181
1667266448462473200,1.35847314453125,-0.7195780873298645,-0.1557660549879074,-0.10140064358711243
1667266448464871200,1.36087109375,-0.7153021693229675,-0.16370706260204315,-0.09773556143045425
1667266448467268900,1.363268798828125,-0.7110261917114258,-0.17225892841815948,-0.09407047927379608
1667266448469666800,1.365666748046875,-0.7067502737045288,-0.1820324808359146,-0.08735115826129913
1667266448472064500,1.368064453125,-0.7006418108940125,-0.19119518995285034,-0.08429691940546036
1667266448474462200,1.370462158203125,-0.6957550048828125,-0.1954711228609085,-0.0787992998957634
1667266448476860200,1.372860107421875,-0.6872031688690186,-0.1973036676645279,-0.07207997888326645
1667266448479257900,1.3752578125,-0.6762079000473022,-0.1960819661617279,-0.06658235192298889
1667266448481655800,1.37765576171875,-0.6682668924331665,-0.19424942135810852,-0.061084724962711334
1667266448484053500,1.380053466796875,-0.6560499668121338,-0.18936264514923096,-0.055587101727724075
1667266448486451200,1.382451171875,-0.6456655263900757,-0.183865025639534,-0.04825693368911743
1667266448488849200,1.38484912109375,-0.6365028619766235,-0.17897824943065643,-0.043981000781059265
1667266448491246800,1.387246826171875,-0.624285876750946,-0.1716480851173401,-0.03787253051996231
1667266448493644800,1.389644775390625,-0.6139014959335327,-0.16309621930122375,-0.03176405653357506
1667266448496042500,1.39204248046875,-0.605960488319397,-0.15515519678592682,-0.026877280324697495
1667266448498440200,1.394440185546875,-0.5980194807052612,-0.14721418917179108,-0.021990500390529633
1667266448500838100,1.396838134765625,-0.5888567566871643,-0.14049486815929413,-0.017714571207761765
1667266448503235800,1.39923583984375,-0.5803049206733704,-0.1325538605451584,-0.013438640162348747
1667266448505633800,1.4016337890625,-0.5723638534545898,-0.12461283802986145,-0.007330167107284069
1667266448508031500,1.404031494140625,-0.5650337338447571,-0.11911521852016449,-0.0024433890357613564
1667266448510429400,1.406429443359375,-0.5577035546302795,-0.11483928561210632,0.0006108472589403391
1667266448512827100,1.4088271484375,-0.5497625470161438,-0.10750912129878998,0.006719320081174374
1667266448515224800,1.411224853515625,-0.5442649126052856,-0.10201149433851242,0.012827792204916477
1667266448517622800,1.413622802734375,-0.5387672781944275,-0.09651386737823486,0.021379653364419937
1667266448520020500,1.4160205078125,-0.5320479869842529,-0.09284878522157669,0.02748812735080719
1667266448522418200,1.418418212890625,-0.527161180973053,-0.08979454636573792,0.03420744836330414
1667266448524816100,1.420816162109375,-0.522885262966156,-0.08551861345767975,0.04153761267662048
1667266448527213800,1.4232138671875,-0.5173876285552979,-0.07757759839296341,0.04886778071522713
1667266448529611800,1.42561181640625,-0.5143333673477173,-0.07024743407964706,0.05497625470161438
1667266448532009500,1.428009521484375,-0.5082249045372009,-0.05741964280605316,0.05925218388438225
1667266448534407400,1.430407470703125,-0.503948986530304,-0.0397050715982914,0.06352811306715012
1667266448536805000,1.43280517578125,-0.5021164417266846,-0.022601349279284477,0.06658235192298889
1667266448539202800,1.435202880859375,-0.5021164417266846,-0.0012216945178806782,0.06658235192298889
1667266448541600800,1.437600830078125,-0.5027272701263428,0.01710372418165207,0.06902574002742767
1667266448543998500,1.43999853515625,-0.5027272701263428,0.03542914241552353,0.06902574002742767
1667266448546396400,1.442396484375,-0.5070032477378845,0.04459185153245926,0.07391251623630524
1667266448548794000,1.444794189453125,-0.5100574493408203,0.04825693368911743,0.07452336698770523
1667266448551191800,1.44719189453125,-0.5173876285552979,0.042759306728839874,0.07696675509214401
1667266448553589800,1.44958984375,-0.5222744345664978,0.02993151545524597,0.08368607610464096
1667266448555987500,1.451987548828125,-0.5296045541763306,0.013438640162348747,0.0916270911693573
1667266448558385400,1.454385498046875,-0.5399889945983887,-0.004275931045413017,0.09468132257461548
1667266448560783000,1.456783203125,-0.5540384650230408,-0.022601349279284477,0.09773556143045425
1667266448563181000,1.45918115234375,-0.5711421966552734,-0.04337015375494957,0.09651386737823486
1667266448565578800,1.461578857421875,-0.5864133834838867,-0.07024743407964706,0.09407047927379608
1667266448567976400,1.4639765625,-0.6035171151161194,-0.10201149433851242,0.09345962852239609
1667266448570374400,1.46637451171875,-0.6187883019447327,-0.13621893525123596,0.09651386737823486
1667266448572772000,1.468772216796875,-0.6328377723693848,-0.17286977171897888,0.09834641218185425
1667266448575169800,1.471169677734375,-0.6450546979904175,-0.2101314514875412,0.10262233763933182
1667266448577567700,1.473567626953125,-0.6603258848190308,-0.24250635504722595,0.10873081535100937
1667266448579965400,1.47596533203125,-0.6719319820404053,-0.27121618390083313,0.11361759155988693
1667266448582363400,1.47836328125,-0.6853706240653992,-0.29442837834358215,0.11911521852016449
1667266448584761000,1.480760986328125,-0.6963658928871155,-0.30725616216659546,0.12216944992542267
1667266448587159000,1.483158935546875,-0.707361102104187,-0.3164188861846924,0.12888877093791962
1667266448589556700,1.485556640625,-0.7153021693229675,-0.32008397579193115,0.13744063675403595
1667266448591954400,1.487954345703125,-0.7244648337364197,-0.314586341381073,0.1435490995645523
1667266448594352400,1.490352294921875,-0.7317950129508972,-0.30603447556495667,0.15087927877902985
1667266448596750000,1.49275,-0.7391251921653748,-0.2895416021347046,0.1588202863931656
1667266448599148000,1.49514794921875,-0.7470661997795105,-0.2644968628883362,0.16248537600040436
1667266448601545700,1.497545654296875,-0.7525638341903687,-0.23212195932865143,0.1698155403137207
1667266448603943400,1.499943359375,-0.7568397521972656,-0.19119518995285034,0.17653486132621765
1667266448606341400,1.50234130859375,-0.7598940134048462,-0.1441599577665329,0.18019993603229523
1667266448608739000,1.504739013671875,-0.7592831254005432,-0.08979454636573792,0.183865025639534
1667266448611137000,1.507136962890625,-0.7562289237976074,-0.029320668429136276,0.18569757044315338
1667266448613534700,1.50953466796875,-0.754396378993988,0.033596597611904144,0.19180603325366974
1667266448615932400,1.511932373046875,-0.7470661997795105,0.10262233763933182,0.1948602795600891
1667266448618330400,1.514330322265625,-0.7385143637657166,0.17286977171897888,0.1966928243637085
1667266448620728000,1.51672802734375,-0.7293516397476196,0.2473931461572647,0.20096874237060547
1667266448623126000,1.5191259765625,-0.7177455425262451,0.31825143098831177,0.20341213047504425
1667266448625523700,1.521523681640625,-0.7012526392936707,0.3921639323234558,0.20707722008228302
1667266448627921400,1.52392138671875,-0.684148907661438,0.46424391865730286,0.21196399629116058
1667266448630319400,1.5263193359375,-0.6646018028259277,0.5369347333908081,0.21440738439559937
1667266448632717000,1.528717041015625,-0.6420004963874817,0.6053496599197388,0.21868331730365753
1667266448635115000,1.531114990234375,-0.6163448691368103,0.6652126908302307,0.22845686972141266
1667266448637512700,1.5335126953125,-0.5888567566871643,0.7214106321334839,0.23945212364196777
1667266448639910400,1.535910400390625,-0.5577035546302795,0.7751652002334595,0.2516690790653229
1667266448642308400,1.538308349609375,-0.5247178077697754,0.8264763355255127,0.2632751762866974
1667266448644706000,1.5407060546875,-0.49234288930892944,0.8729007244110107,0.2767138183116913
1667266448647104000,1.54310400390625,-0.45385950803756714,0.9101623892784119,0.29259583353996277
1667266448649501700,1.545501708984375,-0.416597843170166,0.9449806809425354,0.30725616216659546
1667266448651899600,1.547899658203125,-0.3787252902984619,0.9718579649925232,0.32374903559684753
1667266448654297300,1.55029736328125,-0.3365768492221832,0.9883508682250977,0.34573954343795776
1667266448656695000,1.552695068359375,-0.29503923654556274,1.003622055053711,0.3695625960826874
1667266448659093000,1.555093017578125,-0.25472331047058105,1.007897973060608,0.390942245721817
1667266448661490700,1.55749072265625,-0.21440738439559937,1.0024003982543945,0.41293275356292725
1667266448663888600,1.559888671875,-0.17409147322177887,0.9859074950218201,0.4367557764053345
1667266448666286300,1.562286376953125,-0.13377554714679718,0.9651386737823486,0.4605788290500641
1667266448668684000,1.56468408203125,-0.09468132257461548,0.9358180165290833,0.4844018816947937
1667266448671082000,1.56708203125,-0.05864133685827255,0.9052756428718567,0.5082249045372009
1667266448673479700,1.569479736328125,-0.022601349279284477,0.8710681796073914,0.5289937257766724
1667266448675877600,1.571877685546875,0.008551862090826035,0.8405258059501648,0.5522059202194214
1667266448678275300,1.574275390625,0.037261683493852615,0.8154810667037964,0.5760289430618286
1667266448680673000,1.576673095703125,0.062306419014930725,0.7959339618682861,0.5986303091049194
1667266448683071000,1.579071044921875,0.08490777015686035,0.786160409450531,0.6187883019447327
1667266448685468700,1.58146875,0.10323318839073181,0.786160409450531,0.6383354067802429
1667266448687866600,1.58386669921875,0.11483928561210632,0.7959339618682861,0.6597150564193726
1667266448690264300,1.586264404296875,0.12400199472904205,0.8160919547080994,0.6774296164512634
1667266448692662000,1.588662109375,0.130721315741539,0.8472451567649841,0.6969767212867737
1667266448695060000,1.59106005859375,0.130721315741539,0.8826742768287659,0.7189671993255615
1667266448697457700,1.593457763671875,0.12888877093791962,0.9248227477073669,0.739736020565033
1667266448699855600,1.595855712890625,0.12278030067682266,0.9749122262001038,0.7580614686012268
1667266448702253300,1.59825341796875,0.11422843486070633,1.0286667346954346,0.7757760286331177
1667266448704651300,1.6006513671875,0.10201149433851242,1.0848647356033325,0.7941014170646667
1667266448707049000,1.603049072265625,0.08551861345767975,1.1404517889022827,0.80937260389328
1667266448709446700,1.60544677734375,0.0647498071193695,1.1899304389953613,0.8240329623222351
1667266448711844600,1.6078447265625,0.042759306728839874,1.2400199174880981,0.837471604347229
1667266448714242300,1.6102421875,0.016492875292897224,1.2864443063735962,0.8484668135643005
1667266448716640300,1.61264013671875,-0.013438640162348747,1.3255385160446167,0.8570187091827393
1667266448719038000,1.615037841796875,-0.04214845970273018,1.35798978805542,0.8631271719932556
1667266448721435600,1.617435546875,-0.07330167293548584,1.3805911540985107,0.869846522808075
1667266448723833600,1.61983349609375,-0.1056765764951706,1.3921972513198853,0.8704573512077332
1667266448726231300,1.622231201171875,-0.1429382562637329,1.3946406841278076,0.869846522808075
1667266448728629200,1.624629150390625,-0.17836740612983704,1.385477900505066,0.864959716796875
1667266448731027000,1.62702685546875,-0.21685077250003815,1.3647091388702393,0.8557969927787781
1667266448733424600,1.629424560546875,-0.25533416867256165,1.327981948852539,0.841747522354126
1667266448735822600,1.631822509765625,-0.29503923654556274,1.2791141271591187,0.8252546191215515
1667266448738220300,1.63422021484375,-0.33535513281822205,1.2186403274536133,0.8057075142860413
1667266448740618200,1.6366181640625,-0.37506023049354553,1.1441168785095215,0.7812736630439758
1667266448743016000,1.639015869140625,-0.41293275356292725,1.0555440187454224,0.7507312893867493
1667266448745413600,1.64141357421875,-0.45263782143592834,0.9590302109718323,0.7171346545219421
1667266448747811600,1.6438115234375,-0.49173203110694885,0.8527427911758423,0.6792621612548828
1667266448750209300,1.646209228515625,-0.5277720093727112,0.7403468489646912,0.6377245187759399
1667266448752607200,1.648607177734375,-0.5656445622444153,0.6261184215545654,0.5913001298904419
1667266448755005000,1.6510048828125,-0.6041279435157776,0.5155550837516785,0.5338805317878723
1667266448757403000,1.65340283203125,-0.6401679515838623,0.41232189536094666,0.4715740978717804
1667266448759800600,1.655800537109375,-0.6774296164512634,0.312142938375473,0.4086568057537079
1667266448762198300,1.6581982421875,-0.7091936469078064,0.21685077250003815,0.3426853120326996
1667266448764596200,1.66059619140625,-0.7415685653686523,0.12583453953266144,0.2779355049133301
1667266448766994000,1.662993896484375,-0.7678350210189819,0.04214845970273018,0.21562908589839935
1667266448769391900,1.665391845703125,-0.786771297454834,-0.03237490355968475,0.1563768982887268
1667266448771789600,1.66778955078125,-0.8044858574867249,-0.09895725548267365,0.09834641218185425
1667266448774187300,1.670187255859375,-0.818535327911377,-0.1582094430923462,0.04214845970273018
1667266448776585200,1.672585205078125,-0.8283088803291321,-0.20280128717422485,-0.01588202826678753
1667266448778983000,1.67498291015625,-0.8344173431396484,-0.24067382514476776,-0.06841489672660828
1667266448781380600,1.677380615234375,-0.837471604347229,-0.27060532569885254,-0.12155860662460327
1667266448783778600,1.679778564453125,-0.8393041491508484,-0.288930743932724,-0.17286977171897888
1667266448786176300,1.68217626953125,-0.8362498879432678,-0.2980934679508209,-0.22051586210727692
1667266448788574200,1.68457421875,-0.8313631415367126,-0.2993151545524597,-0.26755109429359436
1667266448790972000,1.686971923828125,-0.8228112459182739,-0.29503923654556274,-0.3151971995830536
1667266448793369900,1.689369873046875,-0.8118160367012024,-0.284654825925827,-0.3573456406593323
1667266448795767600,1.691767578125,-0.7995990514755249,-0.2651077210903168,-0.40132665634155273
1667266448798165200,1.694165283203125,-0.7849387526512146,-0.24678228795528412,-0.4446968138217926
1667266448800563200,1.696563232421875,-0.7721109390258789,-0.2235700935125351,-0.4874561131000519
1667266448802961000,1.6989609375,-0.7531746625900269,-0.20402298867702484,-0.5289937257766724
1667266448805358800,1.70135888671875,-0.7342383861541748,-0.18875180184841156,-0.5686988234519958
1667266448807756500,1.703756591796875,-0.7104153633117676,-0.17775654792785645,-0.6065713167190552
1667266448810154500,1.706154541015625,-0.6896465420722961,-0.17409147322177887,-0.6468872427940369
1667266448812552200,1.70855224609375,-0.6633801460266113,-0.17775654792785645,-0.684759795665741
1667266448814950000,1.710949951171875,-0.633448600769043,-0.18936264514923096,-0.7238540053367615
1667266448817347800,1.713347900390625,-0.6041279435157776,-0.20768806338310242,-0.7574505805969238
1667266448819745500,1.71574560546875,-0.5754181146621704,-0.23884128034114838,-0.791047215461731
1667266448822143200,1.718143310546875,-0.5405998229980469,-0.2754921019077301,-0.8258655071258545
1667266448824541200,1.720541259765625,-0.5076140761375427,-0.3170297145843506,-0.8588512539863586
1667266448826939000,1.72293896484375,-0.4746283292770386,-0.363454133272171,-0.8912261724472046
1667266448829336800,1.7253369140625,-0.43919917941093445,-0.4172086715698242,-0.9211576581001282
1667266448831734500,1.727734619140625,-0.4043808877468109,-0.4837910234928131,-0.9504783153533936
1667266448834132200,1.73013232421875,-0.365286648273468,-0.5540384650230408,-0.9810206890106201
1667266448836530200,1.7325302734375,-0.3274141252040863,-0.6279509663581848,-1.0054545402526855
1667266448838928000,1.734927978515625,-0.2858765125274658,-0.7049177289009094,-1.0304993391036987
1667266448841325800,1.737325927734375,-0.24372805655002594,-0.781884491443634,-1.0512681007385254
1667266448843723500,1.7397236328125,-0.20157960057258606,-0.8570187091827393,-1.0683718919754028
1667266448846121500,1.74212158203125,-0.1582094430923462,-0.9290986657142639,-1.0866972208023071
1667266448848519200,1.744519287109375,-0.11606097966432571,-0.9956810474395752,-1.1013575792312622
1667266448850916900,1.746916748046875,-0.07207997888326645,-1.0592091083526611,-1.113574504852295
1667266448853314800,1.749314697265625,-0.029320668429136276,-1.1166287660598755,-1.1227372884750366
1667266448855712500,1.75171240234375,0.011606098152697086,-1.1691616773605347,-1.1306782960891724
1667266448858110500,1.7541103515625,0.053143709897994995,-1.2143644094467163,-1.136786699295044
1667266448860508200,1.756508056640625,0.08979454636573792,-1.248571753501892,-1.1392301321029663
1667266448862906000,1.758906005859375,0.12583453953266144,-1.2785032987594604,-1.1416735649108887
1667266448865303800,1.7613037109375,0.16065283119678497,-1.3017154932022095,-1.1398409605026245
1667266448867701500,1.763701416015625,0.1954711228609085,-1.317597508430481,-1.1349542140960693
1667266448870099500,1.766099365234375,0.22540263831615448,-1.3182083368301392,-1.1251806020736694
1667266448872497200,1.7684970703125,0.25350162386894226,-1.3145432472229004,-1.1141854524612427
1667266448874894800,1.770894775390625,0.2779355049133301,-1.2998830080032349,-1.0995250940322876
1667266448877292800,1.773292724609375,0.2980934679508209,-1.273005723953247,-1.0842539072036743
1667266448879690500,1.7756904296875,0.31092125177383423,-1.2400199174880981,-1.0659284591674805
1667266448882088400,1.77808837890625,0.32069480419158936,-1.1997040510177612,-1.0439379215240479
1667266448884486100,1.780486083984375,0.3310792148113251,-1.1551121473312378,-1.0207257270812988
1667266448886883800,1.7828837890625,0.33718767762184143,-1.1031901836395264,-0.9969027042388916
1667266448889281800,1.78528173828125,0.33596599102020264,-1.0451596975326538,-0.971247136592865
1667266448891679500,1.787679443359375,0.33474430441856384,-0.9834640622138977,-0.9449806809425354
1667266448894077400,1.790077392578125,0.33291175961494446,-0.9138274788856506,-0.9168817400932312
1667266448896475100,1.79247509765625,0.3261924386024475,-0.8399149775505066,-0.8869501948356628
1667266448898873000,1.794873046875,0.3176405727863312,-0.762948215007782,-0.8582404255867004
1667266448901270800,1.797270751953125,0.30969956517219543,-0.6859814524650574,-0.8283088803291321
1667266448903668500,1.79966845703125,0.29748260974884033,-0.6071822047233582,-0.7965448498725891
1667266448906066400,1.80206640625,0.2858765125274658,-0.5277720093727112,-0.763559103012085
1667266448908464000,1.804464111328125,0.27121618390083313,-0.446529358625412,-0.7330167293548584
1667266448910862000,1.806862060546875,0.25716668367385864,-0.365286648273468,-0.7006418108940125
1667266448913259800,1.809259765625,0.24372805655002594,-0.2895416021347046,-0.6664343476295471
1667266448915657500,1.811657470703125,0.22723518311977386,-0.2107423096895218,-0.6352811455726624
1667266448918055400,1.814055419921875,0.2089097648859024,-0.13927318155765533,-0.5974085927009583
1667266448920453000,1.816453125,0.1948602795600891,-0.07024743407964706,-0.5625903010368347
1667266448922851000,1.81885107421875,0.17714570462703705,-0.011606098152697086,-0.527161180973053
1667266448925248800,1.821248779296875,0.1582094430923462,0.04886778071522713,-0.48989951610565186
1667266448927646500,1.823646484375,0.13988402485847473,0.09773556143045425,-0.45202696323394775
1667266448930044400,1.82604443359375,0.12400199472904205,0.13927318155765533,-0.41476529836654663
1667266448932442000,1.828442138671875,0.10811996459960938,0.17225892841815948,-0.3762819170951843
1667266448934840000,1.830840087890625,0.08979454636573792,0.20157960057258606,-0.3384093940258026
1667266448937237800,1.83323779296875,0.07513421028852463,0.2217375487089157,-0.2987042963504791
1667266448939635500,1.835635498046875,0.05986303091049194,0.23823043704032898,-0.2596100866794586
1667266448942033400,1.838033447265625,0.04581354558467865,0.2522799074649811,-0.2211267054080963
1667266448944431000,1.84043115234375,0.034818295389413834,0.2644968628883362,-0.183865025639534
1667266448946829000,1.8428291015625,0.022601349279284477,0.2730487287044525,-0.14721418917179108
1667266448949226800,1.845226806640625,0.010995250195264816,0.2779355049133301,-0.10995250940322876
1667266448951624700,1.847624755859375,0.0024433890357613564,0.28037887811660767,-0.07574506103992462
1667266448954022400,1.8500224609375,-0.004275931045413017,0.2858765125274658,-0.0397050715982914
1667266448956420000,1.852420166015625,-0.01038440316915512,0.2870981991291046,-0.007330167107284069
1667266448958818000,1.854818115234375,-0.013438640162348747,0.2883199155330658,0.023823043331503868
1667266448961215700,1.8572158203125,-0.014049487188458443,0.2907632887363434,0.05619794875383377
1667266448963613700,1.85961376953125,-0.01038440316915512,0.2901524603366852,0.08796200156211853
1667266448966011400,1.862011474609375,-0.004886778071522713,0.2877090573310852,0.1172826737165451
1667266448968409000,1.8644091796875,0.0030542362947016954,0.28282228112220764,0.1459924876689911
1667266448970807000,1.86680712890625,0.015271181240677834,0.2730487287044525,0.1716480851173401
1667266448973204700,1.869204833984375,0.023823043331503868,0.25777754187583923,0.1966928243637085
1667266448975602700,1.871602783203125,0.03665083646774292,0.237008735537529,0.2217375487089157
1667266448978000400,1.87400048828125,0.053143709897994995,0.21807247400283813,0.24494975805282593
1667266448980398000,1.876398193359375,0.06780404597520828,0.19241689145565033,0.27060532569885254
1667266448982796000,1.878796142578125,0.08490777015686035,0.16492876410484314,0.2919849753379822
1667266448985193700,1.88119384765625,0.10262233763933182,0.13499724864959717,0.3158080279827118
1667266448987591700,1.883591796875,0.11911521852016449,0.10384403169155121,0.3365768492221832
1667266448989989400,1.8859892578125,0.13682979345321655,0.07269082218408585,0.35917818546295166
1667266448992387000,1.888386962890625,0.15332266688346863,0.046424392610788345,0.3817795515060425
1667266448994785000,1.890784912109375,0.16737215220928192,0.023212196305394173,0.39766156673431396
1667266448997182700,1.8931826171875,0.17836740612983704,0.006108472589403391,0.4159869849681854
1667266448999580700,1.89558056640625,0.18936264514923096,-0.004275931045413017,0.4312581717967987
1667266449001978400,1.897978271484375,0.1973036676645279,-0.008551862090826035,0.446529358625412
1667266449004376300,1.900376220703125,0.20341213047504425,-0.007941014133393764,0.4599680006504059
1667266449006774000,1.90277392578125,0.20280128717422485,0.0012216945178806782,0.4709632396697998
1667266449009171700,1.905171630859375,0.20402298867702484,0.015271181240677834,0.4819584786891937
1667266449011569700,1.907569580078125,0.20219044387340546,0.03420744836330414,0.4886777997016907
1667266449013967400,1.90996728515625,0.1966928243637085,0.055587101727724075,0.497229665517807
1667266449016365300,1.912365234375,0.19302773475646973,0.0781884491443634,0.503948986530304
1667266449018763000,1.914762939453125,0.1850867122411728,0.09895725548267365,0.5106683373451233
1667266449021160700,1.91716064453125,0.17470231652259827,0.12339114397764206,0.5155550837516785
1667266449023558700,1.91955859375,0.16553960740566254,0.14843589067459106,0.5167768001556396
1667266449025956400,1.921956298828125,0.15454435348510742,0.1698155403137207,0.5204418897628784
1667266449028354000,1.92435400390625,0.1429382562637329,0.18814095854759216,0.5192201733589172
1667266449030752000,1.926751953125,0.12827792763710022,0.208298921585083,0.5161659121513367
1667266449033149700,1.929149658203125,0.11422843486070633,0.22051586210727692,0.5094466209411621
1667266449035547600,1.931547607421875,0.10140064358711243,0.23151111602783203,0.5045598149299622
1667266449037945300,1.9339453125,0.08674030750989914,0.237008735537529,0.497229665517807
1667266449040343300,1.93634326171875,0.07207997888326645,0.23945212364196777,0.4862344264984131
1667266449042741000,1.938740966796875,0.05986303091049194,0.237008735537529,0.4752391576766968
1667266449045138700,1.941138671875,0.04886778071522713,0.2351761907339096,0.4611896872520447
1667266449047536600,1.94353662109375,0.03787253051996231,0.23090025782585144,0.44958359003067017
1667266449049934300,1.945934326171875,0.028098974376916885,0.22479179501533508,0.4349232614040375
1667266449052332300,1.948332275390625,0.01954711228609085,0.21990501880645752,0.4202629029750824
1667266449054730000,1.95072998046875,0.013438640162348747,0.21440738439559937,0.4031592011451721
1667266449057128000,1.9531279296875,0.004886778071522713,0.2101314514875412,0.38788801431655884
1667266449059525600,1.955525634765625,0,0.20646637678146362,0.37139514088630676
1667266449061923300,1.95792333984375,0.0024433890357613564,0.20096874237060547,0.35795649886131287
1667266449064321300,1.9603212890625,0.0024433890357613564,0.1985253542661667,0.3432961702346802
1667266449066719000,1.962718994140625,0.005497625097632408,0.1960819661617279,0.3286358118057251
1667266449069116700,1.96511669921875,0.011606098152697086,0.19241689145565033,0.3176405727863312
1667266449071514600,1.9675146484375,0.021990500390529633,0.18936264514923096,0.30664533376693726
1667266449073912300,1.969912353515625,0.03176405653357506,0.1844758689403534,0.29748260974884033
1667266449076310300,1.972310302734375,0.045202698558568954,0.1820324808359146,0.2919849753379822
1667266449078708000,1.9747080078125,0.05925218388438225,0.18019993603229523,0.2858765125274658
1667266449081105700,1.977105712890625,0.07574506103992462,0.18019993603229523,0.28098973631858826
1667266449083503600,1.979503662109375,0.0916270911693573,0.18019993603229523,0.27915719151496887
1667266449085901300,1.9819013671875,0.10873081535100937,0.17958909273147583,0.2742704153060913
1667266449088299300,1.98429931640625,0.12644538283348083,0.183865025639534,0.27060532569885254
1667266449090697000,1.986697021484375,0.14110571146011353,0.18630841374397278,0.26632940769195557
1667266449093095000,1.989094970703125,0.1588202863931656,0.18997350335121155,0.26694026589393616
1667266449095492600,1.99149267578125,0.17470231652259827,0.1948602795600891,0.2626643180847168
1667266449097890300,1.993890380859375,0.18814095854759216,0.1979145109653473,0.2583884000778198
1667266449100288300,1.996288330078125,0.20035789906978607,0.20219044387340546,0.25655585527420044
1667266449102686000,1.99868603515625,0.2095206081867218,0.20402298867702484,0.2516690790653229
1667266449105084000,2.001083984375,0.22051586210727692,0.20341213047504425,0.24250635504722595
1667266449107481600,2.003481689453125,0.22723518311977386,0.20463383197784424,0.2339545041322708
1667266449109879300,2.00587939453125,0.23151111602783203,0.20402298867702484,0.22662433981895447
1667266449112277200,2.00827734375,0.2376195788383484,0.20157960057258606,0.21746163070201874
1667266449114675000,2.010675048828125,0.23884128034114838,0.20341213047504425,0.20157960057258606
1667266449117073000,2.013072998046875,0.23945212364196777,0.20463383197784424,0.18630841374397278
1667266449119470600,2.015470703125,0.24067382514476776,0.20524467527866364,0.17286977171897888
1667266449121868300,2.017868408203125,0.2376195788383484,0.20646637678146362,0.15210096538066864
1667266449124266200,2.020266357421875,0.23334364593029022,0.208298921585083,0.1325538605451584
1667266449126664000,2.022663818359375,0.23151111602783203,0.21196399629116058,0.11422843486070633
1667266449129062000,2.025061767578125,0.22784602642059326,0.21685077250003815,0.09040539711713791
1667266449131459600,2.02745947265625,0.2241809368133545,0.21685077250003815,0.0653606578707695
1667266449133857300,2.029857177734375,0.2217375487089157,0.2211267054080963,0.04337015375494957
1667266449136255200,2.032255126953125,0.21868331730365753,0.22784602642059326,0.021990500390529633
1667266449138653000,2.03465283203125,0.21746163070201874,0.23212195932865143,-0.0006108472589403391
1667266449141051000,2.03705078125,0.21440738439559937,0.23945212364196777,-0.022601349279284477
1667266449143448600,2.039448486328125,0.21501824259757996,0.24372805655002594,-0.04459185153245926
1667266449145846500,2.041846435546875,0.2113531529903412,0.24678228795528412,-0.06352811306715012
1667266449148244200,2.044244140625,0.2101314514875412,0.2473931461572647,-0.08063183724880219
1667266449150642000,2.046641845703125,0.21440738439559937,0.2492256760597229,-0.09590301662683487
1667266449153040000,2.049039794921875,0.21562908589839935,0.24494975805282593,-0.10934165865182877
1667266449155437600,2.0514375,0.21623992919921875,0.237008735537529,-0.12033691257238388
1667266449157835500,2.05383544921875,0.21623992919921875,0.22723518311977386,-0.1301104724407196
1667266449160233200,2.056233154296875,0.21807247400283813,0.21196399629116058,-0.13805148005485535
1667266449162631000,2.058630859375,0.21807247400283813,0.19363857805728912,-0.14782503247261047
1667266449165028900,2.06102880859375,0.21685077250003815,0.17470231652259827,-0.15149012207984924
1667266449167426600,2.063426513671875,0.21685077250003815,0.15393351018428802,-0.1557660549879074
1667266449169824300,2.06582421875,0.21440738439559937,0.1301104724407196,-0.15943112969398499
1667266449172222200,2.06822216796875,0.21257483959197998,0.10689827054738998,-0.1588202863931656
1667266449174620000,2.070619873046875,0.2095206081867218,0.08612946420907974,-0.16004198789596558
1667266449177017900,2.073017822265625,0.20585553348064423,0.06352811306715012,-0.16187451779842377
1667266449179415600,2.07541552734375,0.20096874237060547,0.043981000781059265,-0.16370706260204315
1667266449181813500,2.0778134765625,0.19363857805728912,0.02748812735080719,-0.16431790590286255
1667266449184211200,2.080211181640625,0.18691925704479218,0.012827792204916477,-0.16492876410484314
1667266449186609000,2.08260888671875,0.17775654792785645,0.0024433890357613564,-0.1698155403137207
1667266449189006800,2.0850068359375,0.1698155403137207,-0.008551862090826035,-0.17348061501979828
1667266449191404500,2.087404541015625,0.16309621930122375,-0.016492875292897224,-0.17714570462703705
1667266449193802500,2.089802490234375,0.15393351018428802,-0.024433890357613564,-0.17897824943065643
1667266449196200200,2.0922001953125,0.14782503247261047,-0.03542914241552353,-0.183865025639534
1667266449198598100,2.09459814453125,0.14049486815929413,-0.042759306728839874,-0.18936264514923096
