time,seconds_elapsed,z,y,x
1667825291911130600,0.010130615234375,-1.128265380859375,-0.307586669921875,-0.2231597900390625
1667825291921138700,0.020138671875,-1.1260528564453125,-0.2968902587890625,-0.2965240478515625
1667825291931145700,0.030145751953125,-1.09869384765625,-0.2808990478515625,-0.313751220703125
1667825291941153800,0.04015380859375,-1.0708770751953125,-0.247222900390625,-0.2820587158203125
1667825291951160600,0.05016064453125,-1.0814056396484375,-0.21923828125,-0.267852783203125
1667825291961168600,0.060168701171875,-1.101959228515625,-0.2074737548828125,-0.236724853515625
1667825291971175700,0.07017578125,-1.1107025146484375,-0.2158355712890625,-0.195037841796875
1667825291981183700,0.080183837890625,-1.10400390625,-0.2420654296875,-0.1588897705078125
1667825291991191600,0.090191650390625,-1.0723419189453125,-0.25482177734375,-0.1342620849609375
1667825292001198800,0.10019873046875,-1.0419921875,-0.25128173828125,-0.106903076171875
1667825292011206700,0.11020654296875,-1.021820068359375,-0.2445220947265625,-0.0921630859375
1667825292021213700,0.120213623046875,-0.979461669921875,-0.226318359375,-0.1030426025390625
1667825292031221500,0.130221435546875,-0.94976806640625,-0.2144927978515625,-0.120025634765625
1667825292041228800,0.140228759765625,-0.9385223388671875,-0.2085113525390625,-0.126495361328125
1667825292051236600,0.150236572265625,-0.9350738525390625,-0.1969146728515625,-0.1295013427734375
1667825292061243600,0.16024365234375,-0.952667236328125,-0.2192230224609375,-0.1459503173828125
1667825292071251700,0.170251708984375,-0.8815765380859375,-0.249664306640625,-0.1053314208984375
1667825292081258800,0.1802587890625,-0.8771820068359375,-0.274993896484375,-0.0362091064453125
1667825292091266600,0.1902666015625,-0.907501220703125,-0.3054656982421875,-0.009735107421875
1667825292101274600,0.200274658203125,-0.9356842041015625,-0.3313751220703125,-0.0284423828125
1667825292111281700,0.21028173828125,-0.9534912109375,-0.3528594970703125,-0.053192138671875
1667825292121289700,0.220289794921875,-0.965301513671875,-0.3563690185546875,-0.0447235107421875
1667825292131296500,0.230296630859375,-0.968780517578125,-0.33843994140625,-0.0192718505859375
1667825292141304800,0.240304931640625,-0.9684600830078125,-0.3143310546875,-0.0012054443359375
1667825292151311600,0.2503115234375,-0.9792327880859375,-0.29803466796875,0.0015411376953125
1667825292161319700,0.260319580078125,-1.0001068115234375,-0.3149261474609375,-0.0063629150390625
1667825292171326700,0.27032666015625,-1.0028533935546875,-0.381072998046875,-0.0433349609375
1667825292181334800,0.280334716796875,-0.97344970703125,-0.4433441162109375,-0.09332275390625
1667825292191341600,0.290341552734375,-0.9383697509765625,-0.4400787353515625,-0.118804931640625
1667825292201349600,0.300349609375,-0.957427978515625,-0.38385009765625,-0.1241455078125
1667825292211357700,0.310357666015625,-0.9407196044921875,-0.3148193359375,-0.120391845703125
1667825292221364700,0.32036474609375,-0.8473968505859375,-0.2938995361328125,-0.127227783203125
1667825292231372500,0.33037255859375,-0.90618896484375,-0.287109375,-0.1278076171875
1667825292241379800,0.3403798828125,-0.9178466796875,-0.27984619140625,-0.0787811279296875
1667825292251387600,0.3503876953125,-0.8990936279296875,-0.27734375,-0.0227203369140625
1667825292261394700,0.360394775390625,-0.8629302978515625,-0.2794342041015625,0.0344085693359375
1667825292271402500,0.370402587890625,-0.8080596923828125,-0.288909912109375,0.082489013671875
1667825292281409800,0.380409912109375,-0.750518798828125,-0.286376953125,0.1079559326171875
1667825292291417600,0.39041748046875,-0.733978271484375,-0.263702392578125,0.1029052734375
1667825292301424600,0.400424560546875,-0.763458251953125,-0.2547607421875,0.101287841796875
1667825292311432700,0.4104326171875,-0.767822265625,-0.2718963623046875,0.1283416748046875
1667825292321440800,0.420440673828125,-0.7425689697265625,-0.2992706298828125,0.1397857666015625
1667825292331447600,0.430447509765625,-0.7630767822265625,-0.312713623046875,0.12823486328125
1667825292341455600,0.44045556640625,-0.7878875732421875,-0.2859649658203125,0.146209716796875
1667825292351462700,0.450462646484375,-0.7971038818359375,-0.280426025390625,0.2285919189453125
1667825292361470700,0.460470703125,-0.85052490234375,-0.2959136962890625,0.339935302734375
1667825292371477500,0.4704775390625,-0.8789520263671875,-0.29150390625,0.4087066650390625
1667825292381485800,0.48048583984375,-0.8683929443359375,-0.314910888671875,0.42779541015625
1667825292391492600,0.49049267578125,-0.8529205322265625,-0.3402862548828125,0.41473388671875
1667825292401500700,0.500500732421875,-0.86328125,-0.355865478515625,0.3910980224609375
1667825292411507700,0.5105078125,-0.88592529296875,-0.3654937744140625,0.3748931884765625
1667825292421515800,0.520515869140625,-0.877532958984375,-0.3689117431640625,0.365966796875
1667825292431522600,0.5305224609375,-0.8543701171875,-0.368255615234375,0.3613739013671875
1667825292441530600,0.540530517578125,-0.8767547607421875,-0.355926513671875,0.3670501708984375
1667825292451538700,0.55053857421875,-0.878387451171875,-0.3372650146484375,0.378875732421875
1667825292461545700,0.560545654296875,-0.8924102783203125,-0.3303375244140625,0.3785552978515625
1667825292471553800,0.5705537109375,-0.8999786376953125,-0.3330230712890625,0.3734893798828125
1667825292481560800,0.580560791015625,-0.913238525390625,-0.3384857177734375,0.3630828857421875
1667825292491569000,0.59056884765625,-0.9505157470703125,-0.3527679443359375,0.350982666015625
1667825292501575700,0.60057568359375,-0.9784698486328125,-0.3655548095703125,0.3463134765625
1667825292511583700,0.610583740234375,-0.994232177734375,-0.3688201904296875,0.334075927734375
1667825292521590800,0.6205908203125,-0.9835357666015625,-0.3585205078125,0.3167266845703125
1667825292531598800,0.630598876953125,-0.9388427734375,-0.3314971923828125,0.300506591796875
1667825292541601800,0.640601806640625,-0.8948822021484375,-0.3004608154296875,0.2882537841796875
1667825292551610000,0.650610107421875,-0.8726043701171875,-0.284271240234375,0.2963714599609375
1667825292561618000,0.660617919921875,-0.8484954833984375,-0.2993011474609375,0.3126220703125
1667825292571625000,0.670625,-0.8278350830078125,-0.3109283447265625,0.31768798828125
1667825292581632800,0.6806328125,-0.794036865234375,-0.302215576171875,0.32904052734375
1667825292591640000,0.69064013671875,-0.750213623046875,-0.281494140625,0.330657958984375
1667825292601647900,0.70064794921875,-0.7176971435546875,-0.2567596435546875,0.3155975341796875
1667825292611655000,0.710655029296875,-0.6807861328125,-0.2359466552734375,0.3071441650390625
1667825292621663000,0.7206630859375,-0.64654541015625,-0.217132568359375,0.3100433349609375
1667825292631670000,0.730669921875,-0.6257171630859375,-0.210357666015625,0.3099365234375
1667825292641677800,0.740677734375,-0.6285400390625,-0.20751953125,0.2801971435546875
1667825292651685000,0.75068505859375,-0.6493072509765625,-0.184783935546875,0.2219085693359375
1667825292661693000,0.76069287109375,-0.6876373291015625,-0.1301116943359375,0.1515350341796875
1667825292671700000,0.770699951171875,-0.7601470947265625,-0.054229736328125,0.069610595703125
1667825292681707800,0.780707763671875,-0.8421173095703125,0.019317626953125,0.02020263671875
1667825292691715800,0.7907158203125,-0.9564666748046875,0.060943603515625,-0.0427703857421875
1667825292701723000,0.800722900390625,-1.1603546142578125,0.041748046875,-0.1320648193359375
1667825292711731000,0.81073095703125,-1.25604248046875,0.0073394775390625,-0.2061004638671875
1667825292721738000,0.820738037109375,-1.043853759765625,0.1263427734375,-0.40692138671875
1667825292731746000,0.83074609375,-1.1001434326171875,0.4586029052734375,-0.6860198974609375
1667825292741752800,0.8407529296875,-1.3355712890625,0.7652587890625,-0.6710968017578125
1667825292751761000,0.850760986328125,-1.3449554443359375,0.7808074951171875,-0.485015869140625
1667825292761768000,0.860767822265625,-1.3934478759765625,0.6109466552734375,-0.338775634765625
1667825292771776000,0.87077587890625,-1.436737060546875,0.5121307373046875,-0.2905120849609375
1667825292781782800,0.88078271484375,-1.3857421875,0.56524658203125,-0.277923583984375
1667825292791790800,0.890790771484375,-1.2362823486328125,0.6626739501953125,-0.24884033203125
1667825292801799200,0.900799072265625,-1.101715087890625,0.720733642578125,-0.2041778564453125
1667825292811806000,0.910805908203125,-1.0360870361328125,0.72198486328125,-0.1419830322265625
1667825292821814000,0.92081396484375,-1.0139923095703125,0.6824493408203125,-0.092620849609375
1667825292831821000,0.930821044921875,-1.0028839111328125,0.6229248046875,-0.0737762451171875
1667825292841829000,0.9408291015625,-1.0014190673828125,0.564300537109375,-0.101318359375
1667825292851836000,0.9508359375,-0.9871063232421875,0.5260162353515625,-0.1335906982421875
1667825292861844000,0.960843994140625,-0.9637451171875,0.5171966552734375,-0.1627044677734375
1667825292871851000,0.97085107421875,-0.9466094970703125,0.5223541259765625,-0.1880035400390625
1667825292881859000,0.980859130859375,-0.92987060546875,0.5216064453125,-0.2053375244140625
1667825292891865900,0.990865966796875,-0.902862548828125,0.50640869140625,-0.2156982421875
1667825292901874200,1.000874267578125,-0.8847198486328125,0.485107421875,-0.231353759765625
1667825292911882000,1.010882080078125,-0.875152587890625,0.4624481201171875,-0.2353057861328125
1667825292921889000,1.020888916015625,-0.8556671142578125,0.433197021484375,-0.2270355224609375
1667825292931896800,1.030896728515625,-0.8329315185546875,0.4010162353515625,-0.2184906005859375
1667825292941904100,1.040904052734375,-0.800933837890625,0.372528076171875,-0.1997222900390625
1667825292951912000,1.050911865234375,-0.7822265625,0.3472747802734375,-0.1772613525390625
1667825292961919000,1.0609189453125,-0.7638397216796875,0.3220672607421875,-0.1481170654296875
1667825292971927000,1.070927001953125,-0.74224853515625,0.2975616455078125,-0.1254425048828125
1667825292981934000,1.08093408203125,-0.7236328125,0.279052734375,-0.113922119140625
1667825292991942000,1.09094189453125,-0.7090301513671875,0.2697601318359375,-0.1096649169921875
1667825293001949200,1.10094921875,-0.69073486328125,0.2827606201171875,-0.1113739013671875
1667825293011957000,1.11095703125,-0.682891845703125,0.301177978515625,-0.121307373046875
1667825293021965000,1.120965087890625,-0.6964569091796875,0.3026580810546875,-0.1169891357421875
1667825293031971800,1.130971923828125,-0.715972900390625,0.2881011962890625,-0.1223907470703125
1667825293041980000,1.14097998046875,-0.744140625,0.275970458984375,-0.14349365234375
1667825293051987000,1.150987060546875,-0.7748870849609375,0.2777862548828125,-0.173095703125
1667825293061995000,1.1609951171875,-0.8009185791015625,0.2984771728515625,-0.2095489501953125
1667825293072002000,1.171001953125,-0.82391357421875,0.34002685546875,-0.2480316162109375
1667825293082010000,1.181010009765625,-0.8451995849609375,0.39764404296875,-0.2854766845703125
1667825293092017000,1.191016845703125,-0.87530517578125,0.4389190673828125,-0.29638671875
1667825293102025000,1.20102490234375,-0.9104766845703125,0.443603515625,-0.2842559814453125
1667825293112032000,1.211031982421875,-0.9431304931640625,0.432281494140625,-0.2726287841796875
1667825293122040000,1.2210400390625,-0.9603118896484375,0.43206787109375,-0.2667236328125
1667825293132048000,1.2310478515625,-0.9618682861328125,0.4425048828125,-0.260101318359375
1667825293142055000,1.241054931640625,-0.957794189453125,0.455963134765625,-0.2463531494140625
1667825293152063000,1.25106298828125,-0.946685791015625,0.4689483642578125,-0.2346038818359375
1667825293162070000,1.261070068359375,-0.9287872314453125,0.47991943359375,-0.2275543212890625
1667825293172077800,1.271077880859375,-0.9116973876953125,0.4899139404296875,-0.218231201171875
1667825293182085000,1.281085205078125,-0.9019927978515625,0.4912567138671875,-0.2099456787109375
1667825293192093000,1.291093017578125,-0.8980865478515625,0.4932098388671875,-0.2051239013671875
1667825293202100000,1.301099853515625,-0.8952789306640625,0.499755859375,-0.2042083740234375
1667825293212107800,1.311107666015625,-0.88812255859375,0.509246826171875,-0.2129058837890625
1667825293222115000,1.321114990234375,-0.8853302001953125,0.520355224609375,-0.2308807373046875
1667825293232123000,1.331122802734375,-0.877716064453125,0.532958984375,-0.244415283203125
1667825293242130000,1.3411298828125,-0.835235595703125,0.5523529052734375,-0.2480621337890625
1667825293252138000,1.351137939453125,-0.8283538818359375,0.57281494140625,-0.300201416015625
1667825293262146000,1.36114599609375,-0.8473052978515625,0.593597412109375,-0.340606689453125
1667825293272152800,1.37115283203125,-0.8509979248046875,0.602325439453125,-0.3298797607421875
1667825293282161000,1.381160888671875,-0.8483123779296875,0.58758544921875,-0.32073974609375
1667825293292168000,1.39116796875,-0.8444671630859375,0.5807647705078125,-0.292816162109375
1667825293302176000,1.401176025390625,-0.8406829833984375,0.58416748046875,-0.2669525146484375
1667825293312182800,1.411182861328125,-0.831634521484375,0.5825347900390625,-0.24932861328125
1667825293322191000,1.421191162109375,-0.8134002685546875,0.573516845703125,-0.2389678955078125
1667825293332198000,1.431197998046875,-0.7945404052734375,0.565887451171875,-0.23809814453125
1667825293342206000,1.4412060546875,-0.7827911376953125,0.561737060546875,-0.2323760986328125
1667825293352213000,1.451212890625,-0.779266357421875,0.559417724609375,-0.23046875
1667825293362221000,1.461220947265625,-0.7791748046875,0.55047607421875,-0.2370147705078125
1667825293372228900,1.471228759765625,-0.7780303955078125,0.533355712890625,-0.2442474365234375
1667825293382236000,1.48123583984375,-0.77886962890625,0.5159759521484375,-0.2425079345703125
1667825293392244000,1.491243896484375,-0.7784271240234375,0.4940032958984375,-0.228179931640625
1667825293402251000,1.5012509765625,-0.7700653076171875,0.45849609375,-0.2092437744140625
1667825293412258800,1.5112587890625,-0.7566070556640625,0.423095703125,-0.19451904296875
1667825293422266000,1.52126611328125,-0.7452239990234375,0.4046173095703125,-0.1847686767578125
1667825293432274000,1.53127392578125,-0.72552490234375,0.4023590087890625,-0.1754302978515625
1667825293442281000,1.541281005859375,-0.707550048828125,0.402069091796875,-0.1745452880859375
1667825293452288800,1.551288818359375,-0.701629638671875,0.4019775390625,-0.16632080078125
1667825293462296000,1.561296142578125,-0.69598388671875,0.4004058837890625,-0.155792236328125
1667825293472303900,1.571303955078125,-0.69036865234375,0.3937225341796875,-0.152191162109375
1667825293482312000,1.58131201171875,-0.68914794921875,0.384613037109375,-0.1448211669921875
1667825293492319000,1.591319091796875,-0.68572998046875,0.3647613525390625,-0.127716064453125
1667825293502327000,1.6013271484375,-0.683624267578125,0.335784912109375,-0.1068878173828125
1667825293512333800,1.611333740234375,-0.674896240234375,0.31231689453125,-0.0914154052734375
1667825293522342000,1.621341796875,-0.6628265380859375,0.3072509765625,-0.0801849365234375
1667825293532349000,1.631348876953125,-0.650543212890625,0.313873291015625,-0.0701751708984375
1667825293542357000,1.64135693359375,-0.642791748046875,0.3135986328125,-0.062255859375
1667825293552363800,1.65136376953125,-0.6433258056640625,0.3055267333984375,-0.0532379150390625
1667825293562372000,1.6613720703125,-0.6535797119140625,0.2944488525390625,-0.0329132080078125
1667825293572379000,1.67137890625,-0.665618896484375,0.272186279296875,-0.0123138427734375
1667825293582387000,1.681386962890625,-0.6819915771484375,0.252532958984375,0.0030364990234375
1667825293592394800,1.691394775390625,-0.6942291259765625,0.2488250732421875,0.01885986328125
1667825293602402000,1.701402099609375,-0.7025909423828125,0.2509765625,0.0344085693359375
1667825293612409900,1.711409912109375,-0.714019775390625,0.25042724609375,0.0357666015625
1667825293622417000,1.7214169921875,-0.725311279296875,0.25714111328125,0.0273284912109375
1667825293632424700,1.7314248046875,-0.74078369140625,0.283050537109375,0.01971435546875
1667825293642432000,1.741431884765625,-0.7666015625,0.3199005126953125,-0.0031280517578125
1667825293652439800,1.751439697265625,-0.799957275390625,0.36334228515625,-0.0295562744140625
1667825293662446800,1.76144677734375,-0.8278350830078125,0.411407470703125,-0.056732177734375
1667825293672455000,1.771454833984375,-0.8583526611328125,0.4591827392578125,-0.08416748046875
1667825293682463000,1.781462890625,-0.8807830810546875,0.495147705078125,-0.08551025390625
1667825293692469800,1.7914697265625,-0.9055328369140625,0.507843017578125,-0.07086181640625
1667825293702477800,1.801477783203125,-0.937896728515625,0.5106964111328125,-0.0599822998046875
1667825293712484900,1.81148486328125,-0.9565277099609375,0.5151824951171875,-0.0480194091796875
1667825293722493000,1.821492919921875,-0.9707794189453125,0.526885986328125,-0.0402984619140625
1667825293732499700,1.831499755859375,-0.9839630126953125,0.542694091796875,-0.0371856689453125
1667825293742508000,1.841508056640625,-0.99102783203125,0.5537567138671875,-0.036285400390625
1667825293752514800,1.851514892578125,-1.0050201416015625,0.56787109375,-0.0470428466796875
1667825293762523000,1.86152294921875,-1.0277862548828125,0.598052978515625,-0.0640716552734375
1667825293772530000,1.871530029296875,-1.0507049560546875,0.6364898681640625,-0.093414306640625
1667825293782538000,1.8815380859375,-1.072509765625,0.6689910888671875,-0.12725830078125
1667825293792544800,1.891544677734375,-1.0890350341796875,0.6900482177734375,-0.1553192138671875
1667825293802552800,1.901552734375,-1.0944976806640625,0.7051849365234375,-0.1703948974609375
1667825293812561200,1.91156103515625,-1.101898193359375,0.7189788818359375,-0.1721038818359375
1667825293822568000,1.92156787109375,-1.1048431396484375,0.7272186279296875,-0.1612396240234375
1667825293832576000,1.931575927734375,-1.101715087890625,0.7274932861328125,-0.1519622802734375
1667825293842583000,1.9415830078125,-1.11126708984375,0.7295684814453125,-0.1446990966796875
1667825293852591000,1.951591064453125,-1.11328125,0.73944091796875,-0.141326904296875
1667825293862598000,1.961597900390625,-1.1070709228515625,0.759063720703125,-0.164154052734375
1667825293872606000,1.97160595703125,-1.1092987060546875,0.781982421875,-0.2183380126953125
1667825293882613000,1.981613037109375,-1.122589111328125,0.8048248291015625,-0.2773895263671875
1667825293892620800,1.991620849609375,-1.1234893798828125,0.818359375,-0.3270721435546875
1667825293902627800,2.0016279296875,-1.1264190673828125,0.813385009765625,-0.3796844482421875
1667825293912636000,2.011635986328125,-1.12298583984375,0.7873077392578125,-0.42816162109375
1667825293922644000,2.02164404296875,-1.1096649169921875,0.7430572509765625,-0.4733734130859375
1667825293932650800,2.031650634765625,-1.0841064453125,0.6927642822265625,-0.513427734375
1667825293942658800,2.041658935546875,-1.0619049072265625,0.647216796875,-0.5320892333984375
1667825293952665900,2.051665771484375,-1.0381622314453125,0.599334716796875,-0.5346221923828125
1667825293962674000,2.061673828125,-1.007293701171875,0.5511016845703125,-0.5339202880859375
1667825293972680700,2.0716806640625,-0.97412109375,0.510986328125,-0.541107177734375
1667825293982689000,2.08168896484375,-0.94482421875,0.4796295166015625,-0.543060302734375
1667825293992695800,2.09169580078125,-0.911376953125,0.4468536376953125,-0.5381927490234375
1667825294002704000,2.101703857421875,-0.873260498046875,0.4027099609375,-0.5139312744140625
1667825294012711000,2.1117109375,-0.832366943359375,0.34674072265625,-0.486602783203125
1667825294022719000,2.121718994140625,-0.7827911376953125,0.289398193359375,-0.4632720947265625
1667825294032727000,2.13172705078125,-0.7476348876953125,0.24951171875,-0.427154541015625
1667825294042733800,2.14173388671875,-0.7273101806640625,0.224945068359375,-0.386383056640625
1667825294052742000,2.151741943359375,-0.710968017578125,0.203277587890625,-0.3643798828125
1667825294062749000,2.1617490234375,-0.7013702392578125,0.19091796875,-0.346221923828125
1667825294072757000,2.171757080078125,-0.6907196044921875,0.1834259033203125,-0.325408935546875
1667825294082764000,2.181763916015625,-0.684478759765625,0.1712646484375,-0.3147125244140625
1667825294092772000,2.191772216796875,-0.682220458984375,0.1645965576171875,-0.3100433349609375
1667825294102779000,2.20177880859375,-0.6782379150390625,0.168701171875,-0.311248779296875
1667825294112787000,2.211786865234375,-0.683929443359375,0.1736602783203125,-0.30743408203125
1667825294122794800,2.221794677734375,-0.6885528564453125,0.1667633056640625,-0.305511474609375
1667825294132802000,2.231802001953125,-0.695037841796875,0.162567138671875,-0.3157958984375
1667825294142809900,2.241809814453125,-0.70745849609375,0.178131103515625,-0.31842041015625
1667825294152817000,2.25181689453125,-0.7150726318359375,0.1981658935546875,-0.30914306640625
1667825294162825000,2.261824951171875,-0.7178955078125,0.2112274169921875,-0.3024749755859375
1667825294172832000,2.27183203125,-0.7275390625,0.2224273681640625,-0.293670654296875
1667825294182839800,2.28183984375,-0.733642578125,0.2338104248046875,-0.2828369140625
1667825294192847000,2.29184716796875,-0.734100341796875,0.239959716796875,-0.2771759033203125
1667825294202855000,2.30185498046875,-0.7433013916015625,0.2469482421875,-0.276947021484375
1667825294212862000,2.311862060546875,-0.748870849609375,0.2620391845703125,-0.2821197509765625
1667825294222869800,2.321869873046875,-0.754364013671875,0.2759246826171875,-0.2808837890625
1667825294232878000,2.331878173828125,-0.76959228515625,0.275299072265625,-0.27294921875
1667825294242884900,2.341884765625,-0.784149169921875,0.2624053955078125,-0.25927734375
1667825294252893000,2.351892822265625,-0.7898101806640625,0.2486419677734375,-0.244537353515625
1667825294262900000,2.36189990234375,-0.786590576171875,0.24444580078125,-0.2302703857421875
1667825294272908000,2.371907958984375,-0.782440185546875,0.2352142333984375,-0.2143402099609375
1667825294282914800,2.381914794921875,-0.78216552734375,0.2041473388671875,-0.2053680419921875
1667825294292923000,2.3919228515625,-0.7816925048828125,0.165985107421875,-0.207122802734375
1667825294302930000,2.401929931640625,-0.7831573486328125,0.149322509765625,-0.228240966796875
1667825294312938000,2.41193798828125,-0.797210693359375,0.164276123046875,-0.2601318359375
1667825294322945800,2.42194580078125,-0.821319580078125,0.19036865234375,-0.283203125
1667825294332953000,2.431953125,-0.840576171875,0.2099761962890625,-0.31036376953125
1667825294342961000,2.4419609375,-0.8629150390625,0.240966796875,-0.3411407470703125
1667825294352968000,2.451968017578125,-0.8782501220703125,0.2890625,-0.36865234375
1667825294362975700,2.461975830078125,-0.892364501953125,0.344146728515625,-0.3946990966796875
1667825294372983000,2.471983154296875,-0.8879241943359375,0.376922607421875,-0.40350341796875
1667825294382990800,2.481990966796875,-0.8784637451171875,0.3669586181640625,-0.3896331787109375
1667825294392998000,2.491997802734375,-0.8872833251953125,0.3217620849609375,-0.3592071533203125
1667825294403006000,2.502005859375,-0.8940582275390625,0.2728118896484375,-0.3144378662109375
1667825294413013000,2.512012939453125,-0.8923492431640625,0.234954833984375,-0.2783660888671875
1667825294423020800,2.522020751953125,-0.9087982177734375,0.2198333740234375,-0.2577972412109375
1667825294433028900,2.53202880859375,-0.9438018798828125,0.2386322021484375,-0.2519989013671875
1667825294443036000,2.542035888671875,-0.970123291015625,0.28302001953125,-0.2653961181640625
1667825294453044000,2.5520439453125,-0.998321533203125,0.3424530029296875,-0.2953338623046875
1667825294463050800,2.56205078125,-1.014373779296875,0.4028472900390625,-0.325408935546875
1667825294473058800,2.572058837890625,-1.034088134765625,0.455230712890625,-0.3570709228515625
1667825294483065900,2.58206591796875,-1.057769775390625,0.50311279296875,-0.38787841796875
1667825294493074000,2.592073974609375,-1.0606231689453125,0.5495452880859375,-0.4075775146484375
1667825294503081000,2.6020810546875,-1.050933837890625,0.5770721435546875,-0.400848388671875
1667825294513089000,2.612089111328125,-1.05059814453125,0.5763702392578125,-0.368682861328125
1667825294523097000,2.62209716796875,-1.0446014404296875,0.5574188232421875,-0.326385498046875
1667825294533103900,2.632103759765625,-1.02313232421875,0.5390625,-0.281768798828125
1667825294543113200,2.64211328125,-0.9987945556640625,0.5331268310546875,-0.2503204345703125
1667825294553120300,2.652120361328125,-0.973907470703125,0.5430145263671875,-0.2232513427734375
1667825294563128300,2.66212841796875,-0.9478607177734375,0.541412353515625,-0.188690185546875
1667825294573135000,2.672135009765625,-0.9297943115234375,0.5120086669921875,-0.157073974609375
1667825294583143200,2.68214306640625,-0.9165191650390625,0.4706573486328125,-0.126312255859375
1667825294593150200,2.692150146484375,-0.9015960693359375,0.42987060546875,-0.0995025634765625
1667825294603158300,2.702158203125,-0.8943328857421875,0.3943328857421875,-0.093658447265625
1667825294613165000,2.7121650390625,-0.896331787109375,0.3737335205078125,-0.0962371826171875
1667825294623173000,2.722173095703125,-0.8936004638671875,0.3570556640625,-0.107177734375
1667825294633181200,2.73218115234375,-0.8975067138671875,0.342041015625,-0.12078857421875
1667825294643188200,2.742188232421875,-0.899261474609375,0.3270416259765625,-0.130218505859375
1667825294653196000,2.752196044921875,-0.900787353515625,0.3191986083984375,-0.142120361328125
1667825294663203300,2.762203369140625,-0.90875244140625,0.3217620849609375,-0.144378662109375
1667825294673211100,2.772211181640625,-0.9155731201171875,0.3180389404296875,-0.1377105712890625
1667825294683218200,2.78221826171875,-0.9283905029296875,0.308990478515625,-0.1345062255859375
1667825294693226000,2.79222607421875,-0.9440765380859375,0.302459716796875,-0.1321868896484375
1667825294703233300,2.8022333984375,-0.9597625732421875,0.2963714599609375,-0.1287841796875
1667825294713241000,2.812240966796875,-0.9730377197265625,0.2937774658203125,-0.12738037109375
1667825294723249200,2.822249267578125,-0.97442626953125,0.302032470703125,-0.130584716796875
1667825294733256200,2.832256103515625,-0.976043701171875,0.3151397705078125,-0.1398162841796875
1667825294743264300,2.84226416015625,-0.97625732421875,0.3245697021484375,-0.1446533203125
1667825294753271000,2.85227099609375,-0.971466064453125,0.322052001953125,-0.1529083251953125
1667825294763279000,2.862279052734375,-0.9686737060546875,0.3224639892578125,-0.1719818115234375
1667825294773286100,2.8722861328125,-0.96612548828125,0.33319091796875,-0.176971435546875
1667825294783294200,2.882294189453125,-0.95562744140625,0.3267364501953125,-0.16912841796875
1667825294793301000,2.892301025390625,-0.940826416015625,0.30523681640625,-0.15679931640625
1667825294803309300,2.902309326171875,-0.9170684814453125,0.2906341552734375,-0.142913818359375
1667825294813316000,2.912316162109375,-0.8861236572265625,0.290802001953125,-0.130401611328125
1667825294823324200,2.92232421875,-0.8614349365234375,0.2939910888671875,-0.1242523193359375
1667825294833332000,2.93233203125,-0.8438262939453125,0.2928314208984375,-0.1108245849609375
1667825294843339300,2.94233935546875,-0.8323516845703125,0.27471923828125,-0.094696044921875
1667825294853347000,2.95234716796875,-0.834625244140625,0.252685546875,-0.0827484130859375
1667825294863354000,2.96235400390625,-0.847900390625,0.238616943359375,-0.07781982421875
1667825294873362200,2.972362060546875,-0.860015869140625,0.229827880859375,-0.0863189697265625
1667825294883369200,2.982369140625,-0.8721771240234375,0.2291259765625,-0.0918121337890625
1667825294893377000,2.992376953125,-0.8812103271484375,0.235443115234375,-0.103759765625
1667825294903384300,3.00238427734375,-0.88873291015625,0.246307373046875,-0.1217498779296875
1667825294913392000,3.01239208984375,-0.883575439453125,0.249176025390625,-0.132598876953125
1667825294923400200,3.022400146484375,-0.886566162109375,0.24188232421875,-0.134674072265625
1667825294933407000,3.032406982421875,-0.8928680419921875,0.237640380859375,-0.13031005859375
1667825294943415000,3.0424150390625,-0.90753173828125,0.247589111328125,-0.12847900390625
1667825294953422000,3.052422119140625,-0.927032470703125,0.259735107421875,-0.1295318603515625
1667825294963430100,3.06243017578125,-0.9407806396484375,0.2599639892578125,-0.139312744140625
1667825294973437200,3.072437255859375,-0.9638671875,0.2645721435546875,-0.153594970703125
1667825294983445200,3.0824453125,-0.9858245849609375,0.2730560302734375,-0.162384033203125
1667825294993452000,3.0924521484375,-1.010498046875,0.27362060546875,-0.168121337890625
1667825295003460000,3.102460205078125,-1.03082275390625,0.267333984375,-0.1789398193359375
1667825295013467100,3.112467041015625,-1.0434722900390625,0.270111083984375,-0.192047119140625
1667825295023475200,3.12247509765625,-1.0533294677734375,0.293426513671875,-0.218963623046875
1667825295033483300,3.132483154296875,-1.0560302734375,0.321197509765625,-0.2376251220703125
1667825295043490000,3.142489990234375,-1.0550994873046875,0.32891845703125,-0.2339324951171875
1667825295053498400,3.152498291015625,-1.056488037109375,0.3201141357421875,-0.23101806640625
1667825295063505200,3.162505126953125,-1.0554962158203125,0.31207275390625,-0.23101806640625
1667825295073513200,3.17251318359375,-1.0526275634765625,0.306182861328125,-0.2210540771484375
1667825295083520300,3.182520263671875,-1.048370361328125,0.31170654296875,-0.2177581787109375
1667825295093528300,3.1925283203125,-1.0473480224609375,0.33868408203125,-0.232513427734375
1667825295103535000,3.20253515625,-1.0467376708984375,0.3703155517578125,-0.2736053466796875
1667825295113543200,3.212543212890625,-1.042877197265625,0.3900146484375,-0.3420562744140625
1667825295123551200,3.22255126953125,-1.0358734130859375,0.400909423828125,-0.4200897216796875
1667825295133558300,3.232558349609375,-1.032073974609375,0.4061431884765625,-0.4853515625
1667825295143566000,3.242566162109375,-1.0346832275390625,0.402435302734375,-0.5398101806640625
1667825295153573400,3.252573486328125,-1.0417327880859375,0.39117431640625,-0.5890350341796875
1667825295163581200,3.262581298828125,-1.0352020263671875,0.3654632568359375,-0.6310882568359375
1667825295173588200,3.272588134765625,-1.0190277099609375,0.321685791015625,-0.6653594970703125
1667825295183596000,3.282595947265625,-1.0076751708984375,0.283966064453125,-0.69940185546875
1667825295193603300,3.292603271484375,-1.004791259765625,0.2745208740234375,-0.716156005859375
1667825295203611100,3.302611083984375,-1.003173828125,0.271881103515625,-0.719390869140625
1667825295213619200,3.312619140625,-1.016876220703125,0.26983642578125,-0.7263031005859375
1667825295223626200,3.322626220703125,-1.0457305908203125,0.269134521484375,-0.714599609375
1667825295233634300,3.33263427734375,-1.058074951171875,0.26171875,-0.6867828369140625
1667825295243641000,3.34264111328125,-1.0580291748046875,0.236846923828125,-0.6434326171875
1667825295253649200,3.352649169921875,-1.0443878173828125,0.20147705078125,-0.5860137939453125
1667825295263656200,3.36265625,-0.997833251953125,0.16314697265625,-0.51324462890625
1667825295273664300,3.372664306640625,-0.9396514892578125,0.12322998046875,-0.4505157470703125
1667825295283671000,3.382671142578125,-0.8933563232421875,0.097686767578125,-0.3990478515625
1667825295293679400,3.392679443359375,-0.8693695068359375,0.09649658203125,-0.356903076171875
1667825295303687200,3.402687255859375,-0.8546295166015625,0.0922393798828125,-0.3326568603515625
1667825295313694200,3.412694091796875,-0.849365234375,0.0828704833984375,-0.3274688720703125
1667825295323702000,3.422701904296875,-0.847137451171875,0.0750885009765625,-0.3317413330078125
1667825295333709300,3.432709228515625,-0.847930908203125,0.067138671875,-0.340728759765625
1667825295343717000,3.442717041015625,-0.858551025390625,0.060577392578125,-0.3537139892578125
1667825295353724200,3.45272412109375,-0.857940673828125,0.05633544921875,-0.363800048828125
1667825295363732200,3.462732177734375,-0.8519439697265625,0.06182861328125,-0.361419677734375
1667825295373739300,3.4727392578125,-0.8397064208984375,0.0686798095703125,-0.354156494140625
1667825295383747000,3.4827470703125,-0.8309783935546875,0.0728759765625,-0.35614013671875
1667825295393755100,3.492755126953125,-0.827606201171875,0.0861663818359375,-0.3572998046875
1667825295403762200,3.50276220703125,-0.8274993896484375,0.1092071533203125,-0.34869384765625
1667825295413770200,3.512770263671875,-0.8236236572265625,0.1314544677734375,-0.3310699462890625
1667825295423777000,3.522777099609375,-0.8177032470703125,0.1399993896484375,-0.313201904296875
1667825295433785000,3.53278515625,-0.81768798828125,0.1348876953125,-0.2965087890625
1667825295443792100,3.542792236328125,-0.820953369140625,0.1196746826171875,-0.273345947265625
1667825295453800200,3.55280029296875,-0.82232666015625,0.0980072021484375,-0.2490081787109375
1667825295463807200,3.56280712890625,-0.8263092041015625,0.0791778564453125,-0.2321624755859375
1667825295473815300,3.572815185546875,-0.83935546875,0.0780487060546875,-0.2350006103515625
1667825295483822000,3.582822021484375,-0.856414794921875,0.098114013671875,-0.2548980712890625
1667825295493830100,3.592830078125,-0.8703155517578125,0.1214752197265625,-0.2828369140625
1667825295503838000,3.602837890625,-0.898101806640625,0.142913818359375,-0.3079376220703125
1667825295513845200,3.61284521484375,-0.9279937744140625,0.1582183837890625,-0.3336181640625
1667825295523853000,3.62285302734375,-0.941802978515625,0.16259765625,-0.359161376953125
1667825295533860000,3.632860107421875,-0.9559478759765625,0.1639556884765625,-0.386749267578125
1667825295543868200,3.6428681640625,-0.971832275390625,0.16119384765625,-0.423553466796875
1667825295553875000,3.652875,-0.957672119140625,0.1498870849609375,-0.449920654296875
1667825295563883000,3.662883056640625,-0.9170074462890625,0.1288299560546875,-0.4611358642578125
1667825295573890000,3.67289013671875,-0.8789825439453125,0.1051788330078125,-0.46661376953125
1667825295583898000,3.682898193359375,-0.84063720703125,0.0741729736328125,-0.4687042236328125
1667825295593906000,3.692906005859375,-0.8018798828125,0.0298919677734375,-0.461822509765625
1667825295603913000,3.702912841796875,-0.781951904296875,-0.02362060546875,-0.4554443359375
1667825295613921000,3.712921142578125,-0.7734375,-0.0707550048828125,-0.4543914794921875
1667825295623928000,3.722927978515625,-0.769012451171875,-0.1137847900390625,-0.465911865234375
1667825295633936000,3.732935791015625,-0.7573089599609375,-0.1542510986328125,-0.4729766845703125
1667825295643943200,3.742943115234375,-0.742706298828125,-0.1870574951171875,-0.486724853515625
1667825295653951000,3.752950927734375,-0.7248077392578125,-0.2135467529296875,-0.504241943359375
1667825295663958000,3.7629580078125,-0.717987060546875,-0.23577880859375,-0.5122222900390625
1667825295673965800,3.7729658203125,-0.7206268310546875,-0.2558746337890625,-0.518707275390625
1667825295683974100,3.78297412109375,-0.7282257080078125,-0.265594482421875,-0.52783203125
1667825295693981000,3.79298095703125,-0.7280426025390625,-0.265289306640625,-0.543731689453125
1667825295703989000,3.802989013671875,-0.7182769775390625,-0.2541656494140625,-0.5653533935546875
1667825295713996000,3.81299609375,-0.71295166015625,-0.236083984375,-0.575225830078125
1667825295724004000,3.823004150390625,-0.708099365234375,-0.2122650146484375,-0.5753021240234375
1667825295734011000,3.833010986328125,-0.6976470947265625,-0.1829833984375,-0.57159423828125
1667825295744019000,3.84301904296875,-0.68084716796875,-0.147857666015625,-0.5652923583984375
1667825295754026000,3.85302587890625,-0.6653594970703125,-0.127197265625,-0.551849365234375
1667825295764034000,3.863033935546875,-0.6640167236328125,-0.1341552734375,-0.5265655517578125
1667825295774042000,3.8730419921875,-0.695098876953125,-0.1628265380859375,-0.4872283935546875
1667825295784049200,3.883049072265625,-0.739105224609375,-0.2110137939453125,-0.4320526123046875
1667825295794057200,3.89305712890625,-0.7765655517578125,-0.2720489501953125,-0.39520263671875
1667825295804064000,3.90306396484375,-0.810577392578125,-0.314849853515625,-0.4073638916015625
1667825295814072000,3.913072021484375,-0.8671722412109375,-0.3132781982421875,-0.45703125
1667825295824079000,3.9230791015625,-0.9581451416015625,-0.263153076171875,-0.494659423828125
1667825295834087200,3.933087158203125,-1.0311737060546875,-0.208770751953125,-0.5092926025390625
1667825295844094000,3.943093994140625,-1.083587646484375,-0.1952972412109375,-0.5268707275390625
1667825295854102000,3.95310205078125,-1.13128662109375,-0.208953857421875,-0.54327392578125
1667825295864110000,3.963110107421875,-1.1294097900390625,-0.2192535400390625,-0.54254150390625
1667825295874117000,3.9731171875,-1.0817108154296875,-0.21368408203125,-0.5425567626953125
1667825295884125000,3.983125,-1.0733184814453125,-0.183502197265625,-0.568634033203125
1667825295894132200,3.99313232421875,-1.092132568359375,-0.1433563232421875,-0.5704498291015625
1667825295904140000,4.00314013671875,-1.10546875,-0.1230926513671875,-0.5540924072265625
1667825295914147000,4.01314697265625,-1.138153076171875,-0.138671875,-0.527679443359375
1667825295924155000,4.02315478515625,-1.1446075439453125,-0.1868896484375,-0.4974365234375
1667825295934163200,4.0331630859375,-1.112823486328125,-0.2350311279296875,-0.4764404296875
1667825295944170000,4.043169921875,-1.067779541015625,-0.256195068359375,-0.4557647705078125
1667825295954178000,4.053177978515625,-1.0080718994140625,-0.25201416015625,-0.4367218017578125
1667825295964185000,4.06318505859375,-0.951690673828125,-0.23699951171875,-0.412567138671875
1667825295974193200,4.073193115234375,-0.90191650390625,-0.22943115234375,-0.38519287109375
1667825295984200000,4.083199951171875,-0.8676910400390625,-0.2317047119140625,-0.3594207763671875
1667825295994208000,4.0932080078125,-0.84722900390625,-0.2414703369140625,-0.3415069580078125
1667825296004215000,4.103215087890625,-0.8451385498046875,-0.251434326171875,-0.3278045654296875
1667825296014223000,4.11322314453125,-0.84576416015625,-0.2656707763671875,-0.325775146484375
1667825296024231000,4.12323095703125,-0.842254638671875,-0.2820892333984375,-0.3315582275390625
1667825296034238200,4.13323828125,-0.841094970703125,-0.2963409423828125,-0.3472747802734375
1667825296044246000,4.14324609375,-0.829376220703125,-0.303192138671875,-0.36334228515625
1667825296054253000,4.153253173828125,-0.8050384521484375,-0.305755615234375,-0.3779144287109375
1667825296064260900,4.1632607421875,-0.7852630615234375,-0.3043365478515625,-0.392181396484375
1667825296074268200,4.17326806640625,-0.7790679931640625,-0.3005523681640625,-0.4016265869140625
1667825296084276000,4.18327587890625,-0.7671356201171875,-0.290863037109375,-0.398895263671875
1667825296094283000,4.193282958984375,-0.7542266845703125,-0.28125,-0.387542724609375
1667825296104291000,4.203291015625,-0.7415313720703125,-0.2774200439453125,-0.3662872314453125
1667825296114299100,4.213299072265625,-0.7247772216796875,-0.2852630615234375,-0.34613037109375
1667825296124306000,4.223305908203125,-0.71087646484375,-0.29559326171875,-0.3436431884765625
1667825296134314000,4.23331396484375,-0.7006988525390625,-0.2999725341796875,-0.3489837646484375
1667825296144321000,4.243321044921875,-0.692962646484375,-0.2994537353515625,-0.3433380126953125
1667825296154329000,4.2533291015625,-0.6924591064453125,-0.3058624267578125,-0.3379364013671875
1667825296164335900,4.2633359375,-0.6976165771484375,-0.324188232421875,-0.33197021484375
1667825296174344000,4.273343994140625,-0.6992340087890625,-0.3460540771484375,-0.3226165771484375
1667825296184351000,4.28335107421875,-0.6996307373046875,-0.3604736328125,-0.3159027099609375
1667825296194359000,4.293359130859375,-0.7066802978515625,-0.3698883056640625,-0.307586669921875
1667825296204367000,4.3033671875,-0.70513916015625,-0.379119873046875,-0.3016204833984375
1667825296214374100,4.3133740234375,-0.7061767578125,-0.3853759765625,-0.298248291015625
1667825296224382200,4.32338232421875,-0.72039794921875,-0.3904571533203125,-0.2937774658203125
1667825296234389000,4.333388916015625,-0.7401885986328125,-0.3946685791015625,-0.28082275390625
1667825296244397000,4.34339697265625,-0.7672576904296875,-0.4007110595703125,-0.26123046875
1667825296254404000,4.353404052734375,-0.795806884765625,-0.4131317138671875,-0.248870849609375
1667825296264412000,4.363411865234375,-0.8157958984375,-0.4276580810546875,-0.2417755126953125
1667825296274419000,4.3734189453125,-0.838897705078125,-0.4314117431640625,-0.2360992431640625
1667825296284427000,4.383427001953125,-0.8620147705078125,-0.427947998046875,-0.232330322265625
1667825296294435000,4.39343505859375,-0.8881072998046875,-0.4280853271484375,-0.234710693359375
1667825296304441900,4.40344189453125,-0.9076995849609375,-0.4343109130859375,-0.237152099609375
1667825296314450000,4.413449951171875,-0.9201812744140625,-0.4446868896484375,-0.242401123046875
1667825296324457000,4.42345703125,-0.9261932373046875,-0.4554443359375,-0.24871826171875
1667825296334465000,4.433465087890625,-0.9287109375,-0.4619598388671875,-0.255950927734375
1667825296344471800,4.443471923828125,-0.935943603515625,-0.463043212890625,-0.265716552734375
1667825296354480000,4.453480224609375,-0.936004638671875,-0.457977294921875,-0.2756500244140625
1667825296364487000,4.46348681640625,-0.924468994140625,-0.445343017578125,-0.287689208984375
1667825296374495000,4.473494873046875,-0.9128570556640625,-0.42449951171875,-0.299652099609375
1667825296384502000,4.483501953125,-0.8993682861328125,-0.4033355712890625,-0.305877685546875
1667825296394510000,4.493510009765625,-0.8764190673828125,-0.3919830322265625,-0.303314208984375
1667825296404518100,4.50351806640625,-0.84588623046875,-0.3987884521484375,-0.2911376953125
1667825296414525000,4.51352490234375,-0.8193817138671875,-0.4279937744140625,-0.26629638671875
1667825296424533200,4.523533203125,-0.8096466064453125,-0.4745025634765625,-0.2378692626953125
1667825296434540000,4.5335400390625,-0.811004638671875,-0.525146484375,-0.2126312255859375
1667825296444548000,4.543548095703125,-0.82110595703125,-0.5664520263671875,-0.2096405029296875
1667825296454555100,4.55355517578125,-0.841949462890625,-0.5913543701171875,-0.2212371826171875
1667825296464563200,4.563563232421875,-0.87066650390625,-0.595550537109375,-0.2443389892578125
1667825296474570000,4.573570068359375,-0.9085845947265625,-0.5757598876953125,-0.2756500244140625
1667825296484578000,4.583578125,-0.9539794921875,-0.539031982421875,-0.3108673095703125
1667825296494586000,4.593586181640625,-0.9940185546875,-0.50018310546875,-0.3474578857421875
1667825296504593200,4.60359326171875,-1.014556884765625,-0.47064208984375,-0.3889007568359375
1667825296514601000,4.61360107421875,-1.02117919921875,-0.4354400634765625,-0.4199981689453125
1667825296524608300,4.623608154296875,-1.005523681640625,-0.3885650634765625,-0.4300384521484375
1667825296534616000,4.633615966796875,-0.971710205078125,-0.3458709716796875,-0.438995361328125
1667825296544622600,4.64362255859375,-0.9637603759765625,-0.311431884765625,-0.448760986328125
1667825296554630700,4.653630615234375,-0.95458984375,-0.29400634765625,-0.440032958984375
1667825296564637700,4.6636376953125,-0.94366455078125,-0.30279541015625,-0.424041748046875
1667825296574645800,4.673645751953125,-0.938262939453125,-0.32684326171875,-0.3967132568359375
1667825296584652500,4.683652587890625,-0.930328369140625,-0.34661865234375,-0.3791351318359375
1667825296594660900,4.693660888671875,-0.9193267822265625,-0.35931396484375,-0.3689422607421875
1667825296604668700,4.703668701171875,-0.8975830078125,-0.36566162109375,-0.348876953125
1667825296614675700,4.71367578125,-0.8805084228515625,-0.3648529052734375,-0.3309173583984375
1667825296624683500,4.72368359375,-0.8720245361328125,-0.362945556640625,-0.32122802734375
1667825296634690800,4.73369091796875,-0.8590240478515625,-0.3668670654296875,-0.3209075927734375
1667825296644698600,4.74369873046875,-0.847076416015625,-0.377838134765625,-0.3132476806640625
1667825296654705700,4.75370556640625,-0.8415374755859375,-0.39495849609375,-0.306304931640625
1667825296664713700,4.763713623046875,-0.8434600830078125,-0.4064788818359375,-0.3106536865234375
1667825296674720800,4.773720703125,-0.8513336181640625,-0.40765380859375,-0.32470703125
1667825296684728600,4.783728515625,-0.8563079833984375,-0.392974853515625,-0.3379364013671875
1667825296694736600,4.793736572265625,-0.8551025390625,-0.3723297119140625,-0.3549346923828125
1667825296704743700,4.80374365234375,-0.857421875,-0.3562469482421875,-0.3700408935546875
1667825296714751700,4.813751708984375,-0.85772705078125,-0.3448944091796875,-0.3748931884765625
1667825296724758500,4.823758544921875,-0.8470916748046875,-0.338134765625,-0.3788604736328125
1667825296734766800,4.833766845703125,-0.84075927734375,-0.329986572265625,-0.38458251953125
1667825296744773600,4.843773681640625,-0.835357666015625,-0.3187103271484375,-0.3877410888671875
1667825296754781700,4.85378173828125,-0.8225555419921875,-0.3123779296875,-0.381378173828125
1667825296764788700,4.863788818359375,-0.8071136474609375,-0.31585693359375,-0.3652191162109375
1667825296774796800,4.873796875,-0.7977142333984375,-0.3208160400390625,-0.3350372314453125
1667825296784804600,4.8838046875,-0.7860870361328125,-0.32977294921875,-0.302093505859375
1667825296794811600,4.893811767578125,-0.774627685546875,-0.34222412109375,-0.2690277099609375
1667825296804819500,4.9038193359375,-0.770599365234375,-0.35479736328125,-0.240325927734375
1667825296814826800,4.91382666015625,-0.7730255126953125,-0.3646392822265625,-0.2141265869140625
1667825296824834600,4.92383447265625,-0.7799224853515625,-0.3704071044921875,-0.1967315673828125
1667825296834841900,4.933841796875,-0.785308837890625,-0.374053955078125,-0.1876068115234375
1667825296844849700,4.943849609375,-0.792938232421875,-0.376312255859375,-0.1815338134765625
1667825296854856700,4.953856689453125,-0.803863525390625,-0.3812255859375,-0.1752471923828125
1667825296864864500,4.963864501953125,-0.8160247802734375,-0.3901824951171875,-0.1700592041015625
1667825296874871800,4.973871826171875,-0.824951171875,-0.3939666748046875,-0.1744384765625
1667825296884879600,4.983879638671875,-0.8333587646484375,-0.3819732666015625,-0.18231201171875
1667825296894887700,4.9938876953125,-0.833282470703125,-0.3623199462890625,-0.1798095703125
1667825296904894500,5.00389453125,-0.8402557373046875,-0.35064697265625,-0.1767730712890625
1667825296914902800,5.01390283203125,-0.8600311279296875,-0.34521484375,-0.179290771484375
1667825296924909600,5.02390966796875,-0.878143310546875,-0.3358612060546875,-0.19757080078125
1667825296934917600,5.033917724609375,-0.8999481201171875,-0.3137054443359375,-0.2230224609375
1667825296944924700,5.043924560546875,-0.918975830078125,-0.2852020263671875,-0.2436981201171875
1667825296954932700,5.0539326171875,-0.92578125,-0.26715087890625,-0.265533447265625
1667825296964939500,5.063939453125,-0.9253692626953125,-0.2563323974609375,-0.28936767578125
1667825296974947600,5.073947509765625,-0.9217987060546875,-0.2425537109375,-0.307159423828125
1667825296984956000,5.083955810546875,-0.9143524169921875,-0.2228546142578125,-0.3219451904296875
1667825296994962700,5.093962646484375,-0.903167724609375,-0.198516845703125,-0.328460693359375
1667825297004970800,5.103970703125,-0.8881683349609375,-0.18023681640625,-0.3255157470703125
1667825297014977800,5.113977783203125,-0.8748626708984375,-0.1761932373046875,-0.31829833984375
1667825297024985600,5.123985595703125,-0.8668975830078125,-0.186279296875,-0.3132781982421875
1667825297034992600,5.13399267578125,-0.861602783203125,-0.2028961181640625,-0.3139190673828125
1667825297045000400,5.14400048828125,-0.8694610595703125,-0.2216949462890625,-0.3143310546875
1667825297055007700,5.1540078125,-0.88275146484375,-0.2456817626953125,-0.318572998046875
1667825297065015600,5.164015625,-0.9074249267578125,-0.268798828125,-0.33477783203125
1667825297075023600,5.174023681640625,-0.94580078125,-0.2846527099609375,-0.3574066162109375
1667825297085030700,5.18403076171875,-0.9832916259765625,-0.2920989990234375,-0.382659912109375
1667825297095038700,5.194038818359375,-1.0177459716796875,-0.2969818115234375,-0.4155120849609375
1667825297105045500,5.20404541015625,-1.0467529296875,-0.2877349853515625,-0.444427490234375
1667825297115053600,5.214053466796875,-1.063629150390625,-0.2599639892578125,-0.4686279296875
1667825297125060600,5.224060546875,-1.057952880859375,-0.227569580078125,-0.4902496337890625
1667825297135068700,5.234068603515625,-1.034576416015625,-0.2024383544921875,-0.4998626708984375
1667825297145075500,5.244075439453125,-1.02813720703125,-0.187255859375,-0.5099334716796875
1667825297155083800,5.254083740234375,-1.0257720947265625,-0.186676025390625,-0.4864654541015625
1667825297165091800,5.264091796875,-1.0078277587890625,-0.1973114013671875,-0.452789306640625
1667825297175098600,5.2740986328125,-0.991607666015625,-0.211517333984375,-0.427947998046875
1667825297185106700,5.284106689453125,-0.9613037109375,-0.2282257080078125,-0.400604248046875
1667825297195113700,5.29411376953125,-0.922576904296875,-0.246337890625,-0.3727874755859375
1667825297205121800,5.304121826171875,-0.888763427734375,-0.2609405517578125,-0.3450469970703125
1667825297215128600,5.314128662109375,-0.860595703125,-0.269927978515625,-0.3274078369140625
1667825297225136600,5.32413671875,-0.84222412109375,-0.276031494140625,-0.317962646484375
1667825297235143700,5.334143798828125,-0.81884765625,-0.286468505859375,-0.3041229248046875
1667825297245151700,5.34415185546875,-0.80450439453125,-0.3007049560546875,-0.3020477294921875
1667825297255158800,5.35415869140625,-0.7926025390625,-0.318023681640625,-0.301849365234375
1667825297265166800,5.364166748046875,-0.77752685546875,-0.3365325927734375,-0.300048828125
1667825297275174700,5.374174560546875,-0.755859375,-0.348052978515625,-0.2982177734375
1667825297285181700,5.384181640625,-0.7320098876953125,-0.354888916015625,-0.3023223876953125
1667825297295189500,5.394189453125,-0.7114715576171875,-0.3601531982421875,-0.3029937744140625
1667825297305196800,5.40419677734375,-0.694122314453125,-0.369598388671875,-0.29632568359375
1667825297315204600,5.41420458984375,-0.6841278076171875,-0.3799896240234375,-0.290863037109375
1667825297325211600,5.424211669921875,-0.6828460693359375,-0.3845672607421875,-0.290557861328125
1667825297335219700,5.4342197265625,-0.689178466796875,-0.384521484375,-0.2909088134765625
1667825297345226800,5.444226806640625,-0.6923828125,-0.3841400146484375,-0.2905731201171875
1667825297355234600,5.454234619140625,-0.6976318359375,-0.38983154296875,-0.2872161865234375
1667825297365242600,5.46424267578125,-0.7037353515625,-0.4006805419921875,-0.2812347412109375
1667825297375249700,5.474249755859375,-0.7097015380859375,-0.4148101806640625,-0.2749786376953125
1667825297385257700,5.4842578125,-0.720672607421875,-0.4254150390625,-0.2710723876953125
1667825297395264500,5.494264404296875,-0.723541259765625,-0.42633056640625,-0.259735107421875
1667825297405272800,5.50427294921875,-0.7301177978515625,-0.4221649169921875,-0.25067138671875
1667825297415279600,5.514279541015625,-0.743438720703125,-0.414642333984375,-0.2419891357421875
1667825297425287700,5.52428759765625,-0.7510986328125,-0.4026031494140625,-0.23944091796875
1667825297435294700,5.534294677734375,-0.770751953125,-0.382232666015625,-0.240631103515625
1667825297445302800,5.544302734375,-0.7848052978515625,-0.3709716796875,-0.2404632568359375
1667825297455310600,5.554310546875,-0.7994842529296875,-0.377288818359375,-0.2383575439453125
1667825297465317600,5.564317626953125,-0.8219757080078125,-0.389556884765625,-0.2480621337890625
1667825297475325700,5.57432568359375,-0.84759521484375,-0.3924102783203125,-0.2637481689453125
1667825297485332700,5.584332763671875,-0.8698272705078125,-0.3870391845703125,-0.273834228515625
1667825297495340500,5.594340576171875,-0.888641357421875,-0.37957763671875,-0.279571533203125
1667825297505347800,5.604347900390625,-0.90826416015625,-0.373321533203125,-0.284027099609375
1667825297515355600,5.614355712890625,-0.926544189453125,-0.37548828125,-0.2822723388671875
1667825297525362700,5.62436279296875,-0.9483795166015625,-0.3817901611328125,-0.286163330078125
1667825297535370500,5.63437060546875,-0.974090576171875,-0.37982177734375,-0.298919677734375
1667825297545380900,5.644380859375,-0.98797607421875,-0.3594512939453125,-0.3115234375
1667825297555388700,5.654388671875,-0.9938812255859375,-0.324737548828125,-0.32403564453125
1667825297565396700,5.664396728515625,-1.0025634765625,-0.2886810302734375,-0.32958984375
1667825297575403800,5.67440380859375,-0.995849609375,-0.26153564453125,-0.3224029541015625
1667825297585411800,5.684411865234375,-0.97650146484375,-0.2509307861328125,-0.3042449951171875
1667825297595418600,5.694418701171875,-0.96075439453125,-0.256134033203125,-0.2790374755859375
1667825297605426700,5.7044267578125,-0.9584197998046875,-0.2742462158203125,-0.243743896484375
1667825297615433700,5.714433837890625,-0.9697113037109375,-0.3080291748046875,-0.221893310546875
1667825297625441800,5.72444189453125,-0.9908599853515625,-0.3441925048828125,-0.2257080078125
1667825297635448600,5.734448486328125,-1.0071258544921875,-0.3585968017578125,-0.26513671875
1667825297645457000,5.744456787109375,-1.0215606689453125,-0.3403167724609375,-0.3232879638671875
1667825297655465000,5.75446484375,-1.0354766845703125,-0.3132171630859375,-0.388763427734375
1667825297665471700,5.7644716796875,-1.05084228515625,-0.3105926513671875,-0.4608917236328125
1667825297675479800,5.774479736328125,-1.0624847412109375,-0.3350830078125,-0.53448486328125
1667825297685486800,5.78448681640625,-1.0690765380859375,-0.36334228515625,-0.6031036376953125
1667825297695495000,5.794494873046875,-1.066009521484375,-0.3800048828125,-0.667236328125
1667825297705501700,5.804501708984375,-1.0497283935546875,-0.3851165771484375,-0.7123870849609375
1667825297715510000,5.814510009765625,-1.022247314453125,-0.384429931640625,-0.73883056640625
1667825297725516800,5.824516845703125,-0.98638916015625,-0.385650634765625,-0.7463531494140625
1667825297735524900,5.83452490234375,-0.9654388427734375,-0.401885986328125,-0.738800048828125
1667825297745532700,5.84453271484375,-0.962188720703125,-0.4389801025390625,-0.73016357421875
1667825297755540000,5.8545400390625,-0.9579010009765625,-0.4806365966796875,-0.711517333984375
1667825297765547800,5.8645478515625,-0.953460693359375,-0.5154266357421875,-0.6884002685546875
1667825297775554800,5.874554931640625,-0.949462890625,-0.5346527099609375,-0.6611480712890625
1667825297785563000,5.88456298828125,-0.9349517822265625,-0.5402374267578125,-0.629791259765625
1667825297795570000,5.89456982421875,-0.9122467041015625,-0.52850341796875,-0.5889892578125
1667825297805577700,5.90457763671875,-0.881927490234375,-0.5108642578125,-0.54840087890625
1667825297815585000,5.9145849609375,-0.847747802734375,-0.4909820556640625,-0.5066375732421875
1667825297825592800,5.9245927734375,-0.8180084228515625,-0.46502685546875,-0.467803955078125
1667825297835600000,5.934599853515625,-0.7989044189453125,-0.441864013671875,-0.4436187744140625
1667825297845607700,5.944607666015625,-0.778228759765625,-0.426483154296875,-0.4226531982421875
1667825297855615700,5.95461572265625,-0.7650146484375,-0.4074554443359375,-0.3953704833984375
1667825297865622800,5.964622802734375,-0.754486083984375,-0.386260986328125,-0.3626251220703125
1667825297875630800,5.974630859375,-0.7431182861328125,-0.36578369140625,-0.3303070068359375
1667825297885638000,5.984637939453125,-0.735565185546875,-0.346160888671875,-0.307403564453125
1667825297895646000,5.99464599609375,-0.7288055419921875,-0.32818603515625,-0.2871856689453125
1667825297905652700,6.00465283203125,-0.7210540771484375,-0.3154144287109375,-0.272064208984375
1667825297915660800,6.014660888671875,-0.712005615234375,-0.305389404296875,-0.254547119140625
1667825297925667800,6.024667724609375,-0.7024688720703125,-0.3029937744140625,-0.2290496826171875
1667825297935676000,6.034676025390625,-0.6953125,-0.30438232421875,-0.206939697265625
1667825297945683700,6.04468359375,-0.693145751953125,-0.3050079345703125,-0.1833648681640625
1667825297955690800,6.054690673828125,-0.6864776611328125,-0.3062896728515625,-0.15765380859375
1667825297965698800,6.06469873046875,-0.68280029296875,-0.3133544921875,-0.1321258544921875
1667825297975705900,6.074705810546875,-0.6858062744140625,-0.327850341796875,-0.111328125
1667825297985713700,6.084713623046875,-0.684173583984375,-0.3509063720703125,-0.0935821533203125
1667825297995721000,6.094720947265625,-0.6803741455078125,-0.371124267578125,-0.08135986328125
1667825298005728800,6.104728759765625,-0.6829833984375,-0.3844146728515625,-0.0784759521484375
1667825298015735800,6.11473583984375,-0.6905059814453125,-0.38671875,-0.089630126953125
1667825298025743600,6.12474365234375,-0.7047882080078125,-0.3780059814453125,-0.1132049560546875
1667825298035752000,6.134751953125,-0.7227020263671875,-0.3656463623046875,-0.1453704833984375
1667825298045758700,6.1447587890625,-0.7436065673828125,-0.3562774658203125,-0.175567626953125
1667825298055766800,6.154766845703125,-0.77435302734375,-0.35150146484375,-0.2084503173828125
1667825298065773800,6.16477392578125,-0.806884765625,-0.3507232666015625,-0.2470855712890625
1667825298075782000,6.174781982421875,-0.837371826171875,-0.3421783447265625,-0.2783966064453125
1667825298085788700,6.18478857421875,-0.865325927734375,-0.32513427734375,-0.302642822265625
1667825298095796700,6.194796630859375,-0.8802337646484375,-0.303009033203125,-0.32098388671875
1667825298105803800,6.2048037109375,-0.8828125,-0.277191162109375,-0.34033203125
1667825298115811800,6.214811767578125,-0.8793182373046875,-0.2542572021484375,-0.3711395263671875
1667825298125819600,6.224819580078125,-0.89794921875,-0.2361602783203125,-0.4058837890625
1667825298135827000,6.234826904296875,-0.92047119140625,-0.2229766845703125,-0.43408203125
1667825298145834800,6.244834716796875,-0.9364776611328125,-0.2102813720703125,-0.476898193359375
1667825298155841800,6.254841796875,-0.9535064697265625,-0.1937713623046875,-0.5203399658203125
1667825298165849600,6.264849609375,-0.9538726806640625,-0.1745147705078125,-0.549346923828125
1667825298175857000,6.27485693359375,-0.938629150390625,-0.1546173095703125,-0.5707855224609375
1667825298185864700,6.28486474609375,-0.911651611328125,-0.1354827880859375,-0.587066650390625
1667825298195871700,6.294871826171875,-0.8768157958984375,-0.1157989501953125,-0.589935302734375
1667825298205879800,6.3048798828125,-0.83978271484375,-0.101959228515625,-0.580047607421875
1667825298215886800,6.314886962890625,-0.8035125732421875,-0.1168670654296875,-0.5558013916015625
1667825298225894700,6.324894775390625,-0.786102294921875,-0.1703338623046875,-0.5380096435546875
1667825298235902700,6.33490283203125,-0.7989654541015625,-0.231689453125,-0.53692626953125
1667825298245909800,6.34490966796875,-0.8294219970703125,-0.2720947265625,-0.548309326171875
1667825298255917800,6.354917724609375,-0.86383056640625,-0.2946014404296875,-0.5534820556640625
1667825298265924600,6.364924560546875,-0.890594482421875,-0.3168792724609375,-0.5625152587890625
1667825298275932700,6.3749326171875,-0.908447265625,-0.3402557373046875,-0.586273193359375
1667825298285939700,6.384939697265625,-0.916046142578125,-0.34088134765625,-0.61279296875
1667825298295947800,6.39494775390625,-0.912261962890625,-0.3146209716796875,-0.6327362060546875
1667825298305955800,6.404955810546875,-0.8969879150390625,-0.28192138671875,-0.6416473388671875
1667825298315963000,6.414962890625,-0.8662261962890625,-0.2621612548828125,-0.6333465576171875
1667825298325971000,6.424970947265625,-0.8372650146484375,-0.2662811279296875,-0.6029815673828125
1667825298335977700,6.434977783203125,-0.852020263671875,-0.2776641845703125,-0.5599822998046875
1667825298345985800,6.44498583984375,-0.8811187744140625,-0.2800750732421875,-0.5200958251953125
1667825298355992800,6.454992919921875,-0.890167236328125,-0.280303955078125,-0.4950714111328125
1667825298366001000,6.4650009765625,-0.901031494140625,-0.2837677001953125,-0.4730377197265625
1667825298376007700,6.475007568359375,-0.911163330078125,-0.28778076171875,-0.4469757080078125
1667825298386016000,6.48501611328125,-0.899749755859375,-0.2907867431640625,-0.41949462890625
1667825298396022800,6.495022705078125,-0.887054443359375,-0.2831573486328125,-0.3920745849609375
1667825298406030800,6.50503076171875,-0.875244140625,-0.2616729736328125,-0.364959716796875
1667825298416038700,6.51503857421875,-0.8558349609375,-0.2377166748046875,-0.3298187255859375
1667825298426046000,6.5250458984375,-0.836822509765625,-0.2240142822265625,-0.2934722900390625
1667825298436053800,6.5350537109375,-0.8256988525390625,-0.2190093994140625,-0.2592315673828125
1667825298446060800,6.545060791015625,-0.8130340576171875,-0.2191162109375,-0.234039306640625
1667825298456068900,6.55506884765625,-0.8082427978515625,-0.220245361328125,-0.222747802734375
1667825298466076000,6.565075927734375,-0.8097381591796875,-0.2189483642578125,-0.2158660888671875
1667825298476083700,6.575083740234375,-0.8125762939453125,-0.2148895263671875,-0.2133026123046875
1667825298486091000,6.585091064453125,-0.811492919921875,-0.2130889892578125,-0.2190704345703125
1667825298496098800,6.595098876953125,-0.8091583251953125,-0.21502685546875,-0.2404632568359375
1667825298506105900,6.60510595703125,-0.817718505859375,-0.2216033935546875,-0.2639923095703125
1667825298516113700,6.61511376953125,-0.824920654296875,-0.2386627197265625,-0.2823486328125
1667825298526121700,6.625121826171875,-0.8310394287109375,-0.259368896484375,-0.297454833984375
1667825298536128800,6.635128662109375,-0.843170166015625,-0.274505615234375,-0.30572509765625
1667825298546133800,6.6451337890625,-0.8495635986328125,-0.28436279296875,-0.311187744140625
1667825298556140800,6.655140869140625,-0.853424072265625,-0.2866668701171875,-0.311248779296875
1667825298566148900,6.66514892578125,-0.8634490966796875,-0.28607177734375,-0.3067626953125
1667825298576156000,6.675156005859375,-0.870941162109375,-0.287811279296875,-0.30670166015625
1667825298586163700,6.685163818359375,-0.8775177001953125,-0.28533935546875,-0.3016357421875
1667825298596171000,6.6951708984375,-0.8951263427734375,-0.2877197265625,-0.2993316650390625
1667825298606178800,6.7051787109375,-0.9113006591796875,-0.2948150634765625,-0.2999420166015625
1667825298616187000,6.715186767578125,-0.92181396484375,-0.2999420166015625,-0.3001251220703125
1667825298626193700,6.725193603515625,-0.9296722412109375,-0.2982025146484375,-0.30792236328125
1667825298636202000,6.735201904296875,-0.9491119384765625,-0.283599853515625,-0.3307342529296875
1667825298646208800,6.745208740234375,-0.9621429443359375,-0.2642059326171875,-0.34912109375
1667825298656216800,6.755216796875,-0.9736480712890625,-0.246795654296875,-0.3684234619140625
1667825298666223900,6.765223876953125,-0.98919677734375,-0.2301177978515625,-0.3796844482421875
1667825298676232000,6.77523193359375,-0.9913330078125,-0.2180023193359375,-0.38531494140625
1667825298686238700,6.78523876953125,-0.991485595703125,-0.209625244140625,-0.3871612548828125
1667825298696246800,6.795246826171875,-0.98583984375,-0.2034454345703125,-0.3792572021484375
1667825298706254800,6.8052548828125,-0.975738525390625,-0.2025146484375,-0.360870361328125
1667825298716262000,6.815261962890625,-0.972137451171875,-0.2096405029296875,-0.3367156982421875
1667825298726269700,6.825269775390625,-0.96722412109375,-0.221466064453125,-0.3154449462890625
1667825298736277000,6.835277099609375,-0.9696197509765625,-0.225128173828125,-0.299041748046875
1667825298746284800,6.845284912109375,-0.9691314697265625,-0.2277679443359375,-0.2874755859375
1667825298756291800,6.855291748046875,-0.9784088134765625,-0.23431396484375,-0.285675048828125
1667825298766299600,6.865299560546875,-0.9930572509765625,-0.2431182861328125,-0.2975921630859375
1667825298776307000,6.875306884765625,-1.0072174072265625,-0.2546539306640625,-0.318145751953125
1667825298786314800,6.885314697265625,-1.0290374755859375,-0.2532958984375,-0.34881591796875
1667825298796321800,6.89532177734375,-1.0501251220703125,-0.2357177734375,-0.3822784423828125
1667825298806329600,6.90532958984375,-1.0638275146484375,-0.210784912109375,-0.4156646728515625
1667825298816338000,6.915337890625,-1.0699310302734375,-0.1873321533203125,-0.43817138671875
1667825298826344700,6.9253447265625,-1.0674591064453125,-0.1700286865234375,-0.445831298828125
1667825298836352800,6.935352783203125,-1.057098388671875,-0.16015625,-0.4347076416015625
1667825298846359800,6.94535986328125,-1.0551300048828125,-0.1549072265625,-0.415435791015625
1667825298856367900,6.955367919921875,-1.06353759765625,-0.1502838134765625,-0.4046478271484375
1667825298866374700,6.965374755859375,-1.06939697265625,-0.1464996337890625,-0.402069091796875
1667825298876382700,6.9753828125,-1.065032958984375,-0.1377716064453125,-0.4138641357421875
1667825298886389800,6.9853896484375,-1.05535888671875,-0.116668701171875,-0.438934326171875
1667825298896397800,6.995397705078125,-1.0465850830078125,-0.08612060546875,-0.46746826171875
1667825298906405600,7.005405517578125,-1.0341796875,-0.0674591064453125,-0.4896392822265625
1667825298916413000,7.015412841796875,-1.02557373046875,-0.068267822265625,-0.5124969482421875
1667825298926420700,7.025420654296875,-1.0161285400390625,-0.0810089111328125,-0.5260467529296875
1667825298936427800,7.035427734375,-1.0000152587890625,-0.098968505859375,-0.533599853515625
1667825298946435600,7.045435546875,-0.975250244140625,-0.116607666015625,-0.5391998291015625
1667825298956443000,7.05544287109375,-0.94036865234375,-0.134307861328125,-0.53680419921875
1667825298966450700,7.06545068359375,-0.9053497314453125,-0.152801513671875,-0.531494140625
1667825298976457700,7.075457763671875,-0.8810272216796875,-0.1722412109375,-0.5336761474609375
1667825298986465800,7.0854658203125,-0.866790771484375,-0.1949615478515625,-0.5410308837890625
1667825298996473900,7.095473876953125,-0.8619232177734375,-0.2228546142578125,-0.546356201171875
1667825299006480600,7.105480712890625,-0.8577728271484375,-0.2477874755859375,-0.550628662109375
1667825299016488700,7.11548876953125,-0.851287841796875,-0.264251708984375,-0.5519256591796875
1667825299026495700,7.125495849609375,-0.843902587890625,-0.271728515625,-0.5446929931640625
1667825299036503800,7.13550390625,-0.828277587890625,-0.2728424072265625,-0.53076171875
1667825299046510600,7.145510498046875,-0.8017425537109375,-0.2669677734375,-0.5055999755859375
1667825299056519000,7.155518798828125,-0.772216796875,-0.262481689453125,-0.4685211181640625
1667825299066525700,7.165525634765625,-0.7405548095703125,-0.2693328857421875,-0.4285736083984375
1667825299076533800,7.17553369140625,-0.718017578125,-0.2767791748046875,-0.4000701904296875
1667825299086540800,7.185540771484375,-0.7056884765625,-0.28173828125,-0.381866455078125
1667825299096548900,7.195548828125,-0.7001953125,-0.283905029296875,-0.3778228759765625
1667825299106557000,7.205556884765625,-0.701385498046875,-0.2854461669921875,-0.377960205078125
1667825299116563700,7.215563720703125,-0.7110137939453125,-0.2905426025390625,-0.370819091796875
1667825299126571800,7.22557177734375,-0.7174072265625,-0.3033599853515625,-0.3584136962890625
1667825299136578800,7.235578857421875,-0.7182159423828125,-0.3151397705078125,-0.3551025390625
1667825299146587000,7.2455869140625,-0.7202606201171875,-0.312164306640625,-0.356414794921875
1667825299156594000,7.255593994140625,-0.7160186767578125,-0.2993927001953125,-0.3555450439453125
1667825299166602000,7.26560205078125,-0.7142333984375,-0.2888031005859375,-0.348388671875
1667825299176608800,7.27560888671875,-0.72174072265625,-0.2834014892578125,-0.3425140380859375
1667825299186616800,7.285616943359375,-0.731201171875,-0.2777252197265625,-0.333251953125
1667825299196624600,7.295624755859375,-0.7324066162109375,-0.279510498046875,-0.32659912109375
1667825299206632000,7.3056318359375,-0.7448577880859375,-0.2813720703125,-0.3235015869140625
1667825299216639700,7.3156396484375,-0.752899169921875,-0.2817535400390625,-0.3202056884765625
1667825299226646800,7.325646728515625,-0.75360107421875,-0.283355712890625,-0.312347412109375
1667825299236654800,7.33565478515625,-0.754058837890625,-0.2850189208984375,-0.307037353515625
1667825299246662000,7.345661865234375,-0.7586517333984375,-0.2810516357421875,-0.3036346435546875
1667825299256669700,7.355669677734375,-0.759368896484375,-0.275238037109375,-0.307281494140625
1667825299266677000,7.365677001953125,-0.767059326171875,-0.269317626953125,-0.3184051513671875
1667825299276684800,7.375684814453125,-0.7856292724609375,-0.2606048583984375,-0.325836181640625
1667825299286691800,7.38569189453125,-0.8000030517578125,-0.2605133056640625,-0.3334503173828125
1667825299296699600,7.39569970703125,-0.81219482421875,-0.2696380615234375,-0.3449249267578125
1667825299306708000,7.4057080078125,-0.8332061767578125,-0.2767791748046875,-0.3574676513671875
1667825299316714800,7.41571484375,-0.85931396484375,-0.27777099609375,-0.3732452392578125
1667825299326722800,7.425722900390625,-0.8877105712890625,-0.2707366943359375,-0.398162841796875
1667825299336729900,7.435729736328125,-0.9159393310546875,-0.251251220703125,-0.432281494140625
1667825299346738000,7.445738037109375,-0.9315185546875,-0.22998046875,-0.4627227783203125
1667825299356744700,7.45574462890625,-0.94769287109375,-0.2154693603515625,-0.4977569580078125
1667825299366752800,7.465752685546875,-0.9662628173828125,-0.1974945068359375,-0.5313873291015625
1667825299376759800,7.475759765625,-0.9780120849609375,-0.1697235107421875,-0.5660552978515625
1667825299386768000,7.485767822265625,-0.9904327392578125,-0.1320953369140625,-0.60308837890625
1667825299396775700,7.495775634765625,-0.99249267578125,-0.0958404541015625,-0.631072998046875
1667825299406783000,7.505782958984375,-0.9770660400390625,-0.070587158203125,-0.647705078125
1667825299416790800,7.515790771484375,-0.9527740478515625,-0.0543212890625,-0.6486968994140625
1667825299426797800,7.5257978515625,-0.9208526611328125,-0.04901123046875,-0.6387481689453125
1667825299436805600,7.5358056640625,-0.88592529296875,-0.0574188232421875,-0.6192474365234375
1667825299446813000,7.54581298828125,-0.8515472412109375,-0.0771331787109375,-0.5999755859375
1667825299456820700,7.55582080078125,-0.8231048583984375,-0.1055755615234375,-0.5852813720703125
1667825299466827800,7.565827880859375,-0.810302734375,-0.1344451904296875,-0.5757293701171875
1667825299476835800,7.5758359375,-0.813018798828125,-0.162841796875,-0.577301025390625
1667825299486844000,7.585843994140625,-0.8286285400390625,-0.1870880126953125,-0.588836669921875
1667825299496850700,7.5958505859375,-0.8455047607421875,-0.207244873046875,-0.5959930419921875
1667825299506858800,7.605858642578125,-0.867218017578125,-0.220184326171875,-0.6099700927734375
1667825299516865800,7.61586572265625,-0.884002685546875,-0.221405029296875,-0.61944580078125
1667825299526873900,7.625873779296875,-0.8860931396484375,-0.2176361083984375,-0.638702392578125
1667825299536880600,7.635880615234375,-0.889251708984375,-0.207427978515625,-0.649444580078125
1667825299546889200,7.64588916015625,-0.8959197998046875,-0.1971588134765625,-0.6524658203125
1667825299556896300,7.655896240234375,-0.8907012939453125,-0.182708740234375,-0.64678955078125
1667825299566904300,7.665904296875,-0.8814849853515625,-0.168609619140625,-0.62762451171875
1667825299576911000,7.6759111328125,-0.88092041015625,-0.1653594970703125,-0.5965118408203125
1667825299586919400,7.68591943359375,-0.886322021484375,-0.166473388671875,-0.5665130615234375
1667825299596927500,7.695927490234375,-0.879547119140625,-0.1629638671875,-0.5332489013671875
1667825299606934300,7.705934326171875,-0.8694915771484375,-0.1513671875,-0.4946441650390625
1667825299616942300,7.7159423828125,-0.8560791015625,-0.14599609375,-0.4476776123046875
1667825299626949400,7.725949462890625,-0.8422393798828125,-0.146697998046875,-0.407440185546875
1667825299636957400,7.73595751953125,-0.82525634765625,-0.1446075439453125,-0.3656463623046875
1667825299646964200,7.745964111328125,-0.8106842041015625,-0.1391754150390625,-0.3209381103515625
1667825299656972300,7.75597216796875,-0.8007354736328125,-0.1359405517578125,-0.28118896484375
1667825299666979300,7.765979248046875,-0.792816162109375,-0.1410675048828125,-0.251251220703125
1667825299676987400,7.7759873046875,-0.7899017333984375,-0.1489105224609375,-0.230987548828125
1667825299686994400,7.785994384765625,-0.7943572998046875,-0.15667724609375,-0.2193603515625
1667825299697002500,7.79600244140625,-0.806304931640625,-0.1619415283203125,-0.2114105224609375
1667825299707010300,7.80601025390625,-0.8127899169921875,-0.1645660400390625,-0.21685791015625
1667825299717017300,7.816017333984375,-0.8115386962890625,-0.1636962890625,-0.240386962890625
1667825299727025200,7.826025146484375,-0.816619873046875,-0.159423828125,-0.26959228515625
1667825299737032400,7.836032470703125,-0.8246307373046875,-0.1573486328125,-0.2943572998046875
1667825299747040300,7.846040283203125,-0.8278961181640625,-0.162872314453125,-0.3230743408203125
1667825299757047300,7.85604736328125,-0.8280181884765625,-0.173431396484375,-0.3487091064453125
1667825299767055400,7.866055419921875,-0.819427490234375,-0.185577392578125,-0.371337890625
1667825299777062100,7.876062255859375,-0.811614990234375,-0.1992950439453125,-0.3794097900390625
1667825299787070200,7.8860703125,-0.8025970458984375,-0.21295166015625,-0.3765869140625
1667825299797078300,7.896078369140625,-0.79205322265625,-0.22735595703125,-0.368194580078125
1667825299807085300,7.906085205078125,-0.783111572265625,-0.240325927734375,-0.3619232177734375
1667825299817093400,7.91609326171875,-0.7803497314453125,-0.2493438720703125,-0.356109619140625
1667825299827100200,7.92610009765625,-0.772491455078125,-0.26141357421875,-0.3470001220703125
1667825299837108500,7.9361083984375,-0.770965576171875,-0.2772979736328125,-0.334320068359375
1667825299847115300,7.946115234375,-0.774871826171875,-0.2965545654296875,-0.3167877197265625
1667825299857123300,7.956123291015625,-0.77899169921875,-0.3157501220703125,-0.296539306640625
1667825299867131100,7.966131103515625,-0.779937744140625,-0.334381103515625,-0.285858154296875
1667825299877138400,7.976138427734375,-0.7837677001953125,-0.3417816162109375,-0.285552978515625
1667825299887146200,7.986146240234375,-0.7906951904296875,-0.33544921875,-0.296417236328125
1667825299897153300,7.9961533203125,-0.80206298828125,-0.3198699951171875,-0.3162689208984375
1667825299907161300,8.006161376953125,-0.8278961181640625,-0.3029022216796875,-0.33538818359375
1667825299917168400,8.01616845703125,-0.8599395751953125,-0.287933349609375,-0.3523712158203125
1667825299927176200,8.02617626953125,-0.8880615234375,-0.275146484375,-0.363800048828125
1667825299937183500,8.03618359375,-0.9127044677734375,-0.2645263671875,-0.375732421875
1667825299947191300,8.04619140625,-0.937896728515625,-0.2574920654296875,-0.3809051513671875
1667825299957198300,8.0561982421875,-0.9633941650390625,-0.253143310546875,-0.37835693359375
1667825299967206100,8.0662060546875,-0.9902496337890625,-0.2465972900390625,-0.37799072265625
1667825299977214500,8.07621435546875,-1.0215301513671875,-0.2310638427734375,-0.39044189453125
1667825299987221200,8.08622119140625,-1.05609130859375,-0.208038330078125,-0.410003662109375
1667825299997229300,8.096229248046875,-1.09332275390625,-0.1882476806640625,-0.42156982421875
1667825300007236400,8.106236328125,-1.1375274658203125,-0.18524169921875,-0.43560791015625
1667825300017244400,8.116244384765626,-1.1817626953125,-0.189178466796875,-0.4613189697265625
1667825300027251200,8.126251220703125,-1.2125091552734375,-0.1765899658203125,-0.4915924072265625
1667825300037259300,8.13625927734375,-1.2252349853515625,-0.143463134765625,-0.5173492431640625
1667825300047266300,8.146266357421876,-1.214996337890625,-0.099945068359375,-0.5380859375
1667825300057274400,8.1562744140625,-1.1833648681640625,-0.05816650390625,-0.543304443359375
1667825300067282200,8.1662822265625,-1.1440887451171875,-0.02838134765625,-0.5329437255859375
1667825300077289200,8.176289306640625,-1.1072845458984375,-0.0167694091796875,-0.5041351318359375
1667825300087297300,8.18629736328125,-1.0737762451171875,-0.0278778076171875,-0.460784912109375
1667825300097304300,8.19630419921875,-1.0531158447265625,-0.0496063232421875,-0.42864990234375
1667825300107312000,8.20631201171875,-1.033660888671875,-0.0744781494140625,-0.42169189453125
1667825300117319400,8.2163193359375,-1.0255889892578125,-0.083648681640625,-0.4466094970703125
1667825300127327200,8.2263271484375,-1.0251617431640625,-0.06915283203125,-0.5053253173828125
1667825300137334300,8.236334228515625,-1.0155029296875,-0.045440673828125,-0.57452392578125
1667825300147342000,8.246342041015625,-1.0222320556640625,-0.028778076171875,-0.6511688232421875
1667825300157349400,8.256349365234374,-1.0242767333984375,-0.028839111328125,-0.7237396240234375
1667825300167357200,8.266357177734376,-1.017852783203125,-0.033447265625,-0.7799530029296875
1667825300177365200,8.276365234375,-0.998504638671875,-0.026123046875,-0.816009521484375
1667825300187372300,8.286372314453125,-0.946563720703125,-0.0068817138671875,-0.830810546875
1667825300197380400,8.29638037109375,-0.8834381103515625,0.0142059326171875,-0.8198089599609375
1667825300207387100,8.30638720703125,-0.823974609375,0.0145721435546875,-0.789337158203125
1667825300217395200,8.316395263671875,-0.7798614501953125,-0.025970458984375,-0.7487030029296875
1667825300227402200,8.32640234375,-0.75201416015625,-0.08892822265625,-0.7119140625
1667825300237410300,8.336410400390625,-0.7360382080078125,-0.13653564453125,-0.68170166015625
1667825300247417000,8.3464169921875,-0.7198638916015625,-0.1673126220703125,-0.66656494140625
1667825300257425400,8.35642529296875,-0.7065887451171875,-0.18914794921875,-0.6436309814453125
1667825300267432200,8.36643212890625,-0.6851348876953125,-0.2061309814453125,-0.613250732421875
1667825300277440300,8.376440185546874,-0.658721923828125,-0.216949462890625,-0.5819244384765625
1667825300287448300,8.3864482421875,-0.63714599609375,-0.2269287109375,-0.55133056640625
1667825300297455400,8.396455322265625,-0.6145782470703125,-0.235107421875,-0.517852783203125
1667825300307463400,8.40646337890625,-0.5961761474609375,-0.2433013916015625,-0.4810943603515625
1667825300317470200,8.41647021484375,-0.5813140869140625,-0.250579833984375,-0.4466705322265625
1667825300327478500,8.426478515625,-0.5739898681640625,-0.26141357421875,-0.4229583740234375
1667825300337485300,8.4364853515625,-0.5756072998046875,-0.2734375,-0.40771484375
1667825300347493400,8.446493408203125,-0.5869903564453125,-0.28533935546875,-0.391510009765625
1667825300357500400,8.45650048828125,-0.5915985107421875,-0.3012847900390625,-0.382659912109375
1667825300367508500,8.466508544921876,-0.6019439697265625,-0.3210296630859375,-0.377197265625
1667825300377516300,8.476516357421875,-0.6140899658203125,-0.344573974609375,-0.372833251953125
1667825300387523300,8.4865234375,-0.6238555908203125,-0.359466552734375,-0.3817596435546875
1667825300397531400,8.496531494140624,-0.6395721435546875,-0.35821533203125,-0.3931732177734375
1667825300407538400,8.506538330078126,-0.65008544921875,-0.34600830078125,-0.396453857421875
1667825300417546200,8.516546142578125,-0.657440185546875,-0.33013916015625,-0.398681640625
1667825300427553300,8.52655322265625,-0.6672515869140625,-0.3185577392578125,-0.401275634765625
1667825300437561300,8.536561279296874,-0.676910400390625,-0.3148040771484375,-0.4038238525390625
1667825300447568100,8.546568115234376,-0.6876678466796875,-0.3175506591796875,-0.390289306640625
1667825300457576200,8.556576171875,-0.6992340087890625,-0.32745361328125,-0.36767578125
1667825300467583200,8.566583251953125,-0.7108001708984375,-0.3380126953125,-0.3518524169921875
1667825300477591300,8.57659130859375,-0.7327423095703125,-0.339111328125,-0.353179931640625
1667825300487599400,8.586599365234376,-0.7545013427734375,-0.33038330078125,-0.363616943359375
1667825300497606400,8.5966064453125,-0.78045654296875,-0.315704345703125,-0.391845703125
1667825300507614500,8.606614501953125,-0.8206634521484375,-0.2918701171875,-0.432373046875
1667825300517621200,8.616621337890624,-0.860260009765625,-0.2664794921875,-0.4739990234375
1667825300527629300,8.62662939453125,-0.8986358642578125,-0.246307373046875,-0.50872802734375
1667825300537636400,8.63663623046875,-0.93505859375,-0.2300567626953125,-0.5464324951171875
1667825300547644400,8.64664453125,-0.9633331298828125,-0.2077178955078125,-0.5945281982421875
1667825300557654000,8.656654052734375,-0.9792327880859375,-0.1668853759765625,-0.6453399658203125
1667825300567662000,8.666662109375,-0.9920806884765625,-0.1084442138671875,-0.688262939453125
1667825300577669000,8.676669189453126,-1.0026092529296875,-0.050628662109375,-0.7120208740234375
1667825300587677000,8.686677001953125,-1.00750732421875,-0.002838134765625,-0.72998046875
1667825300597684200,8.696684326171875,-1.0029449462890625,0.03485107421875,-0.742767333984375
1667825300607692000,8.706692138671874,-0.9868316650390625,0.0609588623046875,-0.7470703125
1667825300617700000,8.7167001953125,-0.96868896484375,0.0746917724609375,-0.7374114990234375
1667825300627707000,8.726706787109375,-0.942047119140625,0.0781097412109375,-0.7224578857421875
1667825300637715200,8.736715087890625,-0.9038543701171875,0.0804443359375,-0.708648681640625
1667825300647722000,8.746721923828124,-0.8602447509765625,0.0843353271484375,-0.7001495361328125
1667825300657730000,8.75672998046875,-0.819366455078125,0.0835418701171875,-0.68951416015625
1667825300667737000,8.766737060546875,-0.7899169921875,0.0712432861328125,-0.6746063232421875
1667825300677745200,8.7767451171875,-0.7656097412109375,0.0472869873046875,-0.664825439453125
1667825300687752000,8.786751953125,-0.7428436279296875,0.0196075439453125,-0.66400146484375
1667825300697760000,8.796760009765626,-0.7228851318359375,-0.00244140625,-0.6590423583984375
1667825300707768000,8.80676806640625,-0.7077789306640625,-0.0209197998046875,-0.646453857421875
1667825300717775000,8.816775146484375,-0.6920623779296875,-0.034088134765625,-0.63037109375
1667825300727783000,8.826782958984374,-0.6704864501953125,-0.048248291015625,-0.606475830078125
1667825300737790200,8.836790283203126,-0.653167724609375,-0.0752716064453125,-0.57623291015625
1667825300747798000,8.846798095703125,-0.6499481201171875,-0.12030029296875,-0.537811279296875
1667825300757805000,8.85680517578125,-0.67315673828125,-0.1782379150390625,-0.5052337646484375
1667825300767812900,8.866812744140624,-0.71466064453125,-0.230438232421875,-0.48651123046875
1667825300777820200,8.876820068359375,-0.7636260986328125,-0.2601165771484375,-0.4875946044921875
1667825300787828000,8.886827880859375,-0.8040008544921875,-0.258087158203125,-0.5132293701171875
1667825300797836000,8.8968359375,-0.83807373046875,-0.22686767578125,-0.5465240478515625
1667825300807843000,8.906843017578124,-0.858917236328125,-0.1777496337890625,-0.5631866455078125
1667825300817851100,8.91685107421875,-0.8766937255859375,-0.1315765380859375,-0.557159423828125
1667825300827858000,8.92685791015625,-0.87152099609375,-0.1132965087890625,-0.5259552001953125
1667825300837866000,8.936865966796875,-0.8578033447265625,-0.115203857421875,-0.5007781982421875
1667825300847873000,8.946873046875,-0.8590850830078125,-0.11676025390625,-0.4653472900390625
1667825300857881000,8.956881103515625,-0.84527587890625,-0.1124267578125,-0.4179229736328125
1667825300867887900,8.966887939453125,-0.8440399169921875,-0.117431640625,-0.3614349365234375
1667825300877896200,8.976896240234375,-0.8556976318359375,-0.13671875,-0.3136444091796875
1667825300887903000,8.986903076171876,-0.849761962890625,-0.1641082763671875,-0.28363037109375
1667825300897911000,8.9969111328125,-0.8495330810546875,-0.1773223876953125,-0.2620697021484375
1667825300907918800,9.0069189453125,-0.853851318359375,-0.186004638671875,-0.2529449462890625
1667825300917926100,9.016926025390624,-0.86328125,-0.200469970703125,-0.2546844482421875
1667825300927934000,9.026933837890626,-0.873016357421875,-0.2144317626953125,-0.2638702392578125
1667825300937941000,9.03694091796875,-0.8780517578125,-0.231231689453125,-0.273101806640625
1667825300947949000,9.046948974609375,-0.8800201416015625,-0.2457733154296875,-0.2857818603515625
1667825300957956000,9.0569560546875,-0.88470458984375,-0.25262451171875,-0.300994873046875
1667825300967964000,9.0669638671875,-0.8849029541015625,-0.25244140625,-0.3083648681640625
1667825300977971200,9.07697119140625,-0.8865203857421875,-0.257843017578125,-0.3102569580078125
1667825300987979000,9.08697900390625,-0.8899383544921875,-0.2813720703125,-0.313446044921875
1667825300997986000,9.096986083984374,-0.895111083984375,-0.3140106201171875,-0.3170928955078125
1667825301007993900,9.106993896484376,-0.900634765625,-0.340057373046875,-0.3189697265625
1667825301018002000,9.117001953125,-0.9038238525390625,-0.3514404296875,-0.32525634765625
1667825301028009000,9.127009033203125,-0.906585693359375,-0.3462677001953125,-0.3404541015625
1667825301038017000,9.13701708984375,-0.909027099609375,-0.3291778564453125,-0.355621337890625
1667825301048024000,9.147024169921876,-0.9188232421875,-0.3068695068359375,-0.3653717041015625
1667825301058032000,9.1570322265625,-0.9250946044921875,-0.288116455078125,-0.367034912109375
1667825301068039000,9.167038818359375,-0.9290008544921875,-0.2792816162109375,-0.36663818359375
1667825301078047000,9.177046875,-0.9389495849609375,-0.2755584716796875,-0.3627166748046875
1667825301088054000,9.187053955078126,-0.957550048828125,-0.274688720703125,-0.35833740234375
1667825301098062000,9.19706201171875,-0.975433349609375,-0.2826080322265625,-0.3556060791015625
1667825301108068900,9.20706884765625,-1.0012664794921875,-0.2909698486328125,-0.3589019775390625
1667825301118077000,9.217076904296874,-1.041748046875,-0.288116455078125,-0.380218505859375
1667825301128085200,9.227085205078126,-1.08428955078125,-0.2745819091796875,-0.4144134521484375
1667825301138092000,9.237092041015625,-1.129547119140625,-0.2578887939453125,-0.45318603515625
1667825301148100000,9.24710009765625,-1.1764678955078125,-0.2415618896484375,-0.49658203125
1667825301158107100,9.257107177734374,-1.2146453857421875,-0.2171173095703125,-0.5438232421875
1667825301168115200,9.267115234375,-1.2230377197265625,-0.18035888671875,-0.5755767822265625
1667825301178122000,9.2771220703125,-1.1896514892578125,-0.140167236328125,-0.5986328125
1667825301188130000,9.287130126953125,-1.15185546875,-0.09979248046875,-0.6039581298828125
1667825301198137000,9.29713720703125,-1.10736083984375,-0.067230224609375,-0.5772247314453125
1667825301208145200,9.307145263671876,-1.0615386962890625,-0.0577239990234375,-0.52874755859375
1667825301218153000,9.317153076171875,-1.02447509765625,-0.0709381103515625,-0.4790191650390625
1667825301228160300,9.32716015625,-0.994598388671875,-0.0873870849609375,-0.44622802734375
1667825301238168000,9.33716796875,-0.9852447509765625,-0.088958740234375,-0.4434051513671875
1667825301248175000,9.347175048828126,-0.9810791015625,-0.07977294921875,-0.4499969482421875
1667825301258183000,9.357182861328125,-0.97076416015625,-0.061676025390625,-0.469879150390625
1667825301268190200,9.367190185546875,-0.96160888671875,-0.0460968017578125,-0.503265380859375
1667825301278198000,9.377197998046874,-0.95062255859375,-0.0412139892578125,-0.542999267578125
1667825301288205000,9.387205078125,-0.9395904541015625,-0.0458526611328125,-0.5747528076171875
1667825301298213000,9.397213134765625,-0.923797607421875,-0.0548858642578125,-0.601715087890625
1667825301308220200,9.40722021484375,-0.8946075439453125,-0.064453125,-0.6134796142578125
1667825301318228000,9.41722802734375,-0.841552734375,-0.0652313232421875,-0.6062469482421875
1667825301328236000,9.427236083984376,-0.7915191650390625,-0.0656280517578125,-0.592803955078125
1667825301338243000,9.4372431640625,-0.756103515625,-0.0904693603515625,-0.5784454345703125
1667825301348251100,9.447251220703125,-0.7327880859375,-0.1360321044921875,-0.562957763671875
1667825301358258000,9.4572578125,-0.7218017578125,-0.1765594482421875,-0.5569915771484375
1667825301368266000,9.467265869140626,-0.7094573974609375,-0.2024078369140625,-0.5630035400390625
1667825301378273000,9.47727294921875,-0.704193115234375,-0.2220001220703125,-0.562896728515625
1667825301388281000,9.487281005859375,-0.696533203125,-0.25018310546875,-0.5633392333984375
1667825301398288100,9.4972880859375,-0.7039947509765625,-0.277435302734375,-0.570953369140625
1667825301408296200,9.507296142578125,-0.7148284912109375,-0.299163818359375,-0.5680694580078125
1667825301418303000,9.517302978515625,-0.7133026123046875,-0.3113250732421875,-0.5616607666015625
1667825301428311000,9.52731103515625,-0.709381103515625,-0.309967041015625,-0.5478668212890625
1667825301438318800,9.53731884765625,-0.7065887451171875,-0.2938385009765625,-0.5349884033203125
1667825301448326100,9.547326171875,-0.7042236328125,-0.2753753662109375,-0.525787353515625
1667825301458334000,9.557333984375,-0.6988067626953125,-0.267242431640625,-0.50982666015625
1667825301468341000,9.567341064453124,-0.6970367431640625,-0.266021728515625,-0.4918975830078125
1667825301478349000,9.57734912109375,-0.7009735107421875,-0.2668914794921875,-0.4842529296875
1667825301488356000,9.587356201171875,-0.7011871337890625,-0.2723846435546875,-0.48773193359375
1667825301498364000,9.597364013671875,-0.6968841552734375,-0.27728271484375,-0.4935455322265625
1667825301508371200,9.60737109375,-0.69390869140625,-0.2727508544921875,-0.493377685546875
1667825301518379000,9.61737890625,-0.687408447265625,-0.2567138671875,-0.48699951171875
1667825301528386000,9.627385986328125,-0.67987060546875,-0.2363128662109375,-0.48358154296875
1667825301538393900,9.637393798828125,-0.6731414794921875,-0.2201080322265625,-0.4835205078125
1667825301548402200,9.647402099609375,-0.6651153564453125,-0.2146759033203125,-0.479949951171875
1667825301558405600,9.657405517578125,-0.660430908203125,-0.2227935791015625,-0.4654083251953125
1667825301568413700,9.66741357421875,-0.6598663330078125,-0.236541748046875,-0.4499969482421875
1667825301578420700,9.677420654296874,-0.664703369140625,-0.2462615966796875,-0.4402618408203125
1667825301588428800,9.6874287109375,-0.67083740234375,-0.250213623046875,-0.4323577880859375
1667825301598435600,9.697435546875,-0.6788482666015625,-0.248931884765625,-0.42791748046875
1667825301608443600,9.707443603515625,-0.685394287109375,-0.2480926513671875,-0.4265289306640625
1667825301618450700,9.71745068359375,-0.6907806396484375,-0.250518798828125,-0.4277191162109375
1667825301628458800,9.727458740234376,-0.69732666015625,-0.2544403076171875,-0.437225341796875
1667825301638466600,9.737466552734375,-0.7074737548828125,-0.2481536865234375,-0.4439849853515625
1667825301648473900,9.747473876953125,-0.715911865234375,-0.235107421875,-0.4476776123046875
1667825301658481700,9.757481689453124,-0.720062255859375,-0.2303619384765625,-0.4434661865234375
1667825301668488700,9.76748876953125,-0.729827880859375,-0.237396240234375,-0.4378662109375
1667825301678496500,9.77749658203125,-0.7554168701171875,-0.241973876953125,-0.447784423828125
1667825301688503800,9.78750390625,-0.785552978515625,-0.23291015625,-0.46710205078125
1667825301698511600,9.79751171875,-0.8245391845703125,-0.2165985107421875,-0.489593505859375
1667825301708518700,9.8075185546875,-0.8680572509765625,-0.208251953125,-0.505828857421875
1667825301718526700,9.817526611328125,-0.907440185546875,-0.2054901123046875,-0.524383544921875
1667825301728533800,9.82753369140625,-0.949005126953125,-0.2033538818359375,-0.541961669921875
1667825301738541600,9.83754150390625,-0.9762420654296875,-0.1898956298828125,-0.56060791015625
1667825301748549600,9.847549560546875,-0.97967529296875,-0.1535797119140625,-0.5804443359375
1667825301758556700,9.857556640625,-0.9808197021484375,-0.1027374267578125,-0.59320068359375
1667825301768564700,9.867564697265625,-0.9783172607421875,-0.06396484375,-0.5992584228515625
1667825301778571500,9.877571533203126,-0.9774322509765625,-0.05133056640625,-0.5978851318359375
1667825301788579600,9.88757958984375,-0.9770660400390625,-0.058563232421875,-0.586639404296875
1667825301798586600,9.897586669921875,-0.959320068359375,-0.0723419189453125,-0.5691070556640625
1667825301808594700,9.9075947265625,-0.92230224609375,-0.08392333984375,-0.5401153564453125
1667825301818601700,9.917601806640626,-0.879302978515625,-0.09979248046875,-0.50250244140625
1667825301828609800,9.92760986328125,-0.83819580078125,-0.131195068359375,-0.4750213623046875
1667825301838616600,9.937616455078125,-0.8228912353515625,-0.16339111328125,-0.467681884765625
1667825301848624600,9.947624755859374,-0.832366943359375,-0.189666748046875,-0.4651031494140625
1667825301858632400,9.957632568359376,-0.8556060791015625,-0.2133026123046875,-0.4659576416015625
1667825301868639700,9.9676396484375,-0.8839874267578125,-0.24371337890625,-0.4710693359375
1667825301878647600,9.9776474609375,-0.910064697265625,-0.2762451171875,-0.4873199462890625
1667825301888654600,9.987654541015624,-0.941314697265625,-0.2935638427734375,-0.5075531005859375
1667825301898662700,9.99766259765625,-0.9680633544921875,-0.2882232666015625,-0.5351104736328125
1667825301908669700,10.007669677734375,-0.9853057861328125,-0.2684326171875,-0.557647705078125
1667825301918677500,10.017677490234375,-1.000885009765625,-0.2418975830078125,-0.57635498046875
1667825301928684800,10.027684814453124,-1.012115478515625,-0.2201385498046875,-0.5865020751953125
1667825301938692600,10.037692626953126,-1.008087158203125,-0.204803466796875,-0.5713653564453125
1667825301948700700,10.04770068359375,-1.01348876953125,-0.20086669921875,-0.552154541015625
1667825301958707500,10.05770751953125,-1.019866943359375,-0.199920654296875,-0.53564453125
1667825301968715800,10.0677158203125,-1.0004425048828125,-0.18988037109375,-0.5129547119140625
1667825301978722600,10.07772265625,-0.9745941162109375,-0.1757659912109375,-0.48468017578125
1667825301988730600,10.087730712890625,-0.94488525390625,-0.1681976318359375,-0.4469146728515625
1667825301998737700,10.097737548828125,-0.9106597900390625,-0.1745147705078125,-0.404937744140625
1667825302008745700,10.107745849609374,-0.877105712890625,-0.18310546875,-0.3594207763671875
1667825302018752500,10.11775244140625,-0.8472900390625,-0.189544677734375,-0.3207244873046875
1667825302028760600,10.127760498046875,-0.8182220458984375,-0.19512939453125,-0.284576416015625
1667825302038767600,10.137767578125,-0.793365478515625,-0.2064208984375,-0.2523040771484375
1667825302048775700,10.147775634765624,-0.7752685546875,-0.22283935546875,-0.22900390625
1667825302058783700,10.15778369140625,-0.7635955810546875,-0.23590087890625,-0.2147674560546875
1667825302068790800,10.167790771484375,-0.7487335205078125,-0.24542236328125,-0.2127227783203125
1667825302078798800,10.177798828125,-0.7431488037109375,-0.2465667724609375,-0.2173309326171875
1667825302088805600,10.1878056640625,-0.735504150390625,-0.2446136474609375,-0.228240966796875
1667825302098813700,10.197813720703126,-0.7342987060546875,-0.245208740234375,-0.2454986572265625
1667825302108820700,10.20782080078125,-0.73199462890625,-0.2527313232421875,-0.2645263671875
1667825302118828800,10.217828857421875,-0.7323455810546875,-0.2632598876953125,-0.2777252197265625
1667825302128835600,10.227835693359374,-0.7317352294921875,-0.272308349609375,-0.28997802734375
1667825302138843600,10.23784375,-0.73663330078125,-0.2768707275390625,-0.3023681640625
1667825302148850700,10.2478505859375,-0.7378387451171875,-0.2803497314453125,-0.305206298828125
1667825302158858800,10.257858642578125,-0.7415618896484375,-0.2886199951171875,-0.2955322265625
1667825302168866600,10.267866455078124,-0.7476348876953125,-0.3025054931640625,-0.2850799560546875
1667825302178873900,10.277873779296876,-0.755126953125,-0.3161773681640625,-0.279632568359375
1667825302188881700,10.287881591796875,-0.7679290771484375,-0.3242950439453125,-0.2758941650390625
1667825302198888700,10.297888671875,-0.7754058837890625,-0.333953857421875,-0.2729034423828125
1667825302208896500,10.307896484375,-0.7802276611328125,-0.343475341796875,-0.27301025390625
1667825302218903800,10.31790380859375,-0.7841644287109375,-0.3465728759765625,-0.2788543701171875
1667825302228911600,10.32791162109375,-0.79205322265625,-0.3391876220703125,-0.2850494384765625
1667825302238918700,10.337918701171875,-0.8068084716796875,-0.33172607421875,-0.284942626953125
1667825302248926700,10.3479267578125,-0.815887451171875,-0.3313446044921875,-0.291290283203125
1667825302258933800,10.357933837890625,-0.824737548828125,-0.3302001953125,-0.3044586181640625
1667825302268941600,10.367941650390625,-0.83294677734375,-0.32818603515625,-0.31170654296875
1667825302278948900,10.377948974609374,-0.8431243896484375,-0.33428955078125,-0.3112030029296875
1667825302288956700,10.387956787109376,-0.8558807373046875,-0.3474273681640625,-0.3090667724609375
1667825302298964700,10.39796484375,-0.87353515625,-0.3634796142578125,-0.296142578125
1667825302308971500,10.407971435546875,-0.89141845703125,-0.3789825439453125,-0.2899932861328125
1667825302318979800,10.417979736328125,-0.9192962646484375,-0.3869171142578125,-0.2984771728515625
1667825302328986600,10.427986572265626,-0.9589691162109375,-0.386322021484375,-0.3114166259765625
1667825302338994700,10.43799462890625,-1.0128631591796875,-0.3836822509765625,-0.3396759033203125
1667825302349001700,10.448001708984375,-1.0712127685546875,-0.3768768310546875,-0.3915557861328125
1667825302359009800,10.458009765625,-1.1349639892578125,-0.3510284423828125,-0.4564056396484375
1667825302369016600,10.4680166015625,-1.1828460693359375,-0.308929443359375,-0.5170135498046875
1667825302379024600,10.478024658203125,-1.1920623779296875,-0.255096435546875,-0.5704193115234375
1667825302389032700,10.48803271484375,-1.172821044921875,-0.192596435546875,-0.60986328125
1667825302399039700,10.498039794921874,-1.1620330810546875,-0.1248931884765625,-0.6319427490234375
1667825302409047600,10.508047607421876,-1.1509552001953125,-0.079132080078125,-0.616455078125
1667825302419054800,10.518054931640625,-1.1438751220703125,-0.074859619140625,-0.5906524658203125
1667825302429062700,10.528062744140625,-1.147491455078125,-0.09234619140625,-0.5683441162109375
1667825302439069700,10.538069580078124,-1.131378173828125,-0.1039886474609375,-0.5562744140625
1667825302449077500,10.548077392578126,-1.1182403564453125,-0.1000213623046875,-0.56195068359375
1667825302459084800,10.558084716796875,-1.1153106689453125,-0.0863800048828125,-0.5807037353515625
1667825302469092600,10.568092529296875,-1.0946044921875,-0.0777130126953125,-0.617156982421875
1667825302479099600,10.578099609375,-1.076629638671875,-0.076568603515625,-0.6523895263671875
1667825302489107700,10.588107666015626,-1.05615234375,-0.0821990966796875,-0.664337158203125
1667825302499115800,10.59811572265625,-1.0233306884765625,-0.0901641845703125,-0.666900634765625
1667825302509122600,10.60812255859375,-0.9797515869140625,-0.08966064453125,-0.6622161865234375
1667825302519130600,10.618130615234374,-0.927459716796875,-0.088836669921875,-0.6461334228515625
1667825302529137700,10.6281376953125,-0.8881072998046875,-0.105804443359375,-0.6223297119140625
1667825302539145700,10.638145751953125,-0.857513427734375,-0.1436004638671875,-0.5944366455078125
1667825302549152500,10.648152587890625,-0.8415679931640625,-0.1833953857421875,-0.576568603515625
1667825302559164000,10.658163818359375,-0.8354034423828125,-0.210205078125,-0.566253662109375
1667825302569171000,10.6681708984375,-0.8177642822265625,-0.226806640625,-0.5553131103515625
1667825302579178800,10.6781787109375,-0.7941741943359375,-0.2387237548828125,-0.5352783203125
1667825302589186000,10.68818603515625,-0.766693115234375,-0.24920654296875,-0.5143280029296875
1667825302599193900,10.69819384765625,-0.7397003173828125,-0.2524566650390625,-0.48760986328125
1667825302609202000,10.708201904296875,-0.7072296142578125,-0.25054931640625,-0.4564208984375
1667825302619208700,10.718208740234376,-0.678863525390625,-0.246856689453125,-0.419403076171875
1667825302629217000,10.728217041015625,-0.6546478271484375,-0.244964599609375,-0.3831787109375
1667825302639223800,10.738223876953125,-0.6380615234375,-0.246734619140625,-0.3536834716796875
1667825302649232000,10.74823193359375,-0.6290130615234375,-0.2506256103515625,-0.3340301513671875
1667825302659239000,10.758239013671876,-0.6248626708984375,-0.25811767578125,-0.325103759765625
1667825302669247000,10.7682470703125,-0.6305389404296875,-0.267120361328125,-0.323760986328125
1667825302679253800,10.778253662109375,-0.643524169921875,-0.2773284912109375,-0.3221435546875
1667825302689261800,10.78826171875,-0.6556854248046875,-0.286834716796875,-0.3242340087890625
1667825302699268900,10.798268798828126,-0.6612548828125,-0.294281005859375,-0.3308868408203125
1667825302709277000,10.80827685546875,-0.6697998046875,-0.298614501953125,-0.3330230712890625
1667825302719285000,10.818284912109375,-0.6832733154296875,-0.3018341064453125,-0.332122802734375
1667825302729292000,10.8282919921875,-0.6956329345703125,-0.3049468994140625,-0.326446533203125
1667825302739300000,10.838300048828126,-0.7094879150390625,-0.31048583984375,-0.3200225830078125
1667825302749307000,10.848306884765625,-0.72210693359375,-0.3117828369140625,-0.313995361328125
1667825302759315000,10.85831494140625,-0.73345947265625,-0.3082733154296875,-0.3109130859375
1667825302769322000,10.868322021484374,-0.7436981201171875,-0.300628662109375,-0.3065948486328125
1667825302779330000,10.878330078125,-0.7557525634765625,-0.2957916259765625,-0.2981719970703125
1667825302789336800,10.8883369140625,-0.7644805908203125,-0.2973785400390625,-0.294708251953125
1667825302799345000,10.898344970703125,-0.7742462158203125,-0.2983245849609375,-0.292694091796875
1667825302809352000,10.90835205078125,-0.783660888671875,-0.2929534912109375,-0.2949371337890625
1667825302819360000,10.918360107421876,-0.7946014404296875,-0.2798614501953125,-0.298980712890625
1667825302829367800,10.928367919921875,-0.795318603515625,-0.273162841796875,-0.2995452880859375
1667825302839375000,10.938375,-0.7972259521484375,-0.2728118896484375,-0.308258056640625
1667825302849383000,10.9483828125,-0.8096771240234375,-0.2743988037109375,-0.309967041015625
1667825302859390000,10.958389892578126,-0.8215789794921875,-0.278564453125,-0.3084869384765625
1667825302869397800,10.968397705078125,-0.8362884521484375,-0.284881591796875,-0.3155975341796875
1667825302879405000,10.978405029296875,-0.8578033447265625,-0.2838592529296875,-0.3374786376953125
1667825302889412900,10.988412841796874,-0.8907928466796875,-0.2685089111328125,-0.3656768798828125
1667825302899420000,10.998419921875,-0.9269866943359375,-0.251312255859375,-0.4017791748046875
1667825302909428000,11.008427978515625,-0.9615020751953125,-0.2345123291015625,-0.4421844482421875
1667825302919435000,11.01843505859375,-0.9889678955078125,-0.2151947021484375,-0.476348876953125
1667825302929442800,11.02844287109375,-1.01104736328125,-0.1860198974609375,-0.50396728515625
1667825302939451000,11.038450927734376,-1.0178375244140625,-0.1490936279296875,-0.524444580078125
1667825302949458000,11.0484580078125,-0.9962615966796875,-0.1071319580078125,-0.5374908447265625
1667825302959466000,11.058466064453125,-0.965850830078125,-0.0668487548828125,-0.5264129638671875
1667825302969472800,11.06847265625,-0.9401702880859375,-0.041595458984375,-0.4968109130859375
1667825302979481000,11.078481201171876,-0.9140167236328125,-0.0408935546875,-0.4732666015625
1667825302989487900,11.08848779296875,-0.8915557861328125,-0.0509185791015625,-0.4494781494140625
1667825302999496000,11.098495849609375,-0.873260498046875,-0.070343017578125,-0.4228515625
1667825303009503000,11.1085029296875,-0.8675384521484375,-0.1025238037109375,-0.4076995849609375
1667825303019511000,11.118510986328126,-0.877197265625,-0.140411376953125,-0.4008331298828125
1667825303029517800,11.128517822265625,-0.9049835205078125,-0.1678924560546875,-0.4106292724609375
1667825303039526000,11.13852587890625,-0.93505859375,-0.1761474609375,-0.437652587890625
1667825303049534000,11.148533935546874,-0.96820068359375,-0.1596832275390625,-0.4708709716796875
1667825303059541000,11.158541015625,-0.991851806640625,-0.1382598876953125,-0.51544189453125
1667825303069548800,11.168548828125,-1.0079498291015625,-0.124114990234375,-0.5536956787109375
1667825303079556000,11.17855615234375,-1.0293426513671875,-0.1138763427734375,-0.567596435546875
1667825303089564000,11.18856396484375,-1.0388336181640625,-0.1116180419921875,-0.5709381103515625
1667825303099571000,11.198571044921875,-1.048553466796875,-0.1124725341796875,-0.566680908203125
1667825303109578800,11.208578857421875,-1.0660247802734375,-0.117401123046875,-0.555755615234375
1667825303119586000,11.2185859375,-1.056365966796875,-0.1199951171875,-0.5260009765625
1667825303129593900,11.22859375,-1.0472259521484375,-0.1159820556640625,-0.498809814453125
1667825303139601000,11.238600830078125,-1.032958984375,-0.11175537109375,-0.4769744873046875
1667825303149609000,11.24860888671875,-1.009552001953125,-0.112945556640625,-0.4415435791015625
1667825303159616000,11.258615966796874,-0.9850311279296875,-0.1237945556640625,-0.402862548828125
1667825303169623800,11.268623779296876,-0.9649810791015625,-0.136932373046875,-0.37066650390625
1667825303179631900,11.2786318359375,-0.9498443603515625,-0.1466522216796875,-0.3462982177734375
1667825303189639000,11.288638916015625,-0.9363250732421875,-0.152740478515625,-0.32568359375
1667825303199647000,11.29864697265625,-0.9148406982421875,-0.1615753173828125,-0.309539794921875
1667825303209653800,11.30865380859375,-0.8936309814453125,-0.16925048828125,-0.303802490234375
1667825303219661800,11.318661865234375,-0.86920166015625,-0.1700897216796875,-0.3020477294921875
1667825303229668900,11.3286689453125,-0.8421173095703125,-0.17059326171875,-0.2994232177734375
1667825303239677000,11.338677001953124,-0.816650390625,-0.1727447509765625,-0.2990875244140625
1667825303249684000,11.34868408203125,-0.7962188720703125,-0.180267333984375,-0.3008270263671875
1667825303259692000,11.358692138671875,-0.77740478515625,-0.1885833740234375,-0.301422119140625
1667825303269699800,11.368699951171875,-0.7619781494140625,-0.196990966796875,-0.30633544921875
1667825303279707000,11.378706787109374,-0.7502593994140625,-0.1975250244140625,-0.31573486328125
1667825303289714700,11.388714599609376,-0.739990234375,-0.194549560546875,-0.320770263671875
1667825303299722000,11.398721923828125,-0.7289886474609375,-0.1980743408203125,-0.3197479248046875
1667825303309729800,11.408729736328125,-0.7128753662109375,-0.2105255126953125,-0.32012939453125
1667825303319736800,11.41873681640625,-0.7046051025390625,-0.218994140625,-0.3255157470703125
1667825303329745000,11.428744873046876,-0.6973419189453125,-0.2230224609375,-0.3235626220703125
1667825303339752000,11.438751953125,-0.68157958984375,-0.23150634765625,-0.3232574462890625
1667825303349759700,11.448759765625,-0.674468994140625,-0.236602783203125,-0.3226165771484375
1667825303359767000,11.45876708984375,-0.6612701416015625,-0.2374267578125,-0.3259124755859375
1667825303369774800,11.46877490234375,-0.6628875732421875,-0.2335205078125,-0.3221588134765625
1667825303379782000,11.478781982421875,-0.66107177734375,-0.23431396484375,-0.31280517578125
1667825303389789700,11.488789794921875,-0.6582489013671875,-0.246063232421875,-0.3039093017578125
1667825303399798000,11.498798095703124,-0.6634674072265625,-0.2666015625,-0.2944793701171875
1667825303409804800,11.5088046875,-0.674530029296875,-0.2847747802734375,-0.290374755859375
1667825303419812900,11.518812744140625,-0.7030181884765625,-0.286163330078125,-0.3071441650390625
1667825303429820000,11.52881982421875,-0.7486114501953125,-0.2705841064453125,-0.3283233642578125
1667825303439828000,11.538827880859374,-0.8033599853515625,-0.2479705810546875,-0.347503662109375
1667825303449834800,11.548834716796875,-0.8612060546875,-0.2281646728515625,-0.3795013427734375
1667825303459842800,11.5588427734375,-0.9170074462890625,-0.21429443359375,-0.4161376953125
1667825303469849900,11.568849853515625,-0.9512481689453125,-0.1881561279296875,-0.450531005859375
1667825303479858000,11.57885791015625,-0.960235595703125,-0.1358184814453125,-0.479400634765625
1667825303489866000,11.588865966796876,-0.955535888671875,-0.0636749267578125,-0.4928436279296875
1667825303499873000,11.598873046875,-0.949798583984375,0.000732421875,-0.5038909912109375
1667825303509881000,11.608881103515625,-0.95635986328125,0.0457611083984375,-0.5166015625
1667825303519888000,11.618887939453124,-0.968597412109375,0.0650177001953125,-0.51904296875
1667825303529896000,11.62889599609375,-0.9841766357421875,0.056793212890625,-0.5174407958984375
1667825303539903000,11.638903076171875,-0.9978485107421875,0.053436279296875,-0.5153656005859375
1667825303549911000,11.6489111328125,-1.0050506591796875,0.0636138916015625,-0.52252197265625
1667825303559914200,11.658914306640625,-1.0075836181640625,0.0710906982421875,-0.529937744140625
1667825303569922600,11.668922607421875,-1.0159454345703125,0.0500640869140625,-0.54571533203125
1667825303579929300,11.678929443359374,-1.0185394287109375,0.0168609619140625,-0.5659332275390625
1667825303589937400,11.6889375,-1.026336669921875,-0.00469970703125,-0.602630615234375
1667825303599944400,11.6989443359375,-1.037750244140625,-0.0144805908203125,-0.6595001220703125
1667825303609952500,11.708952392578125,-1.04779052734375,-0.03240966796875,-0.723602294921875
1667825303619960300,11.718960205078124,-1.0780181884765625,-0.0638427734375,-0.7896881103515625
1667825303629967400,11.72896728515625,-1.1094970703125,-0.0877838134765625,-0.8556671142578125
1667825303639975400,11.738975341796875,-1.1451416015625,-0.096893310546875,-0.9089813232421875
1667825303649982500,11.748982421875,-1.184906005859375,-0.0842742919921875,-0.9414520263671875
1667825303659990300,11.758990234375,-1.216094970703125,-0.066619873046875,-0.929656982421875
1667825303669997600,11.76899755859375,-1.225799560546875,-0.0479583740234375,-0.88775634765625
1667825303680005400,11.77900537109375,-1.2134552001953125,-0.0230712890625,-0.844146728515625
1667825303690012400,11.789012451171875,-1.19183349609375,0.0171661376953125,-0.78753662109375
1667825303700020200,11.799020263671874,-1.14385986328125,0.041229248046875,-0.7123870849609375
1667825303710027300,11.80902734375,-1.07965087890625,0.0411834716796875,-0.6194915771484375
1667825303720035300,11.819035400390625,-1.0060577392578125,0.0245819091796875,-0.5273590087890625
1667825303730043400,11.82904345703125,-0.933197021484375,0.004150390625,-0.45587158203125
1667825303740050400,11.839050537109374,-0.8810882568359375,-0.0185394287109375,-0.400848388671875
1667825303750058500,11.84905859375,-0.8388671875,-0.0480804443359375,-0.361083984375
1667825303760065300,11.859065185546875,-0.8030242919921875,-0.069122314453125,-0.337890625
1667825303770073300,11.8690732421875,-0.784942626953125,-0.074188232421875,-0.3332061767578125
1667825303780080400,11.879080322265626,-0.7756805419921875,-0.0722198486328125,-0.3374481201171875
1667825303790088400,11.88908837890625,-0.756591796875,-0.0741119384765625,-0.3490447998046875
1667825303800095200,11.89909521484375,-0.7355804443359375,-0.0845184326171875,-0.3603057861328125
1667825303810103300,11.909103271484375,-0.72064208984375,-0.098968505859375,-0.3686981201171875
1667825303820111400,11.919111328125,-0.706024169921875,-0.112579345703125,-0.382171630859375
1667825303830118400,11.929118408203125,-0.697662353515625,-0.1211700439453125,-0.387359619140625
1667825303840126200,11.939126220703125,-0.6937408447265625,-0.133056640625,-0.389373779296875
1667825303850133500,11.949133544921875,-0.6936187744140625,-0.1507720947265625,-0.40582275390625
1667825303860141300,11.959141357421874,-0.69976806640625,-0.165313720703125,-0.3963165283203125
1667825303870148400,11.9691484375,-0.7036285400390625,-0.1766357421875,-0.3746185302734375
1667825303880156200,11.97915625,-0.7118682861328125,-0.18994140625,-0.3676910400390625
1667825303890163500,11.98916357421875,-0.72442626953125,-0.2139434814453125,-0.37493896484375
1667825303900171300,11.999171142578126,-0.741546630859375,-0.2374420166015625,-0.387451171875
1667825303910178300,12.00917822265625,-0.761993408203125,-0.24969482421875,-0.3997802734375
1667825303920186400,12.019186279296875,-0.76348876953125,-0.2461700439453125,-0.3959197998046875
1667825303930194400,12.0291943359375,-0.7599334716796875,-0.244415283203125,-0.390106201171875
1667825303940201200,12.039201171875,-0.750885009765625,-0.2539825439453125,-0.3948822021484375
1667825303950209300,12.049209228515625,-0.7285614013671875,-0.24853515625,-0.3826446533203125
1667825303960216300,12.05921630859375,-0.6644439697265625,-0.238006591796875,-0.364166259765625
1667825303970224400,12.069224365234374,-0.6651458740234375,-0.2706146240234375,-0.3820037841796875
1667825303980231200,12.079231201171876,-0.9961090087890625,-0.33087158203125,-0.4115142822265625
1667825303990239500,12.089239501953125,-0.953094482421875,-0.344940185546875,-0.3628692626953125
1667825304000246300,12.099246337890625,-0.7593994140625,-0.3405914306640625,-0.293304443359375
1667825304010254300,12.10925439453125,-0.7866363525390625,-0.3471221923828125,-0.3043670654296875
1667825304020261400,12.119261474609376,-0.892974853515625,-0.3574981689453125,-0.369964599609375
1667825304030269400,12.12926953125,-0.96856689453125,-0.346649169921875,-0.3989715576171875
1667825304040277200,12.13927734375,-1.007171630859375,-0.320892333984375,-0.391082763671875
1667825304050284300,12.1492841796875,-1.0208282470703125,-0.3094940185546875,-0.4176483154296875
1667825304060292400,12.159292236328126,-1.0654449462890625,-0.29010009765625,-0.50634765625
1667825304070299400,12.16929931640625,-1.2021026611328125,-0.268798828125,-0.550994873046875
1667825304080307200,12.17930712890625,-1.0736846923828125,-0.247833251953125,-0.5445556640625
1667825304090314500,12.189314453125,-1.0290069580078125,-0.2394866943359375,-0.5149078369140625
1667825304100322300,12.199322265625,-1.0937652587890625,-0.2192840576171875,-0.4766998291015625
1667825304110329300,12.209329345703125,-1.0430908203125,-0.2070465087890625,-0.4415435791015625
1667825304120337200,12.219337158203125,-1.0428924560546875,-0.2142791748046875,-0.37921142578125
1667825304130344400,12.229344482421874,-1.0528106689453125,-0.24310302734375,-0.3203277587890625
1667825304140352300,12.239352294921876,-1.0542449951171875,-0.2899627685546875,-0.2713470458984375
1667825304150360300,12.2493603515625,-1.0482177734375,-0.3694305419921875,-0.1982574462890625
1667825304160367400,12.259367431640625,-1.0245513916015625,-0.480712890625,-0.13079833984375
1667825304170375400,12.26937548828125,-1.00885009765625,-0.580535888671875,-0.10003662109375
1667825304180382200,12.27938232421875,-0.9854736328125,-0.618988037109375,-0.095794677734375
1667825304190390300,12.289390380859375,-0.9906768798828125,-0.5820770263671875,-0.108428955078125
1667825304200397300,12.299397216796875,-1.014892578125,-0.5090789794921875,-0.12384033203125
1667825304210405400,12.3094052734375,-1.0305633544921875,-0.4447174072265625,-0.144744873046875
1667825304220412200,12.319412109375,-1.03875732421875,-0.403106689453125,-0.1772613525390625
1667825304230420200,12.329420166015625,-1.0353546142578125,-0.378936767578125,-0.208160400390625
1667825304240427300,12.33942724609375,-1.0283050537109375,-0.3603057861328125,-0.2241058349609375
1667825304250435300,12.349435302734374,-1.0121917724609375,-0.3386993408203125,-0.221282958984375
1667825304260442400,12.3594423828125,-0.9741973876953125,-0.3268280029296875,-0.2095794677734375
1667825304270450400,12.369450439453125,-0.9478759765625,-0.32073974609375,-0.195281982421875
1667825304280458500,12.37945849609375,-0.917449951171875,-0.3148651123046875,-0.1692657470703125
1667825304290465300,12.38946533203125,-0.8802337646484375,-0.30999755859375,-0.1312255859375
1667825304300473300,12.399473388671876,-0.85546875,-0.3085479736328125,-0.098052978515625
1667825304310480400,12.40948046875,-0.8237457275390625,-0.31817626953125,-0.0854339599609375
1667825304320488400,12.419488525390625,-0.7842864990234375,-0.3364410400390625,-0.0747528076171875
1667825304330495200,12.4294951171875,-0.74639892578125,-0.3552093505859375,-0.062652587890625
1667825304340503600,12.439503662109376,-0.71209716796875,-0.3739471435546875,-0.051605224609375
1667825304350510300,12.44951025390625,-0.676422119140625,-0.3907623291015625,-0.0522918701171875
1667825304360518400,12.459518310546875,-0.653289794921875,-0.392059326171875,-0.0582427978515625
1667825304370525400,12.469525390625,-0.6435699462890625,-0.3745269775390625,-0.0644989013671875
1667825304380533200,12.479533203125,-0.6398162841796875,-0.3477630615234375,-0.066802978515625
1667825304390541300,12.489541259765625,-0.640869140625,-0.3217926025390625,-0.0623321533203125
1667825304400548000,12.499548095703124,-0.6430206298828125,-0.3004150390625,-0.0526275634765625
1667825304410556400,12.509556396484374,-0.6463623046875,-0.2849273681640625,-0.047271728515625
1667825304420563200,12.519563232421875,-0.6558685302734375,-0.2838134765625,-0.0610504150390625
1667825304430571300,12.5295712890625,-0.6620941162109375,-0.286346435546875,-0.08404541015625
1667825304440578300,12.539578369140624,-0.6761627197265625,-0.292633056640625,-0.0980224609375
1667825304450586400,12.54958642578125,-0.6985015869140625,-0.3061676025390625,-0.0888519287109375
1667825304460593200,12.55959326171875,-0.7299041748046875,-0.324249267578125,-0.0734405517578125
1667825304470601200,12.569601318359375,-0.7667388916015625,-0.34375,-0.0543670654296875
1667825304480608300,12.579608154296874,-0.788604736328125,-0.354217529296875,-0.03485107421875
1667825304490616300,12.5896162109375,-0.813629150390625,-0.334930419921875,-0.0258026123046875
1667825304500623000,12.599623046875,-0.8416900634765625,-0.28948974609375,-0.037811279296875
1667825304510631400,12.60963134765625,-0.85357666015625,-0.2495269775390625,-0.056793212890625
1667825304520639500,12.619639404296874,-0.8573150634765625,-0.2493133544921875,-0.0619659423828125
1667825304530646300,12.629646240234376,-0.890777587890625,-0.2883148193359375,-0.04986572265625
1667825304540653300,12.6396533203125,-0.9648895263671875,-0.3416595458984375,-0.0359039306640625
1667825304550661400,12.649661376953125,-1.059539794921875,-0.383026123046875,-0.0399169921875
1667825304560669000,12.6596689453125,-1.1291656494140625,-0.4039459228515625,-0.0655059814453125
1667825304570676000,12.669676025390626,-1.1508026123046875,-0.421417236328125,-0.0903472900390625
1667825304580684000,12.67968408203125,-1.1707916259765625,-0.4385528564453125,-0.1176300048828125
1667825304590691000,12.689691162109375,-1.173919677734375,-0.43914794921875,-0.1638946533203125
1667825304600699000,12.699698974609374,-1.156982421875,-0.41845703125,-0.2223663330078125
1667825304610706200,12.7097060546875,-1.13165283203125,-0.3763580322265625,-0.2815704345703125
1667825304620714000,12.7197138671875,-1.1067047119140625,-0.312591552734375,-0.3291778564453125
1667825304630721000,12.729720947265625,-1.079193115234375,-0.2370147705078125,-0.3354339599609375
1667825304640728800,12.739728759765624,-1.02899169921875,-0.1807403564453125,-0.3005828857421875
1667825304650736000,12.749736083984375,-0.9834747314453125,-0.18096923828125,-0.2351226806640625
1667825304660744000,12.759743896484375,-0.9842376708984375,-0.260101318359375,-0.180755615234375
