time,seconds_elapsed,z,y,x
1667824719162878000,0.0238779296875,0.9731775084018707,-1.0486908684171736,0.031713235124945637
1667824719172885000,0.033885009765625,0.9005430648237466,-1.1280908606074749,0.13417634219042957
1667824719182893000,0.04389306640625,0.7585901703476905,-1.2729197489112616,0.2426047874011099
1667824719192900900,0.05390087890625,0.650168958595395,-1.3665442274175583,0.3062421239227056
1667824719202908200,0.063908203125,0.6013514439344406,-1.3931870274104177,0.30737726543247695
1667824719212916000,0.073916015625,0.4979366621673107,-1.4049194046497344,0.2877104419320822
1667824719222923000,0.083923095703125,0.3372936802685261,-1.4190797396883368,0.3127655343420803
1667824719232930800,0.093930908203125,0.21416297516226768,-1.4290322477735578,0.3443648607637733
1667824719242939000,0.10393896484375,0.12867781783938406,-1.4690234819002448,0.37816330466493964
1667824719252946000,0.11394580078125,-0.029272856235504147,-1.4834725707523524,0.36770087429620324
1667824719262954000,0.1239541015625,-0.13455226283073424,-1.3761951222077011,0.30044322838559745
1667824719272962000,0.133962158203125,-0.14606266788244246,-1.1968357494011521,0.18937137426035477
1667824719282969000,0.143968994140625,-0.21850421923696994,-1.0648565519288182,0.14002247440274804
1667824719292977200,0.15397705078125,-0.38671734412908554,-1.0368788500703872,0.17837233453057705
1667824719302985000,0.16398486328125,-0.6154191322535276,-1.0552582641087471,0.27556734673371536
1667824719312992000,0.173991943359375,-0.8562094175785779,-1.1299218754269182,0.3507391450360417
1667824719323000000,0.184,-1.124526007732749,-1.202314619203657,0.3212537054957822
1667824719333007000,0.194007080078125,-1.242897535613179,-1.172428453375399,0.20560809544790534
1667824719343015000,0.204014892578125,-1.3869441874980926,-1.0699505140669643,0.13620536380000411
1667824719353023000,0.21402294921875,-1.5302373906672,-0.9946201094031333,0.08138985083326697
1667824719363030000,0.224030029296875,-1.4684592721462248,-0.925917744576931,-0.08268098662234842
1667824719373038000,0.2340380859375,-1.279421970412135,-0.7805031653396785,-0.22776136546917258
1667824719383046000,0.2440458984375,-1.0960504393547772,-0.5702504954889417,-0.2691962590655312
1667824719393053000,0.254052978515625,-0.9086883773565292,-0.3797610952503979,-0.2691983414247632
1667824719403061000,0.26406103515625,-0.6487035622179508,-0.22432021203935146,-0.2843744293771684
1667824719413068000,0.274068115234375,-0.29599779328405856,-0.10178615765199064,-0.3098831473061815
1667824719423075800,0.284075927734375,-0.0704272889226675,0.007177052022516727,-0.31460458633750676
1667824719433084000,0.294083984375,0.15447218430936335,0.11972104279324412,-0.23747699605859815
1667824719443091000,0.304091064453125,0.39734745921492576,0.22899930976629257,-0.14497536583608014
1667824719453099000,0.31409912109375,0.5861795937657356,0.2729527255222201,-0.05707352102659642
1667824719463106800,0.32410693359375,0.7187859832257032,0.27320874610990287,0.0362522667940706
1667824719473114000,0.334114013671875,0.7201040800869465,0.25174641749486326,0.1355743541537784
1667824719483122000,0.344121826171875,0.6841366946488618,0.3190758865326643,0.2491132194470614
1667824719493130000,0.3541298828125,0.742581869354844,0.21128537389934063,0.3897644202074036
1667824719503136800,0.36413671875,0.7837509150892495,0.14442834467887877,0.41350802816003557
1667824719513145000,0.37414501953125,0.6894429843634367,0.1845253772675991,0.379914313050732
1667824719523152000,0.38415185546875,0.4895762455791235,0.1020984384715557,0.3145273563828319
1667824719533160000,0.394159912109375,0.18793781605958937,0.05252630605101585,0.24128734812699257
1667824719543168000,0.40416796875,-0.11106149712800979,-0.04967325470745563,0.3878069659966975
1667824719553175000,0.414175048828125,-0.2621580675244331,-0.23009353474378585,0.6591393968407064
1667824719563183000,0.42418310546875,-0.4503524886935949,-0.30142800163924693,0.7272317400097846
1667824719573191000,0.43419091796875,-0.6799626238346099,-0.2141603448137641,0.6251209535133093
1667824719583198000,0.444197998046875,-0.7226350598692893,0.03263941005915403,0.3828186561901122
1667824719593206000,0.4542060546875,-0.7230559156298637,0.31517098804861304,0.19700575986262409
1667824719603214000,0.464214111328125,-0.6660586016446352,0.539842790004611,0.14612806126885114
1667824719613220900,0.474220947265625,-0.6344967576891184,0.6192904207289218,0.14370369279929435
1667824719623229000,0.48422900390625,-0.6670370912879705,0.6449070925444365,0.1791482508065179
1667824719633236000,0.494236083984375,-0.6806184573948383,0.6239189573124051,0.12015731531865895
1667824719643244000,0.504244140625,-0.7009750167250632,0.5421560353830457,0.1035881381731946
1667824719653251800,0.514251953125,-0.6132055478572845,0.47043607630133627,0.1797578340722248
1667824719663259100,0.524259033203125,-0.5257248328030109,0.40071635112613435,0.2223776631368324
1667824719673267000,0.534266845703125,-0.37474867391586303,0.3254825387045741,0.20125775475129484
1667824719683275000,0.54427490234375,-0.1724696132928133,0.29472675043493507,0.19416180514097212
1667824719693281800,0.55428173828125,-0.018814006063342093,0.32221389229744674,0.17902250553499907
1667824719703290000,0.5642900390625,0.20692776321172712,0.3928995398953557,0.2053464488370344
1667824719713298200,0.574298095703125,0.37897768978774543,0.4367532946690917,0.24656008263183757
1667824719723305000,0.584304931640625,0.5161047715425491,0.48435763414800165,0.27559717561639846
1667824719733313000,0.59431298828125,0.6637374652206898,0.6014753625750542,0.33255927215777337
1667824719743320000,0.604320068359375,0.8437000646173953,0.6816460468769073,0.3837409586668014
1667824719753328000,0.614328125,1.09876846614182,0.739249217800796,0.36724275526516137
1667824719763336000,0.6243359375,1.2675713736206293,0.7837590983957051,0.3417434627516195
1667824719773343000,0.634343017578125,1.4313924010336398,0.725334381955862,0.2850624847065657
1667824719783351000,0.64435107421875,1.6033716004610061,0.6084799806401133,0.25897929135784503
1667824719793359000,0.654359130859375,1.7314590511918067,0.5456324793219566,0.28732842034455386
1667824719803366000,0.664365966796875,1.8030121292740104,0.5003033912986516,0.3333705520080402
1667824719813374000,0.6743740234375,1.7862883734881876,0.4717325458526611,0.3999078842874616
1667824719823382000,0.684382080078125,1.6908207513332365,0.4194906097009778,0.4444371271699667
1667824719833389000,0.69438916015625,1.7328022824943066,0.42556700700521466,0.3995345209304243
1667824719843396900,0.70439697265625,1.8010522273778915,0.514501135738194,0.35895430793464184
1667824719853404200,0.714404052734375,1.8257143749475477,0.6086337098971009,0.26286148481974375
1667824719863412000,0.724411865234375,1.8279343890845774,0.6867541836708784,0.1665882636366412
1667824719873420000,0.734419921875,1.8374211793541908,0.7451908828094601,0.17184854051871223
1667824719883426800,0.7444267578125,1.7835411206066607,0.7065741519063711,0.2806748442068696
1667824719893435000,0.754434814453125,1.695195313155651,0.5699743088960647,0.3746196407087147
1667824719903443000,0.76444287109375,1.5036825612187386,0.39517712943851946,0.39208077085837717
1667824719913450000,0.774449951171875,1.249154842442274,0.20305062951743602,0.4104997862547636
1667824719923457800,0.784457763671875,1.037473162701726,0.029832535944879054,0.4167500788211822
1667824719933465900,0.7944658203125,0.9418623326838016,-0.11140607278198003,0.43273770235218106
1667824719943473000,0.804472900390625,0.7966501441508531,-0.1440983820721507,0.5029879176748916
1667824719953481000,0.81448095703125,0.5282283400565385,-0.030093524968624115,0.5739973538670688
1667824719963487700,0.82448779296875,0.32871991319060323,0.14952683686167,0.581824394230917
1667824719973496000,0.83449609375,0.23989713587760925,0.29422172352224585,0.5887876573722809
1667824719983504100,0.844504150390625,0.18659750736653805,0.4299222796052694,0.5709934228107333
1667824719993511000,0.854510986328125,0.14352818096876144,0.5599845375403761,0.5042379908012226
1667824720003519000,0.86451904296875,0.04081540999114513,0.5740577788174152,0.43389812443368136
1667824720013527000,0.874527099609375,-0.11159984178841113,0.45976884407550095,0.34930399766638875
1667824720023534600,0.88453466796875,-0.21420856786966322,0.3264709652200341,0.3999977545280009
1667824720033542700,0.894542724609375,-0.3048644058287144,0.2277884726718068,0.5869965361718088
1667824720043549400,0.904549560546875,-0.27333237248957154,0.18917437211722135,0.6695875064231455
1667824720053557800,0.914557861328125,-0.09645020345151424,0.13594488623291254,0.603886405772157
1667824720063565600,0.924565673828125,0.15677695412039755,0.16480214740484952,0.46339543707482517
1667824720073572600,0.934572509765625,0.3846533973366022,0.20378332770615815,0.3185279337937012
1667824720083580400,0.944580322265625,0.5571925687342881,0.14773206239938735,0.24537136603761464
1667824720093588500,0.95458837890625,0.47334757983386516,0.016012392646074295,0.3332299014283344
1667824720103595500,0.964595458984375,0.20196224975883958,-0.28085750729739667,0.5212790689079091
1667824720113603600,0.974603515625,0.08090659736096859,-0.6262178819045424,0.6430687712013721
1667824720123611600,0.984611572265625,-0.06735445734858513,-0.8837976817280053,0.7006205041989684
1667824720133618700,0.99461865234375,-0.26031857713758944,-1.1937062192037702,0.75502444069013
1667824720143626800,1.004626708984375,-0.3856844939500093,-1.5689710259482263,0.7985981364134699
1667824720153633500,1.014633544921875,-0.6083195293813943,-1.7851237136229872,0.806778301063925
1667824720163641600,1.0246416015625,-0.9795189863830804,-1.7334826659739015,0.7281830493852496
1667824720173649700,1.034649658203125,-1.2952443934440612,-1.5088579180300234,0.5523143682386725
1667824720183656700,1.04465673828125,-1.5510837793409824,-1.1563330586209892,0.29853993378123267
1667824720193664500,1.05466455078125,-1.6522276935666798,-0.712251320759952,-0.052801433197967707
1667824720203672600,1.064672607421875,-1.716303567636013,-0.33222149157077074,-0.4189120060954243
1667824720213679600,1.0746796875,-1.733963142967224,-0.11224924560785293,-0.7202204730082303
1667824720223687700,1.084687744140625,-1.500617328429222,0.11676438494473695,-0.9739978118088096
1667824720233695500,1.094695556640625,-1.2972393666535615,0.36773002732545135,-1.0919064714178441
1667824720243702500,1.10470263671875,-0.9601444238275288,0.4177957884818315,-0.968884998839721
1667824720253710600,1.114710693359375,-0.41124096001088617,0.17255846062004565,-0.6917740576595067
1667824720263717600,1.124717529296875,-0.14144845208525658,-0.1725236815676093,-0.46806061587426806
1667824720273725400,1.134725341796875,-0.21721008777320383,-0.3934446065574884,-0.41881669249478726
1667824720283733500,1.1447333984375,-0.14890344426631927,-0.5272989502519368,-0.33862562299203125
1667824720293740500,1.154740478515625,0.17129121716320514,-0.689375179824233,-0.17646368789765982
1667824720303748600,1.16474853515625,0.3531026592969894,-0.8531020992130041,0.010073942507803439
1667824720313756700,1.174756591796875,0.2236158631622791,-0.9790572140902281,0.12229578865207731
1667824720323763700,1.184763671875,0.0008382043898105621,-1.0000994175970555,0.044989992262050506
1667824720333771800,1.194771728515625,-0.25552958929538727,-0.7804632717207074,-0.19246881055273116
1667824720343779600,1.204779541015625,-0.5796627592176199,-0.40440819138139483,-0.42830706296097487
1667824720353786600,1.21478662109375,-0.7072837614804506,-0.09668108959794044,-0.6569723549999297
1667824720363794700,1.224794677734375,-0.6637655222713947,0.07068564759790896,-0.8782245577707887
1667824720373801700,1.2348017578125,-0.3555389465332031,0.21915713018774985,-1.0645912520561367
1667824720383809500,1.2448095703125,-0.09641922379136085,0.48006548991203307,-1.2097415543340146
1667824720393817600,1.254817626953125,0.24488427664041518,0.7919190239757299,-1.3659998914077878
1667824720403824600,1.26482470703125,0.4801584288924932,0.9875362886220216,-1.414129716065526
1667824720413832700,1.274832763671875,0.6829939543545246,0.9534066400051117,-1.2960380280397832
1667824720423840500,1.284840576171875,1.0755313829392195,0.8222527874410152,-1.0749114974752068
1667824720433847600,1.29484765625,1.352897540989518,0.6216694248199462,-0.945958589021489
1667824720443855600,1.304855712890625,1.4011270266294478,0.3659615563482046,-0.8673115340903401
1667824720453863700,1.31486376953125,1.0158043517291546,0.2506649058684707,-0.9584441227156668
1667824720463870500,1.324870361328125,1.5660083767503499,0.16260755997002124,-0.9430744118873029
1667824720473878500,1.33487841796875,2.2295915281921626,0.1588856168374419,-0.9061638273149728
1667824720483885600,1.344885498046875,2.1175626473367215,0.38373569796979423,-0.9352879227295517
1667824720493893600,1.3548935546875,1.6785294250369072,0.2974912467122078,-1.5704349610209465
1667824720503901700,1.364901611328125,1.2839157747000456,0.35342443859726186,-1.6142846241414546
1667824720513908700,1.37490869140625,1.5644862817496061,0.7280754973575473,-0.5418823330081999
1667824720523916800,1.384916748046875,2.1625667411893605,-0.20618600493371486,0.47819151273369787
1667824720533924600,1.394924560546875,2.4933424178659913,-0.9974772523999214,0.6166404907420278
1667824720543931600,1.404931640625,2.5716385404676196,-1.5063862672194837,0.002912014989182353
1667824720553939500,1.414939453125,2.4852199016869068,-1.7001637492179869,-0.47148237048387526
1667824720563947800,1.42494775390625,2.3114292689234017,-1.5396692358791828,-0.2674935102682561
1667824720573954600,1.43495458984375,2.0944588351249696,-1.2272101371377706,0.278133927552402
1667824720583962600,1.444962646484375,2.0198381861656904,-0.97825174292624,0.5094991627324372
1667824720593969700,1.4549697265625,2.059271201887727,-0.804345374828577,0.3407893403645605
1667824720603977700,1.464977783203125,1.9894301884204149,-0.6064525664657354,0.11730915934592484
1667824720613985500,1.474985595703125,1.8875807562738656,-0.4926946698606014,-0.14570229187114164
1667824720623992600,1.48499267578125,1.6707587910354136,-0.6148015848770737,-0.4900551151372492
1667824720634000600,1.495000732421875,2.029124485427141,-0.6761196846708655,-0.4792501184085384
1667824720644008700,1.5050087890625,1.8170307177543639,-0.6427887852162122,-0.005365910947322845
1667824720654015500,1.515015380859375,1.523271643307805,-0.8866308593273162,0.6133133921459317
1667824720664023600,1.5250234375,1.238349370789528,-1.2544210924074053,0.7103248827420174
1667824720674031600,1.535031494140625,0.6928215208858252,-1.5651190266951918,0.7338643829572945
1667824720684038700,1.54503857421875,0.2831038249194622,-1.777977348999679,0.781304983241856
1667824720694046500,1.55504638671875,0.07209843700528144,-1.9072300441175698,0.8072668152332305
1667824720704053800,1.5650537109375,-0.3649509180009365,-1.852763709914684,0.664369698709622
1667824720714061600,1.5750615234375,-1.0483610519409179,-1.430707341378927,0.1790916983136907
1667824720724069600,1.585069580078125,-1.5947668537229298,-0.8138920785918832,-0.33653062347415835
1667824720734076400,1.595076416015625,-1.722428187996149,-0.1246808571577072,-0.8011857417538761
1667824720744084500,1.60508447265625,-1.5580992110610008,0.6812760445207356,-1.358892105229199
1667824720754092800,1.6150927734375,-1.30550392165184,1.466588802099228,-1.7245764520712197
1667824720764099600,1.625099609375,-1.0213830286443233,2.0601754572510718,-1.6586473513506352
1667824720774107600,1.635107666015625,-0.7171446457594632,2.313715626294911,-1.524151933273673
1667824720784115500,1.645115478515625,-0.49948856778442857,2.3798235907137393,-1.2089936585761607
1667824720794122800,1.655122802734375,-0.591035217103362,2.5923969585970044,-0.327708544190973
1667824720804130600,1.665130615234375,-0.8362883270561695,2.4752497118145227,-0.14293087266273796
1667824720814138600,1.675138671875,-1.1309855591356754,1.9675524108722804,-0.5436890901692212
1667824720824145700,1.685145751953125,-1.0983610543847084,1.734259495565295,-0.8236270714689046
1667824720834153700,1.69515380859375,-1.1183178007423877,1.920484370227158,-0.9375123207807541
1667824720844160500,1.705160400390625,-1.2120277655750513,2.1149138863936066,-0.9554353693537414
1667824720854168600,1.71516845703125,-1.54316175417006,2.2388030086517334,-0.9684425888344645
1667824720864176400,1.72517626953125,-1.783631721499562,2.314884085552394,-0.9995170876644551
1667824720874183700,1.73518359375,-1.7678595673501492,2.330291790303588,-0.9867042217120527
1667824720884191500,1.74519140625,-1.6731611760020255,2.268003676433861,-0.9140820530936121
1667824720894199600,1.755199462890625,-2.1474059969365595,2.03080498585999,-0.7881460813082755
1667824720904206600,1.76520654296875,-2.0721827059090137,1.770185379949212,-0.5024558931574226
1667824720914214700,1.775214599609375,-1.404071847909689,1.5418272906959056,-0.2298502275072038
1667824720924222700,1.78522265625,-1.6324427966445683,1.4421487728476523,-0.14907675500661133
1667824720934229500,1.7952294921875,-1.3891747230291365,1.4317159338995813,-0.25607246400043365
1667824720944237800,1.80523779296875,-1.1178086821764708,1.3905609166905284,-0.4069824257835746
1667824720954244600,1.81524462890625,-1.0362672940433024,1.3300602707594633,-0.4036950746759772
1667824720964252700,1.825252685546875,-0.9049573741346597,1.2559873188108206,-0.16309300539940594
1667824720974260500,1.835260498046875,-0.8032336141943931,1.0887596978247165,0.18226269303262232
1667824720984267800,1.845267822265625,-0.542916206100583,0.8024161603316664,0.5133763694919645
1667824720994275600,1.855275634765625,-0.22568273256421087,0.46585342468619345,0.7809776509836316
1667824721004283600,1.86528369140625,-0.13431319337785244,0.26221768875718116,0.9864702668257057
1667824721014290700,1.875290771484375,-0.029218495699763296,0.15998539477288723,1.0968696467831731
1667824721024297700,1.885297607421875,0.1794885521441698,0.06700842038989066,1.1304125815533101
1667824721034305500,1.895305419921875,0.2708662746369839,-0.06886135478019714,1.142437950389832
1667824721044312800,1.905312744140625,0.25342881762385366,-0.21212474733293055,1.1026967455014587
1667824721054320600,1.915320556640625,0.2286708084642887,-0.32886838175058364,0.9941355407565832
1667824721064328700,1.92532861328125,0.23966449616551397,-0.40249329767078157,1.0560055753447115
1667824721074335500,1.93533544921875,0.23481354900300502,-0.45879736869484183,1.1825703465528785
1667824721084343600,1.945343505859375,0.26976035922169683,-0.47481882143020626,1.2317219154737888
1667824721094350600,1.9553505859375,0.3171177382022142,-0.42639644356667994,1.1940265371993184
1667824721104358700,1.965358642578125,0.2777051807463169,-0.3856429928958416,1.1093510888241231
1667824721114366500,1.975366455078125,0.24923838019669053,-0.40345249809175726,1.0619674063585698
1667824721124373800,1.985373779296875,0.31128187165558335,-0.45266398050636053,1.024313529138267
1667824721134381600,1.995381591796875,0.35882629764080043,-0.46042701572328804,0.9647342358358204
1667824721144389600,2.0053896484375,0.27102935624420643,-0.4394564161479473,0.8821391008660197
1667824721154396400,2.015396484375,0.15612228960394858,-0.4263280545055866,0.8112612916968762
1667824721164404700,2.02540478515625,0.1425543675005436,-0.39942368096709246,0.8895748038247228
1667824721174412500,2.03541259765625,0.06537877336144447,-0.3377788334369659,1.0280195440493523
1667824721184419600,2.045419677734375,0.10343582455515861,-0.2846735584542155,1.0527100409306585
1667824721194427400,2.055427490234375,0.11089666195511817,-0.20207126309126613,1.0330683518715202
1667824721204434700,2.0654345703125,0.11874094571471214,-0.1474731192022562,1.0630229067608714
1667824721214442500,2.0754423828125,0.1832259851068258,-0.11796411612331867,1.0557838954180478
1667824721224450600,2.085450439453125,0.2800041053384542,-0.09989566773027181,0.9380411669604479
1667824721234457600,2.09545751953125,0.3987473891407251,-0.07759820346534252,0.8490739396754652
1667824721244465700,2.105465576171875,0.4639852927267551,-0.12421733129918575,0.83587470475398
1667824721254473700,2.1154736328125,0.5647662188589573,-0.2025570007815957,0.7737667697567492
1667824721264480500,2.12548046875,0.6117641168773174,-0.22089403698295354,0.7042207206480204
1667824721274488600,2.135488525390625,0.5876695400625467,-0.21159137110859155,0.6944399889331311
1667824721284496600,2.14549658203125,0.5228635981529951,-0.2596297180905938,0.6688003015682101
1667824721294503700,2.155503662109375,0.4602601347237825,-0.4074868681743741,0.6388269689131528
1667824721304511500,2.165511474609375,0.3377531144738197,-0.6432648782953619,0.6180319451004266
1667824721314519600,2.17551953125,0.18687924691736696,-0.8772954602271318,0.45074879453480243
1667824721324526600,2.185526611328125,0.1016413423538208,-0.8932543691202998,0.0862783535271883
1667824721334534700,2.19553466796875,0.057553778824210165,-0.6469242775857448,-0.29124431514665483
1667824721344541400,2.20554150390625,-0.15843758080899714,-0.3824395206794142,-0.6651787500701845
1667824721354549800,2.2155498046875,-0.4026648548454046,-0.18035919749885795,-0.9502451802995056
1667824721364557600,2.2255576171875,-0.5286012650221585,-0.07736001079529524,-1.0935355339244008
1667824721374564600,2.235564697265625,-0.46785891928970813,-0.08215659742206334,-1.2077746381752192
1667824721384572400,2.245572509765625,-0.3772510121256113,-0.12115677468478679,-1.2849598769254982
1667824721394580500,2.25558056640625,-0.3694242640227079,-0.19248247375190256,-1.2654158030219376
1667824721404587500,2.26558740234375,-0.44003918447196483,-0.2283151268944144,-1.1692952699162065
1667824721414595600,2.275595703125,-0.4855868836820125,-0.26446955933719873,-1.1351792114332317
1667824721424603600,2.285603759765625,-0.40532501396536824,-0.2969777442321181,-1.1479124362781643
1667824721434610700,2.295610595703125,-0.36703473853766916,-0.32146833462715146,-1.1164729035280645
1667824721444618800,2.30561865234375,-0.49202130064368244,-0.39236908628046513,-1.0176343436352908
1667824721454626600,2.31562646484375,-0.6458715536624193,-0.5142570978492498,-0.8829951331734657
1667824721464633600,2.325633544921875,-0.6880518222659826,-0.652194326943159,-0.8989183862313628
1667824721474641700,2.3356416015625,-0.5725356838166713,-0.6384367274865508,-1.076513087452948
1667824721484648700,2.345648681640625,-0.4715408226728439,-0.47128947826027867,-1.2038998425684868
1667824721494656500,2.355656494140625,-0.37113749768137927,-0.3769040983840823,-1.2380351902738214
1667824721504664600,2.36566455078125,-0.3289619052529335,-0.4414350227445364,-1.199421528110653
1667824721514671600,2.375671630859375,-0.25531623880565163,-0.5537669781997799,-1.0910254507996142
1667824721524679700,2.3856796875,-0.22651742982268333,-0.652868719073385,-0.9985817065104842
1667824721534687500,2.3956875,-0.33227146819233894,-0.7929848996415734,-0.886440159060806
1667824721544694800,2.40569482421875,-0.4426765472382307,-0.9937177537359296,-0.7178130465403199
1667824721554702600,2.41570263671875,-0.4823983167737722,-1.2066226916611194,-0.5736928910277783
1667824721564710700,2.425710693359375,-0.48452539193034166,-1.331659230388701,-0.5385976122491062
1667824721574717400,2.435717529296875,-0.42526188657879826,-1.2669063338406383,-0.5638745307162404
1667824721584725500,2.4457255859375,-0.32564766613841056,-1.1395941052660346,-0.5758847019836306
1667824721594733800,2.45573388671875,-0.23488135354220865,-1.0143234655216335,-0.5042886615425348
1667824721604740600,2.46574072265625,-0.17458441348969936,-0.9218350053079426,-0.4195778495930135
1667824721614748700,2.475748779296875,-0.0626806203186512,-0.8176154830291866,-0.26883812981024385
1667824721624755700,2.485755615234375,0.05834872859418392,-0.7604007269009947,-0.10105725885555147
1667824721634763800,2.495763671875,0.21365034946501255,-0.7919453274607658,0.0770073979653418
1667824721644771600,2.505771484375,0.47282443274259567,-0.9025691638238728,0.20677242651954292
1667824721654778600,2.515778564453125,0.7329892806231975,-0.9491980823993682,0.2946021011419594
1667824721664786700,2.52578662109375,0.9302204102069139,-0.9410758584812283,0.4080218518339097
1667824721674794800,2.535794677734375,1.1143395447611808,-0.9802592833563685,0.5085018953233957
1667824721684801500,2.545801513671875,1.261087272298336,-1.0326578713744878,0.5132676484204829
1667824721694809600,2.5558095703125,1.2957879988014698,-1.0044574666760862,0.4761611759498715
1667824721704817400,2.5658173828125,1.285503920674324,-0.9044842036649584,0.49836687027812
1667824721714824700,2.57582470703125,1.228839199644327,-0.7962835027955472,0.490237339836359
1667824721724832500,2.58583251953125,1.1404279257416725,-0.7199906828403473,0.46717809741869565
1667824721734840600,2.595840576171875,1.0669693062990904,-0.6707450058951974,0.4722482402898371
1667824721744847600,2.60584765625,1.0157032294422388,-0.6785735075637698,0.5318088288918137
1667824721754855700,2.615855712890625,0.9870143105745315,-0.7308344406768679,0.616030980541557
1667824721764863500,2.625863525390625,0.9449339952141046,-0.7879645872615277,0.6946630570992827
1667824721774870500,2.63587060546875,0.952889338132739,-0.8183661552660166,0.7018158514633774
1667824721784878600,2.645878662109375,0.9495347670078277,-0.7518250601269304,0.6352969681560993
1667824721794885600,2.6558857421875,0.7754319995552301,-0.598486117631197,0.6055402739264071
1667824721804893400,2.6658935546875,0.6234867033749818,-0.4368699067860842,0.5378920943282545
1667824721814901500,2.675901611328125,0.57997957008183,-0.2842750606559217,0.4143412641137838
1667824721824908500,2.685908447265625,0.5561427674204111,-0.13216887482553719,0.3003903291545808
1667824721834916600,2.69591650390625,0.4876730423063039,0.03173223208636045,0.20138824926316737
1667824721844924700,2.705924560546875,0.4113695548266172,0.18856325448155403,0.13357728031873703
1667824721854931700,2.715931640625,0.42599838415980334,0.3205903827488422,0.06418108800947665
1667824721864939800,2.725939697265625,0.4013023343205452,0.4893102881193161,-0.0578051232367754
1667824721874947600,2.735947509765625,0.3996533980697393,0.6579477759033441,-0.18837445391118526
1667824721884954600,2.74595458984375,0.4344347885936498,0.7575695951282978,-0.27363413191512226
1667824721894962400,2.75596240234375,0.4605518111467361,0.7845993486121297,-0.27829613237679
1667824721904969700,2.7659697265625,0.47776948792934415,0.7477233238965273,-0.23820260691940784
1667824721914977500,2.7759775390625,0.4566670786678791,0.7211521278351545,-0.23897037642151117
1667824721924985600,2.785985595703125,0.43829497115314003,0.778929194021225,-0.33698446818888184
1667824721934992600,2.79599267578125,0.38210312833189963,0.9051698478415607,-0.5396323621243239
1667824721945000700,2.806000732421875,0.2826455597579479,0.9945128496363759,-0.7223200025707482
1667824721955008500,2.816008544921875,0.15702420687973498,0.9349328256815671,-0.7811514001153409
1667824721965015600,2.826015625,-0.01260755263864994,0.7557602076187729,-0.7866555504895746
1667824721975023600,2.836023681640625,-0.27307518285810944,0.5814116487115621,-0.8530366327613592
1667824721985031700,2.84603173828125,-0.42271454018354415,0.5527390964567661,-1.0117325722455979
1667824721995038500,2.85603857421875,-0.42637832338809967,0.675292586196959,-1.1937919977910816
1667824722005046500,2.866046630859375,-0.4316489572674036,0.8669470846921205,-1.3938805626325308
1667824722015054600,2.8760546875,-0.38057635715603827,0.9864774272188543,-1.5057872784130275
1667824722025061400,2.886061279296875,-0.3127531132519245,0.960054699717462,-1.5131500622659921
1667824722035069400,2.8960693359375,-0.2241395947754383,0.90516195679605,-1.4947176028661429
1667824722045077200,2.9060771484375,-0.025491584131121636,0.9234949013441801,-1.422499777264893
1667824722055084500,2.91608447265625,0.1838888329297304,0.9546130931854248,-1.30729431219995
1667824722065092400,2.92609228515625,0.37046295942068097,0.8706172976374625,-1.1240889314897358
1667824722075100400,2.936100341796875,0.5109136326402426,0.7023264313340186,-0.9520688155300915
1667824722085107200,2.946107177734375,0.5454436787515878,0.5251321276068687,-0.807588594533503
1667824722095115500,2.956115478515625,0.49604924098551273,0.3916445713981986,-0.6890779504433274
1667824722105123300,2.966123291015625,0.4000818526148796,0.3462362806588411,-0.6671816143251955
1667824722115130400,2.97613037109375,0.28013328467607496,0.354478039303422,-0.7070755255572497
1667824722125138200,2.98613818359375,0.12460779192149639,0.3399409799069166,-0.8227674589648842
1667824722135145500,2.9961455078125,-0.02250935344994068,0.2998839870676398,-0.9438803945079445
1667824722145153300,3.0061533203125,-0.21593232292234896,0.2556777655944228,-1.0519697439573705
1667824722155161300,3.016161376953125,-0.43835985308289527,0.29847061313837764,-1.286290979398787
1667824722165168400,3.02616845703125,-0.6110363871246576,0.4367708303257823,-1.5753149881474673
1667824722175176400,3.036176513671875,-0.8600275145620108,0.5077317877337336,-1.636910005186498
1667824722185184300,3.046184326171875,-1.0469231280922888,0.39282150622308254,-1.5386856316693127
1667824722195191300,3.05619140625,-1.0763169803589583,0.20831278782933949,-1.4269316222324966
1667824722205199400,3.066199462890625,-1.0370552295506,0.16399316910952327,-1.3471853008225558
1667824722215207400,3.07620751953125,-0.9319663770914077,0.2585132812812924,-1.2682115712203084
1667824722225214200,3.086214111328125,-0.7539309463649988,0.351671165189147,-1.1438830346316098
1667824722235222300,3.09622216796875,-0.5194178416132926,0.37907939659655093,-1.0052075543910264
1667824722245230300,3.106230224609375,-0.28265257402062416,0.32931641777902837,-0.8354803716741501
1667824722255237400,3.1162373046875,-0.022847207102179527,0.2704398659184575,-0.6372727982737123
1667824722265245400,3.126245361328125,0.28481939666569234,0.22663638002723455,-0.43896819423958655
1667824722275253200,3.136253173828125,0.5659580589920282,0.17150953608900307,-0.18377192855179308
1667824722285260500,3.146260498046875,0.841069131591916,0.0832303641334176,0.11667480696514249
1667824722295268400,3.156268310546875,1.0711819555580615,0.020942834785580632,0.35565614317208527
1667824722305275400,3.166275390625,1.2533762595295905,0.007571019776165485,0.5480810415178538
1667824722315283200,3.176283203125,1.3234271163553,0.04193155453950166,0.7111196863815188
1667824722325291500,3.18629150390625,1.414761584228277,0.04301876525431871,0.838425485215336
1667824722335298300,3.19629833984375,1.4179799617528914,0.027708967919647692,0.9364861926034093
1667824722345306400,3.206306396484375,1.3405173673659563,0.03902092778980732,1.0505421953722833
1667824722355314200,3.216314208984375,1.325006494501233,0.008843816190958023,1.102696891631931
1667824722365321500,3.226321533203125,1.2686492319852114,-0.032251872046291825,1.1234314904943108
1667824722375329300,3.236329345703125,1.167769521653652,-0.08237871574014424,1.1659317848324775
1667824722385337300,3.24633740234375,0.9849772517889738,-0.1441571265220642,1.1942767125681042
1667824722395344400,3.256344482421875,0.8774187943458557,-0.17523381730914114,1.1885799622312188
1667824722405352400,3.2663525390625,0.8152572294652461,-0.139455816963315,1.1043591257557273
1667824722415360500,3.276360595703125,0.6600105536520481,-0.0657213031888008,1.0260355306252837
1667824722425367300,3.2863671875,0.4643739997833967,-0.041566228358447546,1.0032751250237226
1667824722435375400,3.296375244140625,0.38361177932918067,-0.06461655681729317,1.0060022119000553
1667824722445383400,3.306383544921875,0.35697044064104555,-0.03385258524119854,0.9692679337427019
1667824722455390500,3.316390380859375,0.2945633765667677,0.059812371405959124,0.9506871519133449
1667824722465398300,3.326398193359375,0.24719547619223592,0.15461919156461953,0.9506877364352345
1667824722475405600,3.336405517578125,0.23111878613829612,0.2159846376314759,0.9906298707231879
1667824722485413400,3.346413330078125,0.19016425993740557,0.2532446932286024,1.023593690431118
1667824722495421400,3.35642138671875,0.12613514761924743,0.30094547881931066,1.0053989853098988
1667824722505428200,3.36642822265625,0.18002923489212988,0.31290391989946365,1.0376634245768188
1667824722515436300,3.376436279296875,0.24822306567430494,0.329177301569283,1.1141703256741164
1667824722525444400,3.3864443359375,0.25207915658056734,0.3345893897458911,1.1757248645722866
1667824722535451400,3.396451416015625,0.2672662043184042,0.3445739004045725,1.2313158188909292
1667824722545459200,3.406459228515625,0.24058804075121878,0.32389673081785436,1.2881553119659424
1667824722555467300,3.41646728515625,0.20420038407444951,0.237038531576097,1.3548971903741358
1667824722565474300,3.426474365234375,0.16190204204916953,0.15758096397966145,1.3381696351960302
1667824722575482400,3.436482421875,0.04076514110863209,0.1372454474374652,1.342606448599696
1667824722585490400,3.446490478515625,-0.10855039108991622,0.12187193721681833,1.3345251412138341
1667824722595497500,3.45649755859375,-0.27623101654052734,0.04746054709404707,1.2725003544554114
1667824722605505500,3.466505615234375,-0.3983189345955849,-0.0558574963003397,1.2255763984560966
1667824722615513300,3.476513427734375,-0.5909399400353431,-0.1419096398562193,1.170738600592315
1667824722625520400,3.486520263671875,-0.8056944513499736,-0.2119596198990941,1.0833990475744009
1667824722635528400,3.496528564453125,-0.9845178175836801,-0.20400135437101125,0.8955787204146385
1667824722645536500,3.50653662109375,-1.1610615484476088,-0.09074176267683505,0.6560716067679226
1667824722655543300,3.516543212890625,-1.3399661632239819,-0.014437690675258635,0.4284839173652231
1667824722665551400,3.52655126953125,-1.4857827473908662,0.009303981048613786,0.2502710842452943
1667824722675558400,3.536558349609375,-1.579277608168125,0.029268180060386655,0.10631021094769239
1667824722685566500,3.54656640625,-1.5860247443407773,0.061209817113727326,0.02554272979646921
1667824722695574300,3.55657421875,-1.4690233357697724,0.05013970317542553,0.01293152389600873
1667824722705581300,3.566581298828125,-1.3187684768944978,-0.011992927871644497,0.04977744573429226
1667824722715589400,3.57658935546875,-1.1494587889373302,-0.09210267576649785,0.16004180113524197
1667824722725597400,3.586597412109375,-0.9826830033719539,-0.148975778850168,0.2849313326075673
1667824722735604200,3.596604248046875,-0.8142302245050668,-0.25990239755213257,0.416524745632708
1667824722745612300,3.6066123046875,-0.70704235394001,-0.42564533293843265,0.5153267729073763
1667824722755620400,3.616620361328125,-0.714448246282339,-0.5844194522254169,0.5648813696712255
1667824722765627400,3.62662744140625,-0.7186720014572143,-0.7105227434016764,0.5790267994016408
1667824722775635200,3.63663525390625,-0.7562164269536733,-0.8124260976925491,0.5884020921207964
1667824722785643300,3.646643310546875,-0.8149135305941104,-0.9202151490211486,0.5155924381062388
1667824722795650300,3.656650390625,-0.9842080209821462,-1.022829135799408,0.25276918467134235
1667824722805658400,3.666658447265625,-1.276613342732191,-1.0434934459045528,-0.1741249792844057
1667824722815666400,3.67666650390625,-1.549693201765418,-0.952380219566822,-0.6409452031761408
1667824722825673200,3.686673095703125,-1.719119794100523,-0.7888865244120359,-1.0549036054521799
1667824722835681500,3.696681640625,-1.8276333603113888,-0.6145527246825396,-1.3660202035434543
1667824722845689300,3.706689453125,-1.8916075275719164,-0.5439562166728079,-1.6071579871319233
1667824722855696400,3.7166962890625,-1.8919167396515606,-0.562486729619652,-1.7392852147728204
1667824722865704200,3.7267041015625,-1.7566963683009147,-0.5794635833837092,-1.7520543877139687
1667824722875712500,3.73671240234375,-1.5601549745470285,-0.582771538887918,-1.6689534951791167
1667824722885719300,3.74671923828125,-1.2266653627365827,-0.560041674555093,-1.5826014918938278
1667824722895727400,3.756727294921875,-0.9325351168900727,-0.5001448397360742,-1.5572785423278808
1667824722905734400,3.766734375,-0.585887917342782,-0.44680867860689755,-1.4447107322901487
1667824722915742500,3.776742431640625,-0.17097265273332596,-0.4816873920254409,-1.2161413383737205
1667824722925750300,3.786750244140625,0.1624228510528803,-0.5603899034708738,-1.0178820347860456
1667824722935757300,3.79675732421875,0.4332032009720802,-0.6087957685910165,-0.8808055141746998
1667824722945765400,3.806765380859375,0.7235732175022364,-0.6123161978021263,-0.7726447069242596
1667824722955773400,3.8167734375,1.021303533667326,-0.594857551870495,-0.7195198504582047
1667824722965780200,3.8267802734375,1.3067419390141963,-0.5806554235167801,-0.6545216008469462
1667824722975788300,3.836788330078125,1.5881021351367235,-0.6208664378739893,-0.4595917339429259
1667824722985796400,3.84679638671875,1.7414713266402482,-0.7054083229973912,-0.277766555544734
1667824722995803400,3.856803466796875,1.8437837001234292,-0.7447371476925909,-0.16893530168682336
1667824723005811500,3.8668115234375,1.9246797760903833,-0.7304100777849555,-0.11071984408348798
1667824723015819300,3.8768193359375,1.9150731588333845,-0.7054977548465132,-0.0839405582293868
1667824723025827000,3.8868271484375,1.878051880428195,-0.6542530130386353,-0.09491904836148023
1667824723035835100,3.896835205078125,1.8563322160512208,-0.5759925462722778,-0.14150895010083914
1667824723045843200,3.90684326171875,1.8700521138459443,-0.5722437151327728,-0.1126581186696887
1667824723055850000,3.91685009765625,1.8525836771726607,-0.6483110557690263,-0.08195186863020062
1667824723065858000,3.926858154296875,1.8175532803237437,-0.6422466411635279,-0.09277706789672374
1667824723075866000,3.9368662109375,1.8344746045082807,-0.5438631315618753,-0.07404270294085144
1667824723085873200,3.946873046875,1.8074515730261802,-0.44926323215216396,-0.054533992611616844
1667824723095881000,3.956880859375,1.7393296384364365,-0.4084448995515704,-0.030163959856331347
1667824723105889000,3.966888916015625,1.675905506274104,-0.3636190848752856,-0.055541123827546834
1667824723115896000,3.97689599609375,1.5481091474443673,-0.2261108948484063,-0.05302607226669788
1667824723125904100,3.986904052734375,1.3919307437390087,-0.1111784015059471,-0.04775061608180403
1667824723135912200,3.996912109375,1.2443594248592853,-0.03504354859143495,-0.10539075801521539
1667824723145919000,4.0069189453125,1.1106833603411912,0.01606733770370483,-0.15167816967666148
1667824723155927300,4.01692724609375,1.0060738158315419,0.10507307036817073,-0.22964842132478952
1667824723165934000,4.02693408203125,0.812836724320054,0.1868275167301297,-0.28219971568658947
1667824723175942100,4.036942138671875,0.6769418147087096,0.1923652771130204,-0.26686697586774827
1667824723185950000,4.046949951171875,0.5257008674055338,0.15348200422823427,-0.26431860655918715
1667824723195957200,4.056957275390625,0.25864041479229927,0.13229483929276464,-0.31764599986001846
1667824723205965000,4.066965087890625,-0.009929857861995696,0.22184593088030813,-0.5410374066166579
1667824723215973000,4.07697314453125,-0.2970838349550962,0.48753714096695183,-0.8922349629446864
1667824723225980200,4.086980224609375,-0.5606938548535109,0.781377756217122,-1.178633445495367
1667824723235988200,4.09698828125,-0.7067214514225721,0.9116662241235375,-1.324847066155821
1667824723245996000,4.10699609375,-0.8010977712094783,0.9170528855979442,-1.4052199950315056
1667824723256003000,4.117003173828125,-0.8213473630338907,0.94065295689404,-1.466189573648572
1667824723266011000,4.127010986328125,-0.7938608056932688,1.0908496558412908,-1.4693965529963373
1667824723276019200,4.137019287109375,-0.8110971871763467,1.2811366653755307,-1.4974334376960992
1667824723286026000,4.14702587890625,-0.7173007131040096,1.465693606825173,-1.5288614261388778
1667824723296034000,4.157033935546875,-0.6108551853388547,1.57718881919533,-1.5147149734951555
1667824723306042000,4.1670419921875,-0.5526327134728432,1.5682769062042234,-1.48267528289482
1667824723316049200,4.177049072265625,-0.4860147537052631,1.5004188832476735,-1.4336276127398013
1667824723326057200,4.18705712890625,-0.335100554138422,1.4703522462859748,-1.3855115243464708
1667824723336065000,4.19706494140625,-0.16633680962622166,1.4751923797935247,-1.3560241485774516
1667824723346072300,4.207072265625,0.018850830942392347,1.4124737655520438,-1.3268646895885468
1667824723356080000,4.217080078125,0.16061024867296217,1.2688108522877097,-1.2212819161325692
1667824723366088200,4.227088134765625,0.25450901407599447,1.0506675753176211,-1.0614917516708373
1667824723376095000,4.237094970703125,0.2353109771311283,0.8205413073480129,-0.9337966612584888
1667824723386103000,4.24710302734375,0.11704057153761387,0.6391662108048797,-0.8690425956666469
1667824723396110000,4.257110107421875,0.0377712199896574,0.5343304563239216,-0.8224996018089353
1667824723406118100,4.2671181640625,-0.02384206335842609,0.46074119623899457,-0.791229726537317
1667824723416126000,4.2771259765625,-0.17048399243354798,0.428908426387608,-0.7812795565396546
1667824723426133200,4.28713330078125,-0.2780921342372894,0.4488309782147407,-0.7887459468975663
1667824723436141000,4.29714111328125,-0.3389993151426315,0.5263339046120643,-0.8621861539006233
1667824723446149000,4.307149169921875,-0.3503624206781387,0.6159925482273102,-0.9194470872581004
1667824723456156000,4.317156005859375,-0.35651743617653847,0.6432201623708009,-0.866698078367114
1667824723466164200,4.327164306640625,-0.3017220161497593,0.6286757964506745,-0.7493541399687528
1667824723476172300,4.33717236328125,-0.18687632430791853,0.6094076168790459,-0.6179134332872926
1667824723486179000,4.347178955078125,-0.031075521743297575,0.5688555339992046,-0.47276510377079245
1667824723496187100,4.357187255859375,0.18732815972864628,0.5340720976486801,-0.3252494606010616
1667824723506195000,4.36719482421875,0.41143677484393115,0.4998842891037464,-0.14600903799906373
1667824723516202200,4.3772021484375,0.5929951189994812,0.440251365917921,0.07259761869907379
1667824723526210000,4.3872099609375,0.8054553818970919,0.39181320596337316,0.26016324044540523
1667824723536218000,4.397218017578125,1.0069026678711175,0.3113771487236023,0.4155189295910299
1667824723546225200,4.40722509765625,1.1243103191554547,0.1911062169626355,0.507090421090275
1667824723556233200,4.417233154296875,1.1917916177541017,0.0919268808081746,0.593444908593595
1667824723566241000,4.427240966796875,1.2459814731031655,-0.02580371882021427,0.7082664889074861
1667824723576248000,4.437248046875,1.3073258763819933,-0.10170125584751367,0.8469080668784678
1667824723586256100,4.447256103515625,1.3350474115222692,-0.1766013062700629,0.9016058717496692
1667824723596264200,4.45726416015625,1.298633451360464,-0.23334201514571903,0.9559135082595049
1667824723606271000,4.46727099609375,1.2724644063591957,-0.19761779081374406,1.003797833723575
1667824723616279000,4.477279052734375,1.21189917075932,-0.17659399974644183,1.0177492021866141
1667824723626287000,4.487287109375,1.1153203724920748,-0.23021306947022674,1.031361401823163
1667824723636294100,4.497294189453125,0.9552215804725885,-0.2962824554443359,1.051328085052967
1667824723646302000,4.507302001953125,0.800952809780836,-0.3607338848277926,1.121238072103262
1667824723656310000,4.51731005859375,0.6579015986740588,-0.41127573906332254,1.1267132886439561
1667824723666317000,4.527317138671875,0.568327126210928,-0.40149259619563815,1.126987721671164
1667824723676325000,4.5373251953125,0.4979144503355026,-0.37265491650700566,1.165304300583899
1667824723686332000,4.547331787109375,0.3775777598619461,-0.3595011281624436,1.2024416065841912
1667824723696340000,4.557340087890625,0.291862300914526,-0.365880600066483,1.3042089134052395
1667824723706348300,4.567348388671875,0.2397586041897535,-0.3942945013850927,1.3777645634815097
1667824723716355000,4.57735498046875,0.15199790315032005,-0.38417233582139015,1.421767079076171
1667824723726363100,4.587363037109375,0.06733224551677704,-0.3893587985485792,1.4999544806063174
1667824723736371000,4.597370849609375,0.01058978307545185,-0.39475510463416574,1.5964108215376733
1667824723746378200,4.607378173828125,-0.06129296535253524,-0.36832419382631776,1.5943252474352716
1667824723756386000,4.617385986328125,-0.10113514639735222,-0.3264940538346767,1.5714795016378162
1667824723766394000,4.62739404296875,-0.17548633076548575,-0.281265211315453,1.5505977493897078
1667824723776401200,4.637401123046875,-0.2905634932756424,-0.2572594818279147,1.5421762502640486
1667824723786409200,4.6474091796875,-0.48166824893355364,-0.26237580192834137,1.4787208461806178
1667824723796417000,4.6574169921875,-0.676806790152192,-0.2934787962004542,1.395225693631172
1667824723806424000,4.667424072265625,-0.8712947585076093,-0.26610008314847944,1.386557526268065
1667824723816431900,4.677431884765625,-1.019040849432349,-0.23934622399657962,1.288693072104454
1667824723826440200,4.687440185546875,-1.1656868701606988,-0.1817670184701681,1.1041261937826872
1667824723836447000,4.697447021484375,-1.3346399997651577,-0.10436462983787059,0.945860170148313
1667824723846455000,4.707455078125,-1.5016495940864085,-0.039592297936975954,0.8510515964239835
1667824723856463000,4.717463134765625,-1.6535101345926522,0.022711305762827396,0.735360685929656
1667824723866470100,4.72747021484375,-1.756578294879198,0.06956219652593136,0.5955421731337904
1667824723876478200,4.737478271484375,-1.7672399741470812,0.14951426964104175,0.4215951807647943
1667824723886486000,4.747486083984375,-1.6630623913139104,0.21529694762825966,0.27739158475250003
1667824723896493300,4.757493408203125,-1.4922674332350492,0.21036592096686363,0.2806175610616803
1667824723906501000,4.767501220703125,-1.3169710720837116,0.1933446435391903,0.3358998878225684
1667824723916508200,4.777508056640625,-1.1612696382403374,0.22058643233850597,0.35342823798954487
1667824723926516000,4.787515869140625,-1.009270566046238,0.18798808494210242,0.3779220432549715
1667824723936524000,4.79752392578125,-0.9059849636167288,0.030690029557049272,0.45600130823552604
1667824723946531000,4.807531005859375,-0.7975970696121454,-0.12580372370779513,0.4996138015992939
1667824723956539100,4.8175390625,-0.7203969255536794,-0.1635962787464261,0.5444923693761229
1667824723966547000,4.827546875,-0.5949935993403196,-0.15312208487465978,0.5123828284099697
1667824723976554200,4.83755419921875,-0.4868173022598028,-0.10646598603129387,0.3973876450948417
1667824723986562000,4.84756201171875,-0.4326929133623838,-0.07698211739361285,0.25984087662324307
1667824723996570000,4.857570068359375,-0.3746878836393356,-0.05034925427287817,0.06806698953211307
1667824724006577000,4.867576904296875,-0.2836100208759308,-0.05701718772947788,-0.12628580813631415
1667824724016585200,4.877585205078125,-0.1638292107194662,-0.17701602455079554,-0.28640125902965663
1667824724026593300,4.88759326171875,-0.07569850732386112,-0.32696430169492957,-0.40638402149900793
1667824724036600000,4.89760009765625,0.08469663729369639,-0.4440362912841141,-0.5511687784001231
1667824724046608100,4.907608154296875,0.17459844201505184,-0.5579485016681254,-0.7470851721234619
1667824724056616200,4.9176162109375,0.16466683058738707,-0.7011838371701539,-0.882360342401266
1667824724066623200,4.927623291015625,0.1865384706556797,-0.8608213683534413,-1.0202204146057368
1667824724076631300,4.93763134765625,0.23417700466513633,-0.9644196169286966,-1.3092511453561484
1667824724086639000,4.94763916015625,0.25020927105546,-0.9695323568325489,-1.6089289423272013
1667824724096646400,4.957646484375,0.3465776414424181,-0.9738349493972956,-1.7402970221638678
1667824724106654200,4.967654296875,0.4571510627925396,-1.13175793174766,-1.7578697959944605
1667824724116662300,4.977662353515625,0.6128162562787532,-1.3118907000795006,-1.7176586355067789
1667824724126669000,4.9876689453125,0.8965794218897819,-1.2919969359554349,-1.6490737595804035
1667824724136677400,4.997677490234375,1.130757011076808,-1.1932205545786767,-1.4969149667799473
1667824724146685200,5.007685302734375,1.2854489756166934,-1.243699791906774,-1.2091617086194455
1667824724156692200,5.017692138671875,1.3251824355900288,-1.4362360416725277,-0.9184358643889426
1667824724166700000,5.027699951171875,1.3423375685304402,-1.5320359645217656,-0.6952642378628253
1667824724176708000,5.0377080078125,1.3305372406214475,-1.442703922512382,-0.5291197359383106
1667824724186715100,5.047715087890625,1.1666560074537993,-1.3689771536529063,-0.3682876612082124
1667824724196723200,5.05772314453125,0.9136106361895799,-1.361625914107263,-0.2382780102431774
1667824724206731300,5.067731201171875,0.6973147406518458,-1.4113323404319584,-0.19561258847117424
1667824724216738300,5.07773828125,0.5960258649975061,-1.4699670463606713,-0.3339171895727515
1667824724226746400,5.087746337890625,0.5785778865903616,-1.4997075201079249,-0.5074292976558208
1667824724236753200,5.097753173828125,0.7477326762467622,-1.3977967131629585,-0.5662538270682096
1667824724246761200,5.10776123046875,0.8920961389958858,-1.1911182485371827,-0.5490396574169397
1667824724256769300,5.117769287109375,0.8334604101538657,-1.0387897251930087,-0.574779955612123
1667824724266776300,5.1277763671875,0.6464929004311561,-1.0033550583921371,-0.6660913348704576
1667824724276784000,5.1377841796875,0.4516629867702722,-0.9884196473278105,-0.7446510768443345
1667824724286792200,5.147792236328125,0.22652619765102863,-0.951220966529101,-0.8253422778889536
1667824724296799200,5.15779931640625,-0.006855857244133949,-0.9614254766140132,-0.9121794343426823
1667824724306807300,5.167807373046875,-0.21819325359165667,-0.8881169331666081,-0.9712249130293726
1667824724316815000,5.177815185546875,-0.2178179905384779,-0.7576135804004966,-0.8546785547494887
1667824724326822400,5.187822509765625,-0.028482582640647885,-0.6573140080444514,-0.6617185266137122
1667824724336830200,5.197830322265625,0.14517185652256012,-0.5468649437263607,-0.5330833788722753
1667824724346838300,5.20783837890625,0.28047464545965195,-0.4080286469008773,-0.43667964491099115
1667824724356845000,5.217844970703125,0.3071960636466741,-0.31567009667716917,-0.3361559084102511
1667824724366853000,5.22785302734375,0.247999193790555,-0.3109541740711778,-0.2182704104810953
1667824724376861400,5.237861328125,0.1656558416247368,-0.28928633121298625,-0.16921557993292807
1667824724386868200,5.2478681640625,0.08374152852594852,-0.18459822330810127,-0.16830051091462372
1667824724396876300,5.257876220703125,0.09761924723088741,-0.0045074674870818855,-0.2602376208558678
1667824724406884000,5.267884033203125,0.05047112708687782,0.18821550048980862,-0.5131833311378956
1667824724416891400,5.277891357421875,-0.12375438996255397,0.3372474299740046,-0.6424892177477478
1667824724426899200,5.287899169921875,-0.27403379875719547,0.4944840374954044,-0.6637596770524978
1667824724436907300,5.2979072265625,-0.3761065182656049,0.7136554884694516,-0.7097402147218584
1667824724446914300,5.307914306640625,-0.39953590916991233,0.9374621980287134,-0.7282847561940551
1667824724456922400,5.31792236328125,-0.38400223995149135,1.1049784266978502,-0.7553110025465488
1667824724466930200,5.32793017578125,-0.3500526240766048,1.2091596627928316,-0.7910282126158475
1667824724476937200,5.337937255859375,-0.2527472651004791,1.3044509054675697,-0.8851379904210567
1667824724486945300,5.3479453125,-0.19414426948428154,1.4422722530968486,-0.8819219509840011
1667824724496952300,5.357952392578125,-0.10879296767413615,1.5125266696706414,-0.7840832157835363
1667824724506960100,5.367960205078125,0.11986615035235881,1.4635893280223011,-0.7004205977126956
1667824724516968200,5.37796826171875,0.34643969427645205,1.4067616715155542,-0.6373349037244915
1667824724526975200,5.387975341796875,0.5431862552136183,1.354908004029095,-0.5819166756242513
1667824724536983300,5.3979833984375,0.6160398945003748,1.267872110132873,-0.5920318269252777
1667824724546991000,5.4079912109375,0.5666869577884673,1.2011489364251493,-0.6010512919440865
1667824724556998100,5.417998046875,0.42525370327234263,1.0970498256556689,-0.5820715739250183
1667824724567006200,5.428006103515625,0.2071691707521677,0.9363102515146136,-0.6285661985963583
1667824724577014300,5.43801416015625,0.032256255960464476,0.7750190348401665,-0.7764791705206036
1667824724587021000,5.44802099609375,-0.07348258484005928,0.7441988760974257,-1.0062161469116806
1667824724597029000,5.458029052734375,-0.2925339165657759,0.8818686133615672,-1.2123384389594196
1667824724607037200,5.468037109375,-0.5596686034590006,1.004216205266118,-1.408763805118203
1667824724617044200,5.478044189453125,-0.7620335887998342,1.022892994815856,-1.5811857798770068
1667824724627052300,5.48805224609375,-0.9796253693670034,0.9791977916046977,-1.6489382966324686
1667824724637060000,5.49806005859375,-1.1976374211728573,0.8952956656895578,-1.595751188585162
1667824724647067400,5.5080673828125,-1.3134195170819758,0.822479728064686,-1.5167431183218956
1667824724657075200,5.5180751953125,-1.2695675158739088,0.7990504102256148,-1.4297256368651985
1667824724667083300,5.528083251953125,-1.1291501604020595,0.847246066661179,-1.3359291627928613
1667824724677090000,5.538090087890625,-0.9106547089934348,0.8663406432315707,-1.159552605189383
1667824724687098400,5.548098388671875,-0.6075789401471614,0.7207770109124482,-0.9058142832249403
1667824724697106200,5.558106201171875,-0.2703583251148462,0.528447499232553,-0.6431798303604126
1667824724707113200,5.56811328125,0.11381576427221297,0.3371940923515707,-0.3346145241871476
1667824724717121000,5.57812109375,0.556189529171586,0.18194412860274314,-0.08024608762562274
1667824724727128300,5.58812841796875,0.9296715441524982,0.05076718742400407,0.10639818149209022
1667824724737136000,5.59813623046875,1.292501232215762,-0.09626337564252316,0.30779841345399617
1667824724747144200,5.608144287109375,1.559818289938569,-0.2266787213316187,0.4783604395598173
1667824724757151200,5.618151123046875,1.7515139972269533,-0.33352713080924,0.6044564242124557
1667824724767159300,5.6281591796875,1.9270985276699064,-0.48324711562283335,0.7635352255344391
1667824724777167400,5.63816748046875,1.9778917263180016,-0.6623924072872847,0.8613570096001029
1667824724787174100,5.648174072265625,2.014351863709092,-0.7883497141215949,0.9010819940060376
1667824724797182200,5.65818212890625,1.9712825373113154,-0.8548221279386431,0.819651372770965
1667824724807190300,5.668190185546875,1.9453642522007226,-0.8992517829041927,0.6751037856265902
1667824724817197300,5.678197265625,1.8874930779904127,-0.9049388886298984,0.5501537561386823
1667824724827205000,5.688205078125,1.725968052560091,-0.9253763311766088,0.4404530259698629
1667824724837213200,5.698213134765625,1.6201479632169007,-0.9581167904574424,0.32322891455888747
1667824724847220200,5.70822021484375,1.5428800146192312,-0.9654610888056456,0.2667132466107607
1667824724857228300,5.718228271484375,1.418514214760065,-0.9578012217022478,0.2038727595552802
1667824724867236000,5.728236083984375,1.298387367644906,-0.916473697470501,0.15676321785598993
1667824724877243400,5.738243408203125,1.223693653449416,-0.8169378760285675,0.19538199458569286
1667824724887251200,5.748251220703125,1.0677052193582057,-0.700405838534981,0.2649126269295812
1667824724897259300,5.75825927734375,0.8701397432535887,-0.6139457717653364,0.34989743351489305
1667824724907266000,5.76826611328125,0.7394406487196683,-0.5186742567043752,0.395373821054399
1667824724917274000,5.778274169921875,0.5531166975975036,-0.39381807951238,0.38696372010558844
1667824724927282400,5.788282470703125,0.3890332198560238,-0.27743944248221813,0.3663657532349229
1667824724937289200,5.798289306640625,0.24489129090309142,-0.19865761872287838,0.3120674690753221
1667824724947297300,5.80829736328125,0.08857260194420814,-0.13035338636878877,0.2638575649186969
1667824724957305000,5.81830517578125,-0.024153029003739356,-0.05941529837977141,0.21958120081871746
1667824724967312400,5.8283125,-0.0696036975800991,0.04911591308563947,0.19963409907221794
1667824724977320200,5.8383203125,-0.1911953565508127,0.16376447492018342,0.15048048432469366
1667824724987328300,5.848328369140625,-0.26126842520833016,0.24182240485176443,0.21387802074104545
1667824724997335300,5.858335205078125,-0.32105507765114305,0.2499266547217965,0.3194061414003372
1667824725007343400,5.86834326171875,-0.43065643909871576,0.23548531078472731,0.38995325731039043
1667824725017350100,5.87835009765625,-0.4549702116221189,0.26362536359801886,0.4513891382649541
1667824725027361300,5.888361328125,-0.5161287369400263,0.3138864281307906,0.4742909981638193
1667824725037369600,5.89836962890625,-0.5844739588916301,0.3218973006289452,0.5046639245957136
1667824725047376400,5.90837646484375,-0.6598667612671851,0.25064386308044195,0.5385986351624131
1667824725057384400,5.918384521484375,-0.7383721427053213,0.11077668883726,0.5378524929702282
1667824725067392300,5.928392333984375,-0.8291840480089188,-0.004681764608062804,0.5337812980085611
1667824725077399600,5.938399658203125,-0.9122013539135455,-0.03417995403204113,0.505291701105237
1667824725087407400,5.948407470703125,-0.9640268182188272,0.026830175791122016,0.4180252133235335
1667824725097415400,5.95841552734375,-0.9668056352823973,0.08689560864269733,0.3318912367030978
1667824725107422500,5.96842236328125,-0.9021049073129892,0.12059081136509775,0.28623656998723745
1667824725117430500,5.978430419921875,-0.8155190952718258,0.1424167856607586,0.29436347008049485
1667824725127438300,5.988438232421875,-0.7057324403852224,0.17005239608325062,0.3234250216528773
1667824725137445400,5.9984453125,-0.59611178971529,0.1538385625809431,0.3620756548255682
1667824725147453200,6.008453125,-0.5327420180886984,0.16385072843153028,0.3991439872428775
1667824725157461500,6.01846142578125,-0.4579039269864559,0.13217848290409892,0.47955607908517117
1667824725167468300,6.02846826171875,-0.3866308348894119,0.03228668763134628,0.5344049828648567
1667824725177476400,6.038476318359375,-0.3575432720929384,-0.035140524426195766,0.589159194098413
1667824725187484400,6.048484375,-0.2869312742531299,-0.02791661932095885,0.6312725349456072
1667824725197491500,6.058491455078125,-0.2581231129199266,0.01656555128311738,0.5978793839097023
1667824725207499500,6.06849951171875,-0.25024492689073086,0.061023062369972465,0.47473289671242236
1667824725217507300,6.07850732421875,-0.3204255475759506,0.11762741324855014,0.23023060512691734
1667824725227514600,6.0885146484375,-0.3883732946425676,0.15656627051178365,-0.06367196944355964
1667824725237522400,6.0985224609375,-0.44299218905866145,0.09327590253064408,-0.27032529962807894
1667824725247530500,6.108530517578125,-0.48226270769536494,-0.07151079157674685,-0.362775327527523
1667824725257537300,6.118537353515625,-0.5052794261455535,-0.21337323129037394,-0.461350268048048
1667824725267545300,6.12854541015625,-0.5262742833793163,-0.30829167686365544,-0.5734229880452155
1667824725277552400,6.138552490234375,-0.5698825389593839,-0.41896402854360637,-0.6805062291920184
1667824725287560400,6.148560546875,-0.5859884551078081,-0.5127748234022408,-0.868249691723287
1667824725297568300,6.158568359375,-0.5808961004048585,-0.5187251831740141,-1.1037860020428896
1667824725307575600,6.168575439453125,-0.5790355672299862,-0.5506602078234777,-1.294565763530135
1667824725317583400,6.178583251953125,-0.5073755216419696,-0.6776254861239344,-1.342172148835659
1667824725327591400,6.18859130859375,-0.3496896359831094,-0.8868853455450385,-1.3022890512585639
1667824725337598200,6.19859814453125,-0.16746844400465488,-1.0380074887741357,-1.194260345955193
1667824725347606500,6.2086064453125,0.06996084045469761,-1.1103007907643914,-0.9475637591958045
1667824725357614300,6.2186142578125,0.311858794760704,-1.2103510645344853,-0.6468079577296972
1667824725367621400,6.228621337890625,0.5506786567956209,-1.328400813114643,-0.3630325171589851
1667824725377629200,6.238629150390625,0.7577928824901581,-1.420353120625019,-0.14026830238997937
1667824725387637500,6.248637451171875,0.9544646246254443,-1.422986683999002,0.12881956439763306
1667824725397644300,6.258644287109375,1.0526976198405027,-1.367524178365618,0.2995648381158709
1667824725407652400,6.26865234375,1.130363043323159,-1.3290196756653487,0.3602119067803025
1667824725417660400,6.278660400390625,1.1790928797006606,-1.399098881802708,0.4278796678617596
1667824725427667500,6.28866748046875,1.1886229245901108,-1.5104583389639854,0.5842416114404797
1667824725437675500,6.298675537109375,1.1448030720859765,-1.6294862849265337,0.6501549300700425
1667824725447683300,6.308683349609375,1.116325165620446,-1.6977781692557037,0.6696592564851045
1667824725457690400,6.3186904296875,1.0570663364440203,-1.693067361216247,0.6815957779943943
1667824725467698400,6.328698486328125,0.9457108248054981,-1.6044346996478736,0.6339683499008417
1667824725477706500,6.33870654296875,0.8013806798040867,-1.49279730232805,0.5706728125542402
1667824725487713300,6.34871337890625,0.6675234135001897,-1.4199518463477492,0.39834874521195884
1667824725497721300,6.358721435546875,0.489845710170269,-1.362061236784607,0.22028671873956918
1667824725507729400,6.3687294921875,0.3773755152881145,-1.3387652630016207,0.1393713535502553
1667824725517736400,6.378736328125,0.23563129512667655,-1.278008596482873,0.05154021762311458
1667824725527744300,6.388744140625,0.09641863926947117,-1.0566220267426223,-0.05027297416627407
1667824725537752300,6.39875244140625,-0.04561959540247917,-0.7719770367957651,-0.12310966231822967
1667824725547759400,6.40875927734375,-0.24115619602799415,-0.5721073388693854,-0.24036913730353116
1667824725557767400,6.418767333984375,-0.4991530522197485,-0.45622963709868486,-0.34827976918518544
1667824725567774200,6.428774169921875,-0.770607355877757,-0.22839411041475832,-0.5958557691276073
1667824725577782300,6.4387822265625,-0.9920020358592271,0.13830708531960845,-0.9216814221814275
1667824725587790600,6.44879052734375,-1.1778344040721653,0.44486631236746904,-1.1824264080375433
1667824725597797400,6.45879736328125,-1.2806447902053595,0.5502899497389793,-1.3485966289252043
1667824725607805400,6.468805419921875,-1.3064829958170652,0.6337813759613782,-1.5096017221346496
1667824725617813200,6.478813232421875,-1.307464408069849,0.9224505068577825,-1.658805318391323
1667824725627820500,6.488820556640625,-1.2040174775987862,1.343830145175755,-1.7641189195170996
1667824725637828400,6.498828369140625,-0.9714449855208397,1.698925439594686,-1.842838528227806
1667824725647836400,6.50883642578125,-0.6985247009634972,1.9407108734369276,-1.8314172627642749
1667824725657843500,6.518843505859375,-0.4407458714365959,2.0908213554054496,-1.726478924691677
1667824725667851500,6.5288515625,-0.15854045666158198,2.119945450820029,-1.5934823668703435
1667824725677859300,6.538859375,0.22067864066660403,2.085583016360551,-1.451959388244152
1667824725687866400,6.548866455078125,0.6301484993517399,2.042108470162749,-1.3698662114471196
1667824725697874400,6.55887451171875,1.0403928495407104,2.007963916237652,-1.2876532076627016
1667824725707882500,6.568882568359375,1.4559458275318145,1.9330141814544797,-1.1811541961446403
1667824725717889300,6.57888916015625,1.7430191406041382,1.8670595079012213,-1.0909738667428492
1667824725727897300,6.5888974609375,1.9322797297000884,1.837746319655329,-1.0173138795092702
1667824725737905400,6.598905517578125,1.987322402486205,1.8374565429285168,-0.9943021294951438
1667824725747912400,6.608912353515625,1.964759273022413,1.8385086823299526,-0.9762029937028884
1667824725757920500,6.61892041015625,1.9335200851500034,1.810754706224799,-0.9330766764208673
1667824725767928300,6.62892822265625,1.9015502449154853,1.7692608124502003,-0.8922212266802787
1667824725777935600,6.638935546875,1.7906173426032066,1.6691837968036531,-0.8094494199693203
1667824725787943400,6.648943359375,1.6838889062434435,1.5273551132291554,-0.6728507460027933
1667824725797951500,6.658951416015625,1.5834493408948183,1.3360956054009496,-0.5438695613026618
1667824725807958300,6.668958251953125,1.4255886831909417,1.1617715964131057,-0.4601856081828475
1667824725817966300,6.67896630859375,1.194827039927244,1.094276999941468,-0.3722986504152417
1667824725827973400,6.688973388671875,0.8842097696602343,1.1818695048071444,-0.4073661644041538
1667824725837981400,6.6989814453125,0.5670967076331377,1.421742529156804,-0.5412663930669427
1667824725847989200,6.7089892578125,0.30244273163974283,1.6933641522057354,-0.7329051094710827
1667824725857996500,6.71899658203125,0.1561082610785961,1.7773918041966854,-0.7678317536845802
1667824725868004400,6.72900439453125,0.15788111597001553,1.5690766782797871,-0.6202817698538303
1667824725878012400,6.739012451171875,0.21914602427184582,1.2762550308138132,-0.35192572447210546
1667824725888019200,6.749019287109375,0.34543022497296333,1.1094637554183602,-0.012452654337882995
1667824725898027500,6.759027587890625,0.6233616156905889,1.033274176641926,0.2673740486070514
1667824725908035300,6.769035400390625,0.8348831364333629,0.9878589447051286,0.4365618637502193
1667824725918042400,6.77904248046875,0.9422124612957239,0.9000254706904292,0.5792509635463357
1667824725928050200,6.78905029296875,1.012944286122918,0.8147952379766851,0.6834004893288016
1667824725938058500,6.79905859375,1.0251935268431902,0.6725616999283432,0.8141162427365779
1667824725948065300,6.809065185546875,1.131616842776537,0.5001990541413426,1.0112690463870764
1667824725958073300,6.8190732421875,1.1287567771703004,0.2184107687998563,1.1310539481967687
1667824725968081400,6.829081298828125,1.160028113746643,-0.0771079357303679,1.242593876491487
1667824725978088400,6.83908837890625,1.1026759949743747,-0.31229696698226034,1.342086224117875
1667824725988096500,6.849096435546875,0.9498983396232128,-0.4795581249117851,1.3933344730570911
1667824725998104300,6.859104248046875,0.7630752068072557,-0.5769947821173816,1.3919243139982223
1667824726008111400,6.869111328125,0.5964174946635962,-0.6875491334408521,1.2715817783057688
1667824726018119400,6.879119384765625,0.3198042008072138,-0.7057010953988879,1.1946548982307315
1667824726028124200,6.889124267578125,0.06842705501616,-0.7684682249572128,1.141538809593022
1667824726038131000,6.899130859375,-0.12578034283220768,-0.8886946599893272,1.0702139873087406
1667824726048139000,6.909138916015625,-0.32135143024921414,-0.9140350721467286,1.0068012533232569
1667824726058147000,6.91914697265625,-0.4481172769874334,-0.9071751232493668,0.9184732737898826
1667824726068154000,6.929154052734375,-0.48361236873865127,-0.8819116487856954,0.8925520660698414
1667824726078162000,6.939161865234375,-0.5339274284809827,-0.871970831138268,0.9139642719328402
1667824726088170000,6.949169921875,-0.5823439611256123,-0.8327842644579708,0.9196855721890926
1667824726098177000,6.959177001953125,-0.6548825431138277,-0.720128191614896,0.9321601460978388
1667824726108185000,6.96918505859375,-0.7675438766539097,-0.6271657572139054,0.957402723903954
1667824726118191900,6.97919189453125,-0.9134808723300695,-0.6316079043798148,0.9745257081404328
1667824726128200000,6.989199951171875,-1.0904302613854409,-0.6227361772686243,0.9615393853172659
1667824726138208000,6.9992080078125,-1.252698214137554,-0.5901094074953347,0.9511258355915546
1667824726148215000,7.009215087890625,-1.3619108685284853,-0.6078641502967104,1.0447405233561993
1667824726158222800,7.019222900390625,-1.463427123197913,-0.6608001696597784,1.0871592768907545
1667824726168231000,7.02923095703125,-1.6210896279811857,-0.6819842658553272,1.1020172388046978
1667824726178238000,7.039238037109375,-1.7374626755207776,-0.6314314518343657,1.068527057135105
1667824726188246000,7.04924609375,-1.7938713759630918,-0.4803489830285311,1.0492717370450495
1667824726198253800,7.05925390625,-1.9360621708482504,-0.30083365247529,0.9418284304141997
1667824726208261000,7.06926123046875,-2.111094912627339,-0.19218604808859527,0.820738875746727
1667824726218269000,7.07926904296875,-2.3243635692983866,-0.14618260446768253,0.6600307196572422
1667824726228277000,7.089277099609375,-2.492004447260499,-0.06097502197716385,0.4338999510645866
1667824726238283800,7.09928369140625,-2.5443553967446086,0.12800766349285841,0.24315496862977742
1667824726248292000,7.1092919921875,-2.463874331319332,0.279693852079194,0.13732961858958004
1667824726258300200,7.119300048828125,-2.2820430154412983,0.3484971747955307,0.10163520487397909
1667824726268307000,7.129306884765625,-2.049169494590163,0.3214517122859135,0.12718027275800703
1667824726278315000,7.13931494140625,-1.7990005555450914,0.32793749410863965,0.12895429669320582
1667824726288322800,7.14932275390625,-1.511329861101508,0.42627380356770006,0.09255436505675316
1667824726298330000,7.159330078125,-1.1904857958525419,0.5055457854641601,0.10010697239339351
1667824726308338000,7.169337890625,-0.8551999482750892,0.45076278652753676,0.2225058560937643
1667824726318346000,7.179345947265625,-0.5314034629613161,0.2923534819649532,0.42375761949568985
1667824726328353000,7.18935302734375,-0.2784551223307848,0.09278649331219493,0.6703472387492656
1667824726338361000,7.199361083984375,-0.12763386174440383,-0.1282999609703198,0.8340268118649721
1667824726348369000,7.209368896484375,-0.15730653095245362,-0.27441772004086523,0.8421540042191743
1667824726358376000,7.2193759765625,-0.3133861504584551,-0.2857505035033449,0.6778165517166257
1667824726368384000,7.229384033203125,-0.4656424122840166,-0.2255235964797437,0.32908640841543674
1667824726378392000,7.23939208984375,-0.6438835947155952,-0.06680318014137447,-0.17189356697052716
1667824726388398800,7.24939892578125,-0.8981079466313123,0.17835664377110078,-0.6416077587381005
1667824726398407000,7.259406982421875,-1.1964753916561603,0.36052729287240654,-1.118482928176224
1667824726408415000,7.2694150390625,-1.3018325396627186,0.5030155363341793,-1.5102940883129834
1667824726418422000,7.279422119140625,-1.389794900754094,0.48365693853273983,-1.6991244692981242
1667824726428430000,7.28943017578125,-1.3647598282188176,0.26331114654969423,-1.7456708241567014
1667824726438436900,7.299436767578125,-1.1634569191515445,0.01823514672946185,-1.664570165528357
1667824726448445200,7.309445068359375,-0.8174193759351969,-0.06850275060087442,-1.5071043523609637
1667824726458453000,7.319452880859375,-0.4108651124358177,-0.07425154165225104,-1.346224931357801
1667824726468460000,7.3294599609375,-0.024967267996072767,-0.14617865894492715,-1.2143860191389917
1667824726478467800,7.3394677734375,0.3146440415650606,-0.291747606759984,-1.0385203336670994
1667824726488476200,7.34947607421875,0.6310352190583944,-0.4511954423237592,-0.8673939516767859
1667824726498483000,7.35948291015625,0.899537102651596,-0.6106659463770687,-0.7317348966479301
1667824726508491000,7.369490966796875,1.133647471821308,-0.7727151418119669,-0.6496414275899529
1667824726518498800,7.379498779296875,1.451084358975291,-0.9393142556361853,-0.4803752865135669
1667824726528506000,7.389506103515625,1.6861714642226695,-1.081185170917213,-0.2806254521071911
1667824726538514000,7.399513916015625,1.7571125478863716,-1.1473946960143744,-0.11580518452376126
1667824726548522000,7.40952197265625,1.8912229121685027,-1.2398137442536652,0.08943126460015774
1667824726558529000,7.419529052734375,2.0090607715636493,-1.3349286074481903,0.24965426752120254
1667824726568537000,7.429537109375,2.009694977813959,-1.4173434174150228,0.33992169068455697
1667824726578545200,7.439545166015625,1.966644940638542,-1.4791585069455206,0.41049540234059095
1667824726588552000,7.449552001953125,1.9175790041744707,-1.45831343344599,0.4687427163869142
1667824726598560000,7.45956005859375,1.871729107147455,-1.3899576901003718,0.5343114593625068
1667824726608568000,7.469568115234375,1.7337106295108795,-1.3962810479030012,0.5377104541510344
1667824726618575000,7.4795751953125,1.6246090342789887,-1.3878981272220612,0.5210650242984295
1667824726628583000,7.4895830078125,1.4702917482703923,-1.2762903943881392,0.4697290970757603
1667824726638591000,7.499591064453125,1.3375947579175234,-1.0891333534426986,0.3581155190229416
1667824726648598000,7.509597900390625,1.2039672087162732,-0.9249963919483125,0.23148761945068835
1667824726658606000,7.519606201171875,1.003238884666562,-0.8443697075072676,0.22653964165449142
1667824726668614000,7.52961376953125,0.8884773639768362,-0.8300915182426571,0.3434937039524317
1667824726678621000,7.539620849609375,0.7983370743244886,-0.8166172657720744,0.4388327312916517
1667824726688629000,7.54962890625,0.7550339391708374,-0.7150209316037595,0.46408729179650543
1667824726698636000,7.559635986328125,0.7345990539073943,-0.531992953287065,0.44619887614548204
1667824726708643800,7.569643798828125,0.7117056695759296,-0.34676848783940073,0.4136383765414357
1667824726718652000,7.57965185546875,0.6767571057915687,-0.19943353499881922,0.30630379098206756
1667824726728660000,7.589659912109375,0.6239093127012253,-0.10832790744565426,0.15193039087206126
1667824726738667000,7.5996669921875,0.5955962414085865,-0.0783029176685959,0.0258721078813076
1667824726748674800,7.6096748046875,0.4975105457097292,-0.068125880112499,-0.06909048736095429
1667824726758682000,7.61968212890625,0.36569852149784565,-0.10651267471723258,-0.14973171178400516
1667824726768690000,7.62968994140625,0.22568507065176963,-0.16575623325929045,-0.3120651309877634
1667824726778698000,7.639697998046875,0.05133388139605522,-0.11649017111323773,-0.6173959852844476
1667824726788704800,7.649704833984375,-0.16422785464823245,0.07390723999291658,-0.917049670727551
1667824726798713000,7.659713134765625,-0.4022825775295496,0.25049685582518577,-1.1797267936900258
1667824726808721200,7.66972119140625,-0.571704493689537,0.33961949286758897,-1.39520143597275
1667824726818728000,7.67972802734375,-0.6777560537010431,0.4371848179541528,-1.567632763081789
1667824726828736000,7.689736083984375,-0.7644593546420335,0.6493100767437369,-1.70926855443269
1667824726838743800,7.699743896484375,-0.7605529948532581,0.9798279062017797,-1.823308190588653
1667824726848751000,7.709751220703125,-0.682390727764368,1.3421208570398389,-1.9302783267498016
1667824726858759000,7.719759033203125,-0.5758008230924606,1.6640734680525957,-2.050898218078911
1667824726868767000,7.72976708984375,-0.4513075974613428,1.890112320578098,-2.100949366188049
1667824726878774000,7.73977392578125,-0.22951427355110643,1.9829478406637906,-2.024301303054392
1667824726888782000,7.749781982421875,0.025970892080664634,1.9642637445904314,-1.8639216482669114
1667824726898790000,7.759789794921875,0.3305050430417061,1.9453670286796987,-1.716254760058224
1667824726908797000,7.769796875,0.7268406948655843,1.9835300244659184,-1.564732657726109
1667824726918805000,7.779804931640625,1.1120318523406982,2.0002409207701684,-1.4060957549527286
1667824726928813000,7.78981298828125,1.439694949954748,1.9670204959526656,-1.2464575661823152
1667824726938819800,7.79981982421875,1.759047315341234,1.9192155193351208,-1.0800076515704393
1667824726948828000,7.809827880859375,2.0028233384788034,1.8429134931601583,-0.9362345559298991
1667824726958836000,7.8198359375,2.188175814220309,1.7199729037985205,-0.8128323404058814
1667824726968843000,7.829843017578125,2.2829531160235406,1.5289930896945296,-0.6442331388056278
1667824726978851000,7.83985107421875,2.2288076843380926,1.1874454052433372,-0.46904053028970955
1667824726988859000,7.84985888671875,1.9907389329314231,0.8371819148950278,-0.4238227936863899
1667824726998866200,7.8598662109375,1.638670877379179,0.6439364939466119,-0.4076531646519899
1667824727008874000,7.8698740234375,1.2489110968142747,0.6375424089953303,-0.3793026839584112
1667824727018882000,7.879882080078125,0.7410399006098508,0.7965551593437791,-0.4813233810186386
1667824727028892400,7.889892333984375,0.2300818443059921,1.0348020437963306,-0.650025458471477
1667824727038900700,7.899900634765625,-0.14992694209516047,1.2414229330159723,-0.9388877007871865
1667824727048907500,7.909907470703125,-0.4695405887663364,1.3900615888662635,-1.2245435482770204
1667824727058915600,7.91991552734375,-0.7760270428389311,1.458652748402953,-1.3112322361707687
1667824727068923400,7.92992333984375,-0.9599117841154337,1.4308449962839482,-1.185591886331141
1667824727078930700,7.9399306640625,-0.9089151718497276,1.3483242417246102,-0.926501389683783
1667824727088938500,7.9499384765625,-0.6343348451256752,1.24413642975837,-0.5975675414815544
1667824727098946600,7.959946533203125,-0.2722124285489321,1.1581488758713006,-0.3465338023006916
1667824727108953600,7.96995361328125,-0.025215689799189565,1.0842951926965265,-0.13818915802836418
1667824727118961700,7.979961669921875,0.29802491519749164,0.9116613287527113,0.17178075424581765
1667824727128969500,7.989969482421875,0.5646347014337778,0.6917050110112876,0.4369406339347362
1667824727138976500,7.9999765625,0.7698287727206945,0.5085614434909075,0.6435957176849245
1667824727148984300,8.009984375,0.9340735785037279,0.3099499289320782,0.7969441586613655
1667824727158992600,8.01999267578125,1.0335305625557898,0.051446913316473365,0.8631766262426972
1667824727168999400,8.02999951171875,1.0447960529357194,-0.19543328638151286,0.9317553646892308
1667824727179007500,8.040007568359375,0.9481360061258077,-0.5051540462002158,0.9657473584011197
1667824727189015600,8.050015625,0.8923895689845085,-0.7893231622636318,1.00783994872123
1667824727199022600,8.060022705078126,0.7740408374577761,-0.9645326488491147,0.9604264556393026
1667824727209030700,8.07003076171875,0.6993348483026027,-0.9979947734680026,0.9141671010285616
1667824727219038500,8.08003857421875,0.613672580847144,-0.9680760205443948,0.8793149833559989
1667824727229045500,8.09004541015625,0.5099474179565906,-0.9641760174311697,0.7557941098883748
1667824727239053600,8.100053466796876,0.4189227466851473,-0.9707130910497158,0.6565747339844703
1667824727249061600,8.1100615234375,0.33707974525690076,-0.8825243007913232,0.678981503842771
1667824727259068400,8.120068359375,0.23207857108116148,-0.7970799869354814,0.6523495175048708
1667824727269076500,8.130076416015624,0.18516016803979873,-0.7388479435235261,0.6664160367801785
1667824727279084500,8.14008447265625,0.15793781459331513,-0.6707949825167655,0.7012897817626595
1667824727289091600,8.150091552734375,0.052636780688166615,-0.5655700825877488,0.7754337531208991
1667824727299099400,8.160099365234375,-0.05824760630726814,-0.4924605323111638,0.881219063411653
1667824727309107500,8.170107421875,-0.09745032040476799,-0.49319056361876423,1.010133904877305
1667824727319114500,8.180114501953126,-0.1139887827515602,-0.4662914142446592,1.1133221844121812
1667824727329122600,8.19012255859375,-0.190773331746459,-0.4212521394807845,1.163843872642517
1667824727339129300,8.20012939453125,-0.20513678814172742,-0.3647599985387176,1.2484805964425205
1667824727349137700,8.2101376953125,-0.24528818126618862,-0.30809074746407566,1.360581373490393
1667824727359145500,8.2201455078125,-0.35533085674047465,-0.27631642980165777,1.3674977287501096
1667824727369152500,8.230152587890625,-0.501291233292222,-0.2175662077344954,1.3164198679417372
1667824727379160300,8.240160400390625,-0.7003565925657749,-0.13403927180729805,1.2057540921330452
1667824727389168400,8.25016845703125,-0.9499199669331312,-0.04196852554902434,1.0748752571180462
1667824727399175400,8.260175537109374,-1.166333935892582,0.04372494076229631,0.9476137358173727
1667824727409183500,8.27018359375,-1.3201461949884892,0.08025536691062152,0.7848787500753999
1667824727419191600,8.280191650390625,-1.4056968187630177,0.0787335641708225,0.6855158740475773
1667824727429198600,8.290198486328125,-1.4465233346700668,0.07111936284005642,0.7225204935789108
1667824727439206700,8.30020654296875,-1.5069968003332614,0.07536321095488965,0.7579270302638411
1667824727449214500,8.31021435546875,-1.5337386767864227,0.08296338376030325,0.7667574024513364
1667824727459221500,8.320221435546875,-1.6173919425070284,0.09754260179810226,0.71978025496006
1667824727469229600,8.3302294921875,-1.7504875767886638,0.17181082059051841,0.6029913200959562
1667824727479237600,8.340237548828124,-1.8432324959814548,0.37297275028452276,0.40946196763962506
1667824727489244400,8.350244384765626,-1.8038561788827179,0.5273042109489441,0.24277707522809505
1667824727499252500,8.36025244140625,-1.676670060905814,0.5232239558979869,0.13179331951141357
1667824727509260500,8.370260498046875,-1.5274533129066228,0.48141624693386253,0.11803572005480527
1667824727519267600,8.380267578125,-1.3049609008163212,0.3886247486529872,0.21319471465200185
1667824727529275400,8.390275390625,-1.0642670616030692,0.24707141142114997,0.30813071414828297
1667824727539283500,8.400283447265625,-0.8573919053614139,0.11399124870328232,0.4745186694398522
1667824727549290500,8.41029052734375,-0.6631687254220247,0.030000220661982893,0.6709823217824101
1667824727559298600,8.420298583984374,-0.6365823317915201,0.012684271136671303,0.8053522137835621
1667824727569306600,8.430306640625,-0.5856371574521064,0.010336685097217559,0.8751736457675695
1667824727579313400,8.4403134765625,-0.5013017546862364,0.05920406678188592,0.7494099618092179
1667824727589321700,8.45032177734375,-0.4039969802320003,0.1849303413392976,0.5928770455777644
1667824727599329500,8.46032958984375,-0.3547808216422796,0.22301040808241812,0.44562166077941656
1667824727609336600,8.470336669921876,-0.369427771154046,0.11217574198022484,0.23965017537921665
1667824727619344400,8.480344482421875,-0.3863964416116476,-0.05836988098006695,0.004193067775666713
1667824727629352400,8.4903525390625,-0.3453752799153328,-0.20180355206578968,-0.23868951365351676
1667824727639359500,8.500359375,-0.216519767421484,-0.2860972345817834,-0.47428456842303274
1667824727649367600,8.510367431640624,-0.031139234629273413,-0.34857086108624935,-0.6974182010263205
1667824727659375400,8.520375244140626,0.06676116763055324,-0.5250280096452683,-0.8500178694620728
1667824727669382700,8.530382568359375,0.0105658176779747,-0.8353900630421937,-1.0208677725985646
1667824727679390500,8.540390380859375,-0.06841770266592502,-1.0967029119141398,-1.2740604433789848
1667824727689398500,8.5503984375,-0.06990647991895675,-1.2607625703886152,-1.534040290081501
1667824727699405300,8.5604052734375,-0.1156137536048889,-1.3684662815213202,-1.697757857120037
1667824727709413600,8.57041357421875,-0.20412205814123152,-1.5181199596330524,-1.6983204594388603
1667824727719421700,8.580421630859375,-0.29219898552298545,-1.6863091191276907,-1.6123773292154073
1667824727729428500,8.590428466796874,-0.30957915939092634,-1.7828621984317898,-1.495828048326075
1667824727739436500,8.6004365234375,-0.2741156318217516,-1.7990749359555542,-1.3108517124205827
1667824727749444600,8.610444580078125,-0.14843348866701125,-1.760349045589566,-1.1231474128559231
1667824727759451600,8.62045166015625,-0.009035539370775222,-1.7503151428312063,-0.9104638625964522
1667824727769459500,8.63045947265625,0.1825906098127365,-1.7447369043074548,-0.6495972961872816
1667824727779466800,8.640466796875,0.3717389707058668,-1.6249511257149278,-0.42482466420531273
1667824727789474600,8.650474609375,0.5351841505438089,-1.3822059069298207,-0.22827713297158478
1667824727799482600,8.660482666015625,0.6664122373878956,-1.2672701987169683,-0.11214695427715778
1667824727809489400,8.670489501953124,0.7667921815037727,-1.2670144703902304,-0.0014767945542931557
1667824727819497500,8.68049755859375,0.8312672840237617,-1.218974369842559,0.16616525245159863
1667824727829505500,8.690505615234375,0.825229757425189,-1.1096025793671607,0.2950269024252891
1667824727839512600,8.7005126953125,0.8612398129612207,-1.0015480820354075,0.3691422322109341
1667824727849520400,8.710520263671874,0.8317156123131513,-0.9620552989501505,0.36185149068087336
1667824727859528400,8.720528564453126,0.8544172734647989,-0.9296868147868662,0.3948708399683237
1667824727869535500,8.730535400390625,0.8539636844784021,-0.869108135183528,0.4114160243168473
1667824727879543600,8.74054345703125,0.8553221133500337,-0.82717226979509,0.3902966639205813
1667824727889551400,8.75055126953125,0.8929290826886892,-0.7762350595664232,0.34571401035040616
1667824727899558700,8.76055859375,0.8728186070740223,-0.6189682761024683,0.2802680169716477
1667824727909566500,8.77056640625,0.8187205216616391,-0.36342915179375557,0.16091829170882702
1667824727919574500,8.780574462890625,0.7503186010867356,-0.16044000667259095,0.031187457685172556
1667824727929581300,8.790581298828124,0.6779109520018101,-0.058873921512067315,-0.12556436199396848
1667824727939589400,8.80058935546875,0.6224029997915029,0.09040164400227367,-0.3061637979894876
1667824727949597700,8.81059765625,0.5930939031988381,0.3428865318395197,-0.5037044319137931
1667824727959604500,8.8206044921875,0.562929651081562,0.5173007033288478,-0.6542676260858774
1667824727969612500,8.830612548828125,0.5154992068648337,0.5317691544685512,-0.7954702867165208
1667824727979620400,8.840620361328124,0.4529758229345083,0.540897778950259,-0.909755422066152
1667824727989627600,8.850627685546876,0.3578437163442373,0.6634371670998632,-1.050723689419031
1667824727999635500,8.860635498046875,0.25414485693871974,0.849976368407905,-1.1785527814745902
1667824728009643500,8.8706435546875,0.1033972461104393,0.9599887218091636,-1.333650696466863
1667824728019650600,8.880650634765624,-0.061896776464581485,1.0411838537879288,-1.5456336972415445
1667824728029654800,8.89065478515625,-0.17549509859383106,1.2192320709306745,-1.7683885596603155
1667824728039662800,8.900662841796875,-0.22366145586967467,1.4820679646514354,-1.970339411242306
1667824728049669600,8.910669677734376,-0.16291618752777576,1.7155691158816218,-2.1241543006867167
1667824728059678000,8.920677978515625,-0.018651508978009223,1.8665952513903379,-2.174740578585863
1667824728069686000,8.93068603515625,0.17303893761336803,1.9637192624501882,-2.1288997416481372
1667824728079692800,8.94069287109375,0.4920142863810062,2.0362733342684805,-1.9792662295415997
1667824728089700900,8.950700927734376,0.8652718449562787,2.113516294555366,-1.8079753046393394
1667824728099708700,8.960708740234375,1.1930045006752013,2.122696064702421,-1.7033257203802465
1667824728109716000,8.970716064453125,1.5309639513760804,2.07083260647431,-1.5321686509907244
1667824728119723800,8.980723876953125,1.7479717945754527,1.9865625240296125,-1.3732321807488799
1667824728129731800,8.99073193359375,1.9158412205964326,1.9085941720776258,-1.2696209996268153
1667824728139739000,9.00073876953125,2.0188591120004653,1.8134430685259402,-1.1834510749101639
1667824728149747000,9.010746826171875,2.047442816928029,1.6704975097507238,-1.1243366226404905
1667824728159754800,9.020754638671875,2.0128888054192067,1.4959261018730698,-1.1103329394683241
1667824728169761800,9.03076171875,1.9177759880512952,1.3477692381903528,-1.0725298630356788
1667824728179769900,9.040769775390626,1.7213415618032215,1.2315439285583794,-0.9846770997986197
1667824728189778000,9.05077783203125,1.4952140080809593,1.1182789300367235,-0.9386533075094222
1667824728199784700,9.06078466796875,1.3190852877587078,1.0259281247280538,-0.9110337714388966
1667824728209792800,9.070792724609374,1.0827069736570119,0.9728213884405791,-0.8623635562941432
1667824728219800800,9.08080078125,0.7387304546236991,0.9574053542524575,-0.8161766823977231
1667824728229807900,9.090807861328125,0.355417950502038,0.9725967859044671,-0.8806275272592902
1667824728239816000,9.10081591796875,-0.008157587492465972,1.0610561367325484,-1.0164140080600976
1667824728249823700,9.11082373046875,-0.35121523811519145,1.1811068498715758,-1.104083815945685
1667824728259831000,9.1208310546875,-0.6116676707655191,1.233037528117001,-1.1026257260918617
1667824728269838800,9.1308388671875,-0.7616998268008232,1.1798498355478049,-1.0662824930787085
1667824728279847000,9.140846923828125,-0.784369339248538,1.046600472009182,-0.9127546038821339
1667824728289853700,9.150853759765624,-0.65301324211061,0.8731438935056328,-0.6092229079619049
1667824728299862000,9.160862060546876,-0.3233762140750885,0.7146127891942858,-0.23058833252340555
1667824728309869800,9.170869873046875,0.002809212201833725,0.5978767900938168,0.017803952237963674
1667824728319876900,9.180876953125,0.2556242818415165,0.4575898926012218,0.2840294153317809
1667824728329884700,9.190884765625,0.5436158788025379,0.2539524579054676,0.597294277498126
1667824728339893000,9.20089306640625,0.7170610591292381,0.10977805145503952,0.8325415417432784
1667824728349899800,9.210899658203125,0.8077823635399342,-0.10544109996296465,1.0124071105062962
1667824728359907800,9.220907958984375,0.9731436061322688,-0.3803179254155606,1.1718556219235061
1667824728369916000,9.230916015625,1.0581453638523817,-0.7059673451196402,1.2501561284393072
1667824728379923000,9.2409228515625,1.0758850186824798,-0.9033569532006979,1.2514160653725266
1667824728389931000,9.250930908203125,1.029983099207282,-1.0409584475342184,1.2706687551140785
1667824728399938800,9.260938720703125,0.9712561849504708,-1.2061753862850366,1.254528059913218
1667824728409945900,9.27094580078125,0.8745353478640318,-1.3311045191153883,1.1695093510583043
1667824728419954000,9.280953857421874,0.7165227144688368,-1.372097916021943,1.1216364237710832
1667824728429962000,9.2909619140625,0.5640829127699136,-1.387241709139943,1.053373619405925
1667824728439968800,9.30096875,0.4159095363438129,-1.4058191299684344,0.9899781288161873
1667824728449976800,9.310976806640625,0.21490356439650057,-1.389486857718229,1.000294063386321
1667824728459985000,9.32098486328125,0.027046996879577637,-1.3244570439249277,1.0076660534590482
1667824728469992000,9.330991943359376,-0.1399357094347477,-1.231534137816727,1.0403796977981925
1667824728479999700,9.340999755859375,-0.2735848859459162,-1.0791890286639332,1.1436430883958935
1667824728490007800,9.3510078125,-0.41592005773782725,-0.9020723202176392,1.211656886436045
1667824728500014800,9.361014892578124,-0.5447568655312061,-0.7162213203694671,1.2304042570039628
1667824728510023000,9.37102294921875,-0.6956576210945844,-0.5353096766196191,1.227119828505814
1667824728520030700,9.38103076171875,-0.8650392052441835,-0.3671427654894069,1.1803589541137218
1667824728530037800,9.391037841796875,-1.0148352144360542,-0.21100016374979166,1.1359423047602175
1667824728540045800,9.4010458984375,-1.1656903772920368,-0.12792444218881427,1.0779060031160712
1667824728550054000,9.411053955078126,-1.2759113319426774,-0.07355886494666337,1.014246308632195
1667824728560060700,9.421060791015625,-1.3137123625487088,-0.051066389566287396,0.9628694648772478
1667824728570068700,9.43106884765625,-1.3326952954381703,-0.04483209828659892,0.9723150463536381
1667824728580075800,9.44107568359375,-1.3806512248337268,-0.05066259453836828,0.9796060801446437
1667824728590083800,9.451083740234376,-1.4463953243762253,0.015623174132779239,0.9452411614671349
1667824728600092000,9.461091796875,-1.5217437030881642,0.117515422507748,0.8607166658699512
1667824728610099000,9.471098876953125,-1.5258067147433756,0.1678770613381639,0.8072785056710243
1667824728620107000,9.48110693359375,-1.5158546450495718,0.13317721161786467,0.7868710929363966
1667824728630114800,9.49111474609375,-1.498166428145766,0.05205477954912931,0.8644093829080461
1667824728640123000,9.501122802734375,-1.524621888872981,-0.044378472767584026,0.9384066392719745
1667824728650130000,9.5111298828125,-1.509656959453225,-0.07639054470863192,0.9521279983714223
1667824728660138000,9.521137939453125,-1.5110323394596576,0.002018281019851565,0.88750968798846
1667824728670144800,9.531144775390626,-1.5481950721621514,0.1107908269604668,0.7011348834618926
1667824728680152800,9.54115283203125,-1.5322060603916645,0.2101801160711795,0.5316857870340347
1667824728690160600,9.55116064453125,-1.4577736274808644,0.2656026550203562,0.4485846022382378
1667824728700168000,9.56116796875,-1.3594991312116385,0.26121010088352487,0.4412549900025129
1667824728710175700,9.57117578125,-1.2999340125650167,0.1942818147914484,0.42645109636336564
1667824728720183800,9.581183837890626,-1.300354868325591,0.11845127858575433,0.4257876640185714
1667824728730190800,9.59119091796875,-1.3753016804993152,0.053525016498472536,0.3565454932272434
1667824728740199000,9.601198974609375,-1.498340031147003,0.08935836376072838,0.18070260410904884
1667824728750207000,9.61120703125,-1.590997272056341,0.25406022912887855,-0.07550386153459548
1667824728760213800,9.6212138671875,-1.6199159080266952,0.4779446983657777,-0.43454000253379343
1667824728770221800,9.631221923828125,-1.599856285816431,0.7170585018459708,-0.7752060818448663
1667824728780230000,9.64122998046875,-1.5484873331069946,0.8068685366306454,-1.048560373905301
1667824728790237000,9.65123681640625,-1.3761428074985742,0.7649217114567756,-1.2206418646633623
1667824728800244700,9.66124462890625,-1.127659045061469,0.6777743200100957,-1.2869041428610681
1667824728810252800,9.671252685546875,-0.7899608756452798,0.5219628133883699,-1.3091396478056907
1667824728820259800,9.681259765625,-0.3111673053652048,0.3801262022357434,-1.3259826460570097
1667824728830268000,9.691267822265624,0.13633037841916085,0.263897129744105,-1.3527493646904825
1667824728840275700,9.701275634765626,0.489103367370367,0.15968593690227717,-1.3420555367186664
1667824728850283000,9.711282958984375,0.7572808413147926,-0.020261656721541656,-1.4120990870207548
1667824728860290800,9.721290771484375,0.8715969563245772,-0.24355507386326788,-1.591310575789213
1667824728870299000,9.731298828125,0.9049375003904103,-0.48208954308554525,-1.7030813902303577
1667824728880305700,9.7413056640625,0.9871633636564016,-0.7388472128711641,-1.752507099917531
1667824728890314000,9.75131396484375,1.0521966845810413,-0.9362301720157266,-1.7406243544220923
1667824728900322000,9.761322021484375,1.1145178239375353,-1.027641285321489,-1.5520006019249557
1667824728910328800,9.771328857421874,1.3403589619338512,-1.1516915164254604,-1.286514559021592
1667824728920337000,9.7813369140625,1.5082354022175073,-1.267026160828024,-1.0286579880833626
1667824728930344700,9.7913447265625,1.6259166097462177,-1.348500913465768,-0.6948337374910711
1667824728940352000,9.80135205078125,1.7889882800966501,-1.377252814567089,-0.3865715059176087
1667824728950359800,9.81135986328125,1.8847516703277825,-1.2909449426844715,-0.17398031011670828
1667824728960367900,9.821367919921874,1.8845576090604066,-1.1805994118060916,-0.017837854507565497
1667824728970375000,9.831375,1.830207010191679,-1.1325570462360977,0.11574351746439933
1667824728980383000,9.841383056640625,1.7909721473902462,-1.1369294161014258,0.21218056917339562
1667824728990390800,9.851390869140625,1.7071078692674635,-1.1195394514918326,0.2612088039755821
1667824729000397800,9.861397705078126,1.6172019728928804,-1.1253469687268138,0.28048429007083175
1667824729010406000,9.871406005859376,1.5793489198386668,-1.1376053426016122,0.27688129714280363
1667824729020414000,9.8814140625,1.4570494048595428,-1.1682383082091807,0.3195890967518091
1667824729030421000,9.8914208984375,1.3746756575554608,-1.1874198324106633,0.403014691196382
1667824729040429000,9.901428955078124,1.2774796041727066,-1.1539194216080009,0.4712058916300535
1667824729050436900,9.911436767578126,1.1928501868963242,-1.0565671547502278,0.5373983194619417
1667824729060444200,9.921444091796875,1.1694266412109136,-0.9746204737517982,0.6417915908724069
1667824729070452000,9.931451904296875,1.117961242389679,-0.9318692003272473,0.6162959150880575
1667824729080460000,9.9414599609375,0.9689747960150241,-0.8193330275367945,0.5312018029093742
1667824729090467000,9.951467041015626,0.8432827159881592,-0.6823110866568982,0.4228109862953424
1667824729100475100,9.96147509765625,0.7012725383669137,-0.5841563443098217,0.21598171502202748
1667824729110483000,9.97148291015625,0.5172516034901142,-0.5644166017036885,0.012051964582502841
1667824729120490000,9.981489990234374,0.3854372411906719,-0.5870952473059297,-0.08921382245719432
1667824729130498000,9.991498046875,0.24966449665427207,-0.6028505964510142,-0.16031301929205655
1667824729140506000,10.001506103515625,0.12197218272089957,-0.5407183307301253,-0.28995763633698224
1667824729150513000,10.011512939453125,-0.02039572229683399,-0.3734935592882335,-0.44464287887513637
1667824729160521000,10.02152099609375,-0.16121581335067747,-0.20931290478259323,-0.6235562614798545
1667824729170529000,10.031529052734374,-0.33342940605580806,-0.04835486558526754,-0.8534142339020967
1667824729180536000,10.0415361328125,-0.5198831210374831,0.14100333866626025,-1.0920233757957816
1667824729190544100,10.051544189453125,-0.6597381664514541,0.296056172407791,-1.2891969299733639
1667824729200552000,10.061552001953125,-0.7297960375398397,0.36641543759554623,-1.4119675695955753
1667824729210559200,10.071559326171876,-0.7432716051846742,0.4443893425054848,-1.5315554875284432
1667824729220567000,10.081567138671875,-0.7345517076343298,0.6633165363948792,-1.676297428201139
1667824729230575000,10.0915751953125,-0.6863081934690475,1.0231981152422727,-1.86747700266093
1667824729240582000,10.101581787109374,-0.55504445078969,1.390384391079843,-2.013674987360835
1667824729250590200,10.111590087890624,-0.40787060679495335,1.6060878736823796,-2.070799727118015
1667824729260598000,10.121597900390626,-0.15645429803729055,1.655896152946353,-1.9701035566598175
1667824729270605000,10.13160498046875,0.2127455095797777,1.636840300951153,-1.7876096852198242
1667824729280612900,10.14161279296875,0.6370476112157106,1.6497928676351903,-1.6363666920900344
1667824729290620200,10.1516201171875,0.998005660188198,1.6998899007126689,-1.4545251470789313
1667824729300628000,10.1616279296875,1.295511519947648,1.6631619061656295,-1.292668989998102
1667824729310636000,10.171635986328125,1.5499123974740505,1.5776424081817269,-1.2282599384516477
1667824729320643000,10.18164306640625,1.709537142241001,1.5344254900068044,-1.1990791444137692
1667824729330651100,10.191651123046874,1.8133645964622496,1.5461754029028116,-1.0963529294326901
1667824729340659000,10.201658935546876,1.8623662355184554,1.4459960959255695,-0.9707792150884866
1667824729350666000,10.211666015625,1.7886685466229915,1.2673966015756128,-0.8629819804534316
1667824729360673800,10.221673828125,1.6900936061024665,1.1042691093847155,-0.7468594005435705
1667824729370682000,10.23168212890625,1.6024702677071094,1.000422950462997,-0.643835663920641
1667824729380689000,10.24168896484375,1.430277133268118,0.9527442305736243,-0.5396218407303095
1667824729390697000,10.251697021484375,1.1919903551965951,0.9004334669694304,-0.44371465811431404
1667824729400705000,10.261705078125,0.8516226743102073,0.8671180573448538,-0.4268228522852063
1667824729410712000,10.271712158203124,0.3154091807186603,0.9646031568020582,-0.5510404758453369
1667824729420720000,10.28172021484375,-0.264288065290451,1.2367482192032038,-0.7901809481367469
1667824729430728000,10.29172802734375,-0.850862211331725,1.5772558930821716,-1.0494482626557349
1667824729440735000,10.30173486328125,-1.2682944271981715,1.7601073457881806,-1.2982853685751556
1667824729450743000,10.311742919921874,-1.5793682090610264,1.8292960328266024,-1.3886165046244858
1667824729460751000,10.321751220703124,-1.6698182953149079,1.8270956001728773,-1.1786007122695445
1667824729470758000,10.3317578125,-1.377290223968029,1.747236758299172,-0.8498898591682315
1667824729480766000,10.341765869140625,-0.8823433912664651,1.6513019570238887,-0.40147827540934083
1667824729490774000,10.35177392578125,-0.29541444043815135,1.5354513259232043,-0.0411480029463768
1667824729500781000,10.361781005859376,0.08831424326896667,1.4774644163787365,0.2442795887455344
1667824729510788900,10.371788818359375,0.4528320305496454,1.465670810471475,0.6208724292233586
1667824729520797000,10.381796875,0.7377712542027235,1.337119541621208,0.9296174758777022
1667824729530804000,10.391803955078124,1.0251613781392575,1.0337039463613182,1.128142152403295
1667824729540812000,10.40181201171875,1.2730033355414867,0.7238784840591251,1.2740671653807163
1667824729550820000,10.411820068359376,1.5511761337995529,0.49744164519198236,1.368511874228716
1667824729560827100,10.4218271484375,1.7240835539877413,0.2875454606287181,1.3898010382339359
1667824729570835200,10.431835205078125,1.790513882228732,0.03336772433370352,1.432833832013607
1667824729580843000,10.441843017578124,1.8396376863598822,-0.27242658275626597,1.4933163577660917
1667824729590850000,10.45185009765625,1.8183084826052187,-0.48243368034809825,1.4565437934249639
1667824729600857900,10.46185791015625,1.7639263195544481,-0.6285895794719457,1.3399194014728069
1667824729610866200,10.4718662109375,1.7068986104309558,-0.7239201312437653,1.2287743177145718
1667824729620873000,10.481873046875,1.5866338161498308,-0.7478875745475292,1.1648369753330945
1667824729630881000,10.491881103515626,1.442639771234989,-0.7319114953238517,1.1074138371512292
1667824729640888800,10.501888916015625,1.2951403485476969,-0.6550941400378942,1.0742512800008057
1667824729650896100,10.511896240234375,1.1660784998267888,-0.5505735889859498,1.1202855936840177
1667824729660904000,10.521904052734374,1.0483289032369851,-0.47621012965813275,1.2303554494261741
1667824729670912000,10.531912109375,0.9856278246521949,-0.4514469328667968,1.332688281175494
1667824729680919000,10.5419189453125,0.8481026834905147,-0.3437525010190904,1.377346045808494
1667824729690927000,10.551927001953125,0.7208423312336206,-0.14398103930279613,1.4375626141011715
1667824729700935200,10.56193505859375,0.6274784033596515,0.01994987822547555,1.4526117146730422
1667824729710942000,10.57194189453125,0.42709845435619354,0.02618614226654172,1.4728729969352483
1667824729720950000,10.581949951171875,0.13547639193832872,-0.12629106883332133,1.559976695370674
1667824729730958000,10.5919580078125,-0.2284130343109369,-0.35933658525049683,1.6304025229886174
1667824729740965000,10.601965087890624,-0.6120540397346019,-0.4298189653612673,1.5587205578297376
1667824729750973000,10.611972900390626,-0.9569061725586652,-0.19347279996350406,1.3164391571640968
1667824729760981000,10.62198095703125,-1.3474486279338598,0.10129530539512634,1.0345721805632113
1667824729770988000,10.631988037109375,-1.8007915306150912,0.2058279122110456,0.7300330611661077
1667824729780996000,10.64199609375,-2.26611304038167,0.21053031774833797,0.4322364017665386
1667824729791004000,10.65200390625,-2.632355751758814,0.31563612134233116,0.07126929270476103
1667824729801011200,10.66201123046875,-2.7794810804367063,0.5430214931059628,-0.22299451639354229
1667824729811019000,10.67201904296875,-2.7449013499647377,0.7418167302012443,-0.3577972468540072
1667824729821026000,10.682026123046874,-2.6044372327417133,0.7962115335378795,-0.47304450523406266
1667824729831033900,10.692033935546876,-2.4399936895161867,0.7744336361676454,-0.38579847571849823
1667824729841042000,10.7020419921875,-2.179039152562618,0.7162659632287919,-0.25078560963869095
1667824729851049000,10.712049072265625,-1.8382500313937662,0.6309591581474989,-0.10126929417103528
1667824729861057000,10.72205712890625,-1.5250620338559149,0.5100604133443907,0.15174217482358215
1667824729871064800,10.73206494140625,-1.1843822182804344,0.30932554995603856,0.506934792137146
1667824729881072000,10.742072021484375,-0.9021364714950323,0.08084714052500203,0.8666600844442844
1667824729891080000,10.752079833984375,-0.7371312027335166,-0.13084456741921602,1.0959078160136937
1667824729901088000,10.762087890625,-0.6587082388818264,-0.2805776674427092,1.2259198050662874
1667824729911094800,10.7720947265625,-0.709390378370881,-0.4170950928665697,1.2481392356589436
1667824729921103000,10.78210302734375,-0.8495020288944244,-0.5803562213744968,1.1519769092381
1667824729931111200,10.792111083984375,-1.0268746117979288,-0.751942402896285,0.8771122126147151
1667824729941118000,10.802117919921875,-1.2213041279643773,-0.8207847607150673,0.4413151957571506
1667824729951126000,10.8121259765625,-1.4015934750974177,-0.8320341036777943,-0.12180530172139406
1667824729961134000,10.822134033203126,-1.5012410132855176,-0.8279095710936933,-0.7488783391505479
1667824729971141000,10.83214111328125,-1.7092290992051362,-0.8949429797943681,-1.325696522592008
1667824729981149000,10.84214892578125,-1.9418805017381906,-0.9959710856206715,-1.809074498052895
1667824729991157000,10.852156982421874,-2.1632307580560446,-1.1475763361915945,-2.3405039722383023
1667824730001164000,10.8621640625,-2.2526538393497466,-1.2611103609129786,-2.711179697626829
1667824730011172000,10.872172119140625,-2.3022516907334327,-1.3261767073243855,-2.8722806524261832
1667824730021180000,10.882179931640625,-2.277445166257024,-1.344696260485798,-2.84274534586221
1667824730031187000,10.89218701171875,-2.0811574550032614,-1.3977997819028793,-2.6420453711241483
1667824730041195300,10.9021953125,-1.7185376102983951,-1.4760120256133378,-2.2444249401867387
1667824730051203000,10.912203125,-1.204040273952484,-1.4783701330468058,-1.7304422753646969
1667824730061210000,10.922210205078125,-0.5372106879353523,-1.4827695370495317,-1.2196657131075859
1667824730071218000,10.932218017578125,0.025902503019571303,-1.5246959770224988,-0.7298357850283383
1667824730081226000,10.94222607421875,0.5737140799462795,-1.5874746508881448,-0.33892595764547584
1667824730091233000,10.95223291015625,1.086815578019619,-1.6301184453502295,-0.04460895705521106
1667824730101241000,10.962240966796875,1.3041998533159493,-1.5746503867588937,0.07928133424669503
1667824730111249200,10.972249267578125,1.359658705687523,-1.4934434912770986,0.21285715326070784
1667824730121256200,10.982256103515626,1.5409230353325605,-1.5188156868122518,0.40423078898787496
1667824730131264300,10.99226416015625,1.5100409903347491,-1.5873380188964306,0.46784489076435565
1667824730141272000,11.00227197265625,1.4995774639874695,-1.5938833488866686,0.4646677220329642
1667824730151279000,11.012279052734375,1.4758458752661943,-1.5348296868935227,0.45774990546852345
1667824730161287200,11.022287109375,1.3911568367570637,-1.4162540147431193,0.486705074056983
1667824730171295200,11.032295166015626,1.3905816672176121,-1.2637694971196354,0.45097792711555956
1667824730181302000,11.042302001953125,1.293353465130925,-1.2040200348820536,0.5350289599820971
1667824730191310000,11.05231005859375,1.0245113897979259,-1.3275956342115998,0.7392989021614194
1667824730201317000,11.062317138671874,0.98101185528934,-1.4559883514992893,0.9620379824891686
1667824730211325200,11.0723251953125,0.8755956705719232,-1.7817046989597378,1.1456298782989383
1667824730221333000,11.0823330078125,0.7199082652539014,-2.6688950918659566,1.249531859061122
1667824730231340300,11.09234033203125,0.5391413637369871,-2.6852365703359244,1.2083189741849898
1667824730241348000,11.10234814453125,0.45908115407228467,-1.634925114979595,1.2566305851504207
1667824730251356200,11.112356201171876,0.3687140699267387,-0.4632867890685797,0.9022066141217946
1667824730261363000,11.122363037109375,-0.0012736731976270674,0.19235636315420268,0.3652271045938134
1667824730271371000,11.13237109375,-0.44713937186598773,0.2976230563983321,-0.09626593292579054
1667824730281379000,11.142379150390624,-0.9245195682168006,0.12633446958363057,-0.3294843216918409
1667824730291386000,11.15238623046875,-1.6481564986050128,0.09270531783476471,-0.15480755374357102
1667824730301394000,11.162393798828125,-2.130422128909826,0.10093874704241752,0.15906798766702412
1667824730311402000,11.172402099609375,-2.354155480971932,-0.039530192486196755,0.3336564928099513
1667824730321409000,11.182408935546874,-2.5824083562850952,-0.1373522688128054,0.3920915845133364
1667824730331417000,11.1924169921875,-2.7635388304173945,0.017144319285452365,0.27152298498004673
1667824730341425200,11.202425048828125,-2.9311896452516315,0.07171703647226095,0.4402241856500506
1667824730351432200,11.21243212890625,-2.769462959769368,0.12698781892582772,0.8033949422359467
1667824730361440300,11.222440185546875,-2.341712763506174,0.552962237688154,0.8402060850217938
1667824730371448000,11.232447998046876,-2.0292074875354764,0.9852226048521697,0.4507938027203083
1667824730381455000,11.242455078125,-1.2983844450354576,1.1356154108934104,-0.04736351646035909
1667824730391463200,11.252463134765625,-1.4245359592676161,1.2194118844769894,-0.770253135612607
1667824730401471200,11.26247119140625,-1.62113755877614,1.486445302952826,-1.0635881394281983
1667824730411478000,11.27247802734375,-2.2652760050356386,2.0570967804580924,-1.2552289016589522
1667824730421486000,11.282486083984375,-2.510853524637222,2.8459067325025793,-1.3116029691793023
1667824730431494000,11.292493896484375,-1.5047686028897762,3.0624037035703657,-1.174401799274981
1667824730441501200,11.302501220703125,-0.7515881826311349,3.03397372789979,-1.2057279347784817
1667824730451509000,11.312509033203124,-0.8259206622987985,3.2694919180408117,-1.0032039594836533
1667824730461517000,11.32251708984375,-1.125613218447566,3.369335271061957,-0.7279844580732285
1667824730471524000,11.332524169921875,-0.974174702745676,2.9508827722370623,-0.3643083823136985
1667824730481532200,11.3425322265625,-0.4699287113010883,2.218342404425144,0.21546923545524477
1667824730491540200,11.352540283203124,-0.38310792146027084,1.6159692162275314,0.6513359565481543
1667824730501547000,11.362547119140626,-0.38841011952161786,1.3023247070938349,0.8439026014521718
1667824730511555000,11.37255517578125,-0.0958984147876501,1.1326505697384477,0.8510776076480746
1667824730521563100,11.382563232421875,0.12069266430437564,0.9923647316917776,0.6754298757757992
1667824730531570200,11.392570068359374,0.2381651975184679,0.9186486303567886,0.5129663273863494
1667824730541578000,11.402577880859376,-0.02954290534853935,0.9618728550553322,0.468183621199429
1667824730551586000,11.4125859375,-0.5458516750305891,1.2304480961456894,0.3439356025010347
1667824730561593000,11.422593017578125,-0.6840478473216295,1.5941045904219149,0.19906185214221475
1667824730571601200,11.43260107421875,-0.6777654060512781,1.857100570075214,0.09994076724732294
1667824730581608000,11.44260791015625,-0.11715689139366149,1.8444427485540509,0.14804757635565474
1667824730591616300,11.4526162109375,0.8215683123081922,1.5150406983181834,0.2683085164455697
1667824730601624000,11.4626240234375,1.4222259287595749,1.1982181436702608,0.16703611700199544
1667824730611631000,11.472631103515624,1.4569588039666412,1.0620382796376944,-0.10236549190990626
1667824730621639000,11.482638916015626,0.9712848265230655,1.111655127982795,-0.8646861540228128
1667824730631647200,11.492647216796875,0.9993576593190431,1.1125827642217279,-1.1736679320424794
1667824730641654000,11.502654052734375,1.7736171079635619,0.8993240444228052,-0.8153637585796415
1667824730651662000,11.512662109375,2.1264175694435834,0.914058087696135,-0.5537459719443694
1667824730661670100,11.522670166015626,1.7358868045061826,1.0566779216483235,0.0217270439658314
1667824730671677200,11.53267724609375,1.5308283422976732,0.9920268780395388,0.4268382690500468
1667824730681685200,11.542685302734375,1.7159452557176351,0.8556213885575532,0.5886551170337945
1667824730691693000,11.552693115234375,1.8236878375560044,0.8621984288603067,0.5974552036808803
1667824730701700000,11.5627001953125,1.8996318440735338,0.8858148667693138,0.3688474870480597
1667824730711708200,11.572708251953125,1.9348218153983354,0.8817161992788314,0.2381996112447232
1667824730721716200,11.58271630859375,1.9176222587943077,0.8562117556661367,0.25730355843165886
1667824730731723000,11.592722900390624,1.8323188877791166,0.7295178051203489,0.18593370969556272
1667824730741731000,11.60273095703125,1.6452818199515342,0.6776523010656237,0.16568448319733142
1667824730751739100,11.6127392578125,1.6038631833702326,0.7295943774878978,0.32047092108763753
1667824730761746200,11.62274609375,1.582407138365507,0.7177934650570154,0.4214421821601689
1667824730771754000,11.63275390625,1.473777836820483,0.6287734116062521,0.47203788547478615
1667824730781762000,11.642761962890624,1.4288450546383857,0.49236499951481816,0.449225822751224
1667824730791769000,11.65276904296875,1.2489666263937949,0.39933571042269467,0.4016603539779782
1667824730801777200,11.662777099609375,1.06383685349226,0.4226698242589831,0.4930133073557168
1667824730811785200,11.67278515625,0.9124497757166623,0.4518544176891446,0.5636395529165864
1667824730821792000,11.6827919921875,0.7193921324253082,0.3963169471234083,0.624220424477011
1667824730831800300,11.69280029296875,0.6644657794952392,0.36318916902542114,0.6414357631720602
1667824730841808100,11.70280810546875,0.6610726299256086,0.3967544617578387,0.5971895750146359
1667824730851815000,11.71281494140625,0.5329460162281989,0.4328673931464553,0.5188044589553028
1667824730861823000,11.722822998046874,0.4325929601192474,0.4098267092987895,0.4550441536411643
1667824730871831300,11.732831298828126,0.35880583937466143,0.3268663942784071,0.4518252646598965
1667824730881838000,11.742838134765625,0.13088380345106124,0.20148674120157956,0.5081755129132419
1667824730891846100,11.75284619140625,-0.02851297777891159,0.052990124170482156,0.5192134050823748
1667824730901853200,11.762853271484374,-0.16209259618520735,-0.1109980765029788,0.5515985481195151
1667824730911861200,11.772861328125,-0.42820027811825273,-0.3753302731961012,0.667807345008105
1667824730921869000,11.782869140625,-0.6321908188343047,-0.617259207162261,0.7249791387774049
1667824730931876000,11.7928759765625,-0.9065963735133409,-0.7030944930970668,0.7215444881536066
1667824730941884200,11.80288427734375,-1.2793161719501018,-0.7093406940102577,0.7740791236415505
1667824730951892200,11.812892333984376,-1.5202508341819048,-0.7270511227458715,0.8546874687083065
1667824730961899000,11.82289892578125,-1.6334101803719996,-0.6963181308299302,0.8807995228253305
1667824730971907000,11.832906982421875,-1.7536773127406835,-0.5618664057642221,0.771565971776843
1667824730981915000,11.842914794921874,-1.824773879227042,-0.22959259948432445,0.4575901848621666
1667824730991922200,11.852922119140626,-1.8157079447180031,0.3251882319331169,0.07558861720860004
1667824731001930000,11.862929931640625,-1.6628519634336232,0.8834843779951334,-0.31601671815775334
1667824731011938000,11.87293798828125,-1.5645137542784213,1.2811445564210413,-0.670668287397176
1667824731021945000,11.882945068359374,-1.4409890814185142,1.5214976193726062,-0.8678516323164105
1667824731031956200,11.892956298828125,-1.3153396714895962,1.6877847446382044,-1.0115972554281354
1667824731041964000,11.902964111328124,-0.6647013418167829,1.8474568356782197,-0.9418520304854958
1667824731051971000,11.91297119140625,-0.882399505367875,1.9539286669284104,-0.5151137146785855
1667824731061979100,11.922979248046875,-1.4958230798900127,1.626231082522869,-0.42909152786955235
1667824731071987200,11.9329873046875,-0.8937205253273248,1.2445008791565895,-0.41431978293433785
1667824731081994000,11.942993896484374,-0.806890967658162,1.0087579403489828,-0.21529132160507142
1667824731092002000,11.953001953125,-0.8542126908034086,0.8377320961236954,-0.032449878836423154
1667824731102010400,11.96301025390625,-0.9842021757632493,0.6079214699745178,0.18375336998179553
