time,seconds_elapsed,z,y,x
1667267069390642700,0.091642578125,0.0397050715982914,0.0647498071193695,0.2742704153060913
1667267069393040400,0.094040283203125,0.03787253051996231,0.06963659077882767,0.25594499707221985
1667267069395438000,0.09643798828125,0.03665083646774292,0.07513421028852463,0.2339545041322708
1667267069397835800,0.098835693359375,0.03542914241552353,0.08307522535324097,0.2101314514875412
1667267069400233500,0.1012333984375,0.03237490355968475,0.08796200156211853,0.17958909273147583
1667267069402631200,0.103631103515625,0.029320668429136276,0.09468132257461548,0.14660334587097168
1667267069405029000,0.106029052734375,0.023212196305394173,0.10140064358711243,0.11545012891292572
1667267069407426800,0.1084267578125,0.01832541823387146,0.10750912129878998,0.0794101431965828
1667267069409824500,0.110824462890625,0.011606098152697086,0.11300674080848694,0.04459185153245926
1667267069412222200,0.11322216796875,0.0036650835536420345,0.1185043677687645,0.006108472589403391
1667267069414620000,0.115619873046875,-0.004886778071522713,0.12705622613430023,-0.029320668429136276
1667267069417017900,0.118017822265625,-0.016492875292897224,0.1319430023431778,-0.0653606578707695
1667267069419415600,0.12041552734375,-0.02748812735080719,0.14049486815929413,-0.09895725548267365
1667267069421813200,0.122813232421875,-0.04031591862440109,0.15210096538066864,-0.1325538605451584
1667267069424211000,0.1252109375,-0.05131116881966591,0.16065283119678497,-0.16126367449760437
1667267069426608600,0.127608642578125,-0.05925218388438225,0.16798299551010132,-0.18997350335121155
1667267069429006600,0.130006591796875,-0.06719319522380829,0.17592400312423706,-0.21685077250003815
1667267069431404300,0.132404296875,-0.07513421028852463,0.17775654792785645,-0.24311721324920654
1667267069433802000,0.134802001953125,-0.0781884491443634,0.17836740612983704,-0.26755109429359436
1667267069436199700,0.13719970703125,-0.08307522535324097,0.17958909273147583,-0.2877090573310852
1667267069438597400,0.139597412109375,-0.08246438205242157,0.17958909273147583,-0.30664533376693726
1667267069440995300,0.141995361328125,-0.08368607610464096,0.17653486132621765,-0.32374903559684753
1667267069443393000,0.14439306640625,-0.08307522535324097,0.17409147322177887,-0.3396310806274414
1667267069445790700,0.146790771484375,-0.08368607610464096,0.16798299551010132,-0.3506263196468353
1667267069448188400,0.1491884765625,-0.08124268800020218,0.16004198789596558,-0.36162158846855164
1667267069450586000,0.151586181640625,-0.0787992998957634,0.1447708010673523,-0.3671191930770874
1667267069452983800,0.15398388671875,-0.07452336698770523,0.129499614238739,-0.37139514088630676
1667267069455381800,0.1563818359375,-0.07330167293548584,0.11178504675626755,-0.37078428268432617
1667267069457779500,0.158779541015625,-0.06841489672660828,0.09651386737823486,-0.367730051279068
1667267069460177200,0.16117724609375,-0.06291726976633072,0.08063183724880219,-0.36223241686820984
1667267069462574800,0.163574951171875,-0.05619794875383377,0.06780404597520828,-0.3500154912471771
1667267069464972800,0.165972900390625,-0.0525328628718853,0.05131116881966591,-0.3408527672290802
1667267069467370500,0.16837060546875,-0.04886778071522713,0.0397050715982914,-0.3274141252040863
1667267069469768200,0.170768310546875,-0.04214845970273018,0.03176405653357506,-0.3115321099758148
1667267069472166000,0.173165771484375,-0.033596597611904144,0.023823043331503868,-0.2980934679508209
1667267069474563600,0.1755634765625,-0.031153209507465363,0.015271181240677834,-0.28282228112220764
1667267069476961300,0.177961181640625,-0.024433890357613564,0.014660334214568138,-0.26632940769195557
1667267069479359200,0.180359130859375,-0.021990500390529633,0.012216945178806782,-0.2486148327589035
1667267069481757000,0.1827568359375,-0.020157959312200546,0.01038440316915512,-0.23334364593029022
1667267069484154600,0.185154541015625,-0.01710372418165207,0.012827792204916477,-0.21623992919921875
1667267069486552300,0.18755224609375,-0.016492875292897224,0.01710372418165207,-0.20096874237060547
1667267069488950000,0.189949951171875,-0.012216945178806782,0.021379653364419937,-0.183865025639534
1667267069491348000,0.192347900390625,-0.01038440316915512,0.024433890357613564,-0.17225892841815948
1667267069493745700,0.19474560546875,-0.006719320081174374,0.026877280324697495,-0.15943112969398499
1667267069496143400,0.197143310546875,-0.0006108472589403391,0.02870982140302658,-0.14782503247261047
1667267069498541000,0.199541015625,0.006719320081174374,0.029320668429136276,-0.1423274129629135
1667267069500938800,0.201938720703125,0.012216945178806782,0.029320668429136276,-0.13621893525123596
1667267069503336700,0.204336669921875,0.020157959312200546,0.02626643143594265,-0.1325538605451584
1667267069505734400,0.206734375,0.02504473738372326,0.026877280324697495,-0.1301104724407196
1667267069508132000,0.209132080078125,0.031153209507465363,0.026877280324697495,-0.12522368133068085
1667267069510529800,0.21152978515625,0.03420744836330414,0.03176405653357506,-0.12339114397764206
1667267069512927500,0.213927490234375,0.036039989441633224,0.037261683493852615,-0.1178935244679451
1667267069515325400,0.216325439453125,0.03665083646774292,0.043981000781059265,-0.11667182296514511
1667267069517723100,0.21872314453125,0.03665083646774292,0.04947862774133682,-0.11361759155988693
1667267069520120800,0.221120849609375,0.03420744836330414,0.05986303091049194,-0.11178504675626755
1667267069522518500,0.2235185546875,0.031153209507465363,0.06841489672660828,-0.10995250940322876
1667267069524916200,0.225916259765625,0.02748812735080719,0.07635590434074402,-0.11300674080848694
1667267069527314000,0.22831396484375,0.021990500390529633,0.08796200156211853,-0.11483928561210632
1667267069529711900,0.2307119140625,0.017714571207761765,0.09895725548267365,-0.11545012891292572
1667267069532109600,0.233109619140625,0.012827792204916477,0.10811996459960938,-0.12216944992542267
1667267069534507300,0.23550732421875,0.00916270911693573,0.1172826737165451,-0.12522368133068085
1667267069536905000,0.237905029296875,0.006719320081174374,0.12522368133068085,-0.13316470384597778
1667267069539302700,0.240302734375,0.0006108472589403391,0.1301104724407196,-0.13682979345321655
1667267069541700600,0.24270068359375,-0.004275931045413017,0.13560809195041656,-0.1435490995645523
1667267069544098300,0.245098388671875,-0.008551862090826035,0.14110571146011353,-0.15087927877902985
1667267069546496000,0.24749609375,-0.014049487188458443,0.1423274129629135,-0.16065283119678497
1667267069548893700,0.249893798828125,-0.015271181240677834,0.1453816443681717,-0.1692046970129013
1667267069551291400,0.25229150390625,-0.020157959312200546,0.1435490995645523,-0.17958909273147583
1667267069553689300,0.254689453125,-0.023823043331503868,0.14110571146011353,-0.18814095854759216
1667267069556087000,0.257087158203125,-0.02626643143594265,0.13621893525123596,-0.1966928243637085
1667267069558484700,0.259484619140625,-0.02870982140302658,0.13316470384597778,-0.20585553348064423
1667267069560882400,0.26188232421875,-0.031153209507465363,0.12522368133068085,-0.21501824259757996
1667267069563280100,0.264280029296875,-0.03298575058579445,0.11422843486070633,-0.2217375487089157
1667267069565678000,0.266677978515625,-0.036039989441633224,0.10201149433851242,-0.23028941452503204
1667267069568075800,0.26907568359375,-0.03542914241552353,0.0922379344701767,-0.237008735537529
1667267069570473500,0.271473388671875,-0.04092676565051079,0.08307522535324097,-0.24128466844558716
1667267069572871200,0.27387109375,-0.042759306728839874,0.07146912813186646,-0.2473931461572647
1667267069575268900,0.276268798828125,-0.04459185153245926,0.06169557198882103,-0.2498365342617035
1667267069577666600,0.27866650390625,-0.04886778071522713,0.05619794875383377,-0.2516690790653229
1667267069580064500,0.281064453125,-0.0525328628718853,0.05008947476744652,-0.2480039894580841
1667267069582462200,0.283462158203125,-0.05741964280605316,0.04947862774133682,-0.24494975805282593
1667267069584860000,0.28585986328125,-0.06291726976633072,0.04886778071522713,-0.24006296694278717
1667267069587257600,0.288257568359375,-0.06963659077882767,0.04459185153245926,-0.22906772792339325
1667267069589655600,0.290655517578125,-0.07207997888326645,0.042759306728839874,-0.21990501880645752
1667267069592053200,0.29305322265625,-0.07696675509214401,0.037261683493852615,-0.20768806338310242
1667267069594451000,0.295450927734375,-0.07757759839296341,0.031153209507465363,-0.19424942135810852
1667267069596848600,0.2978486328125,-0.0787992998957634,0.023212196305394173,-0.182643324136734
1667267069599246300,0.300246337890625,-0.08002099394798279,0.01588202826678753,-0.1698155403137207
1667267069601644000,0.30264404296875,-0.0794101431965828,0.009773556143045425,-0.1563768982887268
1667267069604042000,0.3050419921875,-0.0781884491443634,0.0024433890357613564,-0.14660334587097168
1667267069606439700,0.307439697265625,-0.07635590434074402,-0.0030542362947016954,-0.1325538605451584
1667267069608837400,0.30983740234375,-0.07574506103992462,-0.006719320081174374,-0.12033691257238388
1667267069611235000,0.312235107421875,-0.07207997888326645,-0.009773556143045425,-0.10873081535100937
1667267069613632800,0.3146328125,-0.07085828483104706,-0.013438640162348747,-0.09529217332601547
1667267069616030700,0.31703076171875,-0.07085828483104706,-0.014660334214568138,-0.08612946420907974
1667267069618428400,0.319428466796875,-0.07085828483104706,-0.015271181240677834,-0.0787992998957634
1667267069620826000,0.321826171875,-0.07085828483104706,-0.01588202826678753,-0.07207997888326645
1667267069623223800,0.324223876953125,-0.07085828483104706,-0.01588202826678753,-0.07024743407964706
1667267069625621500,0.32662158203125,-0.07391251623630524,-0.014660334214568138,-0.06841489672660828
1667267069628019500,0.32901953125,-0.07513421028852463,-0.014660334214568138,-0.06719319522380829
1667267069630417200,0.331417236328125,-0.07391251623630524,-0.015271181240677834,-0.07146912813186646
1667267069632814800,0.33381494140625,-0.07513421028852463,-0.014049487188458443,-0.07696675509214401
1667267069635212500,0.336212646484375,-0.07696675509214401,-0.012216945178806782,-0.08612946420907974
1667267069637610200,0.3386103515625,-0.07574506103992462,-0.00916270911693573,-0.09590301662683487
1667267069640008200,0.34100830078125,-0.07757759839296341,-0.005497625097632408,-0.10750912129878998
1667267069642406000,0.343406005859375,-0.08002099394798279,0.0006108472589403391,-0.12094775587320328
1667267069644803600,0.345803466796875,-0.08124268800020218,0.012216945178806782,-0.13499724864959717
1667267069647201300,0.348201171875,-0.08429691940546036,0.023212196305394173,-0.15026842057704926
1667267069649599000,0.350598876953125,-0.08674030750989914,0.03665083646774292,-0.16309621930122375
1667267069651996700,0.35299658203125,-0.08918370306491852,0.056808795779943466,-0.17775654792785645
1667267069654394600,0.35539453125,-0.0922379344701767,0.07574506103992462,-0.19241689145565033
1667267069656792300,0.357792236328125,-0.09712471067905426,0.09590301662683487,-0.20707722008228302
1667267069659190000,0.36018994140625,-0.10078980028629303,0.11361759155988693,-0.21990501880645752
1667267069661587700,0.362587646484375,-0.10384403169155121,0.130721315741539,-0.23212195932865143
1667267069663985700,0.364985595703125,-0.10750912129878998,0.1423274129629135,-0.24494975805282593
1667267069666383400,0.36738330078125,-0.10934165865182877,0.15149012207984924,-0.25411245226860046
1667267069668781000,0.369781005859375,-0.11117420345544815,0.15454435348510742,-0.2638860046863556
1667267069671178800,0.3721787109375,-0.11422843486070633,0.15332266688346863,-0.2761029601097107
1667267069673576400,0.374576416015625,-0.1178935244679451,0.15026842057704926,-0.2858765125274658
1667267069675974100,0.37697412109375,-0.11911521852016449,0.14660334587097168,-0.29442837834358215
1667267069678372000,0.3793720703125,-0.11972606182098389,0.13805148005485535,-0.3005368411540985
1667267069680769800,0.381769775390625,-0.12094775587320328,0.1325538605451584,-0.30481278896331787
1667267069683167500,0.38416748046875,-0.12400199472904205,0.12705622613430023,-0.30725616216659546
1667267069685565200,0.386565185546875,-0.12400199472904205,0.12461283802986145,-0.30908870697021484
1667267069687963000,0.388962890625,-0.12644538283348083,0.12094775587320328,-0.30786702036857605
1667267069690360600,0.391360595703125,-0.12827792763710022,0.1172826737165451,-0.30786702036857605
1667267069692758500,0.393758544921875,-0.130721315741539,0.12094775587320328,-0.3054236173629761
1667267069695156200,0.39615625,-0.129499614238739,0.12339114397764206,-0.29748260974884033
1667267069697554000,0.398553955078125,-0.1313321590423584,0.12888877093791962,-0.29259583353996277
1667267069699951600,0.40095166015625,-0.1313321590423584,0.13560809195041656,-0.2864873707294464
1667267069702349600,0.403349609375,-0.1325538605451584,0.1429382562637329,-0.2767138183116913
1667267069704747300,0.405747314453125,-0.1319430023431778,0.14965757727622986,-0.27060532569885254
1667267069707145000,0.40814501953125,-0.1325538605451584,0.15332266688346863,-0.2644968628883362
1667267069709542700,0.410542724609375,-0.1319430023431778,0.1575985997915268,-0.2608317732810974
1667267069711940400,0.4129404296875,-0.1313321590423584,0.16187451779842377,-0.25594499707221985
1667267069714338300,0.41533837890625,-0.130721315741539,0.16431790590286255,-0.25289076566696167
1667267069716736000,0.417736083984375,-0.12888877093791962,0.1692046970129013,-0.2492256760597229
1667267069719133700,0.4201337890625,-0.129499614238739,0.16676130890846252,-0.2480039894580841
1667267069721531400,0.422531494140625,-0.12888877093791962,0.16309621930122375,-0.24556060135364532
1667267069723929000,0.42492919921875,-0.12766708433628082,0.15943112969398499,-0.24128466844558716
1667267069726326800,0.427326904296875,-0.12583453953266144,0.15271180868148804,-0.24006296694278717
1667267069728724700,0.429724853515625,-0.12705622613430023,0.1435490995645523,-0.24128466844558716
1667267069731122400,0.432122314453125,-0.12644538283348083,0.13438639044761658,-0.24006296694278717
1667267069733520100,0.43452001953125,-0.12522368133068085,0.12339114397764206,-0.24006296694278717
1667267069735917800,0.436917724609375,-0.12278030067682266,0.10995250940322876,-0.24311721324920654
1667267069738315500,0.4393154296875,-0.12522368133068085,0.09590301662683487,-0.24433889985084534
1667267069740713500,0.44171337890625,-0.12461283802986145,0.08307522535324097,-0.24372805655002594
1667267069743111200,0.444111083984375,-0.12644538283348083,0.06841489672660828,-0.24311721324920654
1667267069745508900,0.4465087890625,-0.12705622613430023,0.056808795779943466,-0.24372805655002594
1667267069747906600,0.448906494140625,-0.12644538283348083,0.04703523963689804,-0.24556060135364532
1667267069750304300,0.45130419921875,-0.12888877093791962,0.03237490355968475,-0.24556060135364532
1667267069752702200,0.4537021484375,-0.130721315741539,0.018936265259981155,-0.2486148327589035
1667267069755100000,0.456099853515625,-0.1313321590423584,0.004275931045413017,-0.2480039894580841
1667267069757497600,0.45849755859375,-0.1319430023431778,-0.01038440316915512,-0.2492256760597229
1667267069759895300,0.460895263671875,-0.13682979345321655,-0.023212196305394173,-0.2486148327589035
1667267069762293000,0.46329296875,-0.13805148005485535,-0.03787253051996231,-0.2510582208633423
1667267069764690700,0.465690673828125,-0.13988402485847473,-0.04947862774133682,-0.25289076566696167
1667267069767088600,0.468088623046875,-0.1435490995645523,-0.05803048983216286,-0.2504473626613617
1667267069769486300,0.470486328125,-0.14782503247261047,-0.0653606578707695,-0.2510582208633423
1667267069771884000,0.472884033203125,-0.15026842057704926,-0.06780404597520828,-0.2473931461572647
1667267069774281700,0.47528173828125,-0.15393351018428802,-0.07146912813186646,-0.24311721324920654
1667267069776679400,0.477679443359375,-0.16065283119678497,-0.07635590434074402,-0.24006296694278717
1667267069779077400,0.480077392578125,-0.16370706260204315,-0.08124268800020218,-0.23273280262947083
1667267069781475000,0.48247509765625,-0.16737215220928192,-0.08918370306491852,-0.22601348161697388
1667267069783872800,0.484872802734375,-0.17225892841815948,-0.09895725548267365,-0.21990501880645752
1667267069786270500,0.4872705078125,-0.17714570462703705,-0.10934165865182877,-0.2101314514875412
1667267069788668200,0.489668212890625,-0.17592400312423706,-0.12522368133068085,-0.20219044387340546
1667267069791066000,0.492066162109375,-0.17653486132621765,-0.13866232335567474,-0.18997350335121155
1667267069793463800,0.4944638671875,-0.17470231652259827,-0.15393351018428802,-0.18019993603229523
1667267069795861500,0.496861572265625,-0.17592400312423706,-0.1692046970129013,-0.16798299551010132
1667267069798259200,0.49925927734375,-0.1716480851173401,-0.18814095854759216,-0.15393351018428802
1667267069800657000,0.501656982421875,-0.16737215220928192,-0.20402298867702484,-0.13927318155765533
1667267069803054800,0.504054931640625,-0.16492876410484314,-0.21990501880645752,-0.12461283802986145
1667267069805452500,0.50645263671875,-0.1588202863931656,-0.2357870489358902,-0.10873081535100937
1667267069807850200,0.508850341796875,-0.15271180868148804,-0.2480039894580841,-0.09407047927379608
1667267069810248000,0.511248046875,-0.1459924876689911,-0.25594499707221985,-0.0781884491443634
1667267069812645600,0.513645751953125,-0.13988402485847473,-0.2608317732810974,-0.06413896381855011
1667267069815043300,0.516043212890625,-0.13377554714679718,-0.2651077210903168,-0.05008947476744652
1667267069817441300,0.518441162109375,-0.12522368133068085,-0.2644968628883362,-0.03665083646774292
1667267069819839000,0.5208388671875,-0.1172826737165451,-0.2602209448814392,-0.025655584409832954
1667267069822236700,0.523236572265625,-0.11239589750766754,-0.25350162386894226,-0.01588202826678753
1667267069824634400,0.52563427734375,-0.10384403169155121,-0.24556060135364532,-0.007330167107284069
1667267069827032300,0.5280322265625,-0.09773556143045425,-0.237008735537529,-0.0006108472589403391
1667267069829430000,0.530429931640625,-0.09529217332601547,-0.22601348161697388,0.0024433890357613564
1667267069831827700,0.53282763671875,-0.08918370306491852,-0.2113531529903412,0.00916270911693573
1667267069834225400,0.535225341796875,-0.08796200156211853,-0.1979145109653473,0.008551862090826035
1667267069836623000,0.537623046875,-0.08368607610464096,-0.17958909273147583,0.00916270911693573
1667267069839020800,0.540020751953125,-0.08185353130102158,-0.16004198789596558,0.007330167107284069
1667267069841418800,0.542418701171875,-0.08185353130102158,-0.14110571146011353,0.0036650835536420345
1667267069843816400,0.54481640625,-0.07757759839296341,-0.12278030067682266,-0.0018325417768210173
1667267069846214100,0.547214111328125,-0.07574506103992462,-0.10689827054738998,-0.006108472589403391
1667267069848611800,0.54961181640625,-0.07391251623630524,-0.09529217332601547,-0.011606098152697086
1667267069851009500,0.552009521484375,-0.07269082218408585,-0.08246438205242157,-0.02076880633831024
1667267069853407200,0.5544072265625,-0.06841489672660828,-0.07330167293548584,-0.029320668429136276
1667267069855805200,0.55680517578125,-0.0659715011715889,-0.06413896381855011,-0.0390942245721817
1667267069858203000,0.559202880859375,-0.06169557198882103,-0.05497625470161438,-0.046424392610788345
1667267069860600600,0.5616005859375,-0.05619794875383377,-0.04886778071522713,-0.05497625470161438
1667267069862998300,0.563998291015625,-0.04703523963689804,-0.04703523963689804,-0.06169557198882103
1667267069865396200,0.566396240234375,-0.04153761267662048,-0.043981000781059265,-0.07024743407964706
1667267069867794000,0.5687939453125,-0.034818295389413834,-0.043981000781059265,-0.07696675509214401
1667267069870191600,0.571191650390625,-0.025655584409832954,-0.04825693368911743,-0.08185353130102158
1667267069872589300,0.57358935546875,-0.01954711228609085,-0.05008947476744652,-0.08429691940546036
1667267069874987000,0.575987060546875,-0.010995250195264816,-0.053143709897994995,-0.08857285231351852
1667267069877384700,0.578384765625,-0.0024433890357613564,-0.06169557198882103,-0.0922379344701767
1667267069879782700,0.58078271484375,0.006108472589403391,-0.07024743407964706,-0.09407047927379608
1667267069882180400,0.583180419921875,0.014660334214568138,-0.08185353130102158,-0.09712471067905426
1667267069884578000,0.585578125,0.02076880633831024,-0.09407047927379608,-0.10078980028629303
1667267069886975700,0.587975830078125,0.030542362481355667,-0.10995250940322876,-0.10262233763933182
1667267069889373400,0.59037353515625,0.03787253051996231,-0.12522368133068085,-0.10628741979598999
1667267069891771400,0.592771484375,0.046424392610788345,-0.1447708010673523,-0.11117420345544815
1667267069894169000,0.595169189453125,0.051922015845775604,-0.16248537600040436,-0.11300674080848694
1667267069896566800,0.59756689453125,0.05803048983216286,-0.1832541823387146,-0.1172826737165451
1667267069898964500,0.599964599609375,0.06352811306715012,-0.20035789906978607,-0.12155860662460327
1667267069901362200,0.602362060546875,0.0659715011715889,-0.21685077250003815,-0.12827792763710022
1667267069903760100,0.604760009765625,0.06658235192298889,-0.22967857122421265,-0.1325538605451584
1667267069906157800,0.60715771484375,0.06780404597520828,-0.24006296694278717,-0.13560809195041656
1667267069908555500,0.609555419921875,0.06719319522380829,-0.2473931461572647,-0.14110571146011353
1667267069910953200,0.611953125,0.0653606578707695,-0.25472331047058105,-0.1441599577665329
1667267069913351000,0.614350830078125,0.06047387793660164,-0.25594499707221985,-0.14904673397541046
1667267069915748900,0.616748779296875,0.05803048983216286,-0.25533416867256165,-0.15332266688346863
1667267069918146600,0.619146484375,0.0525328628718853,-0.2522799074649811,-0.16065283119678497
1667267069920544300,0.621544189453125,0.04581354558467865,-0.24128466844558716,-0.16492876410484314
1667267069922942000,0.62394189453125,0.04031591862440109,-0.23212195932865143,-0.17409147322177887
1667267069925339600,0.626339599609375,0.033596597611904144,-0.22051586210727692,-0.17897824943065643
1667267069927737300,0.6287373046875,0.025655584409832954,-0.208298921585083,-0.18569757044315338
1667267069930135300,0.63113525390625,0.017714571207761765,-0.1966928243637085,-0.19424942135810852
1667267069932533000,0.633532958984375,0.006719320081174374,-0.1832541823387146,-0.20096874237060547
1667267069934930700,0.6359306640625,0.0006108472589403391,-0.16859383881092072,-0.20646637678146362
1667267069937328400,0.638328369140625,-0.010995250195264816,-0.15454435348510742,-0.2113531529903412
1667267069939726300,0.640726318359375,-0.01832541823387146,-0.13988402485847473,-0.21562908589839935
1667267069942124000,0.6431240234375,-0.029320668429136276,-0.12216944992542267,-0.21685077250003815
1667267069944521700,0.645521728515625,-0.04092676565051079,-0.10811996459960938,-0.2211267054080963
1667267069946919400,0.64791943359375,-0.047646086663007736,-0.09345962852239609,-0.22479179501533508
1667267069949317000,0.650317138671875,-0.056808795779943466,-0.08307522535324097,-0.22601348161697388
1667267069951714800,0.65271484375,-0.0653606578707695,-0.0781884491443634,-0.22906772792339325
1667267069954112800,0.65511279296875,-0.07085828483104706,-0.07757759839296341,-0.23090025782585144
1667267069956510500,0.657510498046875,-0.07635590434074402,-0.07696675509214401,-0.23273280262947083
1667267069958908200,0.659908203125,-0.0787992998957634,-0.08124268800020218,-0.2351761907339096
1667267069961305900,0.662305908203125,-0.08185353130102158,-0.08490777015686035,-0.2376195788383484
1667267069963703600,0.66470361328125,-0.08185353130102158,-0.08429691940546036,-0.24311721324920654
1667267069966101200,0.667101318359375,-0.07757759839296341,-0.08490777015686035,-0.2486148327589035
1667267069968499200,0.669499267578125,-0.07207997888326645,-0.08185353130102158,-0.2602209448814392
1667267069970897000,0.67189697265625,-0.06047387793660164,-0.07757759839296341,-0.2718270421028137
1667267069973294600,0.674294677734375,-0.04581354558467865,-0.06963659077882767,-0.28098973631858826
1667267069975692300,0.6766923828125,-0.02993151545524597,-0.06047387793660164,-0.2919849753379822
1667267069978090200,0.67909033203125,-0.010995250195264816,-0.047646086663007736,-0.3054236173629761
1667267069980488000,0.681488037109375,0.010995250195264816,-0.034818295389413834,-0.31886225938796997
1667267069982885600,0.6838857421875,0.03542914241552353,-0.01588202826678753,-0.3274141252040863
1667267069985283300,0.686283447265625,0.062306419014930725,0.004275931045413017,-0.3384093940258026
1667267069987681000,0.688680908203125,0.08551861345767975,0.02870982140302658,-0.34573954343795776
1667267069990079000,0.691078857421875,0.10811996459960938,0.05375456064939499,-0.3542914092540741
1667267069992476700,0.6934765625,0.1301104724407196,0.0787992998957634,-0.3658975064754486
1667267069994874400,0.695874267578125,0.14843589067459106,0.1050657257437706,-0.37383851408958435
1667267069997272000,0.69827197265625,0.16676130890846252,0.1313321590423584,-0.38544461131095886
1667267069999669800,0.700669677734375,0.1820324808359146,0.1569877415895462,-0.39766156673431396
1667267070002067500,0.7030673828125,0.1948602795600891,0.1820324808359146,-0.41110020875930786
1667267070004465400,0.70546533203125,0.20646637678146362,0.20585553348064423,-0.42698222398757935
1667267070006863000,0.707863037109375,0.21746163070201874,0.22906772792339325,-0.43858832120895386
1667267070009260800,0.7102607421875,0.22662433981895447,0.2492256760597229,-0.45447036623954773
1667267070011658500,0.712658447265625,0.2339545041322708,0.27060532569885254,-0.46546560525894165
1667267070014056200,0.71505615234375,0.24372805655002594,0.29320669174194336,-0.48073679208755493
1667267070016454100,0.7174541015625,0.24678228795528412,0.3176405727863312,-0.49234288930892944
1667267070018851800,0.719851806640625,0.2498365342617035,0.3390202224254608,-0.5033381581306458
1667267070021249500,0.72224951171875,0.2504473626613617,0.3646758198738098,-0.5125008225440979
1667267070023647200,0.724647216796875,0.2498365342617035,0.38605546951293945,-0.5222744345664978
1667267070026045000,0.727044921875,0.2480039894580841,0.4049917459487915,-0.5302154421806335
1667267070028443000,0.72944287109375,0.24556060135364532,0.420873761177063,-0.5387672781944275
1667267070030840600,0.731840576171875,0.24372805655002594,0.4312581717967987,-0.546097457408905
1667267070033238300,0.73423828125,0.24006296694278717,0.4349232614040375,-0.5509842038154602
1667267070035636000,0.736635986328125,0.23884128034114838,0.43614494800567627,-0.554649293422699
1667267070038033700,0.73903369140625,0.2345653474330902,0.4324798583984375,-0.5564818382263184
1667267070040431600,0.741431640625,0.22906772792339325,0.4300364851951599,-0.5558710098266602
1667267070042829300,0.743829345703125,0.22723518311977386,0.42759308218955994,-0.5540384650230408
1667267070045227000,0.74622705078125,0.2241809368133545,0.42392799258232117,-0.5491516590118408
1667267070047624700,0.748624755859375,0.21868331730365753,0.41537612676620483,-0.5424323678016663
1667267070050022400,0.7510224609375,0.21440738439559937,0.4062134325504303,-0.5344913601875305
1667267070052420000,0.753420166015625,0.2089097648859024,0.39643988013267517,-0.5241069197654724
1667267070054818000,0.755818115234375,0.20402298867702484,0.38605546951293945,-0.5131117105484009
1667267070057215700,0.7582158203125,0.1948602795600891,0.37383851408958435,-0.4978405237197876
1667267070059613400,0.760613525390625,0.18875180184841156,0.3640649616718292,-0.4825693368911743
1667267070062011100,0.76301123046875,0.1820324808359146,0.34940463304519653,-0.46241137385368347
1667267070064409000,0.7654091796875,0.17409147322177887,0.3396310806274414,-0.4428642690181732
1667267070066806800,0.767806884765625,0.16676130890846252,0.3249707520008087,-0.4227063059806824
1667267070069204500,0.77020458984375,0.1557660549879074,0.30969956517219543,-0.40132665634155273
1667267070071602200,0.772602294921875,0.14904673397541046,0.29748260974884033,-0.3787252902984619
1667267070074000000,0.774999755859375,0.1441599577665329,0.2864873707294464,-0.3555130958557129
1667267070076397600,0.7773974609375,0.13927318155765533,0.2767138183116913,-0.33291175961494446
1667267070078795500,0.77979541015625,0.13744063675403595,0.26694026589393616,-0.30664533376693726
1667267070081193200,0.782193115234375,0.13499724864959717,0.261442631483078,-0.284654825925827
1667267070083591000,0.7845908203125,0.13438639044761658,0.25777754187583923,-0.2644968628883362
1667267070085988600,0.786988525390625,0.13438639044761658,0.25716668367385864,-0.24617144465446472
1667267070088386300,0.78938623046875,0.13866232335567474,0.25777754187583923,-0.23151111602783203
1667267070090784300,0.7917841796875,0.1453816443681717,0.2596100866794586,-0.21929416060447693
1667267070093182000,0.794181884765625,0.1575985997915268,0.2626643180847168,-0.21196399629116058
1667267070095579600,0.79657958984375,0.1692046970129013,0.265718549489975,-0.20585553348064423
1667267070097977300,0.798977294921875,0.18691925704479218,0.27060532569885254,-0.20463383197784424
1667267070100375000,0.801375,0.20341213047504425,0.26999449729919434,-0.20646637678146362
1667267070102773000,0.80377294921875,0.22479179501533508,0.2651077210903168,-0.2107423096895218
1667267070105170700,0.806170654296875,0.24678228795528412,0.2632751762866974,-0.21440738439559937
1667267070107568400,0.808568359375,0.27060532569885254,0.2602209448814392,-0.2223484069108963
1667267070109966000,0.810966064453125,0.29626092314720154,0.25411245226860046,-0.23273280262947083
1667267070112363800,0.81336376953125,0.32069480419158936,0.24617144465446472,-0.24311721324920654
1667267070114761700,0.81576171875,0.34573954343795776,0.2357870489358902,-0.25289076566696167
1667267070117159400,0.818159423828125,0.367730051279068,0.22051586210727692,-0.2651077210903168
1667267070119557000,0.82055712890625,0.38605546951293945,0.208298921585083,-0.27854636311531067
1667267070121954800,0.822954833984375,0.4056025743484497,0.19241689145565033,-0.29503923654556274
1667267070124352500,0.8253525390625,0.4202629029750824,0.17531315982341766,-0.31031039357185364
1667267070126750200,0.827750244140625,0.4306473135948181,0.16126367449760437,-0.3286358118057251
1667267070129148200,0.830148193359375,0.43797749280929565,0.14843589067459106,-0.34573954343795776
1667267070131545900,0.8325458984375,0.43919917941093445,0.1429382562637329,-0.36223241686820984
1667267070133943600,0.834943603515625,0.4349232614040375,0.13560809195041656,-0.37689274549484253
1667267070136341200,0.83734130859375,0.42637139558792114,0.1325538605451584,-0.39766156673431396
1667267070138739200,0.8397392578125,0.41232189536094666,0.12888877093791962,-0.4172086715698242
1667267070141137000,0.842136962890625,0.393385648727417,0.12888877093791962,-0.43919917941093445
1667267070143534600,0.84453466796875,0.3683409094810486,0.12888877093791962,-0.46241137385368347
1667267070145932300,0.846932373046875,0.3408527672290802,0.12827792763710022,-0.4844018816947937
1667267070148330000,0.849330078125,0.30908870697021484,0.12766708433628082,-0.5094466209411621
1667267070150727700,0.851727783203125,0.2748812735080719,0.12400199472904205,-0.5363239049911499
1667267070153125600,0.854125732421875,0.237008735537529,0.11422843486070633,-0.5668662786483765
1667267070155523300,0.8565234375,0.1985253542661667,0.10140064358711243,-0.5961869359016418
1667267070157921000,0.858921142578125,0.16004198789596558,0.08185353130102158,-0.6297835111618042
1667267070160318700,0.861318603515625,0.1178935244679451,0.05619794875383377,-0.6633801460266113
1667267070162716400,0.86371630859375,0.0781884491443634,0.02748812735080719,-0.6963658928871155
1667267070165114400,0.8661142578125,0.0390942245721817,-0.0036650835536420345,-0.7281299233436584
1667267070167512000,0.868511962890625,0,-0.0397050715982914,-0.763559103012085
1667267070169909800,0.87090966796875,-0.037261683493852615,-0.07024743407964706,-0.7947123050689697
1667267070172307500,0.873307373046875,-0.07452336698770523,-0.09834641218185425,-0.8203678727149963
1667267070174705200,0.875705078125,-0.11300674080848694,-0.12033691257238388,-0.841747522354126
1667267070177103000,0.87810302734375,-0.15026842057704926,-0.14049486815929413,-0.8570187091827393
1667267070179500800,0.880500732421875,-0.18814095854759216,-0.15393351018428802,-0.8655705451965332
1667267070181898500,0.8828984375,-0.22601348161697388,-0.16553960740566254,-0.869235634803772
1667267070184296200,0.885296142578125,-0.2620534598827362,-0.17225892841815948,-0.8655705451965332
1667267070186694000,0.88769384765625,-0.2980934679508209,-0.17653486132621765,-0.8582404255867004
1667267070189091800,0.890091796875,-0.3310792148113251,-0.17470231652259827,-0.8472451567649841
1667267070191489500,0.892489501953125,-0.36039987206459045,-0.1692046970129013,-0.833195686340332
1667267070193887200,0.89488720703125,-0.38605546951293945,-0.16370706260204315,-0.8167027831077576
1667267070196285000,0.897284912109375,-0.4080459773540497,-0.15454435348510742,-0.7983773946762085
1667267070198682600,0.8996826171875,-0.42576053738594055,-0.1429382562637329,-0.7782194018363953
1667267070201080300,0.902080322265625,-0.4306473135948181,-0.12888877093791962,-0.7617265582084656
1667267070203478300,0.904478271484375,-0.4312581717967987,-0.1172826737165451,-0.7458444833755493
1667267070205876000,0.9068759765625,-0.42514967918395996,-0.10934165865182877,-0.7348492741584778
1667267070208273700,0.909273681640625,-0.41171106696128845,-0.10384403169155121,-0.7275190949440002
1667267070210671400,0.91167138671875,-0.3921639323234558,-0.10140064358711243,-0.7256865501403809
1667267070213069000,0.914069091796875,-0.3658975064754486,-0.10689827054738998,-0.730573296546936
1667267070215467000,0.916467041015625,-0.33413344621658325,-0.1185043677687645,-0.7379034757614136
1667267070217864700,0.91886474609375,-0.29748260974884033,-0.13560809195041656,-0.7501204609870911
1667267070220262400,0.921262451171875,-0.25594499707221985,-0.1588202863931656,-0.7623373866081238
1667267070222660000,0.92366015625,-0.2089097648859024,-0.1832541823387146,-0.7739434838294983
1667267070225058000,0.92605810546875,-0.16126367449760437,-0.20463383197784424,-0.786771297454834
1667267070227455700,0.928455810546875,-0.10934165865182877,-0.22601348161697388,-0.7977665066719055
1667267070229853400,0.930853515625,-0.054365407675504684,-0.24433889985084534,-0.8057075142860413
1667267070232251100,0.933251220703125,-0.0024433890357613564,-0.25777754187583923,-0.8112051486968994
1667267070234648800,0.93564892578125,0.05070032179355621,-0.26816195249557495,-0.8105943202972412
1667267070237046500,0.938046630859375,0.10078980028629303,-0.28098973631858826,-0.8075400590896606
1667267070239444500,0.940444580078125,0.15087927877902985,-0.2858765125274658,-0.7983773946762085
1667267070241842200,0.94284228515625,0.19180603325366974,-0.2883199155330658,-0.7879929542541504
1667267070244240000,0.945239990234375,0.23151111602783203,-0.2919849753379822,-0.7702783942222595
1667267070246637600,0.947637451171875,0.2620534598827362,-0.2901524603366852,-0.7501204609870911
1667267070249035300,0.95003515625,0.2864873707294464,-0.2877090573310852,-0.7238540053367615
1667267070251433200,0.95243310546875,0.3035911023616791,-0.2895416021347046,-0.6957550048828125
1667267070253831000,0.954830810546875,0.3158080279827118,-0.291374146938324,-0.6664343476295471
1667267070256228600,0.957228515625,0.31947311758995056,-0.29687178134918213,-0.6340594291687012
1667267070258626300,0.959626220703125,0.32069480419158936,-0.30725616216659546,-0.5998520255088806
1667267070261024000,0.96202392578125,0.3115321099758148,-0.31825143098831177,-0.5662553906440735
1667267070263422000,0.964421875,0.29748260974884033,-0.3310792148113251,-0.5320479869842529
1667267070265819600,0.966819580078125,0.27976804971694946,-0.342074453830719,-0.4960079789161682
1667267070268217300,0.96921728515625,0.25594499707221985,-0.34818294644355774,-0.4593571424484253
1667267070270615000,0.971614990234375,0.23028941452503204,-0.34696123003959656,-0.42392799258232117
1667267070273012700,0.9740126953125,0.20096874237060547,-0.3414636254310608,-0.3903313875198364
1667267070275410700,0.97641064453125,0.17592400312423706,-0.3274141252040863,-0.3555130958557129
1667267070277808400,0.978808349609375,0.15210096538066864,-0.30908870697021484,-0.32130566239356995
1667267070280206000,0.9812060546875,0.1301104724407196,-0.28404396772384644,-0.29259583353996277
1667267070282603800,0.983603759765625,0.11300674080848694,-0.258999228477478,-0.26755109429359436
1667267070285001500,0.98600146484375,0.10201149433851242,-0.23028941452503204,-0.24250635504722595
1667267070287399200,0.988399169921875,0.09407047927379608,-0.20463383197784424,-0.2235700935125351
1667267070289797000,0.990797119140625,0.0910162404179573,-0.17836740612983704,-0.208298921585083
1667267070292194800,0.99319482421875,0.0916270911693573,-0.15026842057704926,-0.1966928243637085
1667267070294592500,0.995592529296875,0.09773556143045425,-0.12278030067682266,-0.19058434665203094
1667267070296990200,0.997990234375,0.10628741979598999,-0.09651386737823486,-0.18691925704479218
1667267070299388200,1.00038818359375,0.11483928561210632,-0.07024743407964706,-0.18936264514923096
1667267070301785900,1.002785888671875,0.12827792763710022,-0.04214845970273018,-0.19302773475646973
1667267070304183600,1.00518359375,0.14049486815929413,-0.01954711228609085,-0.20707722008228302
1667267070306581200,1.007581298828125,0.15332266688346863,-0.0024433890357613564,-0.2235700935125351
1667267070308979000,1.00997900390625,0.16615045070648193,0.01038440316915512,-0.2473931461572647
1667267070311377000,1.012376953125,0.17714570462703705,0.011606098152697086,-0.2748812735080719
1667267070313774600,1.014774658203125,0.18814095854759216,0.01038440316915512,-0.31031039357185364
1667267070316172300,1.01717236328125,0.20035789906978607,0.005497625097632408,-0.34818294644355774
1667267070318570000,1.019570068359375,0.21379654109477997,0.0006108472589403391,-0.3921639323234558
1667267070320967700,1.0219677734375,0.22723518311977386,-0.0030542362947016954,-0.43981003761291504
1667267070323365600,1.02436572265625,0.24311721324920654,-0.004275931045413017,-0.48989951610565186
1667267070325763300,1.026763427734375,0.2583884000778198,-0.0012216945178806782,-0.5418215394020081
1667267070328161000,1.0291611328125,0.2730487287044525,0.007941014133393764,-0.5955760478973389
1667267070330558700,1.031558837890625,0.288930743932724,0.01710372418165207,-0.6505523324012756
1667267070332956400,1.033956298828125,0.30481278896331787,0.02626643143594265,-0.7067502737045288
1667267070335354000,1.03635400390625,0.31886225938796997,0.038483377546072006,-0.7592831254005432
1667267070337752000,1.038751953125,0.3365768492221832,0.047646086663007736,-0.8118160367012024
1667267070340149800,1.041149658203125,0.3530697226524353,0.055587101727724075,-0.8600729703903198
1667267070342547500,1.04354736328125,0.37200596928596497,0.05864133685827255,-0.9083298444747925
1667267070344945200,1.045945068359375,0.38788801431655884,0.05864133685827255,-0.9535325765609741
1667267070347343000,1.048343017578125,0.4062134325504303,0.0525328628718853,-0.9962918758392334
1667267070349740800,1.05074072265625,0.42453885078430176,0.042759306728839874,-1.0341644287109375
1667267070352138500,1.053138427734375,0.444085955619812,0.024433890357613564,-1.0702043771743774
1667267070354536200,1.0555361328125,0.46363306045532227,-0.0006108472589403391,-1.100746750831604
1667267070356934000,1.057933837890625,0.48073679208755493,-0.026877280324697495,-1.1306782960891724
1667267070359331600,1.06033154296875,0.4953971207141876,-0.04886778071522713,-1.1551121473312378
1667267070361729500,1.0627294921875,0.5076140761375427,-0.0647498071193695,-1.1740484237670898
1667267070364127200,1.065127197265625,0.5192201733589172,-0.07269082218408585,-1.1874871253967285
1667267070366525000,1.06752490234375,0.5283828973770142,-0.07391251623630524,-1.1917630434036255
1667267070368922600,1.069922607421875,0.5320479869842529,-0.07330167293548584,-1.1917630434036255
1667267070371320300,1.0723203125,0.5357130169868469,-0.06902574002742767,-1.184432864189148
1667267070373718300,1.07471826171875,0.5405998229980469,-0.05497625470161438,-1.1691616773605347
1667267070376116000,1.077115966796875,0.5522059202194214,-0.026877280324697495,-1.1453386545181274
1667267070378513700,1.079513671875,0.5644228458404541,0.009773556143045425,-1.1117420196533203
1667267070380911400,1.081911376953125,0.5803049206733704,0.06169557198882103,-1.0714260339736938
1667267070383309000,1.08430908203125,0.601073682308197,0.1313321590423584,-1.0207257270812988
1667267070385707000,1.08670703125,0.6218425035476685,0.2113531529903412,-0.9608627557754517
1667267070388104700,1.089104736328125,0.6432221531867981,0.30786702036857605,-0.893058717250824
1667267070390502400,1.09150244140625,0.6621584296226501,0.4068242609500885,-0.8197570443153381
1667267070392900000,1.093900146484375,0.6774296164512634,0.5027272701263428,-0.7421793937683105
1667267070395297800,1.0962978515625,0.6933116316795349,0.5913001298904419,-0.6621584296226501
1667267070397695700,1.09869580078125,0.7091936469078064,0.6713211536407471,-0.5809157490730286
1667267070400093400,1.101093505859375,0.7189671993255615,0.7434011101722717,-0.4978405237197876
1667267070402491100,1.1034912109375,0.7336275577545166,0.8130376935005188,-0.41415444016456604
1667267070404888800,1.105888916015625,0.7391251921653748,0.8790091872215271,-0.33291175961494446
1667267070407286500,1.10828662109375,0.7421793937683105,0.9443698525428772,-0.25655585527420044
1667267070409684500,1.1106845703125,0.7409577369689941,1.0042328834533691,-0.182643324136734
1667267070412082200,1.113082275390625,0.7348492741584778,1.0598199367523193,-0.11606097966432571
1667267070414480000,1.11547998046875,0.7244648337364197,1.1031901836395264,-0.0525328628718853
1667267070416877600,1.117877685546875,0.7116370797157288,1.138619303703308,0.0024433890357613564
1667267070419275300,1.120275146484375,0.6969767212867737,1.1636639833450317,0.05375456064939499
1667267070421673200,1.122673095703125,0.6817055344581604,1.1734375953674316,0.10017894953489304
1667267070424071000,1.12507080078125,0.6670452356338501,1.1728267669677734,0.13988402485847473
1667267070426468600,1.127468505859375,0.6462764143943787,1.1593880653381348,0.1716480851173401
1667267070428866300,1.1298662109375,0.6322268843650818,1.132510781288147,0.1973036676645279
1667267070431264000,1.132263916015625,0.6157340407371521,1.0946383476257324,0.2113531529903412
1667267070433662000,1.134661865234375,0.6016845703125,1.0512681007385254,0.2211267054080963
1667267070436059600,1.1370595703125,0.5900784730911255,0.998735249042511,0.2217375487089157
1667267070438457300,1.139457275390625,0.5790832042694092,0.9358180165290833,0.21623992919921875
1667267070440855000,1.14185498046875,0.5729747414588928,0.8631271719932556,0.2095206081867218
1667267070443252700,1.144252685546875,0.5680879354476929,0.7855495810508728,0.1948602795600891
1667267070445650700,1.146650634765625,0.5632011890411377,0.6994200944900513,0.18081079423427582
1667267070448048400,1.14904833984375,0.5589252710342407,0.610236406326294,0.16126367449760437
1667267070450446000,1.151446044921875,0.555260181427002,0.5222744345664978,0.1435490995645523
1667267070452843800,1.15384375,0.5485408306121826,0.44042086601257324,0.12339114397764206
1667267070455241500,1.156241455078125,0.5393781065940857,0.365286648273468,0.10262233763933182
1667267070457639200,1.15863916015625,0.527161180973053,0.2993151545524597,0.08002099394798279
1667267070460037000,1.161037109375,0.5106683373451233,0.24189551174640656,0.05803048983216286
1667267070462434800,1.163434814453125,0.48806697130203247,0.1948602795600891,0.04092676565051079
1667267070464832500,1.16583251953125,0.4618005156517029,0.15454435348510742,0.023823043331503868
1667267070467230200,1.168230224609375,0.42881476879119873,0.11972606182098389,0.009773556143045425
1667267070469628200,1.170628173828125,0.3921639323234558,0.08857285231351852,-0.0024433890357613564
1667267070472025900,1.17302587890625,0.3530697226524353,0.0647498071193695,-0.012216945178806782
1667267070474423600,1.175423583984375,0.3115321099758148,0.043981000781059265,-0.018936265259981155
1667267070476821200,1.1778212890625,0.2626643180847168,0.03176405653357506,-0.02076880633831024
1667267070479219000,1.180218994140625,0.21318569779396057,0.02626643143594265,-0.01954711228609085
1667267070481616600,1.18261669921875,0.16553960740566254,0.02626643143594265,-0.010995250195264816
1667267070484014600,1.1850146484375,0.11483928561210632,0.029320668429136276,0.0024433890357613564
1667267070486412300,1.187412353515625,0.061084724962711334,0.029320668429136276,0.02076880633831024
1667267070488810000,1.18981005859375,0.010995250195264816,0.03237490355968475,0.04337015375494957
1667267070491207700,1.192207763671875,-0.038483377546072006,0.02748812735080719,0.06963659077882767
1667267070493605400,1.19460546875,-0.08490777015686035,0.02504473738372326,0.10323318839073181
1667267070496003300,1.19700341796875,-0.12888877093791962,0.015271181240677834,0.13744063675403595
1667267070498401000,1.199401123046875,-0.1704263836145401,0.004275931045413017,0.17286977171897888
1667267070500798700,1.201798828125,-0.20646637678146362,-0.00916270911693573,0.20707722008228302
1667267070503196400,1.204196533203125,-0.23884128034114838,-0.024433890357613564,0.24250635504722595
1667267070505594000,1.206593994140625,-0.26694026589393616,-0.043981000781059265,0.27854636311531067
1667267070507992000,1.208991943359375,-0.288930743932724,-0.0647498071193695,0.3176405727863312
1667267070510389800,1.2113896484375,-0.30603447556495667,-0.08551861345767975,0.3536805510520935
1667267070512787500,1.213787353515625,-0.31886225938796997,-0.10384403169155121,0.3921639323234558
1667267070515185200,1.21618505859375,-0.3274141252040863,-0.11911521852016449,0.4306473135948181
1667267070517583000,1.2185830078125,-0.33352261781692505,-0.12888877093791962,0.4703523814678192
1667267070519980800,1.220980712890625,-0.33535513281822205,-0.13866232335567474,0.5070032477378845
1667267070522378500,1.22337841796875,-0.33535513281822205,-0.1453816443681717,0.5485408306121826
1667267070524776200,1.225776123046875,-0.33352261781692505,-0.14782503247261047,0.5882459282875061
1667267070527174000,1.228173828125,-0.3298575282096863,-0.15087927877902985,0.6303943991661072
1667267070529571600,1.230571533203125,-0.3268032968044281,-0.1575985997915268,0.6646018028259277
1667267070531969500,1.232969482421875,-0.32069480419158936,-0.1710372269153595,0.6981984376907349
1667267070534367200,1.2353671875,-0.3133646547794342,-0.18997350335121155,0.7262973785400391
1667267070536765000,1.237764892578125,-0.30481278896331787,-0.20768806338310242,0.7501204609870911
1667267070539162600,1.24016259765625,-0.29565006494522095,-0.2241809368133545,0.7696675658226013
1667267070541560300,1.242560302734375,-0.28343313932418823,-0.24067382514476776,0.7886037826538086
1667267070543958300,1.244958251953125,-0.26999449729919434,-0.25533416867256165,0.8081509470939636
1667267070546356000,1.24735595703125,-0.2522799074649811,-0.26632940769195557,0.8234221339225769
1667267070548753700,1.249753662109375,-0.2351761907339096,-0.27915719151496887,0.8435800671577454
1667267070551151400,1.2521513671875,-0.21379654109477997,-0.2883199155330658,0.8576295375823975
1667267070553549000,1.254549072265625,-0.19058434665203094,-0.2980934679508209,0.8729007244110107
1667267070555947000,1.256947021484375,-0.16737215220928192,-0.312142938375473,0.883895993232727
1667267070558344700,1.2593447265625,-0.14110571146011353,-0.3243598937988281,0.8948912620544434
1667267070560742400,1.261742431640625,-0.11606097966432571,-0.33413344621658325,0.9101623892784119
1667267070563140000,1.26414013671875,-0.09345962852239609,-0.34757208824157715,0.9236010313034058
1667267070565537800,1.266537841796875,-0.07330167293548584,-0.3536805510520935,0.9352071285247803
1667267070567935700,1.268935791015625,-0.05375456064939499,-0.3646758198738098,0.9462023973464966
1667267070570333400,1.27133349609375,-0.034818295389413834,-0.3701734244823456,0.9584193229675293
1667267070572731100,1.273731201171875,-0.01832541823387146,-0.3811686933040619,0.971247136592865
1667267070575128800,1.27612890625,-0.006108472589403391,-0.3915531039237976,0.9846857786178589
1667267070577526500,1.278526611328125,0.006719320081174374,-0.39949411153793335,0.9956810474395752
1667267070579924500,1.280924560546875,0.014660334214568138,-0.41110020875930786,1.0066763162612915
1667267070582322200,1.283322265625,0.023823043331503868,-0.4227063059806824,1.01706063747406
1667267070584720000,1.285719970703125,0.028098974376916885,-0.4367557764053345,1.0274450778961182
1667267070587117600,1.28811767578125,0.03237490355968475,-0.44958359003067017,1.0378295183181763
1667267070589515300,1.290515380859375,0.02993151545524597,-0.46485477685928345,1.0463813543319702
1667267070591913200,1.292913330078125,0.02870982140302658,-0.47707170248031616,1.0555440187454224
1667267070594311000,1.295310791015625,0.023212196305394173,-0.4886777997016907,1.0592091083526611
1667267070596708600,1.29770849609375,0.01710372418165207,-0.5002838969230652,1.0640959739685059
1667267070599106300,1.300106201171875,0.008551862090826035,-0.5118899941444397,1.0640959739685059
1667267070601504000,1.30250390625,-0.0036650835536420345,-0.5210527181625366,1.0640959739685059
1667267070603902000,1.30490185546875,-0.01588202826678753,-0.5296045541763306,1.0616525411605835
1667267070606299600,1.307299560546875,-0.02748812735080719,-0.5320479869842529,1.0573766231536865
1667267070608697300,1.309697265625,-0.04092676565051079,-0.5332696437835693,1.0482138395309448
1667267070611095000,1.312094970703125,-0.05619794875383377,-0.53143709897995,1.035996913909912
1667267070613492700,1.31449267578125,-0.07085828483104706,-0.5253286361694336,1.0243908166885376
1667267070615890700,1.316890625,-0.08735115826129913,-0.517998456954956,1.0085088014602661
1667267070618288400,1.319288330078125,-0.10017894953489304,-0.5076140761375427,0.9932376146316528
1667267070620686000,1.32168603515625,-0.11483928561210632,-0.497229665517807,0.9706363081932068
1667267070623083800,1.324083740234375,-0.12888877093791962,-0.4850127100944519,0.9486457705497742
1667267070625481500,1.3264814453125,-0.1423274129629135,-0.4715740978717804,0.9236010313034058
1667267070627879200,1.328879150390625,-0.15454435348510742,-0.4563029110431671,0.896723747253418
1667267070630277000,1.331277099609375,-0.16676130890846252,-0.4422534108161926,0.8704573512077332
1667267070632674800,1.3336748046875,-0.17836740612983704,-0.42637139558792114,0.8386932611465454
1667267070635072500,1.336072509765625,-0.1844758689403534,-0.41293275356292725,0.8069292306900024
1667267070637470200,1.33847021484375,-0.19180603325366974,-0.39643988013267517,0.7715001106262207
1667267070639868200,1.3408681640625,-0.1973036676645279,-0.3817795515060425,0.7372926473617554
1667267070642265900,1.343265869140625,-0.20219044387340546,-0.3658975064754486,0.7012526392936707
1667267070644663600,1.34566357421875,-0.20157960057258606,-0.3518480062484741,0.6682668924331665
1667267070647061200,1.348061279296875,-0.20280128717422485,-0.337798535823822,0.6328377723693848
1667267070649459000,1.350458984375,-0.20219044387340546,-0.3268032968044281,0.601073682308197
1667267070651857000,1.35285693359375,-0.20035789906978607,-0.314586341381073,0.5686988234519958
1667267070654254600,1.355254638671875,-0.1979145109653473,-0.30725616216659546,0.5387672781944275
1667267070656652300,1.35765234375,-0.19241689145565033,-0.3017585575580597,0.5118899941444397
1667267070659050000,1.360050048828125,-0.18875180184841156,-0.2987042963504791,0.4837910234928131
1667267070661447700,1.36244775390625,-0.182643324136734,-0.2987042963504791,0.46241137385368347
1667267070663845400,1.364845458984375,-0.17775654792785645,-0.3023693859577179,0.4422534108161926
1667267070666243300,1.367243408203125,-0.17225892841815948,-0.30969956517219543,0.42576053738594055
1667267070668641000,1.36964111328125,-0.16615045070648193,-0.314586341381073,0.41232189536094666
1667267070671038700,1.372038818359375,-0.16126367449760437,-0.31947311758995056,0.40132665634155273
1667267070673436400,1.3744365234375,-0.15454435348510742,-0.31947311758995056,0.3958290219306946
1667267070675834000,1.376834228515625,-0.15149012207984924,-0.32313820719718933,0.3921639323234558
1667267070678232000,1.379232177734375,-0.14660334587097168,-0.3249707520008087,0.393385648727417
1667267070680629800,1.381629638671875,-0.13927318155765533,-0.3255815804004669,0.40010493993759155
1667267070683027500,1.38402734375,-0.13499724864959717,-0.3298575282096863,0.4074351191520691
1667267070685425200,1.386425048828125,-0.130721315741539,-0.33291175961494446,0.4178195297718048
1667267070687823000,1.388822998046875,-0.12522368133068085,-0.3365768492221832,0.4324798583984375
1667267070690220800,1.391220703125,-0.12033691257238388,-0.3390202224254608,0.446529358625412
1667267070692618500,1.393618408203125,-0.11483928561210632,-0.34818294644355774,0.46546560525894165
1667267070695016200,1.39601611328125,-0.11300674080848694,-0.3555130958557129,0.4856235682964325
1667267070697414000,1.398413818359375,-0.10934165865182877,-0.363454133272171,0.5070032477378845
1667267070699811600,1.4008115234375,-0.10934165865182877,-0.37078428268432617,0.5289937257766724
1667267070702209500,1.40320947265625,-0.10934165865182877,-0.37689274549484253,0.5564818382263184
1667267070704607200,1.405607177734375,-0.10873081535100937,-0.3793361485004425,0.5790832042694092
1667267070707005000,1.4080048828125,-0.10750912129878998,-0.38422292470932007,0.6047387719154358
1667267070709402600,1.410402587890625,-0.1056765764951706,-0.38483378291130066,0.6310052275657654
1667267070711800300,1.41280029296875,-0.10323318839073181,-0.38849884271621704,0.660936713218689
1667267070714198300,1.4151982421875,-0.10262233763933182,-0.3927747905254364,0.6878139972686768
1667267070716596000,1.417595947265625,-0.09956810623407364,-0.39827242493629456,0.7140804529190063
1667267070718993700,1.41999365234375,-0.09590301662683487,-0.4062134325504303,0.7415685653686523
1667267070721391400,1.422391357421875,-0.09345962852239609,-0.416597843170166,0.7696675658226013
1667267070723789000,1.4247890625,-0.09040539711713791,-0.42759308218955994,0.7947123050689697
1667267070726187000,1.42718701171875,-0.08612946420907974,-0.4416425824165344,0.8246437907218933
1667267070728584700,1.429584716796875,-0.08368607610464096,-0.4563029110431671,0.8509102463722229
1667267070730982400,1.431982421875,-0.0781884491443634,-0.4746283292770386,0.8808417320251465
1667267070733380000,1.434380126953125,-0.07513421028852463,-0.4960079789161682,0.9071081876754761
1667267070735777800,1.43677783203125,-0.07330167293548584,-0.518609344959259,0.9321529269218445
1667267070738175700,1.43917578125,-0.06841489672660828,-0.5442649126052856,0.9602518677711487
1667267070740573400,1.441573486328125,-0.06291726976633072,-0.5668662786483765,0.9895725846290588
1667267070742971100,1.44397119140625,-0.05741964280605316,-0.5906893014907837,1.0164498090744019
1667267070745368800,1.446368896484375,-0.05131116881966591,-0.6114581227302551,1.0433270931243896
1667267070747766500,1.4487666015625,-0.04581354558467865,-0.6303943991661072,1.0702043771743774
1667267070750164500,1.45116455078125,-0.04092676565051079,-0.6474980711936951,1.096470832824707
1667267070752562200,1.453562255859375,-0.03420744836330414,-0.6627692580223083,1.1178505420684814
1667267070754960000,1.4559599609375,-0.02870982140302658,-0.675597071647644,1.1441168785095215
1667267070757357600,1.458357666015625,-0.021379653364419937,-0.6878139972686768,1.1630531549453735
1667267070759755300,1.46075537109375,-0.016492875292897224,-0.6994200944900513,1.1819894313812256
1667267070762153200,1.4631533203125,-0.012827792204916477,-0.7091936469078064,1.197871446609497
1667267070764551000,1.465551025390625,-0.007941014133393764,-0.7153021693229675,1.2106993198394775
1667267070766948600,1.467948486328125,-0.0012216945178806782,-0.7183563709259033,1.2186403274536133
1667267070769346300,1.47034619140625,0.0006108472589403391,-0.7214106321334839,1.2284138202667236
1667267070771744300,1.472744140625,0.004275931045413017,-0.7201889157295227,1.2326897382736206
1667267070774142000,1.475141845703125,0.006719320081174374,-0.7159129977226257,1.2369656562805176
1667267070776539600,1.47753955078125,0.007941014133393764,-0.7085828185081482,1.2381874322891235
1667267070778937300,1.479937255859375,0.011606098152697086,-0.7006418108940125,1.2375766038894653
1667267070781335000,1.4823349609375,0.017714571207761765,-0.6927008032798767,1.2375766038894653
1667267070783732700,1.484732666015625,0.022601349279284477,-0.6835380792617798,1.235133171081543
1667267070786130700,1.487130615234375,0.026877280324697495,-0.6743753552436829,1.230857253074646
1667267070788528400,1.4895283203125,0.03542914241552353,-0.6652126908302307,1.2259705066680908
1667267070790926000,1.491926025390625,0.043981000781059265,-0.6554391384124756,1.220472812652588
1667267070793323800,1.49432373046875,0.05008947476744652,-0.6420004963874817,1.2149752378463745
1667267070795721500,1.496721435546875,0.056808795779943466,-0.629172682762146,1.203369140625
1667267070798119400,1.499119384765625,0.06352811306715012,-0.6151232123374939,1.1942063570022583
1667267070800517000,1.50151708984375,0.06963659077882767,-0.5955760478973389,1.183211088180542
1667267070802914800,1.503914794921875,0.07513421028852463,-0.578472375869751,1.1716049909591675
1667267070805312500,1.5063125,0.07757759839296341,-0.5595360994338989,1.1581664085388184
1667267070807710200,1.508710205078125,0.07574506103992462,-0.5418215394020081,1.1435060501098633
1667267070810108200,1.511108154296875,0.07574506103992462,-0.5222744345664978,1.1288456916809082
1667267070812505900,1.513505859375,0.07269082218408585,-0.5008947253227234,1.113574504852295
1667267070814903600,1.515903564453125,0.06780404597520828,-0.48012593388557434,1.0989142656326294
1667267070817301200,1.51830126953125,0.06291726976633072,-0.4556920528411865,1.0836430788040161
1667267070819699000,1.520698974609375,0.05619794875383377,-0.42881476879119873,1.0702043771743774
1667267070822097000,1.523096923828125,0.047646086663007736,-0.39827242493629456,1.0579874515533447
1667267070824494600,1.52549462890625,0.037261683493852615,-0.365286648273468,1.0482138395309448
1667267070826892300,1.527892333984375,0.02504473738372326,-0.33352261781692505,1.0366077423095703
1667267070829290000,1.5302900390625,0.009773556143045425,-0.3029802441596985,1.0274450778961182
1667267070831687700,1.532687744140625,-0.0030542362947016954,-0.27060532569885254,1.0188932418823242
1667267070834085600,1.535085693359375,-0.020157959312200546,-0.24189551174640656,1.009730577468872
1667267070836483300,1.5374833984375,-0.03542914241552353,-0.2095206081867218,1.0005677938461304
1667267070838881000,1.539881103515625,-0.05131116881966591,-0.18081079423427582,0.9926267862319946
1667267070841278700,1.54227880859375,-0.06902574002742767,-0.15393351018428802,0.9834640622138977
1667267070843676400,1.544676513671875,-0.08674030750989914,-0.13744063675403595,0.9749122262001038
1667267070846074000,1.54707421875,-0.10262233763933182,-0.129499614238739,0.966971218585968
1667267070848472000,1.54947216796875,-0.1185043677687645,-0.13377554714679718,0.9590302109718323
1667267070850869800,1.551869873046875,-0.1325538605451584,-0.1435490995645523,0.9602518677711487
1667267070853267500,1.554267333984375,-0.14782503247261047,-0.15943112969398499,0.962695300579071
1667267070855665200,1.5566650390625,-0.16126367449760437,-0.17470231652259827,0.9651386737823486
1667267070858063000,1.55906298828125,-0.17470231652259827,-0.18753011524677277,0.9718579649925232
1667267070860460800,1.561460693359375,-0.18753011524677277,-0.19424942135810852,0.9749122262001038
1667267070862858500,1.5638583984375,-0.1979145109653473,-0.19241689145565033,0.9816315174102783
1667267070865256200,1.566256103515625,-0.2101314514875412,-0.18142163753509521,0.9883508682250977
1667267070867654000,1.56865380859375,-0.22051586210727692,-0.1582094430923462,0.9956810474395752
1667267070870051800,1.5710517578125,-0.22967857122421265,-0.12583453953266144,1.0005677938461304
1667267070872449500,1.573449462890625,-0.24006296694278717,-0.08735115826129913,1.0066763162612915
1667267070874847200,1.57584716796875,-0.25350162386894226,-0.02076880633831024,1.0042328834533691
1667267070877245000,1.578244873046875,-0.26877278089523315,0.08185353130102158,0.998735249042511
1667267070879642600,1.580642578125,-0.284654825925827,0.16492876410484314,0.994459331035614
1667267070882040300,1.583040283203125,-0.29687178134918213,0.22662433981895447,0.9889616966247559
1667267070884438300,1.585438232421875,-0.30908870697021484,0.26938363909721375,0.9816315174102783
1667267070886836000,1.5878359375,-0.32008397579193115,0.3042019307613373,0.971247136592865
1667267070889233700,1.590233642578125,-0.3298575282096863,0.3292466700077057,0.9584193229675293
1667267070891631400,1.59263134765625,-0.33474430441856384,0.3549022674560547,0.9449806809425354
1667267070894029000,1.595029052734375,-0.3384093940258026,0.3823903799057007,0.9242119193077087
1667267070896427000,1.597427001953125,-0.3396310806274414,0.4074351191520691,0.9034430980682373
1667267070898824700,1.59982470703125,-0.3402419090270996,0.4294256269931793,0.8765658140182495
1667267070901222400,1.602222412109375,-0.3390202224254608,0.4446968138217926,0.8496885299682617
1667267070903620000,1.6046201171875,-0.33535513281822205,0.45019441843032837,0.8222004175186157
1667267070906018000,1.60701806640625,-0.33169007301330566,0.4477510452270508,0.7953231334686279
1667267070908415700,1.609415771484375,-0.3286358118057251,0.4367557764053345,0.7690566778182983
1667267070910813400,1.6118134765625,-0.32374903559684753,0.420873761177063,0.7409577369689941
1667267070913211100,1.614211181640625,-0.32252734899520874,0.40193748474121094,0.7165238261222839
1667267070915608800,1.61660888671875,-0.31947311758995056,0.3787252902984619,0.6914790868759155
1667267070918006500,1.619006591796875,-0.31825143098831177,0.3549022674560547,0.6670452356338501
1667267070920404500,1.621404541015625,-0.3170297145843506,0.33474430441856384,0.6456655263900757
1667267070922802200,1.62380224609375,-0.31825143098831177,0.314586341381073,0.6267293095588684
1667267070925200000,1.626199951171875,-0.32008397579193115,0.29503923654556274,0.6053496599197388
1667267070927597600,1.62859765625,-0.32130566239356995,0.2748812735080719,0.5864133834838867
1667267070929995300,1.630995361328125,-0.32374903559684753,0.25411245226860046,0.5650337338447571
1667267070932393200,1.633393310546875,-0.3280249834060669,0.23273280262947083,0.5454866290092468
1667267070934791000,1.635791015625,-0.3280249834060669,0.2113531529903412,0.5265503525733948
1667267070937188600,1.638188720703125,-0.3310792148113251,0.18814095854759216,0.5063923597335815
1667267070939586300,1.64058642578125,-0.33352261781692505,0.16676130890846252,0.48928865790367126
1667267070941984300,1.642984375,-0.33474430441856384,0.1459924876689911,0.4709632396697998
1667267070944382000,1.6453818359375,-0.33535513281822205,0.12644538283348083,0.45141613483428955
1667267070946779600,1.647779541015625,-0.33169007301330566,0.1050657257437706,0.4330907166004181
1667267070949177300,1.65017724609375,-0.3286358118057251,0.08674030750989914,0.41537612676620483
1667267070951575000,1.652574951171875,-0.3249707520008087,0.07085828483104706,0.395218163728714
1667267070953972700,1.65497265625,-0.32069480419158936,0.05497625470161438,0.3762819170951843
1667267070956370700,1.65737060546875,-0.3139754831790924,0.037261683493852615,0.36039987206459045
1667267070958768400,1.659768310546875,-0.30908870697021484,0.02076880633831024,0.34512871503829956
1667267070961166000,1.662166015625,-0.3023693859577179,0.004275931045413017,0.33230090141296387
1667267070963563800,1.664563720703125,-0.29626092314720154,-0.010995250195264816,0.3176405727863312
1667267070965961500,1.66696142578125,-0.2895416021347046,-0.022601349279284477,0.30725616216659546
1667267070968359400,1.669359375,-0.28160059452056885,-0.03665083646774292,0.2993151545524597
1667267070970757000,1.671757080078125,-0.2779355049133301,-0.04703523963689804,0.29442837834358215
1667267070973154800,1.67415478515625,-0.2718270421028137,-0.053143709897994995,0.291374146938324
1667267070975552500,1.676552490234375,-0.2644968628883362,-0.0525328628718853,0.2895416021347046
1667267070977950200,1.6789501953125,-0.25716668367385864,-0.051922015845775604,0.291374146938324
1667267070980348200,1.68134814453125,-0.2486148327589035,-0.04337015375494957,0.29503923654556274
1667267070982745900,1.683745849609375,-0.24189551174640656,-0.03665083646774292,0.2993151545524597
1667267070985143600,1.6861435546875,-0.2339545041322708,-0.023823043331503868,0.3054236173629761
1667267070987541200,1.688541259765625,-0.22479179501533508,-0.01038440316915512,0.31825143098831177
1667267070989939000,1.69093896484375,-0.21379654109477997,0.0036650835536420345,0.3286358118057251
1667267070992337000,1.6933369140625,-0.20341213047504425,0.016492875292897224,0.3402419090270996
1667267070994734600,1.695734619140625,-0.19363857805728912,0.028098974376916885,0.3518480062484741
1667267070997132300,1.69813232421875,-0.17897824943065643,0.042759306728839874,0.36223241686820984
1667267070999530000,1.700530029296875,-0.16615045070648193,0.05619794875383377,0.37322768568992615
1667267071001927700,1.702927734375,-0.15149012207984924,0.07574506103992462,0.3830012381076813
1667267071004325600,1.70532568359375,-0.13560809195041656,0.09773556143045425,0.3921639323234558
1667267071006723300,1.707723388671875,-0.12216944992542267,0.12278030067682266,0.40010493993759155
1667267071009121000,1.71012109375,-0.10689827054738998,0.15210096538066864,0.4037700295448303
1667267071011518700,1.712518798828125,-0.09407047927379608,0.1832541823387146,0.41048935055732727
1667267071013916400,1.71491650390625,-0.0781884491443634,0.21746163070201874,0.418430358171463
1667267071016314000,1.717314208984375,-0.0653606578707695,0.25411245226860046,0.4227063059806824
1667267071018712000,1.719712158203125,-0.051922015845775604,0.2919849753379822,0.42576053738594055
1667267071021109800,1.72210986328125,-0.04031591862440109,0.3304683566093445,0.4324798583984375
1667267071023507500,1.724507568359375,-0.02993151545524597,0.367730051279068,0.43614494800567627
1667267071025905200,1.7269052734375,-0.022601349279284477,0.40254834294319153,0.43797749280929565
1667267071028303000,1.72930322265625,-0.014660334214568138,0.4300364851951599,0.43858832120895386
1667267071030700800,1.73170068359375,-0.006719320081174374,0.45385950803756714,0.43919917941093445
1667267071033098500,1.734098388671875,0,0.4746283292770386,0.43858832120895386
1667267071035496200,1.73649609375,0.007330167107284069,0.49112120270729065,0.4324798583984375
1667267071037894000,1.738893798828125,0.013438640162348747,0.5045598149299622,0.42392799258232117
1667267071040291800,1.741291748046875,0.021379653364419937,0.5155550837516785,0.416597843170166
1667267071042689500,1.743689453125,0.02748812735080719,0.5265503525733948,0.4056025743484497
1667267071045087200,1.746087158203125,0.037261683493852615,0.5332696437835693,0.3927747905254364
1667267071047485000,1.74848486328125,0.04825693368911743,0.5418215394020081,0.3781144618988037
1667267071049882600,1.750882568359375,0.05741964280605316,0.5497625470161438,0.36162158846855164
1667267071052280300,1.7532802734375,0.06841489672660828,0.554649293422699,0.34635040163993835
1667267071054678300,1.75567822265625,0.08002099394798279,0.5577035546302795,0.3268032968044281
1667267071057076000,1.758075927734375,0.09284878522157669,0.5601469278335571,0.30725616216659546
1667267071059473700,1.7604736328125,0.1050657257437706,0.5607577562332153,0.2864873707294464
1667267071061871400,1.762871337890625,0.11606097966432571,0.5601469278335571,0.2638860046863556
1667267071064269000,1.76526904296875,0.12888877093791962,0.555260181427002,0.24128466844558716
1667267071066667000,1.7676669921875,0.1429382562637329,0.546097457408905,0.21562908589839935
1667267071069064700,1.770064697265625,0.15454435348510742,0.5375455617904663,0.18875180184841156
1667267071071462400,1.77246240234375,0.16431790590286255,0.5259394645690918,0.16065283119678497
1667267071073860000,1.774860107421875,0.17592400312423706,0.5100574493408203,0.1319430023431778
1667267071076258000,1.777258056640625,0.18569757044315338,0.49295374751091003,0.10017894953489304
1667267071078655700,1.77965576171875,0.1954711228609085,0.47707170248031616,0.06963659077882767
1667267071081053400,1.782053466796875,0.20463383197784424,0.4593571424484253,0.03787253051996231
1667267071083451100,1.784451171875,0.21379654109477997,0.4422534108161926,0.004275931045413017
1667267071085848800,1.786848876953125,0.2217375487089157,0.4294256269931793,-0.026877280324697495
1667267071088246500,1.78924658203125,0.22906772792339325,0.416597843170166,-0.05864133685827255
1667267071090644500,1.79164453125,0.23334364593029022,0.4056025743484497,-0.08979454636573792
1667267071093042200,1.794042236328125,0.23945212364196777,0.39766156673431396,-0.11911521852016449
1667267071095440000,1.79643994140625,0.24372805655002594,0.393385648727417,-0.14721418917179108
1667267071097837600,1.798837646484375,0.2473931461572647,0.390942245721817,-0.17531315982341766
1667267071100235300,1.8012353515625,0.2492256760597229,0.38666632771492004,-0.20280128717422485
1667267071102633200,1.80363330078125,0.2486148327589035,0.3830012381076813,-0.22784602642059326
1667267071105031000,1.806031005859375,0.2498365342617035,0.3762819170951843,-0.2516690790653229
1667267071107428600,1.8084287109375,0.2492256760597229,0.367730051279068,-0.2730487287044525
1667267071109826300,1.810826416015625,0.2480039894580841,0.35795649886131287,-0.29687178134918213
1667267071112224300,1.813224365234375,0.2480039894580841,0.3402419090270996,-0.31886225938796997
1667267071114622000,1.8156220703125,0.2480039894580841,0.31947311758995056,-0.3384093940258026
1667267071117019600,1.81801953125,0.24556060135364532,0.2980934679508209,-0.35856732726097107
1667267071119417300,1.820417236328125,0.24433889985084534,0.27060532569885254,-0.37383851408958435
1667267071121815000,1.82281494140625,0.24189551174640656,0.24433889985084534,-0.38849884271621704
1667267071124212700,1.825212646484375,0.24006296694278717,0.21501824259757996,-0.4037700295448303
1667267071126610700,1.827610595703125,0.23823043704032898,0.18875180184841156,-0.41476529836654663
1667267071129008400,1.83000830078125,0.2357870489358902,0.16004198789596558,-0.42392799258232117
1667267071131406000,1.832406005859375,0.2345653474330902,0.13499724864959717,-0.4306473135948181
1667267071133803800,1.8348037109375,0.22845686972141266,0.10873081535100937,-0.4330907166004181
1667267071136201500,1.837201416015625,0.2229592502117157,0.08796200156211853,-0.43858832120895386
1667267071138599400,1.839599365234375,0.21562908589839935,0.0653606578707695,-0.4422534108161926
1667267071140997000,1.8419970703125,0.208298921585083,0.04337015375494957,-0.44103172421455383
1667267071143394800,1.844394775390625,0.20035789906978607,0.024433890357613564,-0.44103172421455383
1667267071145792500,1.84679248046875,0.18997350335121155,0.006108472589403391,-0.43919917941093445
1667267071148190200,1.849190185546875,0.18081079423427582,-0.012216945178806782,-0.4324798583984375
1667267071150588200,1.851588134765625,0.1698155403137207,-0.026877280324697495,-0.42759308218955994
1667267071152985900,1.85398583984375,0.16004198789596558,-0.03665083646774292,-0.4196520745754242
1667267071155383600,1.856383544921875,0.15026842057704926,-0.04459185153245926,-0.41293275356292725
1667267071157781200,1.85878125,0.13988402485847473,-0.05070032179355621,-0.4031592011451721
1667267071160179000,1.861178955078125,0.129499614238739,-0.05375456064939499,-0.3927747905254364
1667267071162577000,1.863576904296875,0.11911521852016449,-0.053143709897994995,-0.3817795515060425
1667267071164974600,1.865974609375,0.10934165865182877,-0.05131116881966591,-0.37200596928596497
1667267071167372300,1.868372314453125,0.10201149433851242,-0.04825693368911743,-0.36039987206459045
1667267071169770000,1.87077001953125,0.09284878522157669,-0.045202698558568954,-0.3518480062484741
1667267071172167700,1.873167724609375,0.08368607610464096,-0.04092676565051079,-0.3426853120326996
1667267071174565600,1.875565673828125,0.07574506103992462,-0.037261683493852615,-0.33535513281822205
1667267071176963300,1.87796337890625,0.0653606578707695,-0.031153209507465363,-0.3274141252040863
1667267071179361000,1.880361083984375,0.06047387793660164,-0.026877280324697495,-0.31825143098831177
1667267071181758700,1.8827587890625,0.05070032179355621,-0.024433890357613564,-0.3133646547794342
1667267071184156400,1.885156494140625,0.04459185153245926,-0.02076880633831024,-0.30725616216659546
1667267071186554000,1.88755419921875,0.0397050715982914,-0.014049487188458443,-0.3011476993560791
1667267071188952000,1.8899521484375,0.03237490355968475,-0.008551862090826035,-0.29442837834358215
1667267071191349800,1.892349853515625,0.02870982140302658,-0.006108472589403391,-0.288930743932724
1667267071193747500,1.89474755859375,0.02626643143594265,-0.006719320081174374,-0.27976804971694946
1667267071196145200,1.897145263671875,0.020157959312200546,-0.006108472589403391,-0.26816195249557495
1667267071198543000,1.899543212890625,0.015271181240677834,-0.007941014133393764,-0.2596100866794586
1667267071200940800,1.90194091796875,0.01038440316915512,-0.01038440316915512,-0.2486148327589035
1667267071203338500,1.90433837890625,0.006108472589403391,-0.010995250195264816,-0.23823043704032898
1667267071205736200,1.906736083984375,-0.0036650835536420345,-0.012827792204916477,-0.22540263831615448
1667267071208134000,1.9091337890625,-0.012827792204916477,-0.011606098152697086,-0.21318569779396057
1667267071210531600,1.911531494140625,-0.021990500390529633,-0.007941014133393764,-0.1985253542661667
1667267071212929500,1.913929443359375,-0.03298575058579445,-0.005497625097632408,-0.1820324808359146
1667267071215327200,1.9163271484375,-0.04703523963689804,-0.0024433890357613564,-0.16859383881092072
1667267071217725000,1.918724853515625,-0.05925218388438225,0.006108472589403391,-0.15271180868148804
1667267071220122600,1.92112255859375,-0.06902574002742767,0.012827792204916477,-0.13682979345321655
1667267071222520300,1.923520263671875,-0.08185353130102158,0.023823043331503868,-0.12216944992542267
1667267071224918300,1.925918212890625,-0.09284878522157669,0.03298575058579445,-0.10628741979598999
1667267071227316000,1.92831591796875,-0.10017894953489304,0.04214845970273018,-0.09345962852239609
1667267071229713700,1.930713623046875,-0.10873081535100937,0.05619794875383377,-0.0781884491443634
1667267071232111400,1.933111328125,-0.11422843486070633,0.06841489672660828,-0.06658235192298889
1667267071234509000,1.935509033203125,-0.11606097966432571,0.0781884491443634,-0.054365407675504684
1667267071236907000,1.937906982421875,-0.1178935244679451,0.09040539711713791,-0.04214845970273018
1667267071239304700,1.9403046875,-0.11545012891292572,0.10384403169155121,-0.03298575058579445
1667267071241702400,1.942702392578125,-0.11422843486070633,0.1185043677687645,-0.023212196305394173
1667267071244100000,1.94510009765625,-0.11178504675626755,0.13499724864959717,-0.012216945178806782
1667267071246497800,1.947497802734375,-0.10628741979598999,0.15149012207984924,-0.005497625097632408
1667267071248895700,1.949895751953125,-0.10078980028629303,0.1692046970129013,0.0018325417768210173
1667267071251293400,1.95229345703125,-0.09284878522157669,0.18814095854759216,0.007941014133393764
1667267071253691100,1.954691162109375,-0.08551861345767975,0.20585553348064423,0.013438640162348747
1667267071256088800,1.9570888671875,-0.07513421028852463,0.2223484069108963,0.017714571207761765
1667267071258486500,1.959486572265625,-0.06413896381855011,0.24006296694278717,0.02076880633831024
1667267071260884500,1.961884521484375,-0.05497625470161438,0.25350162386894226,0.021990500390529633
1667267071263282200,1.9642822265625,-0.043981000781059265,0.26938363909721375,0.023823043331503868
1667267071265680000,1.966679931640625,-0.03542914241552353,0.28343313932418823,0.024433890357613564
1667267071268077600,1.96907763671875,-0.024433890357613564,0.29687178134918213,0.024433890357613564
1667267071270475300,1.971475341796875,-0.016492875292897224,0.30847787857055664,0.023212196305394173
1667267071272873200,1.973873291015625,-0.009773556143045425,0.32191649079322815,0.021379653364419937
1667267071275271000,1.97627099609375,-0.0036650835536420345,0.3292466700077057,0.020157959312200546
1667267071277668600,1.978668701171875,0.0024433890357613564,0.3390202224254608,0.020157959312200546
1667267071280066300,1.98106640625,0.006108472589403391,0.3432961702346802,0.01954711228609085
1667267071282464000,1.983464111328125,0.008551862090826035,0.34696123003959656,0.016492875292897224
1667267071284862000,1.985862060546875,0.012827792204916477,0.3500154912471771,0.014049487188458443
1667267071287259600,1.988259765625,0.012827792204916477,0.3524588644504547,0.012827792204916477
1667267071289657300,1.9906572265625,0.01038440316915512,0.3512371778488159,0.01038440316915512
1667267071292055000,1.993054931640625,0.009773556143045425,0.3549022674560547,0.006719320081174374
1667267071294452700,1.99545263671875,0.004886778071522713,0.3561239540576935,0.0006108472589403391
1667267071296850700,1.9978505859375,0.0018325417768210173,0.3567348122596741,-0.0024433890357613564
1667267071299248400,2.000248291015625,-0.0036650835536420345,0.3536805510520935,-0.006108472589403391
1667267071301646000,2.00264599609375,-0.00916270911693573,0.34696123003959656,-0.01038440316915512
1667267071304043800,2.005043701171875,-0.013438640162348747,0.3432961702346802,-0.016492875292897224
1667267071306441500,2.00744140625,-0.02076880633831024,0.33413344621658325,-0.02076880633831024
1667267071308839200,2.009839111328125,-0.02504473738372326,0.3255815804004669,-0.024433890357613564
1667267071311237000,2.012237060546875,-0.029320668429136276,0.312142938375473,-0.024433890357613564
1667267071313634800,2.014634765625,-0.03237490355968475,0.3005368411540985,-0.023823043331503868
1667267071316032500,2.017032470703125,-0.03420744836330414,0.2877090573310852,-0.01954711228609085
1667267071318430200,2.01943017578125,-0.03420744836330414,0.2736595869064331,-0.012827792204916477
1667267071320828200,2.021828125,-0.03420744836330414,0.2632751762866974,-0.005497625097632408
1667267071323225900,2.024225830078125,-0.03298575058579445,0.25411245226860046,0.0030542362947016954
1667267071325623600,2.02662353515625,-0.02870982140302658,0.24494975805282593,0.015271181240677834
1667267071328021200,2.029021240234375,-0.023823043331503868,0.2357870489358902,0.02993151545524597
1667267071330419000,2.0314189453125,-0.01832541823387146,0.23273280262947083,0.04459185153245926
1667267071332816600,2.033816650390625,-0.01038440316915512,0.23028941452503204,0.05864133685827255
1667267071335214600,2.036214599609375,-0.0036650835536420345,0.23028941452503204,0.07269082218408585
1667267071337612300,2.0386123046875,0.006108472589403391,0.23212195932865143,0.08857285231351852
1667267071340010000,2.041010009765625,0.014660334214568138,0.23273280262947083,0.10201149433851242
1667267071342407700,2.04340771484375,0.023212196305394173,0.2339545041322708,0.11911521852016449
1667267071344805400,2.045805419921875,0.031153209507465363,0.2339545041322708,0.13560809195041656
1667267071347203300,2.048203369140625,0.03665083646774292,0.23151111602783203,0.15210096538066864
1667267071349601000,2.05060107421875,0.04031591862440109,0.2345653474330902,0.16431790590286255
1667267071351998700,2.052998779296875,0.04825693368911743,0.23945212364196777,0.17592400312423706
1667267071354396400,2.055396484375,0.05008947476744652,0.24067382514476776,0.18630841374397278
1667267071356794000,2.057794189453125,0.053143709897994995,0.2473931461572647,0.1954711228609085
1667267071359192000,2.060192138671875,0.05803048983216286,0.25594499707221985,0.20341213047504425
1667267071361589800,2.06258984375,0.06291726976633072,0.2632751762866974,0.21196399629116058
1667267071363987500,2.064987548828125,0.06780404597520828,0.2718270421028137,0.22051586210727692
1667267071366385200,2.06738525390625,0.07391251623630524,0.27976804971694946,0.22601348161697388
1667267071368782800,2.069782958984375,0.08124268800020218,0.2852656841278076,0.2339545041322708
1667267071371180800,2.072180908203125,0.08857285231351852,0.291374146938324,0.2376195788383484
1667267071373578500,2.07457861328125,0.09651386737823486,0.29503923654556274,0.2376195788383484
1667267071375976200,2.07697607421875,0.10628741979598999,0.2980934679508209,0.2376195788383484
1667267071378374000,2.079373779296875,0.1172826737165451,0.2999260127544403,0.237008735537529
1667267071380771600,2.081771484375,0.12888877093791962,0.3011476993560791,0.2351761907339096
1667267071383169300,2.084169189453125,0.14171656966209412,0.3017585575580597,0.22906772792339325
1667267071385567200,2.086567138671875,0.15393351018428802,0.30664533376693726,0.22540263831615448
1667267071387965000,2.08896484375,0.16492876410484314,0.30786702036857605,0.21929416060447693
1667267071390362600,2.091362548828125,0.17531315982341766,0.31092125177383423,0.2101314514875412
1667267071392760300,2.09376025390625,0.182643324136734,0.32069480419158936,0.1948602795600891
1667267071395158000,2.096157958984375,0.19119518995285034,0.33413344621658325,0.183865025639534
