time,seconds_elapsed,z,y,x
1667266441019926000,0.102926025390625,0,0,0
1667266441024721400,0.107721435546875,-0.022188186645507812,0.0020585060119628906,0.016684770584106445
1667266441029517000,0.11251708984375,-0.018059730529785156,0.0048863887786865234,0.026763319969177246
1667266441034312700,0.117312744140625,0.006099700927734375,-0.02929854393005371,-0.00047469139099121094
1667266441039108000,0.122108154296875,0.05165672302246094,-0.04057955741882324,-0.05068373680114746
1667266441043903700,0.12690380859375,0.1137247085571289,-0.0031262636184692383,-0.07623088359832764
1667266441048699400,0.131699462890625,0.19076156616210938,0.0006412267684936523,-0.11303436756134033
1667266441053494800,0.136494873046875,0.2350139617919922,0.021096467971801758,-0.13320207595825195
1667266441058290400,0.14129052734375,0.26012706756591797,0.06978964805603027,-0.13197755813598633
1667266441063086000,0.146086181640625,0.24089908599853516,0.09855353832244873,-0.0981673002243042
1667266441067881500,0.150881591796875,0.1781139373779297,0.09987974166870117,-0.026236653327941895
1667266441072677000,0.155677001953125,0.11229515075683594,0.03650498390197754,-0.024419188499450684
1667266441077472800,0.16047265625,0.03136920928955078,-0.0021865367889404297,-0.03324460983276367
1667266441082268200,0.16526806640625,-0.11585140228271484,-0.015970945358276367,-0.0208357572555542
1667266441087063800,0.170063720703125,-0.2561492919921875,-0.04429268836975098,0.0016787052154541016
1667266441091859500,0.174859375,-0.3619832992553711,-0.06827414035797119,0.021709561347961426
1667266441096654800,0.17965478515625,-0.4653892517089844,-0.09155726432800293,0.013709187507629395
1667266441101450500,0.184450439453125,-0.5060148239135742,-0.08933830261230469,-0.02412402629852295
1667266441106246100,0.18924609375,-0.47924232482910156,-0.08602046966552734,-0.052211880683898926
1667266441111041500,0.19404150390625,-0.39719295501708984,-0.03076457977294922,-0.11470544338226318
1667266441115837200,0.198837158203125,-0.2915477752685547,-0.009183168411254883,-0.14072811603546143
1667266441120632800,0.2036328125,-0.1272869110107422,0.05897068977355957,-0.05281972885131836
1667266441125428200,0.20842822265625,-0.010281562805175781,0.05148005485534668,0.021422863006591797
1667266441130223900,0.213223876953125,0.07457351684570312,0.14435768127441406,0.0792473554611206
1667266441135019300,0.218019287109375,0.10453414916992188,0.23080873489379883,0.18818914890289307
1667266441139815000,0.22281494140625,-0.37209606170654297,0.025802135467529297,0.36261212825775146
1667266441144610600,0.227610595703125,-1.5367565155029297,-0.031743526458740234,0.5843164920806885
1667266441149406000,0.232406005859375,-0.047049522399902344,0.11065125465393066,-0.07267379760742188
1667266441154201600,0.23720166015625,0.2597780227661133,0.09357094764709473,-0.12380850315093994
1667266441158997200,0.241997314453125,-0.056758880615234375,0.04664206504821777,0.030312538146972656
1667266441163793000,0.24679296875,-0.1430349349975586,-0.00784611701965332,0.046662211418151855
1667266441168588300,0.25158837890625,-0.12582683563232422,-0.08867430686950684,0.004575014114379883
1667266441173384000,0.256384033203125,-0.1521768569946289,-0.1652982234954834,-0.04041314125061035
1667266441178179300,0.261179443359375,-0.12562274932861328,-0.24842989444732666,-0.02365398406982422
1667266441182975000,0.26597509765625,-0.0440216064453125,-0.40928637981414795,0.025500357151031494
1667266441187770600,0.2707705078125,0.03297615051269531,-0.8339288234710693,-0.013068079948425293
1667266441192566000,0.27556591796875,-0.18958377838134766,-1.8998875617980957,-0.3543139696121216
1667266441197361700,0.280361572265625,-0.35129642486572266,-1.6097110509872437,-0.5354287624359131
1667266441202157300,0.2851572265625,-0.36652565002441406,-0.830209493637085,-0.4583311080932617
1667266441206952700,0.28995263671875,-0.24810028076171875,-0.13915681838989258,-0.43363094329833984
1667266441211748400,0.294748291015625,-0.12024307250976562,0.4189333915710449,-0.6291819214820862
1667266441216544000,0.2995439453125,0.004439353942871094,0.7534735202789307,-0.8424665927886963
1667266441221339400,0.30433935546875,0.02236175537109375,0.882178783416748,-0.9248995780944824
1667266441226135000,0.309135009765625,-0.02187061309814453,0.8941636085510254,-0.8122107982635498
1667266441230930700,0.3139306640625,-0.11875438690185547,0.7980835437774658,-0.5575891733169556
1667266441235726000,0.31872607421875,-0.2346048355102539,0.6645872592926025,-0.2475653886795044
1667266441240521700,0.323521728515625,-0.30602169036865234,0.5136263370513916,0.10122138261795044
1667266441245317000,0.328317138671875,-0.3211708068847656,0.31309080123901367,0.42170250415802
1667266441250112800,0.33311279296875,-0.2954235076904297,-0.01979684829711914,0.7137343883514404
1667266441254908400,0.337908447265625,-0.15923213958740234,-1.333437442779541,1.050020694732666
1667266441259704000,0.3427041015625,0.11587142944335938,-2.070537805557251,0.3923281729221344
1667266441264499500,0.34749951171875,-0.02448272705078125,-2.431462526321411,-0.632224977016449
1667266441269295000,0.352295166015625,0.16862964630126953,-1.830414891242981,-0.5085176229476929
1667266441274090800,0.3570908203125,0.44003868103027344,-0.9658971428871155,0.020539164543151855
1667266441278886100,0.36188623046875,0.41451549530029297,-0.17771577835083008,0.6109868288040161
1667266441283681800,0.366681884765625,0.07346057891845703,0.2992943525314331,1.1369855403900146
1667266441288477200,0.371477294921875,-0.32969188690185547,0.45480263233184814,1.2667893171310425
1667266441293272800,0.37627294921875,-0.46340370178222656,0.40976381301879883,0.9724143743515015
1667266441298068500,0.381068359375,-0.5228166580200195,0.3008781671524048,0.5723090767860413
1667266441302864000,0.38586376953125,-0.5726861953735352,0.2560908794403076,0.27973514795303345
1667266441307659500,0.390659423828125,-0.6154718399047852,0.31225693225860596,0.08502086997032166
1667266441312455200,0.395455078125,-0.6724004745483398,0.36468183994293213,0.09007817506790161
1667266441317250600,0.40025048828125,-0.590886116027832,0.39024817943573,-0.04098811745643616
1667266441322046200,0.405046142578125,-0.24655723571777344,0.42392420768737793,-0.11909234523773193
1667266441326841900,0.409841796875,0.07195568084716797,0.41162216663360596,-0.3176876902580261
1667266441331637200,0.41463720703125,0.664942741394043,0.3109171390533447,-0.565437912940979
1667266441336433000,0.419432861328125,1.1879701614379883,0.1611638069152832,-0.761462926864624
1667266441341228500,0.424228515625,1.4017009735107422,0.01813983917236328,-0.7282133102416992
1667266441346024000,0.42902392578125,1.3484430313110352,-0.05607748031616211,-0.635267436504364
1667266441350819600,0.433819580078125,1.2431793212890625,-0.04640829563140869,-0.5252182483673096
1667266441355615200,0.438615234375,1.156158447265625,0.002017974853515625,-0.5167855024337769
1667266441360410600,0.44341064453125,0.9642515182495117,0.07431697845458984,-0.3316088616847992
1667266441365206300,0.448206298828125,0.6675701141357422,0.08286786079406738,-0.06924757361412048
1667266441370002000,0.453001953125,0.41024208068847656,0.08279353380203247,0.04633522033691406
1667266441374797300,0.45779736328125,0.23053264617919922,0.048292458057403564,-0.02385401725769043
1667266441379593000,0.462593017578125,0.14138317108154297,0.012806713581085205,-0.17958396673202515
1667266441384388600,0.467388671875,0.1307687759399414,0.01640772819519043,-0.3052728772163391
1667266441389184000,0.47218408203125,0.13724994659423828,0.0018665790557861328,-0.33588701486587524
1667266441393979600,0.476979736328125,0.12740802764892578,0.06377047300338745,-0.32334598898887634
1667266441398775000,0.481775146484375,0.05998516082763672,0.11599737405776978,-0.2033320665359497
1667266441403570700,0.48657080078125,0.05735969543457031,0.1903778314590454,-0.15194499492645264
1667266441408366300,0.491366455078125,0.12337017059326172,0.2533491253852844,-0.10771757364273071
1667266441413161700,0.49616162109375,0.28658103942871094,0.3097146153450012,-0.07881587743759155
1667266441417957400,0.500957275390625,0.702606201171875,0.4841228723526001,-0.09234023094177246
1667266441422753000,0.5057529296875,1.3845329284667969,0.721177339553833,-0.16079217195510864
1667266441427548700,0.510548583984375,2.201314926147461,0.9684228301048279,-0.14236927032470703
1667266441432344000,0.515343994140625,3.0171022415161133,1.1806905269622803,-0.04686391353607178
1667266441437139700,0.5201396484375,2.429290771484375,1.3839373588562012,0.5705482363700867
1667266441441935000,0.52493505859375,1.4409618377685547,1.3983122110366821,1.3317925930023193
1667266441446730800,0.529730712890625,1.0341291427612305,1.2332793474197388,1.7204372882843018
1667266441451526400,0.5345263671875,1.1455974578857422,0.933438241481781,1.6661815643310547
1667266441456321800,0.53932177734375,1.2301788330078125,0.5821129083633423,1.3794034719467163
1667266441461117400,0.544117431640625,1.0696430206298828,0.23666536808013916,1.0840649604797363
1667266441465913000,0.5489130859375,0.7488393783569336,-0.0918954610824585,0.8514400720596313
1667266441470708500,0.55370849609375,0.41669368743896484,-0.39255672693252563,0.6152777671813965
1667266441475504000,0.558504150390625,0.12555503845214844,-0.6412009000778198,0.2801719009876251
1667266441480299800,0.5632998046875,-0.15949344635009766,-0.909009575843811,0.02420695126056671
1667266441485095200,0.56809521484375,-0.3536262512207031,-1.1740150451660156,-0.24379223585128784
1667266441489890800,0.572890869140625,-0.39902782440185547,-1.4131367206573486,-0.6344170570373535
1667266441494686500,0.5776865234375,-0.47533512115478516,-1.4790719747543335,-0.819805383682251
1667266441499481900,0.58248193359375,-0.4141988754272461,-1.3517042398452759,-0.8120814561843872
1667266441504277500,0.587277587890625,-0.4424009323120117,-1.1442452669143677,-0.9158764481544495
1667266441509073200,0.5920732421875,-0.8118505477905273,-0.8545949459075928,-0.878303050994873
1667266441513868500,0.59686865234375,-1.232686996459961,-0.5958191752433777,-0.8807976245880127
1667266441518664200,0.601664306640625,-2.02264404296875,-0.3441201448440552,-0.7667844295501709
1667266441523459800,0.6064599609375,-2.9889936447143555,-0.09555256366729736,-0.6183575391769409
1667266441528255200,0.611255126953125,-3.889902114868164,0.21560204029083252,-0.5324382185935974
1667266441533051000,0.61605078125,-4.740740776062012,0.537089467048645,-0.4704365134239197
1667266441537846500,0.620846435546875,-5.4022650718688965,0.8537222146987915,-0.36158910393714905
1667266441542642000,0.625641845703125,-5.561936378479004,1.1107438802719116,-0.23784734308719635
1667266441547437600,0.6304375,-5.518359661102295,1.3364816904067993,-0.11972559243440628
1667266441552233200,0.635233154296875,-5.3182477951049805,1.5067343711853027,0.02684606984257698
1667266441557028600,0.640028564453125,-4.9461350440979,1.590317964553833,0.2304713875055313
1667266441561824300,0.64482421875,-4.353328227996826,1.6661604642868042,0.2863253951072693
1667266441566620000,0.649619873046875,-3.5318665504455566,1.7093483209609985,0.34944072365760803
1667266441571415300,0.654415283203125,-2.807326316833496,1.6621792316436768,0.48748868703842163
1667266441576211000,0.6592109375,-2.2319459915161133,1.492492914199829,0.6886335611343384
1667266441581006600,0.664006591796875,-1.7673568725585938,1.2859342098236084,0.8636218905448914
1667266441585802000,0.668802001953125,-1.5085983276367188,1.0477015972137451,0.9355764389038086
1667266441590597600,0.67359765625,-1.551133155822754,0.8066070079803467,0.8362427949905396
1667266441595393300,0.678393310546875,-1.3117990493774414,0.5837113857269287,0.7839464545249939
1667266441600188700,0.683188720703125,-1.102614402770996,0.37633800506591797,0.7398233413696289
1667266441604984300,0.687984375,-0.9445075988769531,0.21616768836975098,0.762755274772644
1667266441609780000,0.692780029296875,-0.8356800079345703,0.07521116733551025,0.8091720938682556
1667266441614575400,0.697575439453125,-0.7006902694702148,-0.06646102666854858,0.8835494518280029
1667266441619371000,0.70237109375,-0.5406980514526367,-0.2889404296875,0.968371570110321
1667266441624166400,0.70716650390625,-0.40317821502685547,-0.5886561870574951,1.0954618453979492
1667266441628962000,0.711962158203125,-0.2094135284423828,-0.8659830689430237,1.12758469581604
1667266441633757700,0.7167578125,0.10791683197021484,-1.0648043155670166,1.0990575551986694
1667266441638553300,0.72155322265625,0.5621519088745117,-1.260155200958252,1.0636377334594727
1667266441643348700,0.7263486328125,1.0346260070800781,-1.4940844774246216,1.0376522541046143
1667266441648144400,0.731144287109375,1.569082260131836,-1.6860988140106201,0.9318397641181946
1667266441652939800,0.735939697265625,2.177975654602051,-1.8002638816833496,0.7753133773803711
1667266441657735400,0.7407353515625,2.805861473083496,-1.8102428913116455,0.5568102598190308
1667266441662531000,0.745531005859375,3.460635185241699,-1.7196004390716553,0.30903685092926025
1667266441667326500,0.750326416015625,4.021763801574707,-1.585148572921753,0.16064095497131348
1667266441672122000,0.7551220703125,4.437262535095215,-1.448815107345581,0.0732717514038086
1667266441676917800,0.759917724609375,4.720876693725586,-1.2880902290344238,-0.0221560001373291
1667266441681713400,0.76471337890625,4.875626564025879,-1.117292046546936,-0.0676039457321167
1667266441686508800,0.7695087890625,4.883244514465332,-0.9495594501495361,-0.11434817314147949
1667266441691304400,0.774304443359375,4.834941864013672,-0.7742929458618164,-0.1941971778869629
1667266441696099800,0.779099853515625,4.802407264709473,-0.5929065942764282,-0.26335883140563965
1667266441700895500,0.7838955078125,4.70831298828125,-0.4221276044845581,-0.3225240707397461
1667266441705691100,0.788691162109375,4.557997703552246,-0.25600340962409973,-0.441855251789093
1667266441710486800,0.79348681640625,4.40557861328125,-0.06505987048149109,-0.5584150552749634
1667266441715282200,0.7982822265625,4.195497512817383,0.09933412075042725,-0.6446753740310669
1667266441720077800,0.803077880859375,3.8595399856567383,0.1839664876461029,-0.6879779100418091
1667266441724873200,0.807873291015625,3.420281410217285,0.22162729501724243,-0.6866004467010498
1667266441729668900,0.8126689453125,2.958329200744629,0.24600499868392944,-0.6315657496452332
1667266441734464500,0.817464599609375,2.4288692474365234,0.23499733209609985,-0.5137330293655396
1667266441739260000,0.822260009765625,1.8978395462036133,0.23318010568618774,-0.3660050630569458
1667266441744055600,0.8270556640625,1.4246702194213867,0.2515762746334076,-0.19599997997283936
1667266441748851200,0.831851318359375,1.035038948059082,0.2868579626083374,-0.04849815368652344
1667266441753646800,0.836646728515625,0.759190559387207,0.3141413629055023,0.07529318332672119
1667266441758442200,0.841442138671875,0.5903329849243164,0.4003223180770874,0.2075207233428955
1667266441763238000,0.84623779296875,0.4682331085205078,0.4655231833457947,0.31930994987487793
1667266441768033300,0.851033203125,0.34023284912109375,0.5136746168136597,0.39941251277923584
1667266441772829000,0.855828857421875,0.20990467071533203,0.5474967360496521,0.4533989429473877
1667266441777624600,0.86062451171875,0.06056499481201172,0.5436654090881348,0.5047181844711304
1667266441782420200,0.865420166015625,-0.06372928619384766,0.5491761565208435,0.5375951528549194
1667266441787215600,0.870215576171875,-0.1727466583251953,0.569269061088562,0.5828304290771484
1667266441792011300,0.87501123046875,-0.27977561950683594,0.585271418094635,0.6353205442428589
1667266441796806700,0.879806640625,-0.37899208068847656,0.54062420129776,0.6899120807647705
1667266441801602300,0.884602294921875,-0.48246097564697266,0.4695844352245331,0.7568801641464233
1667266441806398000,0.88939794921875,-0.5998458862304688,0.39304104447364807,0.7681798934936523
1667266441811193600,0.894193603515625,-0.6122426986694336,0.37092360854148865,0.7083759307861328
1667266441815989000,0.898989013671875,-0.6915426254272461,0.32045942544937134,0.716183066368103
1667266441820784600,0.90378466796875,-0.8621692657470703,0.25074517726898193,0.6933252811431885
1667266441825580300,0.908580322265625,-1.049774169921875,0.18499524891376495,0.570385217666626
1667266441830375700,0.913375732421875,-1.1449174880981445,0.09234343469142914,0.38197481632232666
1667266441835171300,0.91817138671875,-1.1921138763427734,-0.004110813140869141,0.1848982572555542
1667266441839967000,0.922967041015625,-1.297464370727539,-0.1125825047492981,0.03549826145172119
1667266441844762400,0.927762451171875,-1.3868522644042969,-0.18764662742614746,-0.16180574893951416
1667266441849558000,0.93255810546875,-1.3747501373291016,-0.26417773962020874,-0.38608217239379883
1667266441854353700,0.937353759765625,-1.2653589248657227,-0.28647854924201965,-0.5975342988967896
1667266441859149000,0.942149169921875,-1.173440933227539,-0.28956085443496704,-0.7179535627365112
1667266441863944700,0.94694482421875,-1.072683334350586,-0.29517799615859985,-0.7943435907363892
1667266441868740400,0.951740234375,-0.9548130035400391,-0.29180604219436646,-0.8279209136962891
1667266441873535700,0.95653564453125,-0.8246707916259766,-0.29291796684265137,-0.810502827167511
1667266441878331400,0.961331298828125,-0.6787261962890625,-0.2620323598384857,-0.7019022703170776
1667266441883127000,0.966126953125,-0.576568603515625,-0.24974316358566284,-0.5192177295684814
1667266441887922400,0.97092236328125,-0.47391796112060547,-0.2183132767677307,-0.3257521390914917
1667266441892718000,0.975718017578125,-0.3588695526123047,-0.1516249179840088,-0.14285099506378174
1667266441897513700,0.980513671875,-0.2576475143432617,-0.06203696131706238,-0.0015521049499511719
1667266441902309000,0.98530908203125,-0.1867847442626953,0.04506901279091835,0.14325714111328125
1667266441907104800,0.990104736328125,-0.0912618637084961,0.10980476438999176,0.2659749984741211
1667266441911900400,0.994900390625,-0.04731941223144531,0.1917196810245514,0.3434586524963379
1667266441916695800,0.99969580078125,-0.007012367248535156,0.272632360458374,0.401808500289917
1667266441921491500,1.004491455078125,0.033298492431640625,0.32385873794555664,0.4085984230041504
1667266441926287000,1.009287109375,0.050986289978027344,0.37761807441711426,0.40696239471435547
1667266441931082500,1.01408251953125,0.07002449035644531,0.41842883825302124,0.4002070426940918
1667266441935878100,1.018878173828125,0.0808868408203125,0.4677659571170807,0.3894619941711426
1667266441940673800,1.023673828125,0.10978889465332031,0.5075199007987976,0.3581995964050293
1667266441945469400,1.028469482421875,0.19588088989257812,0.5235475301742554,0.29265153408050537
1667266441950264800,1.033264892578125,0.27803897857666016,0.5242847800254822,0.21032023429870605
1667266441955060500,1.038060546875,0.3931293487548828,0.5503959059715271,0.11061477661132812
1667266441959855900,1.04285595703125,0.47543907165527344,0.5576361417770386,0.005835175514221191
1667266441964651500,1.047651611328125,0.4989309310913086,0.5689067840576172,-0.014644384384155273
1667266441969447200,1.052447265625,0.5163116455078125,0.5606429576873779,-0.03461956977844238
1667266441974242800,1.057242919921875,0.5109872817993164,0.5189183354377747,-0.0317760705947876
1667266441979038200,1.0620380859375,0.5033559799194336,0.5453135967254639,-0.050521254539489746
1667266441983833900,1.066833740234375,0.48276519775390625,0.5479496717453003,-0.1494748592376709
1667266441988629500,1.07162939453125,0.4969673156738281,0.5937398672103882,-0.2796822786331177
1667266441993425000,1.0764248046875,0.5065240859985352,0.657497763633728,-0.43409937620162964
1667266441998220500,1.081220458984375,0.5186357498168945,0.7345098853111267,-0.5198640823364258
1667266442003016200,1.08601611328125,0.5094757080078125,0.7961227893829346,-0.5743117928504944
1667266442007811600,1.0908115234375,0.5113286972045898,0.7838967442512512,-0.5798366069793701
1667266442012607200,1.095607177734375,0.5372476577758789,0.7851481437683105,-0.5164144039154053
1667266442017403000,1.10040283203125,0.6002035140991211,0.7223287224769592,-0.4842904806137085
1667266442022198300,1.1051982421875,0.6965017318725586,0.6588711738586426,-0.5110224485397339
1667266442026994000,1.109993896484375,0.8105869293212891,0.5540465116500854,-0.5707058906555176
1667266442031789600,1.11478955078125,0.9246072769165039,0.47317174077033997,-0.6567308902740479
1667266442036585000,1.1195849609375,1.0719490051269531,0.46822741627693176,-0.7762742042541504
1667266442041380600,1.124380615234375,1.2607097625732422,0.4562954306602478,-0.9059609770774841
1667266442046176300,1.12917626953125,1.4738311767578125,0.5071985721588135,-1.0065042972564697
1667266442050972000,1.133971923828125,1.6835966110229492,0.5573337078094482,-1.062498688697815
1667266442055767300,1.138767333984375,1.8635635375976562,0.6301931142807007,-1.079906940460205
1667266442060563000,1.14356298828125,2.0148391723632812,0.6826362609863281,-1.036208987236023
1667266442065358600,1.148358642578125,2.0945444107055664,0.7576603889465332,-1.033530831336975
1667266442070154000,1.153154052734375,2.1398191452026367,0.7443481683731079,-0.9244500994682312
1667266442074949600,1.15794970703125,2.1103248596191406,0.7480597496032715,-0.8001706004142761
1667266442079745300,1.162745361328125,2.0076541900634766,0.7806662321090698,-0.6707080602645874
1667266442084540700,1.167540771484375,1.8739471435546875,0.7708206176757812,-0.6450790762901306
1667266442089336300,1.17233642578125,1.7284584045410156,0.7821117043495178,-0.6896976232528687
1667266442094132000,1.177132080078125,1.547499656677246,0.8049182891845703,-0.784558892250061
1667266442098927400,1.18192724609375,1.420724868774414,0.7990182638168335,-0.8764105439186096
1667266442103723000,1.186722900390625,1.2657194137573242,0.7549165487289429,-0.9763621091842651
1667266442108518700,1.1915185546875,1.049271583557129,0.6563052535057068,-1.0845448970794678
1667266442113314000,1.19631396484375,0.8265180587768555,0.5035630464553833,-1.2345311641693115
1667266442118109700,1.201109619140625,0.61895751953125,0.35763952136039734,-1.3988962173461914
1667266442122905300,1.2059052734375,0.41939830780029297,0.21388930082321167,-1.575336217880249
1667266442127701000,1.210700927734375,0.24087905883789062,0.0832364559173584,-1.7468650341033936
1667266442132496400,1.215496337890625,0.07729625701904297,0.006333827972412109,-1.8773777484893799
1667266442137292000,1.2202919921875,-0.04045867919921875,-0.054811298847198486,-1.9667659997940063
1667266442142087700,1.225087646484375,-0.12334156036376953,-0.09162306785583496,-2.0340018272399902
1667266442146883000,1.229883056640625,-0.25016021728515625,-0.06782272458076477,-2.0409700870513916
1667266442151678700,1.2346787109375,-0.3800830841064453,-0.01917397975921631,-2.0208282470703125
1667266442156474400,1.239474365234375,-0.44497108459472656,0.0515294075012207,-1.9702489376068115
1667266442161269800,1.244269775390625,-0.4916219711303711,0.13878580927848816,-1.8616552352905273
1667266442166065400,1.2490654296875,-0.5773706436157227,0.24295777082443237,-1.718820333480835
1667266442170861000,1.253861083984375,-0.644862174987793,0.3413638174533844,-1.5488886833190918
1667266442175656400,1.258656494140625,-0.7072963714599609,0.40428799390792847,-1.4174846410751343
1667266442180452000,1.2634521484375,-0.7944908142089844,0.47248974442481995,-1.2565549612045288
1667266442185247700,1.268247802734375,-0.8908052444458008,0.5210145115852356,-1.113036870956421
1667266442190043400,1.27304345703125,-0.9579792022705078,0.5844593048095703,-0.9600432515144348
1667266442194838800,1.2778388671875,-0.9674873352050781,0.6828259229660034,-0.8217508792877197
1667266442199634400,1.282634521484375,-0.8981285095214844,0.8074876070022583,-0.687238335609436
1667266442204430000,1.28743017578125,-0.8134841918945312,0.928377628326416,-0.5189896821975708
1667266442209225500,1.2922255859375,-0.7196712493896484,1.0442086458206177,-0.3151668310165405
1667266442214021000,1.297021240234375,-0.6227426528930664,1.1428035497665405,-0.09219038486480713
1667266442218816800,1.301816650390625,-0.5298852920532227,1.263286828994751,0.0987776517868042
1667266442223612200,1.306612060546875,-0.4840106964111328,1.3327769041061401,0.2579505443572998
1667266442228407800,1.31140771484375,-0.4717845916748047,1.397886037826538,0.4066941738128662
1667266442233203500,1.316203369140625,-0.47157859802246094,1.4177961349487305,0.5197088718414307
1667266442237998800,1.320998779296875,-0.5178689956665039,1.4332809448242188,0.5967260599136353
1667266442242794500,1.32579443359375,-0.5925283432006836,1.3917711973190308,0.6182861328125
1667266442247590100,1.330590087890625,-0.6667861938476562,1.330297827720642,0.5686554908752441
1667266442252385800,1.3353857421875,-0.7489128112792969,1.2701733112335205,0.4688338041305542
1667266442257181200,1.34018115234375,-0.7792119979858398,1.214760184288025,0.3590383529663086
1667266442261976800,1.344976806640625,-0.7900819778442383,1.1820151805877686,0.273862361907959
1667266442266772500,1.3497724609375,-0.769679069519043,1.144175410270691,0.17382574081420898
1667266442271568000,1.35456787109375,-0.7503480911254883,1.0512263774871826,0.09496915340423584
1667266442276363500,1.359363525390625,-0.7094869613647461,0.968967854976654,0.09138941764831543
1667266442281159200,1.3641591796875,-0.6496114730834961,0.883112370967865,0.12031066417694092
1667266442285954800,1.368954833984375,-0.5744209289550781,0.8341645002365112,0.11167049407958984
1667266442290750200,1.373750244140625,-0.46495628356933594,0.8196846842765808,0.01497352123260498
1667266442295545900,1.3785458984375,-0.4084196090698242,0.7392863035202026,0.0834810733795166
1667266442300341500,1.383341552734375,-0.4093961715698242,0.6220794916152954,0.1498408317565918
1667266442305137000,1.388136962890625,-0.44979000091552734,0.5587543249130249,0.1985834836959839
1667266442309932500,1.3929326171875,-0.401824951171875,0.5836050510406494,0.11149036884307861
1667266442314728200,1.397728271484375,-0.45771121978759766,0.4911923408508301,0.15746700763702393
1667266442319523600,1.402523681640625,-0.5143804550170898,0.413174569606781,0.23470854759216309
1667266442324319200,1.4073193359375,-0.4334402084350586,0.38169747591018677,0.26522505283355713
1667266442329115000,1.412114990234375,-0.2595701217651367,0.4251287281513214,0.3008807897567749
1667266442333910500,1.41691064453125,-0.09578323364257812,0.4536917209625244,0.37724125385284424
1667266442338706000,1.421705810546875,0.1067352294921875,0.47000226378440857,0.450018048286438
1667266442343501600,1.42650146484375,0.22363948822021484,0.47140777111053467,0.5122430324554443
1667266442348297200,1.431297119140625,0.3505277633666992,0.5020162463188171,0.44581663608551025
1667266442353092600,1.436092529296875,0.3406562805175781,0.4078148305416107,0.5195655822753906
1667266442357888300,1.44088818359375,0.2529754638671875,0.2655661702156067,0.6279009580612183
1667266442362684000,1.445683837890625,0.17483043670654297,0.16371607780456543,0.6371548175811768
1667266442367479300,1.450479248046875,0.07993698120117188,0.0974675714969635,0.5919873714447021
1667266442372275000,1.45527490234375,0.03876495361328125,0.07385164499282837,0.5149983167648315
1667266442377070600,1.460070556640625,-0.07164382934570312,0.02258959412574768,0.5177243947982788
1667266442381866000,1.464865966796875,-0.10545825958251953,0.028566569089889526,0.5171369314193726
1667266442386661600,1.46966162109375,-0.01515960693359375,0.08210012316703796,0.5495840311050415
1667266442391457300,1.474457275390625,0.11414813995361328,0.17370951175689697,0.601776659488678
1667266442396253000,1.4792529296875,0.2775382995605469,0.31995201110839844,0.7228118777275085
1667266442401048300,1.48404833984375,0.4402341842651367,0.4288409948348999,0.8213862180709839
1667266442405844000,1.488843994140625,0.6105079650878906,0.48847946524620056,0.8364693522453308
1667266442410639600,1.4936396484375,0.7441987991333008,0.468094140291214,0.8736332058906555
1667266442415435000,1.49843505859375,0.8176031112670898,0.3949928283691406,0.920635998249054
1667266442420230700,1.503230712890625,0.8250541687011719,0.3134561777114868,0.9301419854164124
1667266442425026300,1.5080263671875,0.7835683822631836,0.23749172687530518,0.9239428043365479
1667266442429822000,1.512822021484375,0.7518596649169922,0.11079350113868713,0.8866526484489441
1667266442434617300,1.517617431640625,0.7108631134033203,0.026316463947296143,0.8186846971511841
1667266442439413000,1.5224130859375,0.6940603256225586,-0.03648915886878967,0.7730256915092468
1667266442444208600,1.527208740234375,0.7431297302246094,-0.07655966281890869,0.700393557548523
1667266442449004000,1.532004150390625,0.780303955078125,-0.09049856662750244,0.6244778037071228
1667266442453799700,1.536799560546875,0.8235292434692383,-0.09382805228233337,0.5389608144760132
1667266442458595300,1.54159521484375,0.8942813873291016,-0.056696563959121704,0.44577664136886597
1667266442463390700,1.546390625,1.0056123733520508,-0.017462819814682007,0.349135160446167
1667266442468186400,1.551186279296875,1.1669540405273438,0.004957675933837891,0.31070029735565186
1667266442472982000,1.55598193359375,1.370955467224121,0.004765957593917847,0.33896517753601074
1667266442477777700,1.560777587890625,1.6054658889770508,-0.046637773513793945,0.4684135317802429
1667266442482573000,1.565572998046875,1.841629981994629,-0.11326858401298523,0.5600205063819885
1667266442487368700,1.57036865234375,2.054281234741211,-0.25707781314849854,0.6480273008346558
1667266442492164400,1.575164306640625,2.1885595321655273,-0.5088638067245483,0.7490524053573608
1667266442496959700,1.579959716796875,2.291250228881836,-0.8312282562255859,0.8131831884384155
1667266442501755400,1.58475537109375,2.3624801635742188,-1.209652304649353,0.8105564117431641
1667266442506551000,1.589551025390625,2.4525089263916016,-1.5509456396102905,0.7419650554656982
1667266442511346700,1.5943466796875,2.5553598403930664,-1.7814103364944458,0.6153666377067566
1667266442516142000,1.59914208984375,2.6972618103027344,-1.926573395729065,0.4081394076347351
1667266442520937700,1.603937744140625,2.8876380920410156,-1.9677836894989014,0.1541423201560974
1667266442525733400,1.6087333984375,3.0941085815429688,-1.8877230882644653,-0.06939586997032166
1667266442530528800,1.61352880859375,3.2701072692871094,-1.7617764472961426,-0.19666177034378052
1667266442535324400,1.618324462890625,3.3417892456054688,-1.6305036544799805,-0.22922202944755554
1667266442540120000,1.6231201171875,3.305959701538086,-1.4815415143966675,-0.1476072371006012
1667266442544915500,1.62791552734375,3.179718017578125,-1.3622901439666748,0.07439461350440979
1667266442549711000,1.632711181640625,3.038562774658203,-1.244577407836914,0.3854396641254425
1667266442554506800,1.6375068359375,2.833632469177246,-1.1551345586776733,0.7641415596008301
1667266442559302400,1.642302490234375,2.5806350708007812,-1.089835524559021,1.1224756240844727
1667266442564097800,1.647097900390625,2.3763694763183594,-1.0230001211166382,1.3450711965560913
1667266442568893400,1.6518935546875,2.2337989807128906,-0.94133460521698,1.3990360498428345
1667266442573689000,1.656689208984375,2.1861371994018555,-0.8006221055984497,1.3942524194717407
1667266442578484500,1.661484375,2.2020435333251953,-0.6499984264373779,1.3729526996612549
1667266442583280000,1.666280029296875,2.2276010513305664,-0.5897077918052673,1.345422625541687
1667266442588075800,1.67107568359375,2.2663516998291016,-0.5767661929130554,1.3005955219268799
1667266442592871400,1.675871337890625,2.349285125732422,-0.6232778429985046,1.2622742652893066
1667266442597666800,1.680666748046875,2.5371294021606445,-0.6888567805290222,1.2839713096618652
1667266442602462500,1.68546240234375,2.7889881134033203,-0.7667319774627686,1.294280767440796
1667266442607258000,1.690258056640625,3.092702865600586,-0.8532693386077881,1.337283730506897
1667266442612053500,1.695053466796875,3.366914749145508,-0.9341487884521484,1.424811840057373
1667266442616849200,1.69984912109375,3.5603342056274414,-1.0843406915664673,1.5503878593444824
1667266442621644800,1.704644775390625,3.6480846405029297,-1.2686415910720825,1.673234224319458
1667266442626440200,1.709440185546875,3.6280479431152344,-1.4578320980072021,1.7772831916809082
1667266442631235800,1.71423583984375,3.5470752716064453,-1.6061259508132935,1.8265104293823242
1667266442636031500,1.719031494140625,3.4841127395629883,-1.697798728942871,1.8338031768798828
1667266442640827100,1.7238271484375,3.443878173828125,-1.7611180543899536,1.7761549949645996
1667266442645622500,1.72862255859375,3.3953027725219727,-1.8046488761901855,1.6268187761306763
1667266442650418200,1.733418212890625,3.3825902938842773,-1.840391993522644,1.4107825756072998
1667266442655213800,1.7382138671875,3.4068546295166016,-1.9023265838623047,1.1113042831420898
1667266442660009500,1.743009521484375,3.459653854370117,-1.970813274383545,0.8302153944969177
1667266442664804900,1.747804931640625,3.528989791870117,-1.9892443418502808,0.6250120401382446
1667266442669600500,1.7526005859375,3.637514114379883,-1.9573920965194702,0.37486931681632996
1667266442674396200,1.757396240234375,3.64669132232666,-2.011941432952881,0.2716527581214905
1667266442679191600,1.762191650390625,3.636812210083008,-2.067150592803955,0.2338687777519226
1667266442683987200,1.7669873046875,3.598417282104492,-2.0494463443756104,0.2124515175819397
1667266442688782800,1.771782958984375,3.522040367126465,-2.0691144466400146,0.2330532968044281
1667266442693578500,1.77657861328125,3.400631904602051,-2.0881612300872803,0.27105921506881714
1667266442698374000,1.781373779296875,3.272505760192871,-2.0781145095825195,0.3740020990371704
1667266442703169500,1.78616943359375,3.1543760299682617,-2.023756265640259,0.4582025408744812
1667266442707965200,1.790965087890625,3.0473976135253906,-1.950270414352417,0.5142102837562561
1667266442712760600,1.795760498046875,2.9491376876831055,-1.839677333831787,0.5758116841316223
1667266442717556200,1.80055615234375,2.8464345932006836,-1.7253910303115845,0.6144038438796997
1667266442722351900,1.805351806640625,2.7190122604370117,-1.58702552318573,0.6582356095314026
1667266442727147500,1.8101474609375,2.582463264465332,-1.4758609533309937,0.6754775047302246
1667266442731943000,1.81494287109375,2.4320478439331055,-1.4038664102554321,0.654873788356781
1667266442736738600,1.819738525390625,2.31436824798584,-1.3626708984375,0.6773093938827515
1667266442741534200,1.8245341796875,2.2711172103881836,-1.3344806432724,0.6867964267730713
1667266442746329600,1.82932958984375,2.2710580825805664,-1.2762614488601685,0.6817469000816345
1667266442751125200,1.834125244140625,2.2770538330078125,-1.2955108880996704,0.7032022476196289
1667266442755921000,1.8389208984375,2.2795333862304688,-1.328635334968567,0.8511219620704651
1667266442760716300,1.84371630859375,2.2355213165283203,-1.3718898296356201,1.025823950767517
1667266442765512000,1.848511962890625,2.1355857849121094,-1.3975133895874023,1.1622368097305298
1667266442770307600,1.8533076171875,1.9727134704589844,-1.433861255645752,1.2569236755371094
1667266442775103200,1.858103271484375,1.7757234573364258,-1.456815481185913,1.3100645542144775
1667266442779898600,1.862898681640625,1.530379295349121,-1.4097986221313477,1.23080313205719
1667266442784694300,1.8676943359375,1.2833671569824219,-1.3297879695892334,1.0766024589538574
1667266442789490000,1.872489990234375,1.051401138305664,-1.2068994045257568,0.8925358653068542
1667266442794285300,1.877285400390625,0.8451805114746094,-1.082560420036316,0.7127898931503296
1667266442799081000,1.8820810546875,0.6252365112304688,-0.9778372049331665,0.615477979183197
1667266442803876600,1.886876708984375,0.44651317596435547,-0.8947348594665527,0.5437743663787842
1667266442808672300,1.89167236328125,0.31127071380615234,-0.8400858640670776,0.5321398973464966
1667266442813467600,1.896467529296875,0.2778787612915039,-0.7598827481269836,0.5479573011398315
1667266442818263300,1.90126318359375,0.287567138671875,-0.6889351010322571,0.5504986047744751
1667266442823059000,1.906058837890625,0.2745532989501953,-0.6870605945587158,0.4694296419620514
1667266442827854600,1.9108544921875,0.26279640197753906,-0.7079168558120728,0.35478508472442627
1667266442832650000,1.91564990234375,0.24993896484375,-0.7568806409835815,0.28412726521492004
1667266442837445600,1.920445556640625,0.2742166519165039,-0.7996759414672852,0.2546292841434479
1667266442842241300,1.9252412109375,0.3403301239013672,-0.8129501938819885,0.24735042452812195
1667266442847036700,1.93003662109375,0.3992433547973633,-0.7852269411087036,0.30409005284309387
1667266442851832300,1.934832275390625,0.492767333984375,-0.7752291560173035,0.34039151668548584
1667266442856628000,1.9396279296875,0.5456123352050781,-0.7522144317626953,0.3804319500923157
1667266442861423600,1.944423583984375,0.5579099655151367,-0.72464919090271,0.38465067744255066
1667266442866219000,1.949218994140625,0.5082845687866211,-0.7057363390922546,0.3902762532234192
1667266442871014700,1.9540146484375,0.425567626953125,-0.6953359246253967,0.3564743399620056
1667266442875810300,1.958810302734375,0.3206024169921875,-0.6777865886688232,0.32382574677467346
1667266442880605700,1.963605712890625,0.22568321228027344,-0.6694622039794922,0.28871843218803406
1667266442885401300,1.9684013671875,0.1300210952758789,-0.6200231313705444,0.28014320135116577
1667266442890197000,1.973197021484375,0.03000640869140625,-0.580740213394165,0.2675551772117615
1667266442894992400,1.977992431640625,-0.048132896423339844,-0.519091010093689,0.2135246992111206
1667266442899788000,1.9827880859375,-0.15463829040527344,-0.48277780413627625,0.20816993713378906
1667266442904583700,1.987583740234375,-0.294219970703125,-0.46677273511886597,0.23803621530532837
1667266442909379300,1.99237939453125,-0.4333686828613281,-0.4862901568412781,0.29910749197006226
1667266442914174700,1.9971748046875,-0.5219192504882812,-0.5580003261566162,0.3874548673629761
1667266442918970400,2.001970458984375,-0.5600290298461914,-0.6268280148506165,0.43535107374191284
1667266442923766000,2.00676611328125,-0.5812740325927734,-0.684577465057373,0.41096436977386475
1667266442928561400,2.0115615234375,-0.5570697784423828,-0.735100269317627,0.3115531802177429
1667266442933357000,2.016357177734375,-0.5126419067382812,-0.7632354497909546,0.16437864303588867
1667266442938152700,2.021152587890625,-0.4110746383666992,-0.6926843523979187,-0.11100518703460693
1667266442942948400,2.0259482421875,-0.42563915252685547,-0.733954131603241,-0.15142720937728882
1667266442947743700,2.03074365234375,-0.5501079559326172,-0.8090411424636841,-0.040876805782318115
1667266442952539400,2.035539306640625,-0.6278047561645508,-0.8401044011116028,-0.006573140621185303
1667266442957335000,2.0403349609375,-0.7090005874633789,-0.8608199954032898,-0.030286014080047607
1667266442962130700,2.045130615234375,-0.8378543853759766,-0.8616122007369995,-0.10970801115036011
1667266442966926000,2.049926025390625,-1.0488004684448242,-0.934618353843689,-0.07836514711380005
1667266442971721700,2.0547216796875,-1.191157341003418,-0.9399787187576294,-0.13377267122268677
1667266442976517400,2.059517333984375,-1.2698850631713867,-0.9518189430236816,-0.21106231212615967
1667266442981312800,2.064312744140625,-1.3687725067138672,-0.9127222299575806,-0.25592780113220215
1667266442986108400,2.0691083984375,-1.4376726150512695,-0.9109592437744141,-0.3013976514339447
1667266442990904000,2.073904052734375,-1.542342185974121,-0.8986793160438538,-0.34245508909225464
1667266442995699700,2.07869970703125,-1.6814899444580078,-0.8721618056297302,-0.4008941054344177
1667266443000495000,2.0834951171875,-1.8776912689208984,-0.921971321105957,-0.29341650009155273
1667266443005290800,2.088290771484375,-2.0853652954101562,-0.9595372676849365,-0.24580076336860657
1667266443010086400,2.09308642578125,-2.260287284851074,-1.0001354217529297,-0.24187615513801575
1667266443014881800,2.0978818359375,-2.4550280570983887,-0.9733502268791199,-0.2249261736869812
1667266443019677400,2.102677490234375,-2.6098036766052246,-0.929431676864624,-0.26251286268234253
1667266443024473000,2.10747314453125,-2.7473649978637695,-0.8745535612106323,-0.3476879298686981
