time,seconds_elapsed,z,y,x
1667266441004343300,0.08734326171875,0.006108472589403391,0.02076880633831024,0.07330167293548584
1667266441006741200,0.0897412109375,0.0024433890357613564,0.02504473738372326,0.07635590434074402
1667266441009139000,0.092138916015625,-0.0018325417768210173,0.02748812735080719,0.08002099394798279
1667266441011536600,0.09453662109375,-0.004886778071522713,0.02993151545524597,0.08246438205242157
1667266441013934600,0.0969345703125,-0.007330167107284069,0.036039989441633224,0.08185353130102158
1667266441016332300,0.099332275390625,-0.010995250195264816,0.0390942245721817,0.08246438205242157
1667266441018730000,0.10172998046875,-0.015271181240677834,0.0397050715982914,0.08612946420907974
1667266441021128000,0.1041279296875,-0.017714571207761765,0.045202698558568954,0.08551861345767975
1667266441023525600,0.106525634765625,-0.022601349279284477,0.047646086663007736,0.08674030750989914
1667266441025923300,0.10892333984375,-0.02870982140302658,0.042759306728839874,0.08674030750989914
1667266441028321300,0.1113212890625,-0.033596597611904144,0.0390942245721817,0.08857285231351852
1667266441030719000,0.113718994140625,-0.036039989441633224,0.03298575058579445,0.08918370306491852
1667266441033116700,0.11611669921875,-0.036039989441633224,0.02748812735080719,0.0910162404179573
1667266441035514600,0.1185146484375,-0.036039989441633224,0.01832541823387146,0.09345962852239609
1667266441037912300,0.120912353515625,-0.03542914241552353,0.010995250195264816,0.09651386737823486
1667266441040310000,0.12331005859375,-0.037261683493852615,0.0006108472589403391,0.09773556143045425
1667266441042708000,0.1257080078125,-0.034818295389413834,-0.005497625097632408,0.10262233763933182
1667266441045105700,0.128105712890625,-0.03298575058579445,-0.010995250195264816,0.10873081535100937
1667266441047503400,0.13050341796875,-0.030542362481355667,-0.014660334214568138,0.11545012891292572
1667266441049901300,0.1329013671875,-0.02504473738372326,-0.02076880633831024,0.12216944992542267
1667266441052299000,0.135299072265625,-0.025655584409832954,-0.023823043331503868,0.1313321590423584
1667266441054696700,0.13769677734375,-0.022601349279284477,-0.023823043331503868,0.13805148005485535
1667266441057094700,0.1400947265625,-0.020157959312200546,-0.023823043331503868,0.1459924876689911
1667266441059492400,0.142492431640625,-0.018936265259981155,-0.022601349279284477,0.15515519678592682
1667266441061890000,0.14489013671875,-0.01954711228609085,-0.024433890357613564,0.16615045070648193
1667266441064287700,0.147287841796875,-0.018936265259981155,-0.02748812735080719,0.17531315982341766
1667266441066685700,0.149685791015625,-0.01710372418165207,-0.030542362481355667,0.183865025639534
1667266441069083400,0.15208349609375,-0.01832541823387146,-0.03298575058579445,0.19424942135810852
1667266441071481000,0.154481201171875,-0.01832541823387146,-0.036039989441633224,0.20035789906978607
1667266441073879000,0.156879150390625,-0.01710372418165207,-0.0397050715982914,0.2095206081867218
1667266441076276700,0.15927685546875,-0.01954711228609085,-0.045202698558568954,0.21196399629116058
1667266441078674400,0.16167431640625,-0.018936265259981155,-0.04947862774133682,0.21379654109477997
1667266441081072400,0.164072265625,-0.021990500390529633,-0.0525328628718853,0.21562908589839935
1667266441083470000,0.166469970703125,-0.023823043331503868,-0.05864133685827255,0.21440738439559937
1667266441085867800,0.16886767578125,-0.029320668429136276,-0.05986303091049194,0.2113531529903412
1667266441088265700,0.171265625,-0.03542914241552353,-0.06169557198882103,0.2089097648859024
1667266441090663400,0.173663330078125,-0.0390942245721817,-0.06291726976633072,0.20402298867702484
1667266441093061400,0.176061279296875,-0.043981000781059265,-0.061084724962711334,0.1948602795600891
1667266441095459000,0.178458984375,-0.046424392610788345,-0.061084724962711334,0.18875180184841156
1667266441097856800,0.180856689453125,-0.04825693368911743,-0.061084724962711334,0.18081079423427582
1667266441100254500,0.18325439453125,-0.04947862774133682,-0.056808795779943466,0.1716480851173401
1667266441102652400,0.18565234375,-0.04947862774133682,-0.05741964280605316,0.16309621930122375
1667266441105050000,0.188050048828125,-0.047646086663007736,-0.05925218388438225,0.16004198789596558
1667266441107447800,0.19044775390625,-0.042759306728839874,-0.05864133685827255,0.1582094430923462
1667266441109845800,0.192845703125,-0.0390942245721817,-0.06352811306715012,0.1582094430923462
1667266441112243500,0.195243408203125,-0.03420744836330414,-0.07024743407964706,0.1575985997915268
1667266441114641200,0.19764111328125,-0.030542362481355667,-0.07452336698770523,0.16004198789596558
1667266441117039000,0.2000390625,-0.02993151545524597,-0.07635590434074402,0.16370706260204315
1667266441119436800,0.202436767578125,-0.02870982140302658,-0.0787992998957634,0.16859383881092072
1667266441121834500,0.20483447265625,-0.03298575058579445,-0.07513421028852463,0.17531315982341766
1667266441124232400,0.207232421875,-0.037261683493852615,-0.06963659077882767,0.182643324136734
1667266441126630100,0.209630126953125,-0.043981000781059265,-0.062306419014930725,0.1948602795600891
1667266441129027800,0.21202783203125,-0.054365407675504684,-0.05864133685827255,0.20768806338310242
1667266441131425800,0.21442578125,-0.0659715011715889,-0.06352811306715012,0.22051586210727692
1667266441133823500,0.216823486328125,-0.0794101431965828,-0.07207997888326645,0.23334364593029022
1667266441136221200,0.21922119140625,-0.09345962852239609,-0.09529217332601547,0.23151111602783203
1667266441138619100,0.221619140625,-0.12522368133068085,-0.15026842057704926,0.16737215220928192
1667266441141016800,0.224016845703125,-0.1716480851173401,-0.19058434665203094,0.08002099394798279
1667266441143414500,0.22641455078125,-0.19424942135810852,-0.18936264514923096,0.04092676565051079
1667266441145812500,0.2288125,-0.20402298867702484,-0.16676130890846252,0.04153761267662048
1667266441148210200,0.231210205078125,-0.2101314514875412,-0.13927318155765533,0.0525328628718853
1667266441150608000,0.23360791015625,-0.21868331730365753,-0.12278030067682266,0.061084724962711334
1667266441153005800,0.236005859375,-0.23273280262947083,-0.1178935244679451,0.05986303091049194
1667266441155403500,0.238403564453125,-0.2498365342617035,-0.12033691257238388,0.051922015845775604
1667266441157801200,0.24080126953125,-0.2632751762866974,-0.12461283802986145,0.045202698558568954
1667266441160199200,0.24319921875,-0.28098973631858826,-0.12583453953266144,0.04031591862440109
1667266441162596900,0.245596923828125,-0.29320669174194336,-0.12278030067682266,0.04153761267662048
1667266441164994600,0.24799462890625,-0.3017585575580597,-0.12155860662460327,0.042759306728839874
1667266441167392500,0.250392578125,-0.30908870697021484,-0.12400199472904205,0.045202698558568954
1667266441169790200,0.252790283203125,-0.3133646547794342,-0.12644538283348083,0.05131116881966591
1667266441172188000,0.25518798828125,-0.3170297145843506,-0.13682979345321655,0.05803048983216286
1667266441174585900,0.2575859375,-0.32191649079322815,-0.14965757727622986,0.062306419014930725
1667266441176983600,0.259983642578125,-0.3298575282096863,-0.16370706260204315,0.06963659077882767
1667266441179381200,0.26238134765625,-0.337798535823822,-0.18081079423427582,0.07574506103992462
1667266441181779000,0.264779052734375,-0.34818294644355774,-0.1948602795600891,0.08735115826129913
1667266441184177000,0.267177001953125,-0.35917818546295166,-0.1966928243637085,0.09956810623407364
1667266441186574600,0.26957470703125,-0.367730051279068,-0.1985253542661667,0.1044548824429512
1667266441188972300,0.27197216796875,-0.36284327507019043,-0.2095206081867218,0.09590301662683487
1667266441191370200,0.274370361328125,-0.34940463304519653,-0.22967857122421265,0.0794101431965828
1667266441193768000,0.276767822265625,-0.33474430441856384,-0.2608317732810974,0.05803048983216286
1667266441196165600,0.27916552734375,-0.31886225938796997,-0.3005368411540985,0.03542914241552353
1667266441198563600,0.2815634765625,-0.3035911023616791,-0.3390202224254608,0.007330167107284069
1667266441200961300,0.283961181640625,-0.2877090573310852,-0.3793361485004425,-0.01954711228609085
1667266441203359200,0.286359130859375,-0.2736595869064331,-0.420873761177063,-0.04459185153245926
1667266441205757000,0.2887568359375,-0.25777754187583923,-0.4575245976448059,-0.0647498071193695
1667266441208154600,0.291154541015625,-0.2363978922367096,-0.48806697130203247,-0.08124268800020218
1667266441210552600,0.293552490234375,-0.2107423096895218,-0.5063923597335815,-0.09284878522157669
1667266441212950300,0.2959501953125,-0.17775654792785645,-0.5161659121513367,-0.10017894953489304
1667266441215348000,0.298347900390625,-0.1423274129629135,-0.5204418897628784,-0.10201149433851242
1667266441217745700,0.30074560546875,-0.10384403169155121,-0.5173876285552979,-0.09834641218185425
1667266441220143600,0.3031435546875,-0.0647498071193695,-0.5070032477378845,-0.09040539711713791
1667266441222541300,0.305541259765625,-0.026877280324697495,-0.49356457591056824,-0.08551861345767975
1667266441224939000,0.30793896484375,0.009773556143045425,-0.47646087408065796,-0.0794101431965828
1667266441227337000,0.3103369140625,0.043981000781059265,-0.4593571424484253,-0.07513421028852463
1667266441229734700,0.312734619140625,0.07574506103992462,-0.43981003761291504,-0.07024743407964706
1667266441232132400,0.31513232421875,0.10323318839073181,-0.42759308218955994,-0.07085828483104706
1667266441234530300,0.3175302734375,0.12827792763710022,-0.416597843170166,-0.07085828483104706
1667266441236928000,0.319927978515625,0.14721418917179108,-0.41476529836654663,-0.07635590434074402
1667266441239325700,0.32232568359375,0.16431790590286255,-0.41354358196258545,-0.08307522535324097
1667266441241723600,0.3247236328125,0.17225892841815948,-0.41415444016456604,-0.0916270911693573
1667266441244121300,0.327121337890625,0.18081079423427582,-0.41171106696128845,-0.10323318839073181
1667266441246519000,0.32951904296875,0.183865025639534,-0.4092676639556885,-0.1178935244679451
1667266441248917000,0.3319169921875,0.18997350335121155,-0.4056025743484497,-0.13744063675403595
1667266441251314700,0.334314697265625,0.1948602795600891,-0.40254834294319153,-0.16676130890846252
1667266441253712400,0.33671240234375,0.20096874237060547,-0.3799470067024231,-0.1979145109653473
1667266441256110300,0.3391103515625,0.21746163070201874,-0.3432961702346802,-0.23212195932865143
1667266441258508000,0.341508056640625,0.2486148327589035,-0.3017585575580597,-0.2724378705024719
1667266441260905700,0.34390576171875,0.28037887811660767,-0.2754921019077301,-0.3151971995830536
1667266441263303700,0.3463037109375,0.3133646547794342,-0.2492256760597229,-0.35795649886131287
1667266441265701400,0.348701416015625,0.3396310806274414,-0.21746163070201874,-0.40132665634155273
1667266441268099000,0.35109912109375,0.35795649886131287,-0.18142163753509521,-0.4434750974178314
1667266441270497000,0.3534970703125,0.3701734244823456,-0.1435490995645523,-0.4856235682964325
1667266441272894700,0.355894775390625,0.37689274549484253,-0.11483928561210632,-0.5308262705802917
1667266441275292400,0.35829248046875,0.37689274549484253,-0.09529217332601547,-0.5760289430618286
1667266441277690400,0.3606904296875,0.37261682748794556,-0.0910162404179573,-0.6236750483512878
1667266441280088000,0.363088134765625,0.3549022674560547,-0.1050657257437706,-0.6774296164512634
1667266441282485800,0.36548583984375,0.3292466700077057,-0.13805148005485535,-0.7348492741584778
1667266441284883700,0.3678837890625,0.30725616216659546,-0.18569757044315338,-0.7879929542541504
1667266441287281400,0.370281494140625,0.288930743932724,-0.2492256760597229,-0.8338065147399902
1667266441289679000,0.37267919921875,0.2736595869064331,-0.32252734899520874,-0.8753440976142883
1667266441292077000,0.3750771484375,0.2638860046863556,-0.4056025743484497,-0.9101623892784119
1667266441294474800,0.377474853515625,0.2620534598827362,-0.4953971207141876,-0.9370396733283997
1667266441296872400,0.37987255859375,0.2644968628883362,-0.5937435626983643,-0.9633061289787292
1667266441299270100,0.382270263671875,0.26877278089523315,-0.7000309824943542,-0.9883508682250977
1667266441301668000,0.384668212890625,0.2761029601097107,-0.8118160367012024,-1.012784719467163
1667266441304065800,0.387065673828125,0.2895416021347046,-0.9303203821182251,-1.0366077423095703
1667266441306463700,0.389463623046875,0.3005368411540985,-1.050046443939209,-1.0653176307678223
1667266441308861400,0.391861328125,0.30786702036857605,-1.1697725057601929,-1.0934165716171265
1667266441311259100,0.394259033203125,0.314586341381073,-1.2931636571884155,-1.1312891244888306
1667266441313657000,0.396656982421875,0.3249707520008087,-1.408690094947815,-1.159998893737793
1667266441316054800,0.3990546875,0.3439069986343384,-1.520475149154663,-1.184432864189148
1667266441318452500,0.401452392578125,0.35978904366493225,-1.6285951137542725,-1.2027583122253418
1667266441320850400,0.403850341796875,0.3781144618988037,-1.7336609363555908,-1.2180293798446655
1667266441323248000,0.406248046875,0.39827242493629456,-1.8228446245193481,-1.226581335067749
1667266441325645800,0.408645751953125,0.4202629029750824,-1.8894269466400146,-1.22963547706604
1667266441328043800,0.411043701171875,0.444085955619812,-1.9340187311172485,-1.2271921634674072
1667266441330441500,0.41344140625,0.4691306948661804,-1.9584527015686035,-1.2229162454605103
1667266441332839200,0.415839111328125,0.49295374751091003,-1.9670045375823975,-1.2131426334381104
1667266441335236900,0.41823681640625,0.517998456954956,-1.964561104774475,-1.1954281330108643
1667266441337634800,0.420634765625,0.5393781065940857,-1.9529550075531006,-1.178935170173645
1667266441340032500,0.423032470703125,0.5595360994338989,-1.9334079027175903,-1.1587772369384766
1667266441342430200,0.42543017578125,0.577861487865448,-1.9101957082748413,-1.1373976469039917
1667266441344828200,0.427828125,0.5949652194976807,-1.8924812078475952,-1.113574504852295
1667266441347225900,0.430225830078125,0.6096255779266357,-1.8765991926193237,-1.090362310409546
1667266441349623600,0.43262353515625,0.624896764755249,-1.849721908569336,-1.0628741979599
1667266441352021500,0.435021484375,0.6389462351799011,-1.816736102104187,-1.0298885107040405
1667266441354419200,0.437419189453125,0.6517740488052368,-1.7843612432479858,-1.0005677938461304
1667266441356817200,0.439817138671875,0.6615476012229919,-1.7525970935821533,-0.9688037633895874
1667266441359214800,0.44221484375,0.6719319820404053,-1.7263307571411133,-0.9352071285247803
1667266441361612500,0.444612548828125,0.679872989654541,-1.7043402194976807,-0.9028322696685791
1667266441364010500,0.447010498046875,0.6853706240653992,-1.682349681854248,-0.8704573512077332
1667266441366408200,0.449408203125,0.6914790868759155,-1.6628025770187378,-0.8393041491508484
1667266441368806000,0.451805908203125,0.7006418108940125,-1.6383687257766724,-0.8057075142860413
1667266441371203600,0.45420361328125,0.7085828185081482,-1.6151565313339233,-0.7733326554298401
1667266441373601500,0.4566015625,0.7195780873298645,-1.5888900756835938,-0.7427902817726135
1667266441375999200,0.458999267578125,0.7317950129508972,-1.5583477020263672,-0.7085828185081482
1667266441378397000,0.46139697265625,0.7476770281791687,-1.5210859775543213,-0.6762079000473022
1667266441380795000,0.463794921875,0.7592831254005432,-1.4777158498764038,-0.6438329815864563
1667266441383192600,0.466192626953125,0.7715001106262207,-1.4282371997833252,-0.6084038615226746
1667266441385590300,0.46859033203125,0.786160409450531,-1.3744826316833496,-0.5766398310661316
1667266441387988200,0.47098828125,0.7995990514755249,-1.3200409412384033,-0.5418215394020081
1667266441390386000,0.473385986328125,0.809983491897583,-1.2656755447387695,-0.5082249045372009
1667266441392783600,0.47578369140625,0.8191461563110352,-1.2094775438308716,-0.4721849262714386
1667266441395181600,0.478181640625,0.8252546191215515,-1.155722975730896,-0.43614494800567627
1667266441397579300,0.480579345703125,0.8307522535324097,-1.1031901836395264,-0.40010493993759155
1667266441399977000,0.48297705078125,0.8356390595436096,-1.0494356155395508,-0.3646758198738098
1667266441402375000,0.485375,0.837471604347229,-0.994459331035614,-0.3255815804004669
1667266441404772600,0.487772705078125,0.8386932611465454,-0.938872218132019,-0.2870981991291046
1667266441407170300,0.49017041015625,0.8380824327468872,-0.8796200752258301,-0.24678228795528412
1667266441409568300,0.492568359375,0.8356390595436096,-0.8209787011146545,-0.20646637678146362
1667266441411966000,0.494966064453125,0.8350282311439514,-0.7519529461860657,-0.16553960740566254
1667266441414363600,0.49736376953125,0.8264763355255127,-0.6627692580223083,-0.12644538283348083
1667266441416761600,0.49976171875,0.8112051486968994,-0.5393781065940857,-0.09284878522157669
1667266441419159300,0.5021591796875,0.7873821258544922,-0.38666632771492004,-0.06047387793660164
1667266441421557000,0.504556884765625,0.7598940134048462,-0.21379654109477997,-0.033596597611904144
1667266441423955000,0.506954833984375,0.7250757217407227,-0.016492875292897224,-0.004886778071522713
1667266441426352600,0.5093525390625,0.6902574300765991,0.20585553348064423,0.03298575058579445
1667266441428750300,0.511750244140625,0.652384877204895,0.4306473135948181,0.07757759839296341
1667266441431148300,0.514148193359375,0.6139014959335327,0.629172682762146,0.129499614238739
1667266441433546000,0.5165458984375,0.573585569858551,0.7941014170646667,0.1844758689403534
1667266441435943700,0.518943603515625,0.5302154421806335,0.9278770089149475,0.23945212364196777
1667266441438341600,0.521341552734375,0.4844018816947937,1.0451596975326538,0.29687178134918213
1667266441440739300,0.5237392578125,0.4355340898036957,1.1587772369384766,0.3530697226524353
1667266441443137000,0.526136962890625,0.3836120665073395,1.276059865951538,0.4074351191520691
1667266441445535000,0.528534912109375,0.33413344621658325,1.4019708633422852,0.4605788290500641
1667266441447932700,0.5309326171875,0.2883199155330658,1.5418548583984375,0.5137225389480591
1667266441450330400,0.533330322265625,0.2473931461572647,1.6841822862625122,0.5680879354476929
1667266441452728300,0.535728271484375,0.20707722008228302,1.825287938117981,0.6212316751480103
1667266441455126000,0.5381259765625,0.17225892841815948,1.9627286195755005,0.6725428104400635
1667266441457523700,0.540523681640625,0.1453816443681717,2.092839002609253,0.7244648337364197
1667266441459921700,0.542921630859375,0.11972606182098389,2.2076783180236816,0.7782194018363953
1667266441462319400,0.5453193359375,0.10201149433851242,2.2962512969970703,0.8276980519294739
1667266441464717000,0.547717041015625,0.08551861345767975,2.361611843109131,0.8747332692146301
1667266441467115000,0.550114990234375,0.07146912813186646,2.396430253982544,0.9217684864997864
1667266441469512700,0.5525126953125,0.062306419014930725,2.3945975303649902,0.9639169573783875
1667266441471910400,0.554910400390625,0.05803048983216286,2.3487839698791504,0.9999569654464722
1667266441474308400,0.557308349609375,0.054365407675504684,2.263265371322632,1.0335536003112793
1667266441476706000,0.5597060546875,0.05864133685827255,2.136820077896118,1.0665392875671387
1667266441479103700,0.562103759765625,0.06658235192298889,1.9682261943817139,1.0952491760253906
1667266441481501700,0.564501708984375,0.08063183724880219,1.7635923624038696,1.1221264600753784
1667266441483899400,0.5668994140625,0.09834641218185425,1.5400222539901733,1.1459494829177856
1667266441486297000,0.569297119140625,0.12278030067682266,1.313321590423584,1.1685508489608765
1667266441488694800,0.57169482421875,0.14721418917179108,1.0989142656326294,1.1862653493881226
1667266441491092700,0.5740927734375,0.1716480851173401,0.9107732772827148,1.197871446609497
1667266441493490400,0.576490478515625,0.19180603325366974,0.7409577369689941,1.2088667154312134
1667266441495888100,0.57888818359375,0.21379654109477997,0.6126797795295715,1.216196894645691
1667266441498286000,0.5812861328125,0.23273280262947083,0.5234960913658142,1.2216944694519043
1667266441500683800,0.583683837890625,0.2522799074649811,0.4563029110431671,1.222305417060852
1667266441503081700,0.586081787109375,0.26999449729919434,0.41110020875930786,1.2131426334381104
1667266441505479400,0.5884794921875,0.28343313932418823,0.3781144618988037,1.1948171854019165
1667266441507877000,0.590877197265625,0.2999260127544403,0.36223241686820984,1.1679399013519287
1667266441510275000,0.593275146484375,0.314586341381073,0.36101073026657104,1.1318999528884888
1667266441512672800,0.5956728515625,0.3261924386024475,0.35978904366493225,1.09219491481781
1667266441515070500,0.598070556640625,0.337798535823822,0.3530697226524353,1.035386085510254
1667266441517468200,0.60046826171875,0.34512871503829956,0.33291175961494446,0.9688037633895874
1667266441519866000,0.6028662109375,0.3506263196468353,0.3017585575580597,0.8942803740501404
1667266441522263800,0.605263916015625,0.3518480062484741,0.26632940769195557,0.813648521900177
1667266441524661500,0.60766162109375,0.3518480062484741,0.21746163070201874,0.7214106321334839
1667266441527059500,0.6100595703125,0.34879377484321594,0.1588202863931656,0.6224533319473267
1667266441529457200,0.61245703125,0.34451785683631897,0.09284878522157669,0.5137225389480591
1667266441531854800,0.614854736328125,0.33596599102020264,0.01954711228609085,0.3927747905254364
1667266441534252800,0.617252685546875,0.3255815804004669,-0.05619794875383377,0.27060532569885254
1667266441536650500,0.619650390625,0.314586341381073,-0.12461283802986145,0.14904673397541046
1667266441539048200,0.622048095703125,0.2980934679508209,-0.1820324808359146,0.02626643143594265
1667266441541446100,0.624446044921875,0.28160059452056885,-0.23212195932865143,-0.09407047927379608
1667266441543843800,0.62684375,0.2644968628883362,-0.2767138183116913,-0.2101314514875412
1667266441546241800,0.62924169921875,0.2480039894580841,-0.3170297145843506,-0.32313820719718933
1667266441548639500,0.631639404296875,0.22601348161697388,-0.3549022674560547,-0.4330907166004181
1667266441551037200,0.634037109375,0.20341213047504425,-0.38727715611457825,-0.5375455617904663
1667266441553435000,0.636434814453125,0.17836740612983704,-0.4178195297718048,-0.6395570635795593
1667266441555832800,0.638832763671875,0.15087927877902985,-0.45080527663230896,-0.7366818189620972
1667266441558230500,0.64123046875,0.12522368133068085,-0.4746283292770386,-0.8264763355255127
1667266441560628200,0.643628173828125,0.09712471067905426,-0.4947862923145294,-0.9089407324790955
1667266441563026200,0.646026123046875,0.06719319522380829,-0.5106683373451233,-0.9822424054145813
1667266441565423900,0.648423828125,0.036039989441633224,-0.5222744345664978,-1.0512681007385254
1667266441567821600,0.650821533203125,0.007330167107284069,-0.5338805317878723,-1.1123528480529785
1667266441570219500,0.653219482421875,-0.022601349279284477,-0.5430431962013245,-1.1691616773605347
1667266441572617200,0.6556171875,-0.053143709897994995,-0.5583143830299377,-1.220472812652588
1667266441575015000,0.658014892578125,-0.08551861345767975,-0.5741963982582092,-1.2681188583374023
1667266441577412900,0.660412841796875,-0.11606097966432571,-0.5961869359016418,-1.3072131872177124
1667266441579810600,0.662810546875,-0.1441599577665329,-0.6218425035476685,-1.3439403772354126
1667266441582208300,0.665208251953125,-0.17225892841815948,-0.6560499668121338,-1.3793694972991943
1667266441584606200,0.667606201171875,-0.18936264514923096,-0.7128587365150452,-1.4184637069702148
1667266441587004000,0.67000390625,-0.20280128717422485,-0.7721109390258789,-1.4600013494491577
1667266441589401600,0.672401611328125,-0.22051586210727692,-0.8264763355255127,-1.4997063875198364
1667266441591799600,0.674799560546875,-0.22906772792339325,-0.8741224408149719,-1.5381897687911987
1667266441594197200,0.677197265625,-0.24250635504722595,-0.9193251132965088,-1.5742297172546387
1667266441596595000,0.679594970703125,-0.25533416867256165,-0.9553651213645935,-1.6102697849273682
1667266441598993000,0.681992919921875,-0.265718549489975,-0.9895725846290588,-1.64569890499115
1667266441601390600,0.684390625,-0.2761029601097107,-1.0250016450881958,-1.6799063682556152
1667266441603788300,0.686788330078125,-0.28343313932418823,-1.0640959739685059,-1.7122812271118164
1667266441606186200,0.689186279296875,-0.29320669174194336,-1.1068552732467651,-1.7440452575683594
1667266441608584000,0.691583984375,-0.3023693859577179,-1.1483927965164185,-1.774587631225586
1667266441610981600,0.693981689453125,-0.30969956517219543,-1.1911520957946777,-1.8002432584762573
1667266441613379600,0.696379638671875,-0.3170297145843506,-1.2339115142822266,-1.8204011917114258
1667266441615777300,0.69877734375,-0.3274141252040863,-1.277281641960144,-1.8387266397476196
1667266441618175000,0.701175048828125,-0.33474430441856384,-1.3292036056518555,-1.853997826576233
1667266441620573000,0.703572998046875,-0.34451785683631897,-1.3842562437057495,-1.8668255805969238
1667266441622970600,0.705970703125,-0.3530697226524353,-1.436178207397461,-1.8741557598114014
1667266441625368300,0.708368408203125,-0.35856732726097107,-1.4862676858901978,-1.881485939025879
1667266441627766300,0.710766357421875,-0.363454133272171,-1.5290271043777466,-1.881485939025879
1667266441630164000,0.7131640625,-0.3658975064754486,-1.5614019632339478,-1.8765991926193237
1667266441632561700,0.715561767578125,-0.3689517378807068,-1.5858358144760132,-1.8698798418045044
1667266441634959600,0.717959716796875,-0.3689517378807068,-1.6023286581039429,-1.858884572982788
1667266441637357300,0.720357421875,-0.3658975064754486,-1.6145457029342651,-1.839948296546936
1667266441639755000,0.722755126953125,-0.36223241686820984,-1.6224867105484009,-1.8228446245193481
1667266441642153000,0.725153076171875,-0.35978904366493225,-1.625540852546692,-1.8008540868759155
1667266441644550700,0.727550537109375,-0.3530697226524353,-1.621264934539795,-1.7751984596252441
1667266441646948400,0.7299482421875,-0.34879377484321594,-1.6121022701263428,-1.74709951877594
1667266441649346300,0.73234619140625,-0.3402419090270996,-1.5931659936904907,-1.7147246599197388
1667266441651744000,0.734743896484375,-0.33291175961494446,-1.5693429708480835,-1.6805171966552734
1667266441654141700,0.7371416015625,-0.32252734899520874,-1.538800597190857,-1.6389795541763306
1667266441656539600,0.73953955078125,-0.31092125177383423,-1.4966521263122559,-1.59988534450531
1667266441658937300,0.741937255859375,-0.2993151545524597,-1.4477843046188354,-1.5559042692184448
1667266441661335000,0.7443349609375,-0.28404396772384644,-1.3909755945205688,-1.5088690519332886
1667266441663733000,0.74673291015625,-0.26816195249557495,-1.3267602920532227,-1.460612177848816
1667266441666130700,0.749130615234375,-0.25289076566696167,-1.2552911043167114,-1.409911870956421
1667266441668528400,0.7515283203125,-0.2357870489358902,-1.1764918565750122,-1.359822392463684
1667266441670926300,0.75392626953125,-0.2217375487089157,-1.0866972208023071,-1.3084348440170288
1667266441673324000,0.756323974609375,-0.20768806338310242,-0.9877400398254395,-1.2589561939239502
1667266441675721700,0.7587216796875,-0.19180603325366974,-0.8814526200294495,-1.2058124542236328
1667266441678119700,0.76111962890625,-0.17714570462703705,-0.7708892226219177,-1.1551121473312378
1667266441680517400,0.763517333984375,-0.16431790590286255,-0.6536065936088562,-1.1044118404388428
1667266441682915000,0.7659150390625,-0.14904673397541046,-0.5369347333908081,-1.0549331903457642
1667266441685313000,0.76831298828125,-0.13499724864959717,-0.4220954477787018,-1.0042328834533691
1667266441687710700,0.770710693359375,-0.1172826737165451,-0.3017585575580597,-0.9523108601570129
1667266441690108400,0.7731083984375,-0.10323318839073181,-0.1832541823387146,-0.9009997248649597
1667266441692506400,0.77550634765625,-0.08796200156211853,-0.0653606578707695,-0.8472451567649841
1667266441694904000,0.777904052734375,-0.07085828483104706,0.046424392610788345,-0.7922688722610474
1667266441697301800,0.7803017578125,-0.0525328628718853,0.1575985997915268,-0.7391251921653748
1667266441699699700,0.78269970703125,-0.03542914241552353,0.2626643180847168,-0.6829272508621216
1667266441702097400,0.785097412109375,-0.01710372418165207,0.36284327507019043,-0.6297835111618042
1667266441704495000,0.7874951171875,0,0.45508119463920593,-0.5741963982582092
1667266441706893000,0.78989306640625,0.021990500390529633,0.5375455617904663,-0.5173876285552979
1667266441709290800,0.792290771484375,0.043981000781059265,0.6108472347259521,-0.4581354558467865
1667266441711688400,0.7946884765625,0.0659715011715889,0.6719319820404053,-0.39949411153793335
1667266441714086400,0.79708642578125,0.08979454636573792,0.7207997441291809,-0.3396310806274414
1667266441716484000,0.799484130859375,0.11239589750766754,0.754396378993988,-0.28160059452056885
1667266441718881800,0.8018818359375,0.13682979345321655,0.7745543122291565,-0.2235700935125351
1667266441721279700,0.80427978515625,0.16126367449760437,0.7782194018363953,-0.16737215220928192
1667266441723677400,0.806677490234375,0.182643324136734,0.7678350210189819,-0.11300674080848694
1667266441726075100,0.8090751953125,0.20707722008228302,0.7427902817726135,-0.056808795779943466
1667266441728473000,0.81147314453125,0.23028941452503204,0.7036960124969482,-0.0030542362947016954
1667266441730870800,0.813870849609375,0.2504473626613617,0.6517740488052368,0.04886778071522713
1667266441733268500,0.8162685546875,0.26999449729919434,0.5876350402832031,0.09712471067905426
1667266441735666400,0.81866650390625,0.2858765125274658,0.5106683373451233,0.1435490995645523
1667266441738064100,0.821064208984375,0.3005368411540985,0.4300364851951599,0.18814095854759216
1667266441740461800,0.8234619140625,0.3133646547794342,0.34512871503829956,0.22967857122421265
1667266441742859800,0.82585986328125,0.32252734899520874,0.2632751762866974,0.26816195249557495
1667266441745257500,0.828257568359375,0.3292466700077057,0.17836740612983704,0.30786702036857605
1667266441747655200,0.8306552734375,0.33230090141296387,0.10262233763933182,0.3408527672290802
1667266441750053000,0.83305322265625,0.33413344621658325,0.031153209507465363,0.37506023049354553
1667266441752450800,0.835450927734375,0.33352261781692505,-0.03542914241552353,0.4068242609500885
1667266441754848500,0.8378486328125,0.33230090141296387,-0.09345962852239609,0.43919917941093445
1667266441757246500,0.84024658203125,0.3255815804004669,-0.14660334587097168,0.4679090082645416
1667266441759644200,0.84264404296875,0.31886225938796997,-0.1979145109653473,0.4960079789161682
1667266441762041900,0.845041748046875,0.30908870697021484,-0.23884128034114838,0.522885262966156
1667266441764439800,0.847439697265625,0.2987042963504791,-0.28160059452056885,0.5497625470161438
1667266441766837500,0.84983740234375,0.2895416021347046,-0.32069480419158936,0.573585569858551
1667266441769235200,0.852235107421875,0.27854636311531067,-0.3536805510520935,0.5980194807052612
1667266441771633200,0.854633056640625,0.2651077210903168,-0.38666632771492004,0.6200099587440491
1667266441774030800,0.85703076171875,0.2522799074649811,-0.41537612676620483,0.6395570635795593
1667266441776428500,0.859428466796875,0.2345653474330902,-0.44103172421455383,0.6578825116157532
1667266441778826500,0.861826416015625,0.21807247400283813,-0.4593571424484253,0.6719319820404053
1667266441781224200,0.86422412109375,0.20157960057258606,-0.47585001587867737,0.6865923404693604
1667266441783622000,0.866621826171875,0.18142163753509521,-0.4862344264984131,0.6969767212867737
1667266441786019800,0.869019775390625,0.16126367449760437,-0.49173203110694885,0.7049177289009094
1667266441788417500,0.87141748046875,0.13927318155765533,-0.49173203110694885,0.707361102104187
1667266441790815200,0.873815185546875,0.11483928561210632,-0.4862344264984131,0.7098045349121094
1667266441793213200,0.876213134765625,0.09040539711713791,-0.47951510548591614,0.7098045349121094
1667266441795611000,0.87861083984375,0.06413896381855011,-0.46424391865730286,0.7049177289009094
1667266441798008600,0.881008544921875,0.0390942245721817,-0.448361873626709,0.6981984376907349
1667266441800406500,0.883406494140625,0.010995250195264816,-0.42514967918395996,0.6872031688690186
1667266441802804200,0.88580419921875,-0.01588202826678753,-0.40193748474121094,0.6731536984443665
1667266441805202000,0.888201904296875,-0.04214845970273018,-0.3689517378807068,0.6560499668121338
1667266441807599900,0.890599853515625,-0.06719319522380829,-0.3286358118057251,0.6395570635795593
1667266441809997600,0.89299755859375,-0.09040539711713791,-0.28343313932418823,0.6187883019447327
1667266441812395300,0.895395263671875,-0.11545012891292572,-0.24678228795528412,0.5949652194976807
1667266441814793200,0.897793212890625,-0.13805148005485535,-0.21440738439559937,0.5632011890411377
1667266441817191000,0.90019091796875,-0.16126367449760437,-0.18875180184841156,0.5320479869842529
1667266441819588600,0.902588623046875,-0.18081079423427582,-0.17531315982341766,0.4953971207141876
1667266441821986600,0.904986572265625,-0.1979145109653473,-0.16553960740566254,0.4569137394428253
1667266441824384300,0.90738427734375,-0.21318569779396057,-0.1575985997915268,0.416597843170166
1667266441826782000,0.909781982421875,-0.22479179501533508,-0.1459924876689911,0.37383851408958435
1667266441829180000,0.912179931640625,-0.2351761907339096,-0.12644538283348083,0.33474430441856384
1667266441831577600,0.91457763671875,-0.24250635504722595,-0.10873081535100937,0.2919849753379822
1667266441833975300,0.916975341796875,-0.2473931461572647,-0.10078980028629303,0.2498365342617035
1667266441836373200,0.919373291015625,-0.2473931461572647,-0.09529217332601547,0.20157960057258606
1667266441838771000,0.92177099609375,-0.24494975805282593,-0.09468132257461548,0.16004198789596558
1667266441841168600,0.924168701171875,-0.23945212364196777,-0.09712471067905426,0.11545012891292572
1667266441843566600,0.926566650390625,-0.23273280262947083,-0.09529217332601547,0.07024743407964706
1667266441845964300,0.92896435546875,-0.2235700935125351,-0.09529217332601547,0.025655584409832954
1667266441848362000,0.931362060546875,-0.21257483959197998,-0.0916270911693573,-0.017714571207761765
1667266441850760000,0.933760009765625,-0.19974705576896667,-0.0781884491443634,-0.056808795779943466
1667266441853157600,0.93615771484375,-0.1844758689403534,-0.06902574002742767,-0.09773556143045425
1667266441855555300,0.938555419921875,-0.16798299551010132,-0.06291726976633072,-0.13438639044761658
1667266441857953300,0.940953369140625,-0.15087927877902985,-0.054365407675504684,-0.17286977171897888
1667266441860351000,0.94335107421875,-0.12888877093791962,-0.05070032179355621,-0.20707722008228302
1667266441862748700,0.945748779296875,-0.10873081535100937,-0.043981000781059265,-0.24311721324920654
1667266441865146600,0.948146728515625,-0.08735115826129913,-0.03665083646774292,-0.2736595869064331
1667266441867544300,0.95054443359375,-0.06658235192298889,-0.026877280324697495,-0.3042019307613373
1667266441869942000,0.95294189453125,-0.045202698558568954,-0.01954711228609085,-0.33230090141296387
1667266441872340000,0.955340087890625,-0.026877280324697495,-0.009773556143045425,-0.35917818546295166
1667266441874737700,0.957737548828125,-0.01038440316915512,0.0012216945178806782,-0.38422292470932007
1667266441877135400,0.96013525390625,0.0036650835536420345,0.00916270911693573,-0.4068242609500885
1667266441879533300,0.962533203125,0.017714571207761765,0.01954711228609085,-0.42637139558792114
1667266441881931000,0.964930908203125,0.028098974376916885,0.029320668429136276,-0.4453076422214508
1667266441884328700,0.96732861328125,0.034818295389413834,0.0390942245721817,-0.4618005156517029
1667266441886726700,0.9697265625,0.042759306728839874,0.051922015845775604,-0.4746283292770386
1667266441889124400,0.972124267578125,0.04886778071522713,0.06413896381855011,-0.48806697130203247
1667266441891522300,0.974522216796875,0.05070032179355621,0.07757759839296341,-0.4966188073158264
1667266441893920000,0.976919921875,0.0525328628718853,0.0916270911693573,-0.5045598149299622
1667266441896317700,0.979317626953125,0.053143709897994995,0.10201149433851242,-0.5137225389480591
1667266441898715600,0.981715576171875,0.04825693368911743,0.11361759155988693,-0.5161659121513367
1667266441901113300,0.98411328125,0.04581354558467865,0.12094775587320328,-0.518609344959259
1667266441903511000,0.986510986328125,0.04092676565051079,0.12522368133068085,-0.5198310017585754
1667266441905908700,0.98890869140625,0.03542914241552353,0.12644538283348083,-0.5192201733589172
1667266441908306700,0.991306640625,0.030542362481355667,0.12461283802986145,-0.5167768001556396
1667266441910704400,0.993704345703125,0.021990500390529633,0.1172826737165451,-0.5137225389480591
1667266441913102300,0.996102294921875,0.012827792204916477,0.11056335270404816,-0.5118899941444397
1667266441915500000,0.9985,0.0018325417768210173,0.10140064358711243,-0.5051707029342651
1667266441917897700,1.000897705078125,-0.006108472589403391,0.08857285231351852,-0.5008947253227234
1667266441920295700,1.003295654296875,-0.01832541823387146,0.07452336698770523,-0.49356457591056824
1667266441922693400,1.005693359375,-0.026877280324697495,0.061084724962711334,-0.48806697130203247
1667266441925091000,1.008091064453125,-0.038483377546072006,0.04825693368911743,-0.48012593388557434
1667266441927489000,1.010489013671875,-0.04947862774133682,0.03298575058579445,-0.4734066128730774
1667266441929886700,1.01288671875,-0.05925218388438225,0.01588202826678753,-0.46668729186058044
1667266441932284400,1.015284423828125,-0.06841489672660828,-0.0024433890357613564,-0.4587462842464447
1667266441934682400,1.017682373046875,-0.0787992998957634,-0.02076880633831024,-0.45202696323394775
1667266441937080000,1.020080078125,-0.08857285231351852,-0.037261683493852615,-0.444085955619812
1667266441939477800,1.022477783203125,-0.09834641218185425,-0.05375456064939499,-0.4337015450000763
1667266441941875700,1.024875732421875,-0.10689827054738998,-0.07024743407964706,-0.42392799258232117
1667266441944273400,1.0272734375,-0.11667182296514511,-0.08124268800020218,-0.41537612676620483
1667266441946671000,1.029671142578125,-0.12216944992542267,-0.09040539711713791,-0.4074351191520691
1667266441949069000,1.032069091796875,-0.1301104724407196,-0.09345962852239609,-0.39766156673431396
1667266441951466800,1.034466796875,-0.13621893525123596,-0.09712471067905426,-0.38849884271621704
1667266441953864400,1.036864501953125,-0.14110571146011353,-0.09590301662683487,-0.3811686933040619
1667266441956262400,1.039262451171875,-0.1453816443681717,-0.0910162404179573,-0.37139514088630676
1667266441958660000,1.04166015625,-0.14965757727622986,-0.08674030750989914,-0.36162158846855164
1667266441961057800,1.044057861328125,-0.1557660549879074,-0.08307522535324097,-0.3549022674560547
1667266441963455700,1.046455810546875,-0.15943112969398499,-0.07696675509214401,-0.34635040163993835
1667266441965853400,1.048853515625,-0.16248537600040436,-0.07452336698770523,-0.3414636254310608
1667266441968251100,1.051251220703125,-0.16492876410484314,-0.06841489672660828,-0.3365768492221832
1667266441970649000,1.053649169921875,-0.1704263836145401,-0.0647498071193695,-0.33413344621658325
1667266441973046800,1.056046875,-0.17592400312423706,-0.0647498071193695,-0.33230090141296387
1667266441975444500,1.058444580078125,-0.18019993603229523,-0.06352811306715012,-0.33413344621658325
1667266441977842400,1.060842529296875,-0.1850867122411728,-0.06413896381855011,-0.33413344621658325
1667266441980240100,1.063240234375,-0.18997350335121155,-0.06902574002742767,-0.33535513281822205
1667266441982637800,1.065637939453125,-0.19424942135810852,-0.07391251623630524,-0.33718767762184143
1667266441985035800,1.068035888671875,-0.19363857805728912,-0.08002099394798279,-0.342074453830719
1667266441987433500,1.07043359375,-0.1954711228609085,-0.08918370306491852,-0.3432961702346802
1667266441989831400,1.07283154296875,-0.19424942135810852,-0.09773556143045425,-0.34818294644355774
1667266441992229000,1.07522900390625,-0.1948602795600891,-0.10811996459960938,-0.3506263196468353
1667266441994626800,1.077626708984375,-0.19363857805728912,-0.12278030067682266,-0.3542914092540741
1667266441997024800,1.080024658203125,-0.19180603325366974,-0.13377554714679718,-0.35917818546295166
1667266441999422500,1.08242236328125,-0.18814095854759216,-0.14843589067459106,-0.3640649616718292
1667266442001820200,1.084820068359375,-0.18753011524677277,-0.16187451779842377,-0.3683409094810486
1667266442004217900,1.0872177734375,-0.1844758689403534,-0.17470231652259827,-0.37322768568992615
1667266442006615800,1.08961572265625,-0.18081079423427582,-0.18875180184841156,-0.37567105889320374
1667266442009013500,1.092013427734375,-0.18019993603229523,-0.20707722008228302,-0.3775036036968231
1667266442011411500,1.094411376953125,-0.17897824943065643,-0.22051586210727692,-0.3823903799057007
1667266442013809200,1.09680908203125,-0.17958909273147583,-0.2339545041322708,-0.3836120665073395
1667266442016206800,1.099206787109375,-0.17775654792785645,-0.24372805655002594,-0.38727715611457825
1667266442018604800,1.101604736328125,-0.17958909273147583,-0.2626643180847168,-0.3897205591201782
1667266442021002500,1.10400244140625,-0.17897824943065643,-0.2773246467113495,-0.3927747905254364
1667266442023400200,1.106400146484375,-0.17592400312423706,-0.29442837834358215,-0.3946073353290558
1667266442025798100,1.108798095703125,-0.17531315982341766,-0.3170297145843506,-0.3939964771270752
1667266442028195800,1.11119580078125,-0.17225892841815948,-0.34573954343795776,-0.393385648727417
1667266442030593500,1.113593505859375,-0.16859383881092072,-0.3762819170951843,-0.38727715611457825
1667266442032991500,1.115991455078125,-0.16187451779842377,-0.4080459773540497,-0.3811686933040619
1667266442035389200,1.11838916015625,-0.15210096538066864,-0.4416425824165344,-0.37200596928596497
1667266442037787000,1.120786865234375,-0.1423274129629135,-0.4715740978717804,-0.36039987206459045
1667266442040184800,1.123184814453125,-0.1313321590423584,-0.4966188073158264,-0.34696123003959656
1667266442042582500,1.12558251953125,-0.11667182296514511,-0.5204418897628784,-0.33230090141296387
1667266442044980200,1.127980224609375,-0.10262233763933182,-0.5326588153839111,-0.3115321099758148
1667266442047378200,1.130378173828125,-0.08918370306491852,-0.5399889945983887,-0.2907632887363434
1667266442049775900,1.13277587890625,-0.07574506103992462,-0.5399889945983887,-0.27121618390083313
1667266442052173600,1.135173583984375,-0.06047387793660164,-0.5338805317878723,-0.24678228795528412
1667266442054571500,1.137571533203125,-0.04886778071522713,-0.517998456954956,-0.2223484069108963
1667266442056969200,1.13996923828125,-0.0390942245721817,-0.4960079789161682,-0.1973036676645279
1667266442059367000,1.142366943359375,-0.02626643143594265,-0.46668729186058044,-0.1698155403137207
1667266442061764900,1.144764892578125,-0.011606098152697086,-0.4330907166004181,-0.1447708010673523
1667266442064162600,1.14716259765625,-0.005497625097632408,-0.39888325333595276,-0.11911521852016449
1667266442066560300,1.149560302734375,0,-0.35856732726097107,-0.09345962852239609
1667266442068958200,1.151958251953125,0.0036650835536420345,-0.314586341381073,-0.06841489672660828
1667266442071356000,1.15435595703125,0.0018325417768210173,-0.27060532569885254,-0.04581354558467865
1667266442073753600,1.156753662109375,-0.0012216945178806782,-0.22906772792339325,-0.023212196305394173
1667266442076151600,1.159151611328125,-0.007330167107284069,-0.18997350335121155,-0.0012216945178806782
1667266442078549200,1.16154931640625,-0.01588202826678753,-0.15271180868148804,0.020157959312200546
1667266442080947200,1.163947265625,-0.023212196305394173,-0.1178935244679451,0.04092676565051079
1667266442083345000,1.166344970703125,-0.03665083646774292,-0.08796200156211853,0.05864133685827255
1667266442085742600,1.16874267578125,-0.046424392610788345,-0.05803048983216286,0.07330167293548584
1667266442088140500,1.171140625,-0.056808795779943466,-0.029320668429136276,0.08857285231351852
1667266442090538200,1.173538330078125,-0.06963659077882767,-0.0030542362947016954,0.10384403169155121
1667266442092936000,1.17593603515625,-0.0787992998957634,0.017714571207761765,0.12033691257238388
1667266442095333600,1.178333740234375,-0.08551861345767975,0.038483377546072006,0.13316470384597778
1667266442097731600,1.180731689453125,-0.09529217332601547,0.0525328628718853,0.1429382562637329
1667266442100129300,1.18312939453125,-0.10078980028629303,0.0659715011715889,0.1575985997915268
1667266442102527200,1.18552734375,-0.10628741979598999,0.07696675509214401,0.1710372269153595
1667266442104925000,1.187925048828125,-0.11117420345544815,0.08735115826129913,0.1820324808359146
1667266442107322600,1.190322509765625,-0.11117420345544815,0.09712471067905426,0.19424942135810852
1667266442109720600,1.192720458984375,-0.10934165865182877,0.1050657257437706,0.20524467527866364
1667266442112118300,1.1951181640625,-0.1050657257437706,0.11239589750766754,0.21562908589839935
1667266442114516000,1.197515869140625,-0.09529217332601547,0.11667182296514511,0.22784602642059326
1667266442116914000,1.199913818359375,-0.08490777015686035,0.12155860662460327,0.24128466844558716
1667266442119311600,1.2023115234375,-0.07085828483104706,0.12644538283348083,0.25289076566696167
1667266442121709300,1.204709228515625,-0.05131116881966591,0.12888877093791962,0.26632940769195557
1667266442124107300,1.207107177734375,-0.03237490355968475,0.1313321590423584,0.2761029601097107
1667266442126505000,1.2095048828125,-0.007330167107284069,0.13682979345321655,0.2870981991291046
1667266442128902700,1.211902587890625,0.01954711228609085,0.1459924876689911,0.2980934679508209
1667266442131300600,1.214300537109375,0.047646086663007736,0.15393351018428802,0.30847787857055664
1667266442133698300,1.2166982421875,0.0787992998957634,0.16737215220928192,0.3139754831790924
1667266442136096000,1.219095947265625,0.11239589750766754,0.17836740612983704,0.32069480419158936
1667266442138494000,1.221493896484375,0.1459924876689911,0.19363857805728912,0.3249707520008087
1667266442140891600,1.2238916015625,0.18019993603229523,0.2089097648859024,0.3280249834060669
1667266442143289600,1.22628955078125,0.21440738439559937,0.22601348161697388,0.3280249834060669
1667266442145687300,1.228687255859375,0.2522799074649811,0.24311721324920654,0.32374903559684753
1667266442148085000,1.2310849609375,0.2864873707294464,0.25777754187583923,0.3164188861846924
1667266442150483000,1.23348291015625,0.32130566239356995,0.26694026589393616,0.30786702036857605
1667266442152880600,1.235880615234375,0.3567348122596741,0.26938363909721375,0.3042019307613373
1667266442155278300,1.2382783203125,0.3903313875198364,0.2608317732810974,0.3005368411540985
1667266442157676000,1.240676025390625,0.42392799258232117,0.25411245226860046,0.29565006494522095
1667266442160074000,1.243073974609375,0.45447036623954773,0.2522799074649811,0.2852656841278076
1667266442162471700,1.2454716796875,0.4856235682964325,0.25411245226860046,0.26938363909721375
1667266442164869600,1.24786962890625,0.5167768001556396,0.25472331047058105,0.25533416867256165
1667266442167267300,1.250267333984375,0.5448757410049438,0.25655585527420044,0.23823043704032898
1667266442169665000,1.2526650390625,0.5711421966552734,0.2596100866794586,0.2217375487089157
1667266442172063000,1.25506298828125,0.5955760478973389,0.2632751762866974,0.20646637678146362
1667266442174460700,1.257460693359375,0.6163448691368103,0.26632940769195557,0.18875180184841156
1667266442176858400,1.2598583984375,0.6371136903762817,0.27060532569885254,0.16859383881092072
1667266442179256300,1.26225634765625,0.6554391384124756,0.2736595869064331,0.15026842057704926
1667266442181654000,1.264654052734375,0.6719319820404053,0.2748812735080719,0.130721315741539
1667266442184051700,1.2670517578125,0.6872031688690186,0.2748812735080719,0.10873081535100937
1667266442186449700,1.26944970703125,0.7024743556976318,0.27121618390083313,0.08979454636573792
1667266442188847400,1.271847412109375,0.7165238261222839,0.2644968628883362,0.06780404597520828
1667266442191245000,1.2742451171875,0.726908266544342,0.25289076566696167,0.04947862774133682
1667266442193643000,1.27664306640625,0.7366818189620972,0.24311721324920654,0.030542362481355667
1667266442196040700,1.279040771484375,0.7440119385719299,0.23273280262947083,0.012216945178806782
1667266442198438400,1.2814384765625,0.7501204609870911,0.2229592502117157,-0.006108472589403391
1667266442200836400,1.28383642578125,0.7574505805969238,0.21685077250003815,-0.02076880633831024
1667266442203234000,1.286234130859375,0.7598940134048462,0.21318569779396057,-0.037261683493852615
1667266442205632000,1.288632080078125,0.763559103012085,0.21379654109477997,-0.05375456064939499
1667266442208029700,1.29102978515625,0.7623373866081238,0.21868331730365753,-0.06902574002742767
1667266442210427400,1.293427490234375,0.7623373866081238,0.22906772792339325,-0.08307522535324097
1667266442212825000,1.2958251953125,0.7598940134048462,0.2376195788383484,-0.09529217332601547
1667266442215223000,1.29822314453125,0.7531746625900269,0.2486148327589035,-0.10750912129878998
1667266442217620700,1.300620849609375,0.7446228265762329,0.2596100866794586,-0.1178935244679451
1667266442220018700,1.303018798828125,0.7342383861541748,0.2730487287044525,-0.12583453953266144
1667266442222416400,1.30541650390625,0.7238540053367615,0.2858765125274658,-0.13682979345321655
1667266442224814000,1.30781396484375,0.7116370797157288,0.29687178134918213,-0.1459924876689911
1667266442227212000,1.3102119140625,0.7012526392936707,0.30786702036857605,-0.15515519678592682
1667266442229609700,1.312609619140625,0.6878139972686768,0.3151971995830536,-0.16309621930122375
1667266442232007400,1.31500732421875,0.6713211536407471,0.32130566239356995,-0.1692046970129013
1667266442234405400,1.3174052734375,0.6554391384124756,0.3292466700077057,-0.17348061501979828
1667266442236803000,1.319802978515625,0.6395570635795593,0.3298575282096863,-0.1820324808359146
1667266442239200800,1.32220068359375,0.6230642199516296,0.3304683566093445,-0.18753011524677277
1667266442241598700,1.3245986328125,0.6071822047233582,0.3268032968044281,-0.19363857805728912
1667266442243996400,1.326996337890625,0.5913001298904419,0.32069480419158936,-0.1973036676645279
1667266442246394000,1.32939404296875,0.5790832042694092,0.3139754831790924,-0.20035789906978607
1667266442248792000,1.3317919921875,0.5644228458404541,0.3011476993560791,-0.20402298867702484
1667266442251189800,1.334189697265625,0.5491516590118408,0.284654825925827,-0.20463383197784424
1667266442253587500,1.33658740234375,0.5375455617904663,0.26632940769195557,-0.20341213047504425
1667266442255985400,1.3389853515625,0.5265503525733948,0.24311721324920654,-0.20157960057258606
1667266442258383000,1.341383056640625,0.518609344959259,0.2211267054080963,-0.19913621246814728
1667266442260781000,1.343781005859375,0.5094466209411621,0.19974705576896667,-0.19913621246814728
1667266442263178800,1.3461787109375,0.5045598149299622,0.17653486132621765,-0.1966928243637085
1667266442265576400,1.348576416015625,0.5021164417266846,0.15515519678592682,-0.19058434665203094
1667266442267974400,1.350974365234375,0.497229665517807,0.1313321590423584,-0.18753011524677277
1667266442270372000,1.3533720703125,0.49356457591056824,0.11239589750766754,-0.1832541823387146
1667266442272769800,1.355769775390625,0.49295374751091003,0.09345962852239609,-0.17897824943065643
1667266442275167500,1.35816748046875,0.49295374751091003,0.0794101431965828,-0.17531315982341766
1667266442277565400,1.3605654296875,0.49234288930892944,0.06780404597520828,-0.1698155403137207
1667266442279963100,1.362963134765625,0.49295374751091003,0.05925218388438225,-0.16676130890846252
1667266442282361000,1.365361083984375,0.49356457591056824,0.04825693368911743,-0.16370706260204315
1667266442284758800,1.3677587890625,0.4960079789161682,0.04337015375494957,-0.1588202863931656
1667266442287156500,1.370156494140625,0.5033381581306458,0.04214845970273018,-0.15332266688346863
1667266442289554400,1.372554443359375,0.5088357925415039,0.045202698558568954,-0.14965757727622986
1667266442291952000,1.3749521484375,0.5143333673477173,0.04581354558467865,-0.14660334587097168
1667266442294349800,1.377349853515625,0.5198310017585754,0.04825693368911743,-0.14049486815929413
1667266442296747800,1.379747802734375,0.5234960913658142,0.053143709897994995,-0.13682979345321655
1667266442299145500,1.3821455078125,0.5283828973770142,0.05986303091049194,-0.13682979345321655
1667266442301543200,1.384543212890625,0.53143709897995,0.06169557198882103,-0.1325538605451584
1667266442303941000,1.386941162109375,0.5412106513977051,0.06780404597520828,-0.130721315741539
1667266442306338800,1.3893388671875,0.5479300022125244,0.07452336698770523,-0.12583453953266144
1667266442308736500,1.391736572265625,0.5528167486190796,0.0781884491443634,-0.12216944992542267
1667266442311134500,1.394134521484375,0.5583143830299377,0.07574506103992462,-0.1185043677687645
1667266442313532200,1.3965322265625,0.5644228458404541,0.06658235192298889,-0.11422843486070633
1667266442315930000,1.39893017578125,0.5705313682556152,0.05008947476744652,-0.11117420345544815
1667266442318327800,1.401327880859375,0.5741963982582092,0.02870982140302658,-0.10750912129878998
1667266442320725500,1.4037255859375,0.5760289430618286,0.0018325417768210173,-0.1050657257437706
1667266442323123500,1.40612353515625,0.5796940326690674,-0.021990500390529633,-0.10078980028629303
1667266442325521200,1.408521240234375,0.582748293876648,-0.04886778071522713,-0.09895725548267365
1667266442327918800,1.4109189453125,0.5845808386802673,-0.06841489672660828,-0.09284878522157669
1667266442330316800,1.41331689453125,0.5870242118835449,-0.08612946420907974,-0.09040539711713791
1667266442332714500,1.415714599609375,0.5870242118835449,-0.09529217332601547,-0.08490777015686035
1667266442335112200,1.4181123046875,0.5876350402832031,-0.09956810623407364,-0.08002099394798279
1667266442337510100,1.42051025390625,0.5870242118835449,-0.09651386737823486,-0.08002099394798279
1667266442339907800,1.422907958984375,0.5870242118835449,-0.08735115826129913,-0.07452336698770523
1667266442342305500,1.425305419921875,0.5858024954795837,-0.07085828483104706,-0.06841489672660828
1667266442344703500,1.427703369140625,0.5876350402832031,-0.042759306728839874,-0.062306419014930725
1667266442347101200,1.43010107421875,0.5906893014907837,-0.012827792204916477,-0.054365407675504684
1667266442349499000,1.432498779296875,0.5925218462944031,0.01832541823387146,-0.04825693368911743
1667266442351896800,1.434896728515625,0.5943543910980225,0.04703523963689804,-0.0397050715982914
1667266442354294500,1.43729443359375,0.5961869359016418,0.07757759839296341,-0.033596597611904144
1667266442356692200,1.439692138671875,0.5980194807052612,0.1056765764951706,-0.025655584409832954
1667266442359090200,1.442090087890625,0.601073682308197,0.1325538605451584,-0.017714571207761765
1667266442361488000,1.44448779296875,0.6022953987121582,0.16065283119678497,-0.009773556143045425
1667266442363885600,1.446885498046875,0.6071822047233582,0.19302773475646973,-0.004275931045413017
1667266442366283500,1.449283447265625,0.610236406326294,0.2229592502117157,0.0018325417768210173
1667266442368681200,1.45168115234375,0.6157340407371521,0.25350162386894226,0.008551862090826035
1667266442371079200,1.4540791015625,0.6200099587440491,0.28282228112220764,0.014660334214568138
1667266442373476900,1.456476806640625,0.6212316751480103,0.3054236173629761,0.01954711228609085
1667266442375874600,1.45887451171875,0.6224533319473267,0.3249707520008087,0.021379653364419937
1667266442378272500,1.4612724609375,0.624285876750946,0.34512871503829956,0.024433890357613564
1667266442380670200,1.463670166015625,0.6236750483512878,0.36039987206459045,0.02626643143594265
1667266442383068000,1.46606787109375,0.624285876750946,0.37261682748794556,0.02626643143594265
1667266442385465900,1.4684658203125,0.6218425035476685,0.3811686933040619,0.029320668429136276
1667266442387863600,1.470863525390625,0.6187883019447327,0.38727715611457825,0.02626643143594265
1667266442390261200,1.47326123046875,0.6132906675338745,0.3939964771270752,0.023823043331503868
1667266442392659200,1.4756591796875,0.6090146899223328,0.4080459773540497,0.023823043331503868
1667266442395057000,1.478056884765625,0.6047387719154358,0.416597843170166,0.02076880633831024
1667266442397454600,1.48045458984375,0.5998520255088806,0.4300364851951599,0.01954711228609085
1667266442399852500,1.4828525390625,0.5931326746940613,0.44958359003067017,0.016492875292897224
1667266442402250200,1.485250244140625,0.5864133834838867,0.47585001587867737,0.013438640162348747
1667266442404648200,1.487648193359375,0.5796940326690674,0.5063923597335815,0.012216945178806782
1667266442407046000,1.4900458984375,0.5760289430618286,0.5375455617904663,0.011606098152697086
1667266442409443600,1.492443603515625,0.5656445622444153,0.5705313682556152,0.008551862090826035
1667266442411841500,1.494841552734375,0.5564818382263184,0.6053496599197388,0.004886778071522713
1667266442414239200,1.4972392578125,0.5479300022125244,0.6365028619766235,0.009773556143045425
1667266442416637000,1.499636962890625,0.5387672781944275,0.660936713218689,0.01038440316915512
1667266442419035000,1.502034912109375,0.5289937257766724,0.684759795665741,0.012216945178806782
1667266442421432600,1.5044326171875,0.518609344959259,0.7006418108940125,0.01588202826678753
1667266442423830300,1.506830322265625,0.5100574493408203,0.712247908115387,0.021379653364419937
1667266442426228200,1.509228271484375,0.5002838969230652,0.7177455425262451,0.029320668429136276
1667266442428626000,1.5116259765625,0.49051034450531006,0.7159129977226257,0.037261683493852615
1667266442431023600,1.514023681640625,0.47951510548591614,0.7104153633117676,0.045202698558568954
1667266442433421600,1.516421630859375,0.4691306948661804,0.6994200944900513,0.055587101727724075
1667266442435819300,1.5188193359375,0.4581354558467865,0.6853706240653992,0.07024743407964706
1667266442438217200,1.52121728515625,0.4471401870250702,0.6664343476295471,0.08185353130102158
1667266442440615000,1.523614990234375,0.4349232614040375,0.6426113247871399,0.09284878522157669
1667266442443012600,1.5260126953125,0.4227063059806824,0.6224533319473267,0.10628741979598999
1667266442445410300,1.528410400390625,0.40987852215766907,0.5986303091049194,0.11972606182098389
1667266442447808300,1.530808349609375,0.39766156673431396,0.5741963982582092,0.13438639044761658
1667266442450206000,1.5332060546875,0.38483378291130066,0.5479300022125244,0.14782503247261047
1667266442452604000,1.53560400390625,0.3701734244823456,0.5204418897628784,0.16187451779842377
1667266442455001600,1.538001708984375,0.35917818546295166,0.4874561131000519,0.17348061501979828
1667266442457399300,1.5403994140625,0.34635040163993835,0.4563029110431671,0.18569757044315338
1667266442459797200,1.54279736328125,0.33535513281822205,0.416597843170166,0.20096874237060547
1667266442462195000,1.54519482421875,0.3243598937988281,0.3775036036968231,0.21318569779396057
1667266442464592600,1.547592529296875,0.31092125177383423,0.33535513281822205,0.22723518311977386
1667266442466990600,1.549990478515625,0.3011476993560791,0.2895416021347046,0.2376195788383484
1667266442469388300,1.55238818359375,0.288930743932724,0.24678228795528412,0.2492256760597229
1667266442471786000,1.554785888671875,0.2754921019077301,0.20524467527866364,0.2583884000778198
1667266442474184000,1.557183837890625,0.2626643180847168,0.1692046970129013,0.26999449729919434
1667266442476581600,1.55958154296875,0.2480039894580841,0.14171656966209412,0.28037887811660767
1667266442478979300,1.561979248046875,0.2376195788383484,0.12644538283348083,0.291374146938324
1667266442481377300,1.564377197265625,0.22967857122421265,0.12216944992542267,0.3023693859577179
1667266442483775000,1.56677490234375,0.21990501880645752,0.12888877093791962,0.3127537965774536
1667266442486173000,1.5691728515625,0.21196399629116058,0.1459924876689911,0.32313820719718933
1667266442488570600,1.571570556640625,0.20402298867702484,0.1692046970129013,0.33352261781692505
1667266442490968300,1.57396826171875,0.1973036676645279,0.1985253542661667,0.34635040163993835
1667266442493366300,1.5763662109375,0.19119518995285034,0.22723518311977386,0.3530697226524353
1667266442495764000,1.578763916015625,0.18630841374397278,0.25777754187583923,0.365286648273468
1667266442498161700,1.58116162109375,0.183865025639534,0.2883199155330658,0.37444937229156494
1667266442500559600,1.5835595703125,0.1844758689403534,0.3164188861846924,0.38544461131095886
1667266442502957300,1.585957275390625,0.18691925704479218,0.3426853120326996,0.39643988013267517
1667266442505355000,1.58835498046875,0.19302773475646973,0.3646758198738098,0.4074351191520691
1667266442507753000,1.5907529296875,0.1985253542661667,0.3805578351020813,0.4196520745754242
1667266442510150700,1.593150634765625,0.208298921585083,0.3958290219306946,0.4330907166004181
1667266442512548400,1.59554833984375,0.2211267054080963,0.4092676639556885,0.446529358625412
1667266442514946300,1.5979462890625,0.2351761907339096,0.4220954477787018,0.4611896872520447
1667266442517344000,1.600343994140625,0.25411245226860046,0.4367557764053345,0.47646087408065796
1667266442519742000,1.602741943359375,0.2761029601097107,0.45080527663230896,0.49234288930892944
1667266442522139600,1.6051396484375,0.3005368411540985,0.469741553068161,0.5112791657447815
1667266442524537300,1.607537353515625,0.3243598937988281,0.4947862923145294,0.53143709897995
1667266442526935000,1.60993505859375,0.34940463304519653,0.517998456954956,0.5485408306121826
1667266442529333000,1.6123330078125,0.3775036036968231,0.5436540842056274,0.5650337338447571
1667266442531730700,1.614730712890625,0.40071579813957214,0.573585569858551,0.5833591222763062
1667266442534128600,1.617128662109375,0.42576053738594055,0.5986303091049194,0.5967977643013
1667266442536526300,1.6195263671875,0.446529358625412,0.6206207871437073,0.6120689511299133
1667266442538924000,1.621924072265625,0.4618005156517029,0.6420004963874817,0.6206207871437073
1667266442541322000,1.624322021484375,0.47829338908195496,0.6578825116157532,0.6279509663581848
1667266442543719700,1.6267197265625,0.4874561131000519,0.6676560640335083,0.633448600769043
1667266442546117400,1.629117431640625,0.4953971207141876,0.6762079000473022,0.6371136903762817
1667266442548515300,1.631515380859375,0.4953971207141876,0.6774296164512634,0.6340594291687012
1667266442550913000,1.6339130859375,0.49295374751091003,0.6774296164512634,0.6303943991661072
1667266442553310700,1.636310791015625,0.48806697130203247,0.6719319820404053,0.6200099587440491
1667266442555708700,1.638708740234375,0.47585001587867737,0.6591041684150696,0.6077930331230164
1667266442558106400,1.6411064453125,0.4618005156517029,0.6468872427940369,0.5949652194976807
1667266442560504000,1.643504150390625,0.4459185004234314,0.6303943991661072,0.5766398310661316
1667266442562902000,1.645902099609375,0.42576053738594055,0.605960488319397,0.5570927262306213
1667266442565299700,1.6482998046875,0.4049917459487915,0.5803049206733704,0.5357130169868469
1667266442567697700,1.65069775390625,0.3799470067024231,0.5473191738128662,0.5149442553520203
1667266442570095400,1.653095458984375,0.3542914092540741,0.5015056133270264,0.49234288930892944
1667266442572493000,1.6554931640625,0.3304683566093445,0.44958359003067017,0.469741553068161
1667266442574891000,1.65789111328125,0.3023693859577179,0.393385648727417,0.448361873626709
1667266442577288700,1.660288818359375,0.2742704153060913,0.33169007301330566,0.42759308218955994
1667266442579686400,1.662686279296875,0.2473931461572647,0.26694026589393616,0.4031592011451721
1667266442582084400,1.66508447265625,0.21685077250003815,0.20096874237060547,0.3811686933040619
1667266442584482000,1.66748193359375,0.18814095854759216,0.1319430023431778,0.36162158846855164
1667266442586879700,1.669879638671875,0.1563768982887268,0.06352811306715012,0.342074453830719
1667266442589277700,1.672277587890625,0.12339114397764206,-0.010995250195264816,0.32374903559684753
1667266442591675400,1.67467529296875,0.09468132257461548,-0.08185353130102158,0.30847787857055664
1667266442594073000,1.677072998046875,0.06291726976633072,-0.15087927877902985,0.29381752014160156
1667266442596471000,1.679470947265625,0.029320668429136276,-0.2113531529903412,0.28098973631858826
1667266442598868700,1.68186865234375,-0.0018325417768210173,-0.2638860046863556,0.2730487287044525
1667266442601266700,1.6842666015625,-0.036039989441633224,-0.30847787857055664,0.265718549489975
1667266442603664400,1.686664306640625,-0.06658235192298889,-0.3432961702346802,0.2583884000778198
1667266442606062000,1.68906201171875,-0.09895725548267365,-0.36284327507019043,0.2498365342617035
1667266442608459800,1.691459716796875,-0.1313321590423584,-0.3701734244823456,0.24311721324920654
1667266442610857700,1.693857666015625,-0.16187451779842377,-0.365286648273468,0.2351761907339096
1667266442613255400,1.69625537109375,-0.19302773475646973,-0.34940463304519653,0.22723518311977386
1667266442615653400,1.6986533203125,-0.2241809368133545,-0.32313820719718933,0.21685077250003815
1667266442618051000,1.701051025390625,-0.25716668367385864,-0.2895416021347046,0.20463383197784424
1667266442620448800,1.70344873046875,-0.2895416021347046,-0.25472331047058105,0.19119518995285034
1667266442622846700,1.7058466796875,-0.31886225938796997,-0.2101314514875412,0.17286977171897888
1667266442625244400,1.708244384765625,-0.34635040163993835,-0.16676130890846252,0.15393351018428802
1667266442627642000,1.71064208984375,-0.37506023049354553,-0.12400199472904205,0.13316470384597778
1667266442630040000,1.7130400390625,-0.40010493993759155,-0.08368607610464096,0.10995250940322876
1667266442632437800,1.715437744140625,-0.42514967918395996,-0.04459185153245926,0.08307522535324097
1667266442634835500,1.71783544921875,-0.4446968138217926,-0.008551862090826035,0.05803048983216286
1667266442637233400,1.7202333984375,-0.46363306045532227,0.02626643143594265,0.028098974376916885
1667266442639631000,1.722631103515625,-0.47707170248031616,0.05803048983216286,-0.004886778071522713
1667266442642028800,1.72502880859375,-0.4886777997016907,0.08735115826129913,-0.037261683493852615
1667266442644426800,1.7274267578125,-0.4960079789161682,0.11117420345544815,-0.06658235192298889
1667266442646824400,1.729824462890625,-0.497229665517807,0.13438639044761658,-0.09712471067905426
1667266442649222400,1.732222412109375,-0.4966188073158264,0.1557660549879074,-0.12827792763710022
1667266442651620000,1.7346201171875,-0.49173203110694885,0.17653486132621765,-0.15515519678592682
1667266442654017800,1.737017822265625,-0.48073679208755493,0.1954711228609085,-0.18019993603229523
1667266442656415700,1.739415771484375,-0.46729815006256104,0.21501824259757996,-0.19913621246814728
1667266442658813400,1.7418134765625,-0.45202696323394775,0.237008735537529,-0.21623992919921875
1667266442661211100,1.744211181640625,-0.4337015450000763,0.25777754187583923,-0.22784602642059326
1667266442663609000,1.746609130859375,-0.41232189536094666,0.28343313932418823,-0.2376195788383484
1667266442666006800,1.7490068359375,-0.38849884271621704,0.30664533376693726,-0.24128466844558716
1667266442668404500,1.751404541015625,-0.365286648273468,0.3310792148113251,-0.24128466844558716
1667266442670802400,1.753802490234375,-0.3439069986343384,0.3518480062484741,-0.23823043704032898
1667266442673200000,1.7562001953125,-0.3243598937988281,0.37261682748794556,-0.2339545041322708
1667266442675598000,1.75859814453125,-0.30786702036857605,0.38483378291130066,-0.22723518311977386
1667266442677995800,1.760995849609375,-0.29320669174194336,0.3915531039237976,-0.21807247400283813
1667266442680393500,1.7633935546875,-0.28037887811660767,0.3946073353290558,-0.20707722008228302
1667266442682791400,1.76579150390625,-0.27060532569885254,0.38788801431655884,-0.19363857805728912
1667266442685189000,1.768189208984375,-0.261442631483078,0.3799470067024231,-0.17836740612983704
1667266442687586800,1.7705869140625,-0.25289076566696167,0.3695625960826874,-0.16309621930122375
1667266442689984800,1.77298486328125,-0.24556060135364532,0.3567348122596741,-0.1453816443681717
1667266442692382500,1.775382568359375,-0.24006296694278717,0.3402419090270996,-0.12522368133068085
1667266442694780200,1.7777802734375,-0.23151111602783203,0.31886225938796997,-0.10750912129878998
1667266442697178000,1.78017822265625,-0.22662433981895447,0.3011476993560791,-0.08612946420907974
1667266442699575800,1.782575927734375,-0.2217375487089157,0.28404396772384644,-0.06413896381855011
1667266442701973500,1.784973388671875,-0.21562908589839935,0.26632940769195557,-0.04092676565051079
1667266442704371500,1.787371337890625,-0.2095206081867218,0.2473931461572647,-0.01832541823387146
1667266442706769200,1.78976904296875,-0.20524467527866364,0.22906772792339325,0.004886778071522713
1667266442709167000,1.7921669921875,-0.1985253542661667,0.21501824259757996,0.02626643143594265
1667266442711564800,1.794564697265625,-0.1948602795600891,0.20035789906978607,0.047646086663007736
1667266442713962500,1.79696240234375,-0.18753011524677277,0.18569757044315338,0.06841489672660828
1667266442716360200,1.799360107421875,-0.18630841374397278,0.17286977171897888,0.08796200156211853
1667266442718758100,1.801758056640625,-0.18142163753509521,0.1575985997915268,0.10811996459960938
1667266442721155800,1.80415576171875,-0.17653486132621765,0.13927318155765533,0.12766708433628082
1667266442723553800,1.8065537109375,-0.1710372269153595,0.11667182296514511,0.1441599577665329
1667266442725951500,1.808951416015625,-0.16798299551010132,0.09040539711713791,0.16248537600040436
1667266442728349200,1.81134912109375,-0.16065283119678497,0.05925218388438225,0.18019993603229523
1667266442730747100,1.8137470703125,-0.1569877415895462,0.028098974376916885,0.19913621246814728
1667266442733144800,1.816144775390625,-0.15454435348510742,-0.008551862090826035,0.21868331730365753
1667266442735542500,1.81854248046875,-0.15026842057704926,-0.046424392610788345,0.23823043704032898
1667266442737940500,1.8209404296875,-0.1459924876689911,-0.08002099394798279,0.2583884000778198
1667266442740338200,1.823338134765625,-0.1423274129629135,-0.11422843486070633,0.28098973631858826
1667266442742736000,1.82573583984375,-0.13682979345321655,-0.14843589067459106,0.3023693859577179
1667266442745133800,1.8281337890625,-0.13499724864959717,-0.17531315982341766,0.32374903559684753
1667266442747531500,1.830531494140625,-0.13438639044761658,-0.19241689145565033,0.34512871503829956
1667266442749929500,1.832929443359375,-0.13744063675403595,-0.20096874237060547,0.3665083646774292
1667266442752327200,1.8353271484375,-0.13621893525123596,-0.20646637678146362,0.38666632771492004
1667266442754724900,1.837724853515625,-0.1423274129629135,-0.20707722008228302,0.4049917459487915
1667266442757122800,1.840122802734375,-0.14965757727622986,-0.20157960057258606,0.42759308218955994
1667266442759520500,1.8425205078125,-0.1563768982887268,-0.19302773475646973,0.4459185004234314
1667266442761918200,1.844918212890625,-0.16676130890846252,-0.17897824943065643,0.4605788290500641
1667266442764316200,1.847316162109375,-0.17836740612983704,-0.16309621930122375,0.47707170248031616
1667266442766713900,1.8497138671875,-0.18875180184841156,-0.1459924876689911,0.49173203110694885
1667266442769111600,1.852111572265625,-0.20035789906978607,-0.1313321590423584,0.5033381581306458
1667266442771509500,1.854509521484375,-0.2113531529903412,-0.11361759155988693,0.5137225389480591
1667266442773907200,1.8569072265625,-0.2217375487089157,-0.09590301662683487,0.5234960913658142
1667266442776305000,1.859304931640625,-0.22845686972141266,-0.08246438205242157,0.5332696437835693
1667266442778702800,1.861702880859375,-0.2345653474330902,-0.06841489672660828,0.5369347333908081
1667266442781100500,1.8641005859375,-0.24006296694278717,-0.053143709897994995,0.5393781065940857
1667266442783498500,1.86649853515625,-0.24433889985084534,-0.04153761267662048,0.5430431962013245
1667266442785896200,1.868896240234375,-0.24433889985084534,-0.031153209507465363,0.5442649126052856
1667266442788294000,1.8712939453125,-0.24250635504722595,-0.024433890357613564,0.5418215394020081
1667266442790691800,1.87369189453125,-0.24006296694278717,-0.018936265259981155,0.5399889945983887
1667266442793089500,1.876089599609375,-0.23884128034114838,-0.01710372418165207,0.5326588153839111
1667266442795487200,1.8784873046875,-0.23884128034114838,-0.017714571207761765,0.5247178077697754
1667266442797885200,1.88088525390625,-0.2376195788383484,-0.022601349279284477,0.5143333673477173
1667266442800283000,1.883282958984375,-0.2345653474330902,-0.030542362481355667,0.5015056133270264
1667266442802680600,1.8856806640625,-0.237008735537529,-0.04092676565051079,0.4874561131000519
1667266442805078500,1.88807861328125,-0.2376195788383484,-0.05070032179355621,0.4734066128730774
1667266442807476200,1.890476318359375,-0.23823043704032898,-0.05986303091049194,0.4563029110431671
1667266442809874000,1.8928740234375,-0.23945212364196777,-0.07391251623630524,0.43858832120895386
1667266442812271900,1.89527197265625,-0.24311721324920654,-0.08674030750989914,0.4196520745754242
1667266442814669600,1.897669677734375,-0.24311721324920654,-0.09834641218185425,0.40071579813957214
1667266442817067500,1.900067626953125,-0.24494975805282593,-0.11300674080848694,0.3836120665073395
1667266442819465200,1.90246533203125,-0.2473931461572647,-0.12583453953266144,0.3671191930770874
1667266442821863000,1.90486279296875,-0.2480039894580841,-0.13805148005485535,0.3512371778488159
1667266442824260600,1.907260498046875,-0.24556060135364532,-0.15149012207984924,0.33596599102020264
1667266442826658600,1.909658447265625,-0.24311721324920654,-0.16798299551010132,0.32313820719718933
1667266442829056300,1.91205615234375,-0.24128466844558716,-0.1850867122411728,0.3170297145843506
1667266442831454200,1.9144541015625,-0.2357870489358902,-0.20096874237060547,0.3115321099758148
1667266442833852000,1.916851806640625,-0.2345653474330902,-0.22051586210727692,0.30847787857055664
1667266442836249600,1.91924951171875,-0.22723518311977386,-0.24128466844558716,0.30847787857055664
1667266442838647600,1.9216474609375,-0.22479179501533508,-0.261442631483078,0.30847787857055664
1667266442841045200,1.924045166015625,-0.2241809368133545,-0.2767138183116913,0.3139754831790924
1667266442843443200,1.926443115234375,-0.2229592502117157,-0.29687178134918213,0.32008397579193115
1667266442845841000,1.9288408203125,-0.2235700935125351,-0.3133646547794342,0.3286358118057251
1667266442848238600,1.931238525390625,-0.22723518311977386,-0.3286358118057251,0.337798535823822
1667266442850636300,1.93363623046875,-0.22906772792339325,-0.3408527672290802,0.34696123003959656
1667266442853034200,1.9360341796875,-0.23334364593029022,-0.3506263196468353,0.3561239540576935
1667266442855432000,1.938431884765625,-0.24067382514476776,-0.36039987206459045,0.37078428268432617
1667266442857830000,1.940829833984375,-0.24678228795528412,-0.37139514088630676,0.3823903799057007
1667266442860227600,1.9432275390625,-0.2504473626613617,-0.3836120665073395,0.39643988013267517
1667266442862625300,1.945625244140625,-0.2583884000778198,-0.3946073353290558,0.40987852215766907
1667266442865023200,1.948023193359375,-0.26632940769195557,-0.4056025743484497,0.42392799258232117
1667266442867421000,1.9504208984375,-0.2742704153060913,-0.41476529836654663,0.43736663460731506
1667266442869818600,1.952818603515625,-0.28221142292022705,-0.4300364851951599,0.44958359003067017
1667266442872216600,1.955216552734375,-0.2895416021347046,-0.4422534108161926,0.4618005156517029
1667266442874614300,1.9576142578125,-0.2980934679508209,-0.4581354558467865,0.474017471075058
1667266442877012000,1.960011962890625,-0.3042019307613373,-0.4709632396697998,0.4825693368911743
1667266442879410000,1.962409912109375,-0.312142938375473,-0.4862344264984131,0.49051034450531006
1667266442881807600,1.9648076171875,-0.31886225938796997,-0.5008947253227234,0.4966188073158264
1667266442884205600,1.96720556640625,-0.3243598937988281,-0.5125008225440979,0.5021164417266846
1667266442886603300,1.969603271484375,-0.3298575282096863,-0.5192201733589172,0.5088357925415039
1667266442889001000,1.9720009765625,-0.337798535823822,-0.5259394645690918,0.5131117105484009
1667266442891399000,1.97439892578125,-0.342074453830719,-0.5277720093727112,0.5143333673477173
1667266442893796600,1.976796630859375,-0.34879377484321594,-0.5253286361694336,0.5161659121513367
1667266442896194300,1.9791943359375,-0.3536805510520935,-0.5192201733589172,0.5173876285552979
1667266442898592300,1.98159228515625,-0.35978904366493225,-0.5125008225440979,0.518609344959259
1667266442900990000,1.983989990234375,-0.3695625960826874,-0.5045598149299622,0.5161659121513367
1667266442903387600,1.9863876953125,-0.3775036036968231,-0.5002838969230652,0.5161659121513367
1667266442905785600,1.98878564453125,-0.38422292470932007,-0.4978405237197876,0.5118899941444397
1667266442908183300,1.991183349609375,-0.3921639323234558,-0.4960079789161682,0.5076140761375427
1667266442910581000,1.9935810546875,-0.40010493993759155,-0.497229665517807,0.5033381581306458
1667266442912979000,1.99597900390625,-0.41048935055732727,-0.5002838969230652,0.4990622103214264
1667266442915376600,1.998376708984375,-0.4190412163734436,-0.499673068523407,0.4960079789161682
1667266442917774600,2.000774658203125,-0.42576053738594055,-0.4960079789161682,0.49112120270729065
1667266442920172300,2.00317236328125,-0.43614494800567627,-0.49417543411254883,0.4874561131000519
1667266442922570000,2.005570068359375,-0.444085955619812,-0.4886777997016907,0.4850127100944519
1667266442924968000,2.007968017578125,-0.45080527663230896,-0.47951510548591614,0.4831801950931549
1667266442927365600,2.01036572265625,-0.4575245976448059,-0.46729815006256104,0.4825693368911743
1667266442929763300,2.012763427734375,-0.4611896872520447,-0.45141613483428955,0.4856235682964325
1667266442932161300,2.015161376953125,-0.46363306045532227,-0.4300364851951599,0.48989951610565186
1667266442934559000,2.01755908203125,-0.4618005156517029,-0.4049917459487915,0.49356457591056824
1667266442936956700,2.019956787109375,-0.4581354558467865,-0.37506023049354553,0.4984513521194458
1667266442939354600,2.022354736328125,-0.45508119463920593,-0.34879377484321594,0.5045598149299622
1667266442941752300,2.02475244140625,-0.45324867963790894,-0.32191649079322815,0.5112791657447815
1667266442944150300,2.027150390625,-0.45263782143592834,-0.29687178134918213,0.5155550837516785
1667266442946548000,2.0295478515625,-0.45080527663230896,-0.26694026589393616,0.5216635465621948
1667266442948945700,2.031945556640625,-0.448361873626709,-0.23945212364196777,0.5247178077697754
1667266442951343600,2.034343505859375,-0.44958359003067017,-0.2113531529903412,0.527161180973053
1667266442953741300,2.0367412109375,-0.45019441843032837,-0.1820324808359146,0.5326588153839111
1667266442956139000,2.039138916015625,-0.4453076422214508,-0.15087927877902985,0.5393781065940857
1667266442958537000,2.041536865234375,-0.4416425824165344,-0.12278030067682266,0.5405998229980469
1667266442960934700,2.0439345703125,-0.43981003761291504,-0.09345962852239609,0.546097457408905
1667266442963332400,2.046332275390625,-0.43614494800567627,-0.06963659077882767,0.5522059202194214
1667266442965730300,2.048730224609375,-0.42881476879119873,-0.05008947476744652,0.5577035546302795
1667266442968128000,2.0511279296875,-0.4202629029750824,-0.034818295389413834,0.5662553906440735
1667266442970525700,2.053525634765625,-0.41354358196258545,-0.016492875292897224,0.5729747414588928
1667266442972923600,2.055923583984375,-0.40254834294319153,0.0018325417768210173,0.578472375869751
1667266442975321300,2.0583212890625,-0.3939964771270752,0.020157959312200546,0.5845808386802673
1667266442977719300,2.06071923828125,-0.3836120665073395,0.04337015375494957,0.5919110178947449
1667266442980117000,2.063116943359375,-0.3762819170951843,0.06902574002742767,0.5967977643013
1667266442982514700,2.0655146484375,-0.3689517378807068,0.09345962852239609,0.601073682308197
1667266442984912400,2.067912353515625,-0.36101073026657104,0.12461283802986145,0.6029062271118164
1667266442987310300,2.070310302734375,-0.3573456406593323,0.1563768982887268,0.6071822047233582
1667266442989708000,2.0727080078125,-0.34940463304519653,0.18997350335121155,0.610236406326294
1667266442992106000,2.07510595703125,-0.3396310806274414,0.21990501880645752,0.6126797795295715
1667266442994503700,2.077503662109375,-0.337798535823822,0.2480039894580841,0.6151232123374939
1667266442996901400,2.0799013671875,-0.33291175961494446,0.2779355049133301,0.6132906675338745
1667266442999299300,2.08229931640625,-0.3292466700077057,0.2999260127544403,0.6126797795295715
1667266443001697000,2.084697021484375,-0.3243598937988281,0.3158080279827118,0.6120689511299133
1667266443004095000,2.087094970703125,-0.32374903559684753,0.3298575282096863,0.6108472347259521
1667266443006492700,2.08949267578125,-0.32008397579193115,0.3390202224254608,0.6090146899223328
1667266443008890400,2.091890380859375,-0.31886225938796997,0.34635040163993835,0.6035171151161194
