time,seconds_elapsed,z,y,x
1667824812078839000,0.011839111328125,-0.1157660111784935,-0.17822566628456116,-0.5120728611946106
1667824812088846000,0.02184619140625,-0.05795358121395111,-0.16558949649333954,-0.47471803426742554
1667824812098854100,0.031854248046875,0.010630805976688862,-0.13643667101860046,-0.4466560482978821
1667824812108857600,0.041857666015625,0.08616124838590622,-0.10325022041797638,-0.4292597472667694
1667824812118865400,0.051865478515625,0.1524886041879654,-0.115447498857975,-0.4173884391784668
1667824812128873500,0.06187353515625,0.17213074862957,-0.08080536872148514,-0.3993082344532013
1667824812138880500,0.071880615234375,0.20497924089431763,-0.025257419794797897,-0.38085120916366577
1667824812148888600,0.081888671875,0.2773567736148834,-0.0774037092924118,-0.36357420682907104
1667824812158896600,0.091896728515625,0.3638666272163391,-0.15882720053195953,-0.3191063404083252
1667824812168903700,0.101903564453125,0.4325399696826935,-0.22405999898910522,-0.24160756170749664
1667824812178911700,0.111911865234375,0.45216694474220276,-0.3396981656551361,-0.13007678091526031
1667824812188918500,0.12191845703125,0.41349971294403076,-0.5672650337219238,0.012236426584422588
1667824812198926600,0.131926513671875,0.32788172364234924,-0.892943263053894,0.1723046600818634
1667824812208934700,0.1419345703125,0.23967596888542175,-1.3202940225601196,0.3368901312351227
1667824812218941700,0.151941650390625,0.13506834208965302,-1.9100021123886108,0.5132095217704773
1667824812228949500,0.161949462890625,-0.003179814200848341,-2.2409942150115967,0.7376564741134644
1667824812238957600,0.17195751953125,-0.1435001790523529,-2.3418004512786865,0.9364830255508423
1667824812248964600,0.181964599609375,-0.21688544750213623,-2.214468002319336,1.0282469987869263
1667824812258972700,0.19197265625,-0.1856505572795868,-2.0132412910461426,1.0129040479660034
1667824812268979500,0.2019794921875,-0.060390107333660126,-2.116577625274658,0.9526172280311584
1667824812278987500,0.211987548828125,0.0672173872590065,-2.2084672451019287,0.8633502125740051
1667824812288995600,0.22199560546875,0.11754021048545837,-2.196451425552368,0.6618937849998474
1667824812299002600,0.232002685546875,0.1772885024547577,-2.090317487716675,0.4287809133529663
1667824812309010400,0.242010498046875,0.2633136510848999,-1.7908676862716675,0.20535768568515778
1667824812319018500,0.2520185546875,0.35773709416389465,-1.4019968509674072,-0.004245611373335123
1667824812329025500,0.262025634765625,0.459476500749588,-1.0494444370269775,-0.1904144138097763
1667824812339033600,0.27203369140625,0.5246259570121765,-0.7851781845092773,-0.31500640511512756
1667824812349040400,0.282040283203125,0.5310380458831787,-0.5922713279724121,-0.36144688725471497
1667824812359048700,0.292048583984375,0.49571600556373596,-0.40959498286247253,-0.31074509024620056
1667824812369056800,0.302056884765625,0.43537890911102295,-0.21173195540905,-0.1555139571428299
1667824812379063600,0.3120634765625,0.3181358873844147,-0.03807254880666733,0.032654616981744766
1667824812389071600,0.322071533203125,0.19100883603096008,-0.016835970804095268,0.1546364426612854
1667824812399078700,0.33207861328125,0.1153833195567131,-0.15776939690113068,0.15041160583496094
1667824812409086700,0.342086669921875,0.12238983064889908,-0.291401207447052,0.09862484037876129
1667824812419094500,0.352094482421875,0.1789950430393219,-0.24271677434444427,0.045337919145822525
1667824812429101800,0.362101806640625,0.24805907905101776,-0.06191263720393181,-0.015787752345204353
1667824812439109600,0.372109619140625,0.3202137053012848,0.1504342406988144,-0.05561559274792671
1667824812449117700,0.38211767578125,0.3786993622779846,0.31523704528808594,-0.0686965063214302
1667824812459124500,0.39212451171875,0.3934117257595062,0.40924957394599915,-0.05546432361006737
1667824812469132500,0.402132568359375,0.3717740774154663,0.4684534966945648,-0.011379420757293701
1667824812479140600,0.412140625,0.33859455585479736,0.5626391172409058,0.059528838843107224
1667824812489147600,0.422147705078125,0.3284974694252014,0.7100352048873901,0.14932210743427277
1667824812499155500,0.432155517578125,0.347768098115921,0.8382680416107178,0.22779081761837006
1667824812509162800,0.442162841796875,0.3858265280723572,0.8276148438453674,0.2589322328567505
1667824812519170600,0.452170654296875,0.44032493233680725,0.5921322703361511,0.20913004875183105
1667824812529178600,0.4621787109375,0.4996787905693054,0.2750509977340698,0.10686466097831726
1667824812539185400,0.472185302734375,0.542975664138794,0.12648923695087433,0.028210332617163658
1667824812549193700,0.48219384765625,0.5690354704856873,0.18076738715171814,0.0017598168924450874
1667824812559201500,0.492201416015625,0.5756372213363647,0.3589741289615631,0.029808228835463524
1667824812569208600,0.50220849609375,0.568149983882904,0.6088255047798157,0.11252787709236145
1667824812579216400,0.51221630859375,0.5397993326187134,0.8372339010238647,0.22625496983528137
1667824812589223700,0.5222236328125,0.49971580505371094,0.9634461998939514,0.34154826402664185
1667824812599231500,0.5322314453125,0.4577507972717285,0.9355524778366089,0.4310872256755829
1667824812609239600,0.542239501953125,0.423837810754776,0.8089988231658936,0.4681757390499115
1667824812619246600,0.55224658203125,0.41703876852989197,0.6341684460639954,0.43839946389198303
1667824812629254700,0.562254638671875,0.4589417576789856,0.47977060079574585,0.36093130707740784
1667824812639261400,0.572261474609375,0.5434110760688782,0.372357040643692,0.2458483874797821
1667824812649269500,0.58226953125,0.6398984789848328,0.29607081413269043,0.13226935267448425
1667824812659277600,0.592277587890625,0.7303687334060669,0.21392028033733368,0.04147607088088989
1667824812669284600,0.60228466796875,0.7852692604064941,0.07079294323921204,-0.02124669961631298
1667824812679292700,0.612292724609375,0.8081886768341064,-0.09836119413375854,-0.05224669352173805
1667824812689300500,0.622300537109375,0.8023821711540222,-0.26404523849487305,-0.05278252065181732
1667824812699307800,0.632307861328125,0.8004822731018066,-0.39796122908592224,-0.027643345296382904
1667824812709315600,0.642315673828125,0.813977062702179,-0.48717552423477173,0.017785122618079185
1667824812719322600,0.652322509765625,0.8490368127822876,-0.5170670747756958,0.06437259912490845
1667824812729330400,0.662330322265625,0.9018773436546326,-0.5085806846618652,0.10786335170269012
1667824812739338800,0.6723388671875,0.9569920301437378,-0.4813027083873749,0.15130457282066345
1667824812749345500,0.682345458984375,0.9980846047401428,-0.4396167993545532,0.19839990139007568
1667824812759353600,0.692353515625,1.0072288513183594,-0.36772075295448303,0.24377164244651794
1667824812769361400,0.702361328125,0.9902034997940063,-0.2961994409561157,0.2760179936885834
1667824812779368700,0.71236865234375,0.9562433958053589,-0.23292459547519684,0.29024434089660645
1667824812789376500,0.72237646484375,0.8992559909820557,-0.1922951489686966,0.27440065145492554
1667824812799383600,0.732383544921875,0.8111588954925537,-0.1651681810617447,0.2257484346628189
1667824812809391600,0.7423916015625,0.7132155895233154,-0.1324310153722763,0.1510462462902069
1667824812819399700,0.752399658203125,0.6129227876663208,-0.0986165851354599,0.07002782076597214
1667824812829406500,0.762406494140625,0.5272680521011353,-0.053395580500364304,0.012684369459748268
1667824812839414500,0.77241455078125,0.45034879446029663,0.015050854533910751,-0.00141041015740484
1667824812849422600,0.782422607421875,0.38085654377937317,0.08898712694644928,0.024223314598202705
1667824812859429600,0.7924296875,0.32377249002456665,0.1543445587158203,0.07881172746419907
1667824812869437700,0.802437744140625,0.27324992418289185,0.20620056986808777,0.1404268890619278
1667824812879444500,0.812444580078125,0.2396876960992813,0.23758858442306519,0.19637537002563477
1667824812889452800,0.822452880859375,0.21758584678173065,0.25324052572250366,0.23010404407978058
1667824812899460600,0.832460693359375,0.21265608072280884,0.25897911190986633,0.24028849601745605
1667824812909467600,0.842467529296875,0.21050210297107697,0.2685060203075409,0.2237287014722824
1667824812919475500,0.852475341796875,0.21049731969833374,0.2570815980434418,0.18877443671226501
1667824812929483800,0.86248388671875,0.20631109178066254,0.2218511700630188,0.13963991403579712
1667824812939490600,0.872490478515625,0.20372650027275085,0.1748703420162201,0.09884428977966309
1667824812949498600,0.88249853515625,0.20468470454216003,0.12050910294055939,0.05518682301044464
1667824812959505700,0.892505615234375,0.2087782472372055,0.0577586367726326,0.02767769992351532
1667824812969513700,0.902513671875,0.21877415478229523,-0.002838130807504058,0.023480825126171112
1667824812979521500,0.912521484375,0.2288891077041626,-0.04325586184859276,0.03453480824828148
1667824812989528600,0.922528564453125,0.22792105376720428,-0.05740896239876747,0.061289455741643906
1667824812999536600,0.93253662109375,0.21172237396240234,-0.04712996259331703,0.10002966225147247
1667824813009544700,0.942544677734375,0.19701826572418213,-0.03405091166496277,0.14355503022670746
1667824813019551500,0.952551513671875,0.17615026235580444,-0.045403968542814255,0.19017793238162994
1667824813029559600,0.9625595703125,0.15495789051055908,-0.07003714144229889,0.22105781733989716
1667824813039566600,0.972566650390625,0.13186481595039368,-0.10261265933513641,0.25437262654304504
1667824813049574700,0.98257470703125,0.10338151454925537,-0.14872503280639648,0.27124881744384766
1667824813059582500,0.99258251953125,0.06687010824680328,-0.16322940587997437,0.2830852270126343
1667824813069589500,1.002589599609375,0.026854783296585083,-0.14564135670661926,0.28814205527305603
1667824813079597600,1.01259765625,-0.007818507961928844,-0.09614996612071991,0.291058212518692
1667824813089605600,1.022605712890625,-0.041843052953481674,-0.028672125190496445,0.2981480658054352
1667824813099612400,1.0326123046875,-0.07677920162677765,0.03875618427991867,0.3089064359664917
1667824813109621200,1.042621337890625,-0.11725099384784698,0.09748394787311554,0.3155267834663391
1667824813119628300,1.052628173828125,-0.15442845225334167,0.13975444436073303,0.31889277696609497
1667824813129636400,1.06263623046875,-0.17645545303821564,0.1605404019355774,0.3052254319190979
1667824813139644200,1.07264404296875,-0.19412685930728912,0.1564127802848816,0.2621013820171356
1667824813149651200,1.082651123046875,-0.21490857005119324,0.13448964059352875,0.1972976177930832
1667824813159659300,1.0926591796875,-0.2360021471977234,0.0932183638215065,0.10491842776536942
1667824813169667300,1.102667236328125,-0.2600070834159851,0.06596063822507858,-0.004631503485143185
1667824813179674000,1.112674072265625,-0.2724054157733917,0.08397132903337479,-0.11777936667203903
1667824813189682200,1.12268212890625,-0.28766587376594543,0.1286115050315857,-0.22626642882823944
1667824813199689200,1.132689208984375,-0.29407957196235657,0.17215977609157562,-0.3212190270423889
1667824813209697300,1.142697265625,-0.3020282983779907,0.19894824922084808,-0.38670217990875244
1667824813219705000,1.152705078125,-0.3125208914279938,0.204482302069664,-0.4248080253601074
1667824813229712100,1.162712158203125,-0.32703885436058044,0.195497065782547,-0.4495823383331299
1667824813239720200,1.17272021484375,-0.32914647459983826,0.18352454900741577,-0.47004738450050354
1667824813249728300,1.182728271484375,-0.31572040915489197,0.1849948912858963,-0.5019259452819824
1667824813259735000,1.192735107421875,-0.2931402623653412,0.18543483316898346,-0.5429037809371948
1667824813269743000,1.2027431640625,-0.2686186730861664,0.1798134446144104,-0.600274384021759
1667824813279750100,1.212750244140625,-0.2438051998615265,0.19118061661720276,-0.6646943688392639
1667824813289758200,1.22275830078125,-0.20859742164611816,0.19759750366210938,-0.7297745943069458
1667824813299766300,1.232766357421875,-0.16435645520687103,0.19480809569358826,-0.781478226184845
1667824813309773300,1.242773193359375,-0.11411672085523605,0.1892269104719162,-0.8162497878074646
1667824813319781400,1.252781494140625,-0.053049635142087936,0.13971476256847382,-0.8445531129837036
1667824813329789200,1.2627890625,0.011463576927781105,0.05209462717175484,-0.8728159070014954
1667824813339796200,1.272796142578125,0.0846983790397644,-0.055622514337301254,-0.9082779884338379
1667824813349804300,1.28280419921875,0.15516747534275055,-0.15421433746814728,-0.9222063422203064
1667824813359811300,1.292811279296875,0.23096130788326263,-0.2172822505235672,-0.907901406288147
1667824813369819100,1.302819091796875,0.31496647000312805,-0.23573049902915955,-0.8643938899040222
1667824813379827200,1.3128271484375,0.3727773129940033,-0.22368130087852478,-0.8002024292945862
1667824813389834200,1.322834228515625,0.4060803949832916,-0.18327341973781586,-0.7203541994094849
1667824813399842300,1.33284228515625,0.42226070165634155,-0.1014334112405777,-0.6418582797050476
1667824813409850000,1.34285009765625,0.42237547039985657,0.002079928759485483,-0.57398921251297
1667824813419857200,1.352857177734375,0.42401519417762756,0.0755046084523201,-0.5539814233779907
1667824813429865200,1.362865234375,0.437879353761673,0.08762332797050476,-0.6018600463867188
1667824813439872300,1.372872314453125,0.4665661156177521,0.07272906601428986,-0.7132611274719238
1667824813449880000,1.382880126953125,0.5066461563110352,-0.001645300886593759,-0.8847987651824951
1667824813459888000,1.39288818359375,0.5613932609558105,-0.11019148677587509,-1.0507147312164307
1667824813469895200,1.402895263671875,0.6221525073051453,-0.20623119175434113,-1.1719002723693848
1667824813479903200,1.4129033203125,0.66736900806427,-0.24546942114830017,-1.2156310081481934
1667824813489911300,1.422911376953125,0.6943260431289673,-0.22044315934181213,-1.206225037574768
1667824813499918300,1.43291845703125,0.6752868294715881,-0.14557130634784698,-1.1627148389816284
1667824813509926400,1.442926513671875,0.6406652331352234,-0.0724816545844078,-1.1125373840332031
1667824813519933200,1.45293310546875,0.6181796193122864,-0.0161824319511652,-1.0783413648605347
1667824813529941200,1.462941162109375,0.6141169667243958,0.008222510106861591,-1.0937639474868774
1667824813539949000,1.472948974609375,0.5576006770133972,-0.011677960865199566,-1.1811209917068481
1667824813549956400,1.482956298828125,0.44668906927108765,-0.007488009985536337,-1.3111200332641602
1667824813559964200,1.492964111328125,0.36685603857040405,0.02514716424047947,-1.4620893001556396
1667824813569972200,1.50297216796875,0.33498677611351013,0.03287752345204353,-1.6268057823181152
1667824813579979300,1.512979248046875,0.3387221395969391,0.059489160776138306,-1.7453206777572632
1667824813589987300,1.5229873046875,0.3722984790802002,0.1529187113046646,-1.8012393712997437
1667824813599994000,1.532994140625,0.3976392447948456,0.2832048237323761,-1.8162721395492554
1667824813610002200,1.543002197265625,0.38064080476760864,0.36396703124046326,-1.8036208152770996
1667824813620010200,1.55301025390625,0.33430129289627075,0.3959084451198578,-1.7674102783203125
1667824813630017300,1.563017333984375,0.28902193903923035,0.33633992075920105,-1.7172200679779053
1667824813640025000,1.573025146484375,0.2552221715450287,0.21336208283901215,-1.6428252458572388
1667824813650033200,1.583033203125,0.23399385809898376,-0.011668906547129154,-1.5257481336593628
1667824813660040200,1.593040283203125,0.21553122997283936,-0.44993147253990173,-1.3364418745040894
1667824813670048300,1.60304833984375,0.17883659899234772,-1.1051080226898193,-1.0724432468414307
1667824813680055000,1.613054931640625,0.07887297868728638,-1.7600700855255127,-0.7754606008529663
1667824813690063400,1.6230634765625,-0.07511792331933975,-2.25946044921875,-0.49326056241989136
1667824813700071200,1.6330712890625,-0.21458686888217926,-2.6643338203430176,-0.30226051807403564
1667824813710078200,1.643078125,-0.2802782654762268,-2.918386459350586,-0.25022074580192566
1667824813720086000,1.6530859375,-0.15876275300979614,-3.5427744388580322,-0.2138475775718689
1667824813730094000,1.663093994140625,-0.026008963584899902,-4.010186672210693,-0.331481009721756
1667824813740101000,1.67310107421875,0.0003230414295103401,-3.6930880546569824,-0.6865165829658508
1667824813750109200,1.683109130859375,-0.01417467463761568,-2.6819076538085938,-1.0294609069824219
1667824813760116200,1.6931162109375,0.03719823434948921,-2.0035037994384766,-1.2237118482589722
1667824813770124300,1.703124267578125,0.05799699202179909,-1.4808592796325684,-1.4726649522781372
1667824813780132400,1.71313232421875,0.10897655040025711,-1.1788591146469116,-1.6803646087646484
1667824813790139100,1.72313916015625,0.23778699338436127,-1.0208114385604858,-1.8791536092758179
1667824813800147200,1.733147216796875,0.4197341501712799,-0.8663723468780518,-2.0936408042907715
1667824813810155300,1.7431552734375,0.6937023401260376,-0.49636074900627136,-2.402327060699463
1667824813820162300,1.753162353515625,1.0445247888565063,-0.12978436052799225,-2.616082191467285
1667824813830170000,1.763170166015625,1.3756468296051025,0.05323339253664017,-2.6144018173217773
1667824813840178200,1.77317822265625,1.562248945236206,-0.1765071302652359,-2.439152717590332
1667824813850185200,1.783185302734375,1.5676755905151367,-0.7191475033760071,-2.2129437923431396
1667824813860193300,1.793193359375,1.5108016729354858,-1.393401026725769,-2.010554790496826
1667824813870200000,1.803199951171875,1.490456223487854,-1.9366129636764526,-1.8964135646820068
1667824813880208100,1.8132080078125,1.4949848651885986,-2.347724199295044,-1.8726674318313599
1667824813890216200,1.82321630859375,1.4287067651748657,-2.6417064666748047,-1.8815571069717407
1667824813900223200,1.83322314453125,1.2658339738845825,-2.8096022605895996,-1.8840655088424683
1667824813910231000,1.84323095703125,1.0239654779434204,-2.9130184650421143,-1.8937366008758545
1667824813920239000,1.853239013671875,0.7135095596313477,-2.9080967903137207,-1.936004877090454
1667824813930246100,1.86324609375,0.3779033422470093,-2.7459564208984375,-2.0026636123657227
1667824813940254200,1.873254150390625,0.05092896148562431,-2.3827245235443115,-2.0766830444335938
1667824813950262300,1.88326220703125,-0.27370503544807434,-1.7875536680221558,-2.131103515625
1667824813960269300,1.893269287109375,-0.5697811841964722,-1.0281306505203247,-2.134539842605591
1667824813970277400,1.90327734375,-0.7887617349624634,-0.3091098964214325,-2.064974069595337
1667824813980284200,1.9132841796875,-0.9063796997070312,0.2614648938179016,-1.8848751783370972
1667824813990292200,1.923292236328125,-0.932331919670105,0.6564511060714722,-1.6095980405807495
1667824814000300300,1.93330029296875,-0.8930364847183228,0.8890257477760315,-1.3156065940856934
1667824814010307300,1.943307373046875,-0.8057854771614075,0.9949548244476318,-1.070173740386963
1667824814020315100,1.953315185546875,-0.6931952834129333,1.0005693435668945,-0.9214223027229309
1667824814030323200,1.9633232421875,-0.5820626020431519,0.9231687784194946,-0.888610303401947
1667824814040330200,1.973330322265625,-0.5062639713287354,0.7779085636138916,-0.9453082084655762
1667824814050338300,1.98333837890625,-0.46229201555252075,0.5931975841522217,-1.0465279817581177
1667824814060345000,1.993344970703125,-0.45398133993148804,0.4000411331653595,-1.1479092836380005
1667824814070353200,2.003353271484375,-0.48939046263694763,0.2104634940624237,-1.222389817237854
1667824814080361200,2.013361328125,-0.5549034476280212,0.04698508605360985,-1.2694114446640015
1667824814090368300,2.0233681640625,-0.6289845705032349,-0.09192673116922379,-1.3022269010543823
1667824814100376000,2.0333759765625,-0.6843498349189758,-0.21404224634170532,-1.3427364826202393
1667824814110387200,2.04338720703125,-0.6938527822494507,-0.3429299294948578,-1.3998667001724243
1667824814120394200,2.053394287109375,-0.6626948714256287,-0.46128585934638977,-1.4704101085662842
1667824814130402300,2.06340234375,-0.6060012578964233,-0.5560272932052612,-1.521897792816162
1667824814140409300,2.073409423828125,-0.5469738841056824,-0.6305899620056152,-1.5211824178695679
1667824814150417400,2.08341748046875,-0.49393782019615173,-0.6956682801246643,-1.4441629648208618
1667824814160425500,2.093425537109375,-0.4509080648422241,-0.7590286135673523,-1.3089261054992676
1667824814170432300,2.103432373046875,-0.42374247312545776,-0.8121738433837891,-1.1324405670166016
1667824814180440300,2.1134404296875,-0.4021860659122467,-0.8773837685585022,-0.970361590385437
1667824814190448400,2.123448486328125,-0.396078884601593,-0.9509708881378174,-0.8624380826950073
1667824814200455400,2.133455322265625,-0.3963702321052551,-1.0075098276138306,-0.8134103417396545
1667824814210463200,2.143463134765625,-0.3881852924823761,-1.0681509971618652,-0.7936962842941284
1667824814220471300,2.15347119140625,-0.38841512799263,-1.1282920837402344,-0.7642568945884705
1667824814230478300,2.163478271484375,-0.3920700252056122,-1.226798415184021,-0.6766160130500793
1667824814240486400,2.173486328125,-0.4006741940975189,-1.3794894218444824,-0.5054570436477661
1667824814250493200,2.1834931640625,-0.4093691408634186,-1.571826457977295,-0.24441294372081757
1667824814260501500,2.19350146484375,-0.42451372742652893,-1.7998113632202148,0.08149406313896179
1667824814270509300,2.20350927734375,-0.43801355361938477,-2.0285255908966064,0.40191948413848877
1667824814280516400,2.213516357421875,-0.47062209248542786,-2.2716586589813232,0.6860630512237549
1667824814290524200,2.223524169921875,-0.5050280094146729,-2.5500481128692627,0.921570897102356
1667824814300532200,2.2335322265625,-0.5321003794670105,-2.8480656147003174,1.1301188468933105
1667824814310539300,2.243539306640625,-0.5518176555633545,-3.1331074237823486,1.3323373794555664
1667824814320547300,2.25354736328125,-0.5761208534240723,-3.3876829147338867,1.5306843519210815
1667824814330554400,2.263554443359375,-0.6037340760231018,-3.624138355255127,1.698262095451355
1667824814340562400,2.2735625,-0.5994149446487427,-3.832087516784668,1.7815996408462524
1667824814350570500,2.283570556640625,-0.5452060699462891,-3.9883687496185303,1.7515854835510254
1667824814360577300,2.293577392578125,-0.43151038885116577,-4.0665178298950195,1.619713544845581
1667824814370585300,2.30358544921875,-0.29951879382133484,-4.072729110717773,1.4300365447998047
1667824814380593400,2.313593505859375,-0.17446155846118927,-4.00520133972168,1.2231720685958862
1667824814390600400,2.323600341796875,-0.06619260460138321,-3.88212513923645,1.0638524293899536
1667824814400608300,2.333608154296875,0.028690500184893608,-3.751274824142456,0.9896900653839111
1667824814410616300,2.3436162109375,0.08792346715927124,-3.6329185962677,0.9977461099624634
1667824814420623400,2.353623291015625,0.10405929386615753,-3.5297422409057617,1.0631085634231567
1667824814430631400,2.36363134765625,0.10479192435741425,-3.435131072998047,1.1409045457839966
1667824814440638200,2.37363818359375,0.1189359724521637,-3.3346595764160156,1.1964871883392334
1667824814450646500,2.383646484375,0.13746145367622375,-3.2713983058929443,1.2039554119110107
1667824814460654300,2.393654296875,0.19271671772003174,-3.1787803173065186,1.2049485445022583
1667824814470661400,2.403661376953125,0.2781410813331604,-3.1198246479034424,1.1902071237564087
1667824814480669200,2.413669189453125,0.3866414427757263,-3.0739669799804688,1.1424471139907837
1667824814490677200,2.42367724609375,0.5107218623161316,-2.963019609451294,1.0437133312225342
1667824814500684300,2.433684326171875,0.6485891938209534,-2.784139633178711,0.9021274447441101
1667824814510692400,2.4436923828125,0.7935255765914917,-2.5379085540771484,0.7355107665061951
1667824814520699100,2.45369921875,0.947273313999176,-2.2465639114379883,0.5190008282661438
1667824814530707500,2.46370751953125,1.1186448335647583,-1.9087117910385132,0.2905799150466919
1667824814540715500,2.473715576171875,1.3330689668655396,-1.5832138061523438,0.10305474698543549
1667824814550722300,2.483722412109375,1.5640614032745361,-1.3121615648269653,0.025202559307217598
1667824814560730000,2.493730224609375,1.7661529779434204,-1.1491243839263916,0.08942708373069763
1667824814570738400,2.503738525390625,1.9131128787994385,-1.1178077459335327,0.329091876745224
1667824814580745200,2.5137451171875,1.9893217086791992,-1.2125591039657593,0.7017061710357666
1667824814590753300,2.523753173828125,1.9623461961746216,-1.3650716543197632,1.1396515369415283
1667824814600761300,2.53376123046875,1.8160433769226074,-1.569819688796997,1.614330768585205
1667824814610768400,2.543768310546875,1.5759642124176025,-1.8239198923110962,2.057973861694336
1667824814620776400,2.5537763671875,1.2673571109771729,-2.0927622318267822,2.4534389972686768
1667824814630783200,2.563783203125,0.9398564100265503,-2.355393409729004,2.814674139022827
1667824814640791300,2.573791259765625,0.6231554746627808,-2.620974540710449,3.118774890899658
1667824814650799400,2.58379931640625,0.33281683921813965,-2.895137310028076,3.3406975269317627
1667824814660806400,2.593806396484375,0.06831221282482147,-3.1657967567443848,3.4651401042938232
1667824814670814200,2.603814208984375,-0.15792305767536163,-3.3758444786071777,3.497281789779663
1667824814680822300,2.613822265625,-0.3285054564476013,-3.5163347721099854,3.4407455921173096
1667824814690829300,2.623829345703125,-0.440869003534317,-3.596740245819092,3.3086304664611816
1667824814700837400,2.63383740234375,-0.5213108658790588,-3.655984401702881,3.1246776580810547
1667824814710845200,2.64384521484375,-0.5662972331047058,-3.7177820205688477,2.930058717727661
1667824814720852500,2.6538525390625,-0.5768318772315979,-3.76715350151062,2.7380387783050537
1667824814730860300,2.6638603515625,-0.5559420585632324,-3.7607216835021973,2.5646917819976807
1667824814740867300,2.673867431640625,-0.5209571719169617,-3.695021629333496,2.4250731468200684
1667824814750875100,2.683875244140625,-0.48527002334594727,-3.5669360160827637,2.323138475418091
1667824814760883500,2.693883544921875,-0.46372106671333313,-3.395463228225708,2.239515542984009
1667824814770890200,2.70389013671875,-0.4700596332550049,-3.2108840942382812,2.1540093421936035
1667824814780898300,2.713898193359375,-0.4912477433681488,-3.0086050033569336,2.0651016235351562
1667824814790906400,2.72390625,-0.520704984664917,-2.7659637928009033,1.9646815061569214
1667824814800913400,2.733913330078125,-0.5568222403526306,-2.4815914630889893,1.8576112985610962
1667824814810921500,2.74392138671875,-0.6066835522651672,-2.1695191860198975,1.7233901023864746
1667824814820929300,2.75392919921875,-0.6828864216804504,-1.8561713695526123,1.5498777627944946
1667824814830936300,2.763936279296875,-0.7476648688316345,-1.5261367559432983,1.3339533805847168
1667824814840944400,2.7739443359375,-0.7902493476867676,-1.1751677989959717,1.0974782705307007
1667824814850951400,2.783951416015625,-0.7921383380889893,-0.8081995844841003,0.8570182919502258
1667824814860959200,2.793959228515625,-0.7577401399612427,-0.4421049654483795,0.6142237186431885
1667824814870967300,2.80396728515625,-0.6981236934661865,-0.08764410018920898,0.36139175295829773
1667824814880974300,2.813974365234375,-0.6183775067329407,0.24617356061935425,0.09293793141841888
1667824814890982400,2.823982421875,-0.5309064984321594,0.5254584550857544,-0.19034384191036224
1667824814900990200,2.833990234375,-0.4522228538990021,0.749341607093811,-0.46353596448898315
1667824814910997500,2.84399755859375,-0.3895123302936554,0.9223957061767578,-0.7109854221343994
1667824814921005300,2.85400537109375,-0.3542070686817169,1.0518580675125122,-0.9107829928398132
1667824814931012400,2.864012451171875,-0.34746477007865906,1.1536179780960083,-1.0460926294326782
1667824814941020200,2.874020263671875,-0.3647971451282501,1.2209004163742065,-1.1213228702545166
1667824814951028200,2.8840283203125,-0.3943561017513275,1.2516878843307495,-1.1391372680664062
1667824814961035300,2.89403515625,-0.41840124130249023,1.243837594985962,-1.1106215715408325
1667824814971043300,2.904043212890625,-0.4244394302368164,1.1863045692443848,-1.0460302829742432
1667824814981051400,2.914051513671875,-0.4188755452632904,1.0794838666915894,-0.9633316993713379
1667824814991058400,2.924058349609375,-0.4111523926258087,0.9422269463539124,-0.8702147603034973
1667824815001066500,2.93406640625,-0.3993827998638153,0.7951642274856567,-0.7616044282913208
1667824815011074300,2.94407421875,-0.3943614363670349,0.6235048770904541,-0.6407808065414429
1667824815021081300,2.954081298828125,-0.41161656379699707,0.44480594992637634,-0.5130758285522461
1667824815031089400,2.96408935546875,-0.4484289288520813,0.26783090829849243,-0.3854411542415619
1667824815041096400,2.974096435546875,-0.5030061602592468,0.10279322415590286,-0.2558850347995758
1667824815051104300,2.984104248046875,-0.5643030405044556,-0.03821050375699997,-0.12794704735279083
1667824815061112300,2.9941123046875,-0.6205152273178101,-0.16131113469600677,-0.013340572826564312
1667824815071119400,3.004119384765625,-0.6738263368606567,-0.27155959606170654,0.09165295213460922
1667824815081127400,3.01412744140625,-0.7425702810287476,-0.36471086740493774,0.18049708008766174
1667824815091135200,3.02413525390625,-0.8518432378768921,-0.4353613257408142,0.26434457302093506
1667824815101142500,3.034142578125,-1.0047472715377808,-0.4871419668197632,0.31905868649482727
1667824815111150300,3.044150390625,-1.1628814935684204,-0.5278156399726868,0.3383817672729492
1667824815121158100,3.054158203125,-1.297624945640564,-0.5573024153709412,0.30033132433891296
1667824815131165200,3.064165283203125,-1.386960744857788,-0.5818777680397034,0.20104043185710907
1667824815141173200,3.07417333984375,-1.4023748636245728,-0.6069239974021912,0.04507054015994072
1667824815151180300,3.08418017578125,-1.3278803825378418,-0.647121787071228,-0.13979971408843994
1667824815161188000,3.09418798828125,-1.1581674814224243,-0.6937281489372253,-0.3236888647079468
1667824815171196200,3.104196044921875,-0.9358156323432922,-0.7406759858131409,-0.45651373267173767
1667824815181203200,3.114203125,-0.6948062181472778,-0.7553971409797668,-0.520995557308197
1667824815191211300,3.124211181640625,-0.47661343216896057,-0.7379006743431091,-0.5020511150360107
1667824815201219300,3.13421923828125,-0.27466699481010437,-0.622321605682373,-0.354574054479599
1667824815211226000,3.14422607421875,-0.10139106959104538,-0.5146521329879761,-0.13044509291648865
1667824815221234400,3.154234375,0.028371453285217285,-0.3849426209926605,0.14214809238910675
1667824815231242200,3.1642421875,0.10924739390611649,-0.2552839517593384,0.4038151204586029
1667824815241249300,3.174249267578125,0.14694683253765106,-0.12773959338665009,0.6241331100463867
1667824815251257000,3.184257080078125,0.14870744943618774,0.019817380234599113,0.799994170665741
1667824815261264400,3.194264404296875,0.11104422807693481,0.16128475964069366,0.912517786026001
1667824815271272200,3.204272216796875,0.05206266790628433,0.29656270146369934,0.9576295614242554
1667824815281280300,3.2142802734375,-0.005245628301054239,0.4113982021808624,0.9426689743995667
1667824815291287300,3.224287353515625,-0.02707076631486416,0.5027587413787842,0.8859825730323792
1667824815301295400,3.23429541015625,-0.005796636454761028,0.5597634315490723,0.7980175614356995
1667824815311303200,3.24430322265625,0.057378336787223816,0.5774793028831482,0.6861514449119568
1667824815321310200,3.254310302734375,0.16978557407855988,0.5756561160087585,0.5543543100357056
1667824815331318000,3.264318115234375,0.3171499967575073,0.5320308804512024,0.4203844964504242
1667824815341326300,3.274326416015625,0.5094440579414368,0.43830013275146484,0.30714476108551025
1667824815351333000,3.2843330078125,0.7409606575965881,0.2905218303203583,0.24799436330795288
1667824815361341200,3.294341064453125,0.9821980595588684,0.09355924278497696,0.2543260157108307
1667824815371349000,3.304348876953125,1.1977458000183105,-0.12252058833837509,0.32679516077041626
1667824815381356300,3.314356201171875,1.344611406326294,-0.3304700553417206,0.4403952360153198
1667824815391364000,3.324364013671875,1.422090768814087,-0.5040591359138489,0.5467323064804077
1667824815401371100,3.33437109375,1.4565544128417969,-0.6285459399223328,0.6201063990592957
1667824815411379200,3.344379150390625,1.4758855104446411,-0.7172753214836121,0.6434522271156311
1667824815421387300,3.35438720703125,1.5002925395965576,-0.77071613073349,0.6130791306495667
1667824815431394000,3.36439404296875,1.5450448989868164,-0.7793440222740173,0.5463171601295471
1667824815441402000,3.374402099609375,1.6078605651855469,-0.7281354069709778,0.443367063999176
1667824815451410200,3.38441015625,1.6697598695755005,-0.6148405075073242,0.3125477731227875
1667824815461417200,3.394417236328125,1.7194401025772095,-0.4528505802154541,0.14953143894672394
1667824815471425300,3.40442529296875,1.7594623565673828,-0.2283170521259308,-0.04523352533578873
1667824815481433000,3.41443310546875,1.7724846601486206,0.05117077752947807,-0.2556520104408264
1667824815491440400,3.4244404296875,1.7456855773925781,0.35824230313301086,-0.4890056550502777
1667824815501448200,3.4344482421875,1.7036998271942139,0.6975295543670654,-0.7404655814170837
1667824815511455200,3.444455322265625,1.6524873971939087,1.0483403205871582,-1.002626895904541
1667824815521463000,3.454463134765625,1.6074813604354858,1.3593785762786865,-1.2536447048187256
1667824815531471400,3.464471435546875,1.5691834688186646,1.6118813753128052,-1.468124270439148
1667824815541478100,3.47447802734375,1.5420738458633423,1.8134504556655884,-1.6427586078643799
1667824815551486200,3.484486328125,1.513995885848999,1.9768186807632446,-1.781630039215088
1667824815561494000,3.494493896484375,1.484998345375061,2.105475902557373,-1.8818503618240356
1667824815571501300,3.504501220703125,1.4353662729263306,2.197455883026123,-1.9365437030792236
1667824815581509000,3.514509033203125,1.3575795888900757,2.2602553367614746,-1.942282795906067
1667824815591517200,3.52451708984375,1.2720521688461304,2.28741192817688,-1.8923308849334717
1667824815601524200,3.534524169921875,1.1757123470306396,2.273758888244629,-1.791507601737976
1667824815611532300,3.5445322265625,1.0761594772338867,2.2074804306030273,-1.6397138833999634
1667824815621539000,3.5545390625,0.966164231300354,2.098600387573242,-1.4511932134628296
1667824815631547100,3.564547119140625,0.8324660658836365,1.929260492324829,-1.2306536436080933
1667824815641555200,3.57455517578125,0.6845738291740417,1.715354561805725,-0.9965072274208069
1667824815651562200,3.584562255859375,0.5223944783210754,1.478877305984497,-0.7504300475120544
1667824815661570300,3.5945703125,0.3883823752403259,1.1902340650558472,-0.46636396646499634
1667824815671578000,3.604578125,0.3114564120769501,0.8575146794319153,-0.12336187809705734
1667824815681585400,3.61458544921875,0.3015292286872864,0.4434181749820709,0.2852194905281067
1667824815691593200,3.62459326171875,0.3436439037322998,-0.02701617032289505,0.7360660433769226
1667824815701601300,3.634601318359375,0.39475929737091064,-0.4998447000980377,1.2053611278533936
1667824815711608000,3.644608154296875,0.3942708671092987,-0.9345703125,1.638397216796875
1667824815721616400,3.654616455078125,0.3067689836025238,-1.3142540454864502,2.017831802368164
1667824815731623200,3.664623046875,0.12050670385360718,-1.6119205951690674,2.333449363708496
1667824815741631200,3.67463134765625,-0.13769768178462982,-1.796068549156189,2.598262310028076
1667824815751639000,3.68463916015625,-0.41967928409576416,-1.9188259840011597,2.816471815109253
1667824815761646300,3.694646240234375,-0.7073933482170105,-2.028137683868408,2.9680862426757812
1667824815771654100,3.704654052734375,-0.958924412727356,-2.1204774379730225,3.021514892578125
1667824815781662200,3.714662109375,-1.1230907440185547,-2.162606716156006,2.9321162700653076
1667824815791669200,3.724669189453125,-1.189268708229065,-2.139116048812866,2.683331251144409
1667824815801677300,3.73467724609375,-1.1621270179748535,-2.0527219772338867,2.301697254180908
1667824815811685400,3.744685302734375,-1.03110671043396,-1.922932744026184,1.8271782398223877
1667824815821692200,3.754692138671875,-0.8474894762039185,-1.7550686597824097,1.2970614433288574
1667824815831700200,3.7647001953125,-0.6594167947769165,-1.56669020652771,0.7513051629066467
1667824815841707300,3.774707275390625,-0.5113778114318848,-1.3348197937011719,0.23922324180603027
1667824815851715300,3.78471533203125,-0.42780300974845886,-1.059192180633545,-0.20915721356868744
1667824815861723100,3.79472314453125,-0.4192228317260742,-0.780427098274231,-0.5617805123329163
1667824815871730400,3.80473046875,-0.46699753403663635,-0.5116180181503296,-0.814424991607666
1667824815881738200,3.81473828125,-0.5443506836891174,-0.2572626769542694,-0.9767276644706726
1667824815891746300,3.824746337890625,-0.6091480255126953,-0.018317755311727524,-1.0430374145507812
1667824815901753000,3.834753173828125,-0.634283185005188,0.18286702036857605,-1.020726203918457
1667824815911761400,3.844761474609375,-0.6055812835693359,0.3670339286327362,-0.8897525072097778
1667824815921769200,3.854769287109375,-0.5355464816093445,0.44927075505256653,-0.7135817408561707
1667824815931776300,3.8647763671875,-0.44891682267189026,0.4712543487548828,-0.5142281651496887
1667824815941784000,3.8747841796875,-0.376728355884552,0.4285319149494171,-0.3404974043369293
1667824815951791400,3.884791259765625,-0.3352019786834717,0.3493060767650604,-0.17900383472442627
1667824815961799200,3.894799072265625,-0.33398517966270447,0.24452665448188782,-0.02731417864561081
1667824815971807200,3.90480712890625,-0.3544507622718811,0.11531567573547363,0.10764151066541672
1667824815981814300,3.914814208984375,-0.37248700857162476,-0.025108549743890762,0.2165653258562088
1667824815991822300,3.924822265625,-0.39513880014419556,-0.17675906419754028,0.30767473578453064
1667824816001830100,3.934830078125,-0.4197554588317871,-0.3201175630092621,0.37676113843917847
1667824816011837200,3.944837158203125,-0.43867456912994385,-0.4248679280281067,0.42038077116012573
1667824816021845000,3.954844970703125,-0.4470858871936798,-0.4900674521923065,0.42686665058135986
1667824816031853300,3.964853271484375,-0.4538218080997467,-0.533857524394989,0.3997889459133148
1667824816041860000,3.974860107421875,-0.4574303925037384,-0.5422901511192322,0.3247237503528595
1667824816051868200,3.9848681640625,-0.45692121982574463,-0.5149115324020386,0.22050893306732178
1667824816061876200,3.994876220703125,-0.45885226130485535,-0.4383443295955658,0.11230549961328506
1667824816071883300,4.00488330078125,-0.46415993571281433,-0.3463329076766968,0.010821488685905933
1667824816081891300,4.014891357421875,-0.4772259593009949,-0.2523432970046997,-0.08150338381528854
1667824816091899100,4.024899169921875,-0.5205199122428894,-0.16117504239082336,-0.1793266087770462
1667824816101906200,4.03490625,-0.6066784858703613,-0.0824836939573288,-0.276228666305542
1667824816111910000,4.044909912109375,-0.7323229312896729,0.0008178567513823509,-0.37495630979537964
1667824816121918000,4.05491796875,-0.8899075388908386,0.08735061436891556,-0.4653996527194977
1667824816131925000,4.064925048828125,-1.0517648458480835,0.15938593447208405,-0.5518066883087158
1667824816141933000,4.07493310546875,-1.2209120988845825,0.18761250376701355,-0.6396963596343994
1667824816151939800,4.08493994140625,-1.3962961435317993,0.17269161343574524,-0.7442235350608826
1667824816161948000,4.094947998046875,-1.5617221593856812,0.13756105303764343,-0.8639878034591675
1667824816171956000,4.1049560546875,-1.6982653141021729,0.09120314568281174,-0.9835882186889648
1667824816181963000,4.114962890625,-1.7848849296569824,0.03928961604833603,-1.0876413583755493
1667824816191971000,4.12497119140625,-1.8214399814605713,-0.021808093413710594,-1.1617989540100098
1667824816201979000,4.134978759765625,-1.7790908813476562,-0.09736303985118866,-1.1789501905441284
1667824816211986200,4.144986083984375,-1.661341667175293,-0.19542355835437775,-1.1333420276641846
1667824816221994000,4.154993896484375,-1.4821231365203857,-0.30211779475212097,-1.0298856496810913
1667824816232002000,4.165001953125,-1.2669445276260376,-0.4155982732772827,-0.8685470819473267
1667824816242008800,4.1750087890625,-1.055076003074646,-0.521445095539093,-0.6691983342170715
1667824816252017000,4.185016845703125,-0.8727285265922546,-0.6061288118362427,-0.4521158039569855
1667824816262024000,4.19502392578125,-0.7414456009864807,-0.6397789120674133,-0.22948992252349854
1667824816272032000,4.205031982421875,-0.6447328925132751,-0.6344432830810547,-0.01883440837264061
1667824816282039800,4.215039794921875,-0.5750939249992371,-0.6075666546821594,0.1764509379863739
1667824816292047000,4.225047119140625,-0.515409529209137,-0.5600358843803406,0.3492882251739502
1667824816302055000,4.235054931640625,-0.46996429562568665,-0.49694186449050903,0.49715012311935425
1667824816312063000,4.24506298828125,-0.4409179985523224,-0.4093150794506073,0.6069149374961853
1667824816322069800,4.25506982421875,-0.42393794655799866,-0.3015212416648865,0.6754820346832275
1667824816332078000,4.265078125,-0.40391072630882263,-0.18347209692001343,0.7107492089271545
1667824816342086100,4.275086181640625,-0.3658674657344818,-0.07527770847082138,0.7437476515769958
1667824816352093000,4.285093017578125,-0.31947147846221924,0.008564460091292858,0.7600541710853577
1667824816362101000,4.29510107421875,-0.2625892758369446,0.07524548470973969,0.7759926915168762
1667824816372108000,4.30510791015625,-0.20066891610622406,0.13367336988449097,0.7838519215583801
1667824816382116000,4.3151162109375,-0.12843041121959686,0.19166716933250427,0.7853768467903137
1667824816392124000,4.3251240234375,-0.02418576367199421,0.24830301105976105,0.7864008545875549
1667824816402131200,4.335131103515625,0.11676815897226334,0.27560892701148987,0.8001188039779663
1667824816412139000,4.345138916015625,0.28693509101867676,0.2691403925418854,0.8318476676940918
1667824816422147000,4.35514697265625,0.4673783779144287,0.23209528625011444,0.8663068413734436
1667824816432153900,4.36515380859375,0.6295095086097717,0.18054288625717163,0.8967025876045227
1667824816442162000,4.375161865234375,0.7666929364204407,0.12260634452104568,0.9067158102989197
1667824816452170000,4.385169921875,0.8774636387825012,0.06598860025405884,0.8844426870346069
1667824816462177000,4.395177001953125,0.96541827917099,0.015106515027582645,0.8385156989097595
1667824816472184800,4.405184814453125,1.03811776638031,-0.02389201708137989,0.7551185488700867
1667824816482192100,4.415192138671875,1.1102827787399292,-0.04379461705684662,0.6491345763206482
1667824816492200000,4.425199951171875,1.1884406805038452,-0.03658970072865486,0.5177320837974548
1667824816502208000,4.4352080078125,1.2831040620803833,-0.02599538117647171,0.37370753288269043
1667824816512214800,4.44521484375,1.3923003673553467,-0.013713415712118149,0.22694632411003113
1667824816522223000,4.45522314453125,1.5173413753509521,0.021994514390826225,0.08159073442220688
1667824816532231000,4.46523095703125,1.6523382663726807,0.07237699627876282,-0.048336371779441833
1667824816542238000,4.475238037109375,1.7954221963882446,0.1227184608578682,-0.14464080333709717
1667824816552245800,4.485245849609375,1.9107309579849243,0.17685413360595703,-0.22119523584842682
1667824816562254000,4.495254150390625,2.0087883472442627,0.24483558535575867,-0.2941669225692749
1667824816572260900,4.5052607421875,2.081376075744629,0.3376408815383911,-0.37236690521240234
1667824816582269000,4.51526904296875,2.12854266166687,0.44303736090660095,-0.45242178440093994
1667824816592277000,4.525277099609375,2.1385061740875244,0.5529670715332031,-0.5216863751411438
1667824816602284000,4.535283935546875,2.1177754402160645,0.6629265546798706,-0.5841289758682251
1667824816612292000,4.5452919921875,2.0608506202697754,0.7640351057052612,-0.6432008147239685
1667824816622299000,4.555298828125,1.9708681106567383,0.8760902285575867,-0.7052702903747559
1667824816632307000,4.565306884765625,1.8729004859924316,0.9997743964195251,-0.7730461359024048
1667824816642315000,4.57531494140625,1.776258945465088,1.1279243230819702,-0.8264819383621216
1667824816652322000,4.585322021484375,1.680625081062317,1.2564549446105957,-0.8458021283149719
1667824816662329900,4.595329833984375,1.5841861963272095,1.3696738481521606,-0.8279248476028442
1667824816672338000,4.605337890625,1.461620569229126,1.468565821647644,-0.7795628905296326
1667824816682345000,4.615344970703125,1.3017246723175049,1.550984501838684,-0.7031943798065186
1667824816692353000,4.62535302734375,1.1056715250015259,1.6000330448150635,-0.6016560196876526
1667824816702360800,4.63536083984375,0.8794474005699158,1.5849907398223877,-0.4788973331451416
1667824816712368000,4.6453681640625,0.6159297823905945,1.4916067123413086,-0.3479260206222534
1667824816722376000,4.6553759765625,0.33899855613708496,1.3575026988983154,-0.23025690019130707
1667824816732383000,4.665383056640625,0.0899200364947319,1.1872947216033936,-0.09927518665790558
1667824816742390800,4.675390869140625,-0.08450236916542053,0.9581379890441895,0.07278605550527573
1667824816752398800,4.68539892578125,-0.15252749621868134,0.6562454700469971,0.3256790339946747
1667824816762406000,4.695406005859375,-0.13349494338035583,0.2611096203327179,0.6441595554351807
1667824816772414000,4.7054140625,-0.07144009321928024,-0.22578199207782745,0.9913632869720459
1667824816782422000,4.715422119140625,-0.00115394766908139,-0.7577332258224487,1.3228397369384766
1667824816792429000,4.725428955078125,0.043413788080215454,-1.2448419332504272,1.61875581741333
1667824816802437000,4.73543701171875,0.04320526123046875,-1.6314564943313599,1.8700357675552368
1667824816812445000,4.74544482421875,-0.010274209082126617,-1.9266958236694336,2.074601173400879
1667824816822452000,4.755451904296875,-0.10311706364154816,-2.1176815032958984,2.2120420932769775
1667824816832460000,4.7654599609375,-0.21172982454299927,-2.210203170776367,2.274808168411255
1667824816842468000,4.775468017578125,-0.3309784531593323,-2.2003235816955566,2.2491531372070312
1667824816852475000,4.785474853515625,-0.4363914430141449,-2.0928566455841064,2.1408274173736572
1667824816862483000,4.79548291015625,-0.5176681876182556,-1.8864506483078003,1.942122220993042
1667824816872490000,4.805489990234375,-0.573083221912384,-1.6120822429656982,1.659773826599121
1667824816882498000,4.815498046875,-0.5970250368118286,-1.2813096046447754,1.3066136837005615
1667824816892505900,4.825505859375,-0.5810306668281555,-0.9392929077148438,0.9180150628089905
1667824816902513200,4.83551318359375,-0.5368285775184631,-0.6073868870735168,0.5219652056694031
1667824816912521000,4.84552099609375,-0.47168684005737305,-0.3347098231315613,0.14893755316734314
1667824816922529000,4.855529052734375,-0.4068463146686554,-0.1271960288286209,-0.16629363596439362
1667824816932535800,4.865535888671875,-0.3566630482673645,0.023512249812483788,-0.40583059191703796
1667824816942544000,4.8755439453125,-0.33461126685142517,0.11649145931005478,-0.5715346336364746
1667824816952552200,4.88555224609375,-0.32818612456321716,0.15833984315395355,-0.6645900011062622
1667824816962559000,4.89555908203125,-0.33121973276138306,0.15931029617786407,-0.6933848857879639
1667824816972567000,4.905567138671875,-0.33045142889022827,0.11946434527635574,-0.6813340783119202
1667824816982574000,4.915573974609375,-0.33180537819862366,0.06384821981191635,-0.6390880942344666
1667824816992582000,4.925581787109375,-0.32207897305488586,-0.0017787253018468618,-0.5684389472007751
1667824817002590000,4.93558984375,-0.30763745307922363,-0.07896112650632858,-0.4750661253929138
1667824817012596700,4.9455966796875,-0.2914896309375763,-0.13953818380832672,-0.3676193058490753
1667824817022605000,4.95560498046875,-0.26899978518486023,-0.1796501874923706,-0.25090491771698
1667824817032613000,4.965613037109375,-0.24319374561309814,-0.22042052447795868,-0.12209128588438034
1667824817042620000,4.975619873046875,-0.21597756445407867,-0.25900545716285706,-0.0038924762047827244
1667824817052628000,4.9856279296875,-0.21210426092147827,-0.2981374263763428,0.09413102269172668
1667824817062635800,4.9956357421875,-0.23955240845680237,-0.3341819643974304,0.15517014265060425
1667824817072643000,5.00564306640625,-0.292406290769577,-0.3651646673679352,0.17122900485992432
1667824817082651000,5.01565087890625,-0.3535301089286804,-0.4080103933811188,0.16009965538978577
1667824817092658000,5.025657958984375,-0.4196760952472687,-0.4414445161819458,0.12229634821414948
1667824817102666000,5.035666015625,-0.5017544627189636,-0.4647359848022461,0.0563301183283329
1667824817112675000,5.045675048828125,-0.5950258374214172,-0.470641553401947,-0.025550633668899536
1667824817122681900,5.055681884765625,-0.6845258474349976,-0.4579177498817444,-0.11466000229120255
1667824817132690000,5.06568994140625,-0.7680745720863342,-0.43969908356666565,-0.21280281245708466
1667824817142698000,5.075697998046875,-0.8398523330688477,-0.4120160639286041,-0.3210083842277527
1667824817152705000,5.085705078125,-0.9020552635192871,-0.3669668138027191,-0.44149404764175415
1667824817162713000,5.095713134765625,-0.9532244205474854,-0.2988876402378082,-0.5750505328178406
1667824817172721000,5.105720947265625,-0.9892042875289917,-0.20731669664382935,-0.7129971981048584
1667824817182728000,5.11572802734375,-1.012118935585022,-0.12843920290470123,-0.8400709629058838
1667824817192736000,5.125736083984375,-1.0379347801208496,-0.0667358860373497,-0.9372585415840149
1667824817202744000,5.135744140625,-1.083998680114746,-0.006837133318185806,-1.008614182472229
1667824817212750800,5.145750732421875,-1.1600711345672607,0.0537942573428154,-1.0601674318313599
1667824817222759000,5.155759033203125,-1.2573411464691162,0.11168445646762848,-1.0899748802185059
1667824817232766000,5.165765869140625,-1.3640825748443604,0.16019207239151,-1.1035056114196777
1667824817242774000,5.17577392578125,-1.4698436260223389,0.1929801106452942,-1.0989978313446045
1667824817252781800,5.18578173828125,-1.5762147903442383,0.19474925100803375,-1.0834591388702393
1667824817262789000,5.1957890625,-1.6812688112258911,0.18049094080924988,-1.0653337240219116
1667824817272797000,5.205796875,-1.7660433053970337,0.17704987525939941,-1.0496588945388794
1667824817282805000,5.215804931640625,-1.8056429624557495,0.19568800926208496,-1.044782042503357
1667824817292811800,5.225811767578125,-1.7797399759292603,0.21950599551200867,-1.0340886116027832
1667824817302819800,5.23581982421875,-1.671439528465271,0.22833091020584106,-1.0051404237747192
1667824817312828200,5.245828125,-1.4885600805282593,0.20169903337955475,-0.9482192993164062
1667824817322835000,5.2558349609375,-1.2610582113265991,0.11928804218769073,-0.8628777861595154
1667824817332843000,5.265843017578125,-1.0257627964019775,-0.0022807312197983265,-0.7403672933578491
1667824817342850000,5.27585009765625,-0.8375561833381653,-0.13652881979942322,-0.600347101688385
1667824817352858000,5.285858154296875,-0.7120203375816345,-0.25994449853897095,-0.4526345729827881
1667824817362866000,5.295865966796875,-0.6384305357933044,-0.3518794775009155,-0.3045492470264435
1667824817372873000,5.305873046875,-0.6056268215179443,-0.4106285572052002,-0.15868018567562103
1667824817382881000,5.315881103515625,-0.586911678314209,-0.42750686407089233,-0.011653194203972816
1667824817392889000,5.32588916015625,-0.5502013564109802,-0.4082234501838684,0.12563516199588776
1667824817402896000,5.335895751953125,-0.47931039333343506,-0.3614026606082916,0.2291109412908554
1667824817412904000,5.345904052734375,-0.3808269798755646,-0.2966811954975128,0.3033207356929779
1667824817422912000,5.355912109375,-0.2525036334991455,-0.20569589734077454,0.34531185030937195
1667824817432919000,5.3659189453125,-0.10791847854852676,-0.09327562153339386,0.36108601093292236
1667824817442926800,5.3759267578125,0.03883448243141174,0.027039339765906334,0.3686070442199707
1667824817452935000,5.385934814453125,0.1808270364999771,0.12971964478492737,0.3706875145435333
1667824817462942000,5.39594189453125,0.32306382060050964,0.21784551441669464,0.37851908802986145
1667824817472950000,5.405949951171875,0.4699709713459015,0.2996407747268677,0.3885381519794464
1667824817482956800,5.415956787109375,0.6138378381729126,0.3649713099002838,0.3973652124404907
1667824817492964900,5.42596484375,0.7548482418060303,0.4069051742553711,0.4006614089012146
1667824817502973200,5.43597314453125,0.8851069211959839,0.4287191331386566,0.40344706177711487
1667824817512980000,5.44597998046875,1.006209373474121,0.4230425953865051,0.40375280380249023
1667824817522988000,5.455988037109375,1.1176704168319702,0.4141412675380707,0.40306010842323303
1667824817532995800,5.465995849609375,1.2216061353683472,0.39414969086647034,0.3966621160507202
1667824817543003000,5.4760029296875,1.3244751691818237,0.3775283694267273,0.3840786814689636
1667824817553011000,5.486010986328125,1.4398313760757446,0.3566555976867676,0.35779061913490295
1667824817563019000,5.49601904296875,1.5664033889770508,0.3262723982334137,0.31466978788375854
1667824817573026000,5.506026123046875,1.6902081966400146,0.2948601245880127,0.26499250531196594
1667824817583034000,5.5160341796875,1.806534767150879,0.27056437730789185,0.2026396542787552
1667824817593041000,5.526041015625,1.9022464752197266,0.2560506761074066,0.15369608998298645
1667824817603049000,5.536049072265625,1.959921956062317,0.22918178141117096,0.12270914018154144
1667824817613057000,5.54605712890625,1.978978157043457,0.2056703418493271,0.09791697561740875
1667824817623064000,5.55606396484375,1.969251275062561,0.2058570235967636,0.05697859823703766
1667824817633071900,5.56607177734375,1.9550755023956299,0.23319144546985626,0.008441687561571598
1667824817643080000,5.576079833984375,1.957443356513977,0.30055078864097595,-0.0391165092587471
1667824817653087000,5.5860869140625,1.9839708805084229,0.3925161063671112,-0.07342681288719177
1667824817663095000,5.596094970703125,2.0237162113189697,0.4653051197528839,-0.09618885070085526
1667824817673102800,5.606102783203125,2.049391031265259,0.5325312614440918,-0.11376544833183289
1667824817683110000,5.61610986328125,2.057220458984375,0.5947602987289429,-0.13481400907039642
1667824817693118000,5.626117919921875,2.037882089614868,0.6583595275878906,-0.1598874032497406
1667824817703126000,5.6361259765625,1.9959622621536255,0.727975070476532,-0.1810571402311325
1667824817713132800,5.6461328125,1.9391146898269653,0.8118917942047119,-0.18785671889781952
1667824817723140900,5.656140869140625,1.8679771423339844,0.8932039737701416,-0.1760900765657425
1667824817733148000,5.66614794921875,1.778417706489563,0.9638368487358093,-0.15632089972496033
1667824817743156000,5.676156005859375,1.6590369939804077,1.0396355390548706,-0.1467771977186203
1667824817753164000,5.6861640625,1.511602520942688,1.1171867847442627,-0.14947524666786194
1667824817763171000,5.696171142578125,1.3399747610092163,1.1816751956939697,-0.13595862686634064
1667824817773179100,5.70617919921875,1.144519329071045,1.204361081123352,-0.0922742709517479
1667824817783187000,5.71618701171875,0.9358265399932861,1.1762375831604004,-0.02845214679837227
1667824817793194000,5.726194091796875,0.7460494041442871,1.11405348777771,0.07280789315700531
1667824817803201800,5.736201904296875,0.5903128385543823,1.0005261898040771,0.23905092477798462
1667824817813210000,5.746210205078125,0.4804307818412781,0.8094196319580078,0.49850618839263916
1667824817823217000,5.756216796875,0.42627328634262085,0.5410810708999634,0.8447924852371216
1667824817833225000,5.766224853515625,0.4009743332862854,0.20238426327705383,1.2425090074539185
1667824817843232000,5.77623193359375,0.37227049469947815,-0.2001597285270691,1.622348666191101
1667824817853240000,5.786239990234375,0.28471270203590393,-0.630537748336792,1.9350498914718628
1667824817863248000,5.796247802734375,0.15440981090068817,-1.0421521663665771,2.143557071685791
1667824817873255000,5.8062548828125,-0.007733287289738655,-1.3770036697387695,2.25162410736084
1667824817883263000,5.816262939453125,-0.18189683556556702,-1.6464152336120605,2.262099504470825
1667824817893271000,5.82627099609375,-0.363053560256958,-1.8141828775405884,2.1973962783813477
1667824817903277800,5.83627783203125,-0.5286563634872437,-1.8766872882843018,2.064173698425293
1667824817913286000,5.846285888671875,-0.6564257740974426,-1.8220528364181519,1.865845799446106
1667824817923294000,5.8562939453125,-0.7384389042854309,-1.6814868450164795,1.6043497323989868
1667824817933301000,5.866301025390625,-0.7834018468856812,-1.4789910316467285,1.2795202732086182
1667824817943309000,5.87630908203125,-0.7845091819763184,-1.2386330366134644,0.9050955176353455
1667824817953316000,5.886316162109375,-0.7519288659095764,-0.9695615768432617,0.5066719651222229
1667824817963324200,5.89632421875,-0.7040103673934937,-0.6857477426528931,0.10949693620204926
1667824817973332000,5.90633203125,-0.6675884127616882,-0.4202324450016022,-0.24617116153240204
1667824817983339000,5.916339111328125,-0.6526361107826233,-0.1923300325870514,-0.5368384122848511
1667824817993346800,5.926346923828125,-0.6547703742980957,-0.013341105543076992,-0.7424999475479126
1667824818003355100,5.936355224609375,-0.6559637188911438,0.12437468022108078,-0.8631944060325623
1667824818013362000,5.94636181640625,-0.6553674340248108,0.21086031198501587,-0.9083746671676636
1667824818023370000,5.956369873046875,-0.655045747756958,0.2421702891588211,-0.8864094614982605
1667824818033377800,5.966377685546875,-0.6582857370376587,0.2153482586145401,-0.8257282972335815
1667824818043385000,5.976385009765625,-0.6561576128005981,0.1460842341184616,-0.7358910441398621
1667824818053393000,5.986392822265625,-0.6424351334571838,0.060389574617147446,-0.6388683915138245
1667824818063401000,5.99640087890625,-0.6090721487998962,-0.02040460705757141,-0.538947343826294
1667824818073408000,6.006407958984375,-0.5572906732559204,-0.11969950050115585,-0.43754538893699646
1667824818083416000,6.016416015625,-0.504943311214447,-0.23590973019599915,-0.338136225938797
1667824818093422800,6.0264228515625,-0.47334039211273193,-0.3477103114128113,-0.2584512531757355
1667824818103431000,6.036430908203125,-0.4596930146217346,-0.4482933580875397,-0.19353005290031433
1667824818113441800,6.04644189453125,-0.4659983217716217,-0.5216408371925354,-0.15419861674308777
1667824818123448800,6.05644873046875,-0.4890589118003845,-0.5754941701889038,-0.14686188101768494
1667824818133456600,6.06645654296875,-0.527583658695221,-0.606940507888794,-0.17434144020080566
1667824818143464700,6.076464599609375,-0.5792987942695618,-0.6141752600669861,-0.2366037517786026
1667824818153471700,6.0864716796875,-0.6335457563400269,-0.5907636880874634,-0.32209575176239014
1667824818163479800,6.096479736328125,-0.6723349690437317,-0.5399585962295532,-0.42562374472618103
1667824818173487600,6.106487548828125,-0.6874915957450867,-0.4600975513458252,-0.5366389155387878
1667824818183495000,6.116494873046875,-0.6951828002929688,-0.3700672686100006,-0.6502874493598938
1667824818193502700,6.126502685546875,-0.7006579637527466,-0.2759149372577667,-0.7524564266204834
1667824818203510800,6.1365107421875,-0.71019446849823,-0.1843607872724533,-0.8368456363677979
1667824818213517600,6.146517578125,-0.7301753759384155,-0.08303602784872055,-0.8837042450904846
1667824818223526000,6.15652587890625,-0.7615498304367065,0.023494407534599304,-0.9039378762245178
1667824818233532700,6.16653271484375,-0.8019111156463623,0.12758272886276245,-0.892424464225769
1667824818243540700,6.176540771484375,-0.8430342674255371,0.21443000435829163,-0.8624151945114136
1667824818253548800,6.186548828125,-0.8950018882751465,0.2812018394470215,-0.8208445906639099
1667824818263555800,6.196555908203125,-0.977755069732666,0.3124721646308899,-0.7840226292610168
1667824818273564000,6.20656396484375,-1.1005483865737915,0.32451122999191284,-0.7478750348091125
1667824818283571700,6.21657177734375,-1.252871036529541,0.32090771198272705,-0.7230260968208313
1667824818293578800,6.226578857421875,-1.425700068473816,0.28128573298454285,-0.7052679061889648
1667824818303586800,6.2365869140625,-1.614129900932312,0.22166341543197632,-0.7082517147064209
1667824818313595000,6.246594970703125,-1.7957398891448975,0.1448514610528946,-0.7444598078727722
1667824818323601700,6.2566015625,-1.9464253187179565,0.06946642696857452,-0.8109418749809265
1667824818333609700,6.266609619140625,-2.041055679321289,-0.000833036785479635,-0.9050803780555725
1667824818343616800,6.27661669921875,-2.075784206390381,-0.05957011878490448,-1.0013676881790161
1667824818353624800,6.286624755859375,-2.054593801498413,-0.11498837172985077,-1.081826090812683
1667824818363632600,6.296632568359375,-1.9725488424301147,-0.178519144654274,-1.1212233304977417
1667824818373640000,6.306639892578125,-1.8671691417694092,-0.23872815072536469,-1.0900284051895142
1667824818383647700,6.316647705078125,-1.7330938577651978,-0.2769376039505005,-0.9553709626197815
1667824818393655800,6.32665576171875,-1.5480315685272217,-0.2923261225223541,-0.7120355367660522
1667824818403662600,6.33666259765625,-1.3256611824035645,-0.3230944275856018,-0.4196412265300751
1667824818413670700,6.346670654296875,-1.0648292303085327,-0.3861868381500244,-0.12556511163711548
1667824818423678700,6.3566787109375,-0.7943834066390991,-0.46461933851242065,0.13950011134147644
1667824818433685800,6.366685791015625,-0.530500590801239,-0.5317426919937134,0.37502288818359375
1667824818443693600,6.376693603515625,-0.3124588429927826,-0.5738353133201599,0.5860751867294312
1667824818453700900,6.386700927734375,-0.15653447806835175,-0.592129647731781,0.7651341557502747
1667824818463708700,6.396708740234375,-0.05092523247003555,-0.5769549608230591,0.9129968881607056
1667824818473716700,6.406716796875,0.00589650496840477,-0.5305208563804626,1.0119974613189697
1667824818483723500,6.4167236328125,0.03329057991504669,-0.4525397717952728,1.0617831945419312
1667824818493731800,6.42673193359375,0.049370214343070984,-0.32697492837905884,1.0557366609573364
1667824818503740000,6.436739990234375,0.07477384060621262,-0.18147312104701996,1.0010579824447632
1667824818513746700,6.44674658203125,0.13905109465122223,-0.03272226080298424,0.9182701706886292
1667824818523754800,6.456754638671875,0.2486468255519867,0.09914468973875046,0.821753740310669
1667824818533762800,6.4667626953125,0.4051874279975891,0.22638413310050964,0.7277873158454895
1667824818543769900,6.476769775390625,0.6073101758956909,0.329132616519928,0.6548771858215332
1667824818553777700,6.486777587890625,0.8211710453033447,0.4010635316371918,0.6118250489234924
1667824818563785700,6.49678564453125,1.0290619134902954,0.43451762199401855,0.5994253754615784
1667824818573792800,6.506792724609375,1.1984213590621948,0.42060741782188416,0.6073019504547119
1667824818583800800,6.51680078125,1.323760986328125,0.38663291931152344,0.6255736351013184
1667824818593807600,6.5268076171875,1.4161531925201416,0.3391042947769165,0.6500040888786316
1667824818603815700,6.536815673828125,1.480888843536377,0.2928102910518646,0.6694028377532959
1667824818613823700,6.54682373046875,1.5277063846588135,0.25869280099868774,0.6609430313110352
1667824818623830800,6.556830810546875,1.5720887184143066,0.2454449087381363,0.6305462718009949
1667824818633838600,6.566838623046875,1.622641682624817,0.25193023681640625,0.5798665881156921
1667824818643846700,6.5768466796875,1.6752997636795044,0.2764531672000885,0.49786198139190674
1667824818653853700,6.586853759765625,1.7150131464004517,0.31324952840805054,0.3848041296005249
1667824818663861800,6.59686181640625,1.7442359924316406,0.35974618792533875,0.23959368467330933
1667824818673869800,6.606869873046875,1.763406753540039,0.4204058051109314,0.0652029737830162
1667824818683876900,6.616876953125,1.7711213827133179,0.4765540361404419,-0.12195733189582825
1667824818693885000,6.626885009765625,1.7700518369674683,0.5363768935203552,-0.294239342212677
1667824818703891700,6.6368916015625,1.7508012056350708,0.5864267349243164,-0.4518497586250305
1667824818713899800,6.646899658203125,1.7214806079864502,0.6296346783638,-0.5709716081619263
1667824818723907600,6.656907470703125,1.6832621097564697,0.673128068447113,-0.6715748906135559
1667824818733915000,6.666914794921875,1.6490815877914429,0.7221797704696655,-0.7494428157806396
1667824818743922700,6.676922607421875,1.6177723407745361,0.7789801955223083,-0.8018269538879395
1667824818753930800,6.6869306640625,1.589522123336792,0.850429117679596,-0.8487648963928223
1667824818763937800,6.696937744140625,1.5624401569366455,0.9355484843254089,-0.8699545860290527
1667824818773945900,6.70694580078125,1.5583913326263428,1.0555747747421265,-0.8703293204307556
1667824818783953700,6.71695361328125,1.5794258117675781,1.1937358379364014,-0.8442681431770325
1667824818793960700,6.726960693359375,1.6243245601654053,1.3388067483901978,-0.7909529805183411
1667824818803968800,6.73696875,1.6651071310043335,1.4679231643676758,-0.7224538326263428
1667824818813976800,6.746976806640625,1.6610106229782104,1.557860016822815,-0.649446427822113
1667824818823983600,6.756983642578125,1.5679877996444702,1.6057229042053223,-0.5945424437522888
1667824818833991700,6.76699169921875,1.3800452947616577,1.619590163230896,-0.5518855452537537
1667824818843998700,6.776998779296875,1.1146905422210693,1.614036202430725,-0.5190447568893433
1667824818854006800,6.7870068359375,0.8128156661987305,1.621571660041809,-0.473969429731369
1667824818864014800,6.797014892578125,0.5416403412818909,1.6176303625106812,-0.38170528411865234
1667824818874022000,6.80702197265625,0.35538631677627563,1.5875145196914673,-0.22104769945144653
1667824818884030000,6.817030029296875,0.26200070977211,1.4694310426712036,0.0274990014731884
1667824818894037800,6.827037841796875,0.26146170496940613,1.250610589981079,0.3603866696357727
1667824818904044800,6.837044921875,0.3102835714817047,0.9094873666763306,0.7517882585525513
1667824818914052600,6.847052490234375,0.4042513370513916,0.4587646424770355,1.1443967819213867
1667824818924061000,6.85706103515625,0.4594690501689911,-0.04960297420620918,1.5206668376922607
1667824818934067700,6.867067626953125,0.43348991870880127,-0.6093475222587585,1.878536343574524
1667824818944075800,6.87707568359375,0.32196393609046936,-1.1426329612731934,2.1896369457244873
1667824818954082800,6.887082763671875,0.14989708364009857,-1.6246587038040161,2.432095527648926
1667824818964091000,6.8970908203125,-0.041549306362867355,-1.987779140472412,2.5870859622955322
1667824818974098700,6.9070986328125,-0.20531746745109558,-2.2460126876831055,2.6410040855407715
1667824818984105700,6.917105712890625,-0.3192182183265686,-2.4141499996185303,2.6007139682769775
1667824818994113800,6.92711376953125,-0.3837311565876007,-2.490640878677368,2.452188491821289
1667824819004121900,6.937121826171875,-0.41446590423583984,-2.478703022003174,2.207810640335083
1667824819014128600,6.947128662109375,-0.4199674427509308,-2.3650879859924316,1.8843414783477783
1667824819024136700,6.95713671875,-0.4079238474369049,-2.1632983684539795,1.5044188499450684
1667824819034144500,6.96714453125,-0.3824014365673065,-1.8802207708358765,1.071016550064087
1667824819044151800,6.97715185546875,-0.35164299607276917,-1.548379898071289,0.6264239549636841
1667824819054159600,6.98715966796875,-0.3314250707626343,-1.2097978591918945,0.2012455016374588
1667824819064167700,6.997167724609375,-0.3343563973903656,-0.8955060243606567,-0.14832955598831177
1667824819074174700,7.0071748046875,-0.3537261188030243,-0.6126916408538818,-0.4099390506744385
1667824819084182800,7.017182861328125,-0.38973233103752136,-0.3784133493900299,-0.5903021693229675
1667824819094189600,7.027189453125,-0.4411078989505768,-0.19826515018939972,-0.6929968595504761
1667824819104197600,7.03719775390625,-0.49877065420150757,-0.06509458273649216,-0.7221502065658569
1667824819114202600,7.04720263671875,-0.5461434721946716,0.024762338027358055,-0.6893547177314758
1667824819124209700,7.057209716796875,-0.5937738418579102,0.08496948331594467,-0.6241344213485718
1667824819134217700,7.0672177734375,-0.6318972706794739,0.12121084332466125,-0.5367153882980347
1667824819144225500,7.0772255859375,-0.6569400429725647,0.10324942320585251,-0.42924216389656067
1667824819154232800,7.08723291015625,-0.6648752093315125,0.03976179286837578,-0.32274848222732544
1667824819164240600,7.09724072265625,-0.6697810292243958,-0.042222555726766586,-0.2378719449043274
1667824819174248700,7.107248779296875,-0.6781252026557922,-0.12394857406616211,-0.18555867671966553
1667824819184255500,7.11725537109375,-0.6946030259132385,-0.2071763575077057,-0.16072550415992737
1667824819194263800,7.127263916015625,-0.7236783504486084,-0.2961781322956085,-0.16175907850265503
1667824819204270600,7.1372705078125,-0.7625263929367065,-0.39553242921829224,-0.18883942067623138
1667824819214278700,7.147278564453125,-0.8095613121986389,-0.47841423749923706,-0.23748552799224854
1667824819224286700,7.15728662109375,-0.863876461982727,-0.5255300998687744,-0.32395997643470764
1667824819234293800,7.167293701171875,-0.9236559271812439,-0.5342170596122742,-0.44805848598480225
1667824819244301800,7.1773017578125,-0.967957079410553,-0.5041976571083069,-0.5940212607383728
1667824819254309600,7.1873095703125,-0.9997128248214722,-0.4440155327320099,-0.7568727731704712
1667824819264316700,7.197316650390625,-1.0160353183746338,-0.35161101818084717,-0.9128461480140686
1667824819274324700,7.20732470703125,-1.024432897567749,-0.23662292957305908,-1.057229995727539
1667824819284332800,7.217332763671875,-1.0293461084365845,-0.11679931730031967,-1.1737147569656372
1667824819294339600,7.227339599609375,-1.043195128440857,0.011392204090952873,-1.2746330499649048
1667824819304347600,7.23734765625,-1.0711910724639893,0.14028626680374146,-1.357248306274414
1667824819314354700,7.247354736328125,-1.1105424165725708,0.2740563154220581,-1.4191678762435913
1667824819324362800,7.25736279296875,-1.1762397289276123,0.4053405821323395,-1.4812507629394531
1667824819334370600,7.26737060546875,-1.2699693441390991,0.5166212916374207,-1.5397087335586548
1667824819344377900,7.2773779296875,-1.393110990524292,0.6045599579811096,-1.5878762006759644
1667824819354385700,7.2873857421875,-1.535286784172058,0.6693804860115051,-1.6124186515808105
1667824819364393700,7.297393798828125,-1.6816189289093018,0.694275975227356,-1.6201878786087036
1667824819374400500,7.307400390625,-1.8064898252487183,0.6795191168785095,-1.6099226474761963
1667824819384408800,7.317408935546875,-1.9081306457519531,0.6281195878982544,-1.5956395864486694
1667824819394417000,7.3274169921875,-1.9669737815856934,0.5702760219573975,-1.5835165977478027
1667824819404423700,7.337423583984375,-1.9798616170883179,0.511519730091095,-1.5626640319824219
1667824819414431700,7.347431640625,-1.9342291355133057,0.4663964807987213,-1.5215177536010742
1667824819424439600,7.357439453125,-1.8137128353118896,0.40668919682502747,-1.4337596893310547
1667824819434446800,7.36744677734375,-1.6323879957199097,0.3276268541812897,-1.2960296869277954
1667824819444454700,7.37745458984375,-1.4067200422286987,0.1941244751214981,-1.1041921377182007
1667824819454461700,7.387461669921875,-1.1819654703140259,0.013734720647335052,-0.851028323173523
1667824819464469800,7.3974697265625,-0.9781675934791565,-0.1810837686061859,-0.5488860011100769
1667824819474477800,7.407477783203125,-0.8057841062545776,-0.3497212529182434,-0.22014781832695007
1667824819484484600,7.417484619140625,-0.6705331206321716,-0.48566415905952454,0.10591737926006317
1667824819494492700,7.42749267578125,-0.5670375823974609,-0.5772145986557007,0.42255496978759766
1667824819504500700,7.437500732421875,-0.49065548181533813,-0.6273382306098938,0.7110349535942078
1667824819514507800,7.4475078125,-0.42948320508003235,-0.6456836462020874,0.954519510269165
1667824819524515600,7.457515625,-0.3714049756526947,-0.6280383467674255,1.1175345182418823
1667824819534523600,7.467523681640625,-0.30764225125312805,-0.5618910193443298,1.1961390972137451
1667824819544530700,7.47753076171875,-0.22486932575702667,-0.45949968695640564,1.1906678676605225
1667824819554538800,7.487538818359375,-0.1218862235546112,-0.3184157907962799,1.138628363609314
1667824819564545500,7.497545654296875,0.021100757643580437,-0.15303614735603333,1.0395641326904297
1667824819574553900,7.507553955078125,0.21124885976314545,0.022974824532866478,0.9248409867286682
1667824819584562000,7.51756201171875,0.44616416096687317,0.18043261766433716,0.8069990277290344
1667824819594568700,7.527568603515625,0.7107060551643372,0.319974809885025,0.7057773470878601
1667824819604576800,7.53757666015625,0.9733214378356934,0.4133897125720978,0.6347061395645142
1667824819614584600,7.54758447265625,1.2000166177749634,0.45680004358291626,0.6071360111236572
1667824819624592000,7.557591796875,1.3622792959213257,0.4633263647556305,0.6298199892044067
1667824819634599700,7.567599609375,1.4625017642974854,0.44279658794403076,0.6863954067230225
1667824819644607700,7.577607666015625,1.524603009223938,0.40120282769203186,0.7527928352355957
1667824819654614800,7.58761474609375,1.5476305484771729,0.34499040246009827,0.8076707124710083
1667824819664622800,7.597622802734375,1.560232400894165,0.30446696281433105,0.8333574533462524
1667824819674629600,7.607629638671875,1.5933197736740112,0.2914273142814636,0.8135040998458862
1667824819684637700,7.6176376953125,1.6618950366973877,0.2980748414993286,0.7411295175552368
1667824819694645800,7.627645751953125,1.756513237953186,0.32341426610946655,0.630541980266571
1667824819704652800,7.63765283203125,1.8642268180847168,0.3616569936275482,0.4873936176300049
1667824819714660600,7.64766064453125,1.9786120653152466,0.40973344445228577,0.3248571753501892
1667824819724668700,7.657668701171875,2.0782759189605713,0.43949267268180847,0.16180887818336487
1667824819734675700,7.66767578125,2.147516965866089,0.4369400441646576,0.013621269725263119
1667824819744683800,7.677683837890625,2.174262762069702,0.41116490960121155,-0.1138799637556076
1667824819754691600,7.687691650390625,2.163998603820801,0.3904111683368683,-0.22061066329479218
1667824819764698600,7.69769873046875,2.133190155029297,0.3813324272632599,-0.32591792941093445
1667824819774706700,7.707706787109375,2.0943291187286377,0.3911754786968231,-0.4235411584377289
1667824819784714800,7.71771484375,2.0778229236602783,0.4311700463294983,-0.5024527311325073
1667824819794721500,7.727721435546875,2.102330446243286,0.5043624639511108,-0.5524581074714661
1667824819804729600,7.7377294921875,2.154205322265625,0.584143877029419,-0.5601293444633484
1667824819814736600,7.747736572265625,2.2068567276000977,0.6651915907859802,-0.5340405106544495
1667824819824744700,7.75774462890625,2.2305080890655518,0.7461642026901245,-0.48322898149490356
1667824819834752800,7.767752685546875,2.2234721183776855,0.831610381603241,-0.40919044613838196
1667824819844759800,7.777759765625,2.1941115856170654,0.9183511734008789,-0.31660643219947815
1667824819854767900,7.787767822265625,2.1090054512023926,0.9752317667007446,-0.2183813452720642
1667824819864775700,7.797775634765625,1.9493292570114136,1.020870566368103,-0.1250750869512558
1667824819874782700,7.80778271484375,1.744218111038208,1.064428687095642,-0.0394749715924263
1667824819884790800,7.817790771484375,1.4929255247116089,1.121362566947937,0.04526654630899429
1667824819894798800,7.827798828125,1.2057796716690063,1.1550941467285156,0.13770939409732819
1667824819904805600,7.8378056640625,0.9213951230049133,1.1296242475509644,0.22270578145980835
1667824819914813700,7.847813720703125,0.656846821308136,1.061428189277649,0.3029012680053711
1667824819924821500,7.857821533203125,0.4179069697856903,0.9757204055786133,0.41366639733314514
1667824819934828800,7.867828857421875,0.2531052231788635,0.8524030447006226,0.6109840273857117
1667824819944836600,7.877836669921875,0.20816278457641602,0.6639817357063293,0.8844025135040283
1667824819954843600,7.88784375,0.24848437309265137,0.35366591811180115,1.194936990737915
1667824819964851700,7.897851806640625,0.3215343654155731,-0.08003251999616623,1.497939109802246
1667824819974859800,7.90785986328125,0.33927446603775024,-0.552911639213562,1.7611223459243774
1667824819984866600,7.917866455078125,0.29002249240875244,-0.9620254039764404,1.9736974239349365
1667824819994874600,7.92787451171875,0.17859557271003723,-1.3182317018508911,2.1271588802337646
1667824820004882700,7.937882568359375,-0.002915096003562212,-1.5934832096099854,2.2139906883239746
1667824820014889700,7.9478896484375,-0.2092815786600113,-1.773721694946289,2.233175277709961
1667824820024897800,7.957897705078125,-0.4161101281642914,-1.8384634256362915,2.1653594970703125
1667824820034905600,7.967905517578125,-0.5944012999534607,-1.7928158044815063,2.01002836227417
1667824820044913000,7.977912841796875,-0.725064754486084,-1.6406166553497314,1.7612788677215576
1667824820054920700,7.987920654296875,-0.7896664142608643,-1.408447027206421,1.4251091480255127
1667824820064928800,7.9979287109375,-0.7840540409088135,-1.1431879997253418,1.0236213207244873
1667824820074935600,8.007935546875,-0.7233926057815552,-0.8650391697883606,0.5745943188667297
1667824820084944000,8.01794384765625,-0.6352453827857971,-0.5885178446769714,0.1284804791212082
1667824820094950700,8.02795068359375,-0.5509342551231384,-0.34865066409111023,-0.2663126587867737
1667824820104958700,8.037958740234375,-0.5020900368690491,-0.17461414635181427,-0.5696203112602234
1667824820114969900,8.047969970703125,-0.48425057530403137,-0.056768473237752914,-0.7655024528503418
1667824820124977000,8.057976806640625,-0.49192845821380615,0.0062158177606761456,-0.866572916507721
1667824820134985000,8.06798486328125,-0.521313488483429,0.009586314670741558,-0.889955997467041
1667824820144993000,8.077992919921876,-0.5610119104385376,-0.03476383909583092,-0.8569762110710144
1667824820155000000,8.088,-0.6075764894485474,-0.10705827921628952,-0.7793956398963928
1667824820165008100,8.098008056640625,-0.6425544619560242,-0.17993009090423584,-0.692099928855896
1667824820175016000,8.108015869140624,-0.650642991065979,-0.2686495780944824,-0.6021135449409485
1667824820185023000,8.11802294921875,-0.6323465704917908,-0.36201998591423035,-0.5236552357673645
1667824820195031000,8.128031005859375,-0.5936183333396912,-0.44134438037872314,-0.47704991698265076
1667824820205038000,8.1380380859375,-0.5393207669258118,-0.4993640184402466,-0.4614880084991455
1667824820215046000,8.1480458984375,-0.4744866192340851,-0.5311419367790222,-0.4650081694126129
1667824820225054000,8.158053955078126,-0.422637015581131,-0.5494285225868225,-0.46717092394828796
1667824820235061000,8.16806103515625,-0.3884843587875366,-0.554489016532898,-0.46599751710891724
1667824820245069000,8.178069091796875,-0.3731062114238739,-0.5564097166061401,-0.4591068625450134
1667824820255076900,8.188076904296874,-0.3799358904361725,-0.5640788078308105,-0.44431060552597046
1667824820265084000,8.198083984375,-0.40276795625686646,-0.5776193737983704,-0.4413614273071289
1667824820275092000,8.208092041015625,-0.44856980443000793,-0.5918548107147217,-0.4462320804595947
1667824820285100000,8.21810009765625,-0.5112321376800537,-0.6059072017669678,-0.4571307897567749
1667824820295106800,8.22810693359375,-0.5976040363311768,-0.5930244326591492,-0.48054239153862
1667824820305115000,8.238114990234376,-0.6839109659194946,-0.5341627597808838,-0.5174788236618042
1667824820315123200,8.248123291015625,-0.7671701312065125,-0.4432847499847412,-0.5697563886642456
1667824820325130000,8.2581298828125,-0.8409969806671143,-0.33200857043266296,-0.6323739886283875
1667824820335137800,8.2681376953125,-0.9048079252243042,-0.20815825462341309,-0.7002087235450745
1667824820345145000,8.27814501953125,-0.972960889339447,-0.07802875339984894,-0.7606683373451233
1667824820355153000,8.28815283203125,-1.0431045293807983,0.04689214006066322,-0.8038796782493591
1667824820365161000,8.298160888671875,-1.0954198837280273,0.13516074419021606,-0.8233527541160583
1667824820375167700,8.308167724609374,-1.1603009700775146,0.1856263279914856,-0.8316482305526733
1667824820385176000,8.318176025390626,-1.275648593902588,0.1983485072851181,-0.8324620723724365
1667824820395184000,8.32818408203125,-1.4570037126541138,0.17055416107177734,-0.8256385326385498
1667824820405191000,8.33819091796875,-1.6801888942718506,0.10377512872219086,-0.8094092011451721
1667824820415199000,8.348198974609375,-1.92739999294281,0.0028075044974684715,-0.8054022192955017
1667824820425206800,8.358206787109374,-2.1811811923980713,-0.11460407823324203,-0.835483968257904
1667824820435214000,8.368214111328125,-2.4150443077087402,-0.22081759572029114,-0.9112719297409058
1667824820445222000,8.378221923828125,-2.5863230228424072,-0.28249719738960266,-1.050840973854065
1667824820455229000,8.38822900390625,-2.662259340286255,-0.29031333327293396,-1.2171077728271484
1667824820465237000,8.398237060546874,-2.6496520042419434,-0.2624302804470062,-1.3776947259902954
1667824820475245000,8.4082451171875,-2.5318443775177,-0.23845544457435608,-1.5021629333496094
1667824820485251800,8.418251953125,-2.3359405994415283,-0.2519241273403168,-1.564514398574829
1667824820495260000,8.428260009765625,-2.1095805168151855,-0.2810066342353821,-1.5542794466018677
1667824820505268000,8.43826806640625,-1.8768103122711182,-0.32273542881011963,-1.4577288627624512
1667824820515275000,8.44827490234375,-1.6514972448349,-0.38776877522468567,-1.2672921419143677
1667824820525282800,8.45828271484375,-1.4504081010818481,-0.454653263092041,-1.0131216049194336
1667824820535291000,8.468290771484375,-1.2784970998764038,-0.49923163652420044,-0.7226445078849792
1667824820545298000,8.4782978515625,-1.1215543746948242,-0.5119333267211914,-0.44485044479370117
1667824820555306000,8.488305908203126,-0.982157289981842,-0.4885518252849579,-0.20115521550178528
1667824820565314000,8.49831396484375,-0.8460540771484375,-0.43140679597854614,-0.0024413196370005608
1667824820575320800,8.50832080078125,-0.6934115290641785,-0.3242012560367584,0.15270325541496277
1667824820585329200,8.5183291015625,-0.5154907703399658,-0.18524202704429626,0.28451988101005554
1667824820595336000,8.5283359375,-0.30758044123649597,-0.03618143871426582,0.380759596824646
1667824820605344000,8.538343994140625,-0.08890563994646072,0.132065087556839,0.4513852894306183
1667824820615351800,8.548351806640625,0.11769600957632065,0.3009347915649414,0.49647819995880127
1667824820625359000,8.558359130859374,0.29188990592956543,0.45574143528938293,0.5184319615364075
1667824820635367000,8.568366943359376,0.4376388490200043,0.5952644348144531,0.5294595956802368
1667824820645375000,8.578375,0.5650274157524109,0.7138089537620544,0.5359976291656494
1667824820655382000,8.588382080078125,0.6838827133178711,0.7812572121620178,0.5559535026550293
1667824820665390000,8.59839013671875,0.8019425272941589,0.8058187365531921,0.5740067958831787
1667824820675398000,8.60839794921875,0.918724536895752,0.8032519817352295,0.6054576635360718
1667824820685405000,8.618405029296875,1.0364679098129272,0.7781344056129456,0.6393991112709045
1667824820695413000,8.6284130859375,1.1597858667373657,0.7286315560340881,0.6810837388038635
1667824820705421000,8.638421142578125,1.2809280157089233,0.6703778505325317,0.7230641841888428
1667824820715427800,8.648427734375,1.3953222036361694,0.6021588444709778,0.7476012706756592
1667824820725436000,8.658435791015625,1.5065268278121948,0.535645604133606,0.7574543952941895
1667824820735443000,8.66844287109375,1.6112403869628906,0.4583723545074463,0.7497149705886841
1667824820745451000,8.678450927734374,1.7131071090698242,0.3860915005207062,0.7090586423873901
1667824820755459000,8.688458984375,1.8126219511032104,0.3308863043785095,0.6347580552101135
1667824820765465900,8.6984658203125,1.9077277183532715,0.2789011299610138,0.5420222282409668
1667824820775474200,8.70847412109375,1.9932279586791992,0.2243923544883728,0.4322483539581299
1667824820785482000,8.71848193359375,2.0749857425689697,0.16095666587352753,0.31452226638793945
1667824820795489000,8.728489013671876,2.1329236030578613,0.10625346750020981,0.18170908093452454
1667824820805496800,8.738496826171875,2.152799367904663,0.06003563851118088,0.02528485096991062
1667824820815505200,8.748505126953125,2.135509490966797,0.04171761870384216,-0.14510633051395416
1667824820825512000,8.758511962890625,2.1030921936035156,0.0695338025689125,-0.33119097352027893
1667824820835520000,8.76852001953125,2.089040517807007,0.13953472673892975,-0.5215162038803101
1667824820845527000,8.778527099609375,2.101797580718994,0.2617828845977783,-0.7094964981079102
1667824820855535000,8.78853515625,2.1662590503692627,0.42817291617393494,-0.881583034992218
1667824820865543000,8.79854296875,2.2447712421417236,0.6227815747261047,-1.0384069681167603
1667824820875550000,8.808550048828126,2.324676275253296,0.8383069038391113,-1.1438050270080566
1667824820885558000,8.81855810546875,2.3793013095855713,1.0712828636169434,-1.2057265043258667
1667824820895566000,8.828566162109375,2.4361231327056885,1.3198847770690918,-1.189648151397705
1667824820905572900,8.83857275390625,2.49385142326355,1.5484201908111572,-1.100745439529419
1667824820915581000,8.848580810546874,2.5310544967651367,1.7287441492080688,-0.9602176547050476
1667824820925588700,8.858588623046876,2.5092217922210693,1.8485280275344849,-0.7952446341514587
1667824820935596000,8.868595947265625,2.398848295211792,1.9336315393447876,-0.6154618263244629
1667824820945603800,8.878603759765625,2.2131450176239014,2.0064079761505127,-0.4118618667125702
1667824820955612000,8.88861181640625,1.9917283058166504,2.0590591430664062,-0.160941481590271
1667824820965619000,8.898618896484376,1.766383409500122,2.09358549118042,0.16199369728565216
1667824820975627000,8.908626953125,1.580567717552185,2.0597479343414307,0.5726110339164734
1667824820985633800,8.9186337890625,1.4408553838729858,1.9563919305801392,1.0594578981399536
1667824820995641900,8.928641845703124,1.3259921073913574,1.7633596658706665,1.5883539915084839
1667824821005650000,8.93864990234375,1.223265290260315,1.4757614135742188,2.1244542598724365
1667824821015657000,8.948656982421875,1.1421126127243042,1.0620425939559937,2.654324769973755
1667824821025665000,8.9586650390625,1.0284355878829956,0.5890872478485107,3.1356582641601562
1667824821035672800,8.9686728515625,0.856036365032196,0.02907452918589115,3.5135319232940674
1667824821045680000,8.97868017578125,0.7300944328308105,-0.5302913188934326,3.773155450820923
1667824821055688000,8.98868798828125,0.6615055203437805,-1.0384773015975952,3.897035598754883
1667824821065696000,8.998696044921875,0.658785343170166,-1.4571914672851562,3.846456289291382
1667824821075702800,9.008702880859374,0.6586354374885559,-1.7815322875976562,3.6593596935272217
1667824821085711000,9.018711181640626,0.6586955785751343,-2.0065689086914062,3.3862407207489014
1667824821095719000,9.028718994140625,0.6622368097305298,-2.0992884635925293,3.04034423828125
1667824821105726000,9.038725830078125,0.6648064851760864,-2.103684425354004,2.6312668323516846
1667824821115730200,9.048730224609375,0.6424322128295898,-2.004636287689209,2.2011473178863525
1667824821125737500,9.058737548828125,0.5835015177726746,-1.872571349143982,1.7969543933868408
1667824821135745300,9.068745361328125,0.48743757605552673,-1.6927342414855957,1.3828802108764648
1667824821145753300,9.07875341796875,0.37661120295524597,-1.4814757108688354,0.9774174094200134
1667824821155760400,9.088760498046875,0.2440909594297409,-1.2605007886886597,0.5896787047386169
1667824821165768400,9.0987685546875,0.09651322662830353,-1.035300374031067,0.25506770610809326
1667824821175776300,9.1087763671875,-0.05312766507267952,-0.8227492570877075,-0.04670971632003784
1667824821185783300,9.118783203125,-0.18393228948116302,-0.6106671094894409,-0.29103371500968933
1667824821195791400,9.128791259765626,-0.29769933223724365,-0.4303058385848999,-0.47503337264060974
1667824821205799400,9.13879931640625,-0.3780551552772522,-0.2926023006439209,-0.5933924913406372
1667824821215806200,9.14880615234375,-0.43817228078842163,-0.2065579742193222,-0.6487982273101807
1667824821225814300,9.158814208984374,-0.4911321699619293,-0.15905143320560455,-0.6712803840637207
1667824821235821300,9.1688212890625,-0.5273823142051697,-0.157094806432724,-0.666113555431366
1667824821245829400,9.178829345703125,-0.5529329776763916,-0.19012093544006348,-0.6457494497299194
1667824821255837400,9.18883740234375,-0.5734124183654785,-0.2301996499300003,-0.6206598281860352
1667824821265844200,9.19884423828125,-0.5804306268692017,-0.2829025387763977,-0.5961017608642578
1667824821275852500,9.2088525390625,-0.5890355706214905,-0.33733755350112915,-0.5807307958602905
1667824821285860400,9.2188603515625,-0.6075842380523682,-0.3832224905490875,-0.5820242762565613
1667824821295867400,9.228867431640625,-0.6463425159454346,-0.42328760027885437,-0.5984897613525391
1667824821305875200,9.238875244140624,-0.7063347697257996,-0.45077648758888245,-0.6385059356689453
1667824821315883500,9.248883544921876,-0.7797259092330933,-0.4620291590690613,-0.6976773738861084
1667824821325890300,9.258890380859375,-0.8596295118331909,-0.46444171667099,-0.7690210342407227
1667824821335898400,9.2688984375,-0.929261326789856,-0.4656859338283539,-0.830258309841156
1667824821345905400,9.278905517578124,-0.9940000772476196,-0.47386929392814636,-0.89549320936203
1667824821355913500,9.28891357421875,-1.0582046508789062,-0.4752117991447449,-0.9806957244873047
1667824821365921300,9.29892138671875,-1.1294440031051636,-0.4801492989063263,-1.0708264112472534
1667824821375928300,9.30892822265625,-1.2100391387939453,-0.47051212191581726,-1.1689151525497437
1667824821385936400,9.318936279296874,-1.2860114574432373,-0.4477175772190094,-1.2676063776016235
1667824821395944400,9.3289443359375,-1.3573859930038452,-0.42722004652023315,-1.3777326345443726
1667824821405951200,9.338951171875,-1.4213807582855225,-0.40130001306533813,-1.4858944416046143
1667824821415959300,9.348959228515625,-1.4890106916427612,-0.37437838315963745,-1.595426082611084
1667824821425967400,9.35896728515625,-1.5548458099365234,-0.3286135792732239,-1.6929783821105957
1667824821435974400,9.368974365234376,-1.614196538925171,-0.25659316778182983,-1.7604703903198242
1667824821445982500,9.378982421875,-1.6652053594589233,-0.18213970959186554,-1.768693208694458
1667824821455990300,9.388990234375,-1.7196699380874634,-0.11604351550340652,-1.7169982194900513
1667824821465997300,9.398997314453124,-1.7976797819137573,-0.0757935643196106,-1.6153062582015991
1667824821476005400,9.40900537109375,-1.9115937948226929,-0.06270332634449005,-1.4857364892959595
1667824821486012200,9.41901220703125,-2.059452533721924,-0.08575005829334259,-1.3531042337417603
1667824821496020200,9.429020263671875,-2.250919818878174,-0.1524217575788498,-1.235136866569519
1667824821506028300,9.4390283203125,-2.476583242416382,-0.2567604184150696,-1.1707963943481445
1667824821516035300,9.449035400390626,-2.720205545425415,-0.3653300404548645,-1.1926727294921875
1667824821526043400,9.45904345703125,-2.9414260387420654,-0.4101582169532776,-1.3180253505706787
1667824821536051200,9.46905126953125,-3.093069553375244,-0.3902716040611267,-1.5321991443634033
1667824821546058500,9.47905859375,-3.150209665298462,-0.290986031293869,-1.7706178426742554
1667824821556066300,9.48906640625,-3.082730293273926,-0.17419736087322235,-1.996462345123291
1667824821566074400,9.499074462890626,-2.9065237045288086,-0.05631120875477791,-2.164196491241455
1667824821576081200,9.5090810546875,-2.6571147441864014,0.008509865030646324,-2.244259834289551
1667824821586089500,9.51908935546875,-2.3685152530670166,-0.008174306713044643,-2.237501859664917
1667824821596096300,9.52909619140625,-2.087298631668091,-0.1014414057135582,-2.1404201984405518
1667824821606104300,9.539104248046876,-1.8334356546401978,-0.24030475318431854,-1.9523208141326904
1667824821616112000,9.549112060546875,-1.6020642518997192,-0.37305107712745667,-1.6809990406036377
1667824821626119400,9.559119384765625,-1.3854773044586182,-0.45768314599990845,-1.353363037109375
1667824821636127200,9.569127197265624,-1.1722843647003174,-0.49764519929885864,-0.9822771549224854
1667824821646135300,9.57913525390625,-0.9615958333015442,-0.47810426354408264,-0.5729554295539856
1667824821656142300,9.589142333984375,-0.7459591627120972,-0.43604734539985657,-0.13737517595291138
1667824821666150400,9.599150390625,-0.5630614757537842,-0.38564276695251465,0.2916478216648102
1667824821676158500,9.609158447265624,-0.4274858236312866,-0.30228689312934875,0.6864521503448486
1667824821686165200,9.619165283203126,-0.3486200273036957,-0.19618628919124603,1.001366376876831
1667824821696173300,9.62917333984375,-0.3225322365760803,-0.07112717628479004,1.206459403038025
1667824821706181400,9.639181396484375,-0.32754963636398315,0.08275826275348663,1.312790870666504
1667824821716188400,9.6491884765625,-0.3315747380256653,0.24478258192539215,1.3306050300598145
1667824821726196200,9.6591962890625,-0.3193553686141968,0.4125593304634094,1.2751281261444092
1667824821736203500,9.66920361328125,-0.2952643930912018,0.5559612512588501,1.1669201850891113
1667824821746211300,9.67921142578125,-0.2545659840106964,0.6498011946678162,1.0379925966262817
1667824821756219400,9.689219482421874,-0.18608438968658447,0.6994483470916748,0.9058026075363159
1667824821766226200,9.69922607421875,-0.08876609057188034,0.7129343152046204,0.7754552364349365
1667824821776234500,9.709234375,0.03157603368163109,0.6983413100242615,0.6701341271400452
1667824821786242300,9.7192421875,0.16102111339569092,0.6468464136123657,0.5989028215408325
1667824821796249300,9.729249267578124,0.29881972074508667,0.5568872094154358,0.5518788695335388
1667824821806257200,9.739257080078126,0.4137044847011566,0.42569804191589355,0.5163224935531616
1667824821816265500,9.749265380859375,0.5092397928237915,0.25672847032546997,0.4839794635772705
1667824821826272300,9.759272216796875,0.5661718249320984,0.0673028752207756,0.4146355390548706
1667824821836280300,9.7692802734375,0.5797635316848755,-0.1101326271891594,0.31305885314941406
1667824821846287400,9.779287353515626,0.560680091381073,-0.27227839827537537,0.1673692911863327
1667824821856295400,9.78929541015625,0.5036780834197998,-0.369254469871521,-0.03008253499865532
1667824821866303500,9.799303466796875,0.42900168895721436,-0.39740169048309326,-0.2610076367855072
1667824821876310300,9.809310302734374,0.35114631056785583,-0.3815945088863373,-0.5101473927497864
1667824821886318300,9.819318359375,0.29056525230407715,-0.335298627614975,-0.7543507814407349
1667824821896326400,9.829326416015626,0.2543950080871582,-0.260988712310791,-0.9803863167762756
1667824821906333400,9.83933349609375,0.22031505405902863,-0.1737414300441742,-1.1847599744796753
1667824821916341200,9.84934130859375,0.17798544466495514,-0.07910733669996262,-1.3734328746795654
1667824821926349300,9.859349365234374,0.14373134076595306,0.03611219674348831,-1.5524349212646484
1667824821936356400,9.8693564453125,0.1293867528438568,0.17995351552963257,-1.7203186750411987
1667824821946364400,9.879364501953125,0.14450125396251678,0.33458465337753296,-1.8743010759353638
1667824821956372200,9.889372314453125,0.1902516931295395,0.4937386214733124,-2.0118203163146973
1667824821966379500,9.899379638671874,0.26184359192848206,0.6338043808937073,-2.115070104598999
1667824821976387300,9.90938720703125,0.36415666341781616,0.7382439374923706,-2.170546293258667
1667824821986394400,9.919394287109375,0.49200382828712463,0.795522153377533,-2.1773455142974854
1667824821996402200,9.929402099609375,0.6060718297958374,0.8173877596855164,-2.1289429664611816
1667824822006410200,9.93941015625,0.6864446997642517,0.8161296844482422,-2.0427327156066895
1667824822016417300,9.949417236328125,0.7271322011947632,0.8098078966140747,-1.9267216920852661
1667824822026425300,9.95942529296875,0.7321431636810303,0.7846274375915527,-1.7924128770828247
1667824822036433200,9.96943310546875,0.7035022377967834,0.7423779964447021,-1.6511995792388916
1667824822046440400,9.9794404296875,0.6217655539512634,0.6934197545051575,-1.5142065286636353
1667824822056448300,9.9894482421875,0.5108163952827454,0.6442450284957886,-1.3845207691192627
1667824822066456300,9.999456298828125,0.40898457169532776,0.6013593673706055,-1.2405555248260498
1667824822076463000,10.009463134765625,0.32484865188598633,0.538404107093811,-1.0543841123580933
1667824822086471400,10.019471435546874,0.2573889195919037,0.44689226150512695,-0.8266087174415588
1667824822096479500,10.0294794921875,0.20686502754688263,0.3562803566455841,-0.5545990467071533
1667824822106486300,10.039486328125,0.18170295655727386,0.2730637490749359,-0.2525970935821533
1667824822116494600,10.04949462890625,0.1748623549938202,0.18008242547512054,0.09211288392543793
1667824822126502000,10.059501953125,0.17936842143535614,0.0681002214550972,0.48664528131484985
1667824822136509700,10.069509765625,0.1627846509218216,-0.058149322867393494,0.9493455290794373
1667824822146517800,10.079517822265625,0.10689608752727509,-0.20065107941627502,1.4717413187026978
1667824822156524500,10.089524658203125,-0.012901417911052704,-0.32997605204582214,1.983284831047058
1667824822166532900,10.099532958984375,-0.1740410327911377,-0.4555656611919403,2.41190242767334
1667824822176540700,10.109540771484374,-0.3034786581993103,-0.5509124398231506,2.705399751663208
1667824822186547700,10.119547607421875,-0.38145068287849426,-0.5802263617515564,2.8600010871887207
1667824822196555500,10.129555419921875,-0.48700639605522156,-0.6169095635414124,2.883319616317749
1667824822206563600,10.1395634765625,-0.6367189288139343,-0.6401075124740601,2.818516731262207
1667824822216570600,10.149570556640626,-0.7614912390708923,-0.6059615612030029,2.628333806991577
1667824822226578700,10.15957861328125,-0.8116087317466736,-0.5495321154594421,2.2891812324523926
1667824822236585700,10.169585693359375,-0.8201233744621277,-0.4851840138435364,1.8612412214279175
1667824822246593800,10.17959375,-0.8134409785270691,-0.4425284266471863,1.3948074579238892
1667824822256601900,10.189601806640624,-0.8091490268707275,-0.41337132453918457,0.9094713926315308
1667824822266608600,10.199608642578125,-0.8284899592399597,-0.37354376912117004,0.44724833965301514
1667824822276616700,10.20961669921875,-0.8823369741439819,-0.30445975065231323,0.025900306180119514
1667824822286624800,10.219624755859375,-0.9539232850074768,-0.1857094168663025,-0.3305627405643463
1667824822296631800,10.2296318359375,-1.046955943107605,0.017139039933681488,-0.6414061188697815
1667824822306639600,10.2396396484375,-1.1458847522735596,0.35100650787353516,-0.9223485589027405
1667824822316647700,10.249647705078125,-1.2337647676467896,0.8150402307510376,-1.206378698348999
1667824822326654700,10.25965478515625,-1.3044469356536865,1.3830664157867432,-1.506531834602356
1667824822336662800,10.269662841796874,-1.3771378993988037,2.000330924987793,-1.8136060237884521
1667824822346670600,10.279670654296876,-1.4557114839553833,2.5878093242645264,-2.128814697265625
1667824822356678000,10.289677978515625,-1.5471676588058472,3.171407699584961,-2.443512439727783
1667824822366685700,10.299685791015625,-1.6874984502792358,3.771266460418701,-2.7393665313720703
1667824822376692700,10.309692626953124,-1.8838673830032349,4.35940408706665,-2.9818203449249268
1667824822386700500,10.319700439453126,-2.0982394218444824,4.936853885650635,-3.1099770069122314
1667824822396708600,10.32970849609375,-2.2771894931793213,5.462088108062744,-3.037489175796509
1667824822406715600,10.339715576171875,-2.460212230682373,5.82391357421875,-2.8948259353637695
1667824822416723700,10.3497236328125,-2.649681806564331,6.223485946655273,-2.627864360809326
1667824822426731800,10.359731689453126,-2.8145599365234375,6.43402624130249,-2.340724229812622
1667824822436738800,10.36973876953125,-2.9632866382598877,6.444530010223389,-2.0354721546173096
1667824822446747000,10.379746826171875,-3.1051042079925537,6.345932483673096,-1.7353203296661377
1667824822456754700,10.389754638671874,-3.1888716220855713,6.1333112716674805,-1.470224380493164
1667824822466761700,10.39976171875,-3.2084975242614746,5.837521553039551,-1.2624305486679077
1667824822476769800,10.409769775390625,-3.16243577003479,5.458550930023193,-1.0838011503219604
1667824822486776800,10.41977685546875,-3.103374719619751,5.08355188369751,-0.9808712601661682
1667824822496784600,10.42978466796875,-3.0733511447906494,4.8461151123046875,-0.8988112807273865
1667824822506792700,10.439792724609376,-3.061861515045166,4.663762092590332,-0.8172966837882996
1667824822516799700,10.4497998046875,-3.046386241912842,4.469785690307617,-0.7243286967277527
1667824822526807800,10.459807861328125,-3.015080213546753,4.3140997886657715,-0.6158298850059509
1667824822536815600,10.469815673828125,-2.9944210052490234,4.235812187194824,-0.46782419085502625
1667824822546823000,10.479822998046876,-2.964979887008667,4.200608253479004,-0.2765735387802124
1667824822556830700,10.489830810546875,-2.911278009414673,4.151120662689209,-0.061949919909238815
1667824822566838800,10.4998388671875,-2.8258814811706543,4.123169898986816,0.16588696837425232
1667824822576845600,10.509845458984374,-2.7145047187805176,4.112298488616943,0.3842182457447052
1667824822586853600,10.519853515625,-2.583786964416504,4.043354511260986,0.5601986050605774
1667824822596861700,10.52986181640625,-2.4491307735443115,3.8721978664398193,0.686428427696228
1667824822606868700,10.53986865234375,-2.3351593017578125,3.6036322116851807,0.7690141201019287
1667824822616876500,10.54987646484375,-2.2472972869873047,3.280902624130249,0.8319688439369202
1667824822626884600,10.559884521484374,-2.228076219558716,2.962998390197754,0.8936684131622314
1667824822636891600,10.5698916015625,-2.2910380363464355,2.721687078475952,0.9756274819374084
1667824822646899700,10.579899658203125,-2.397012233734131,2.6034367084503174,1.0951706171035767
1667824822656906500,10.589906494140624,-2.5093541145324707,2.5146238803863525,1.198926329612732
1667824822666914800,10.599914794921874,-2.5758817195892334,2.4750566482543945,1.2881231307983398
1667824822676923000,10.6099228515625,-2.580294370651245,2.4715628623962402,1.3503409624099731
1667824822686929700,10.6199296875,-2.536290407180786,2.516310214996338,1.3146641254425049
1667824822696937700,10.629937744140625,-2.4462172985076904,2.3587491512298584,1.1409016847610474
1667824822706945500,10.639945556640624,-2.339489459991455,2.0601046085357666,0.835114061832428
1667824822716952800,10.649952880859376,-2.206873655319214,1.6622066497802734,0.47791677713394165
1667824822726960600,10.659960693359375,-2.07192063331604,1.3815594911575317,0.16680710017681122
1667824822736967700,10.6699677734375,-1.9460737705230713,1.2702513933181763,-0.02064003050327301
1667824822746975700,10.679975830078124,-1.7985725402832031,1.3122313022613525,-0.10064591467380524
1667824822756983800,10.68998388671875,-1.6256113052368164,1.4232279062271118,-0.16489280760288239
1667824822766990600,10.699990478515625,-1.439863920211792,1.5335829257965088,-0.26086780428886414
1667824822776998700,10.70999853515625,-1.2849328517913818,1.5764224529266357,-0.3953199088573456
1667824822787006700,10.7200068359375,-1.2841147184371948,1.6093631982803345,-0.5335845351219177
1667824822797013800,10.730013671875,-1.44548499584198,1.5497757196426392,-0.6393187046051025
1667824822807021600,10.740021484375,-1.6816540956497192,1.322497844696045,-0.6636192798614502
1667824822817029600,10.750029541015625,-1.9494496583938599,1.2674026489257812,-0.6025050282478333
1667824822827036700,10.76003662109375,-2.138946056365967,1.4989969730377197,-0.4366726577281952
1667824822837044700,10.770044677734376,-2.367094039916992,2.3962481021881104,0.025531725957989693
1667824822847051500,10.780051513671875,-2.5668447017669678,3.212688684463501,0.6166179180145264
1667824822857059800,10.790059814453125,-2.6196887493133545,3.636077404022217,1.1742926836013794
1667824822867068000,10.80006787109375,-2.4817681312561035,3.5714619159698486,1.6118459701538086
1667824822877074700,10.81007470703125,-2.1692757606506348,2.7397665977478027,1.7327085733413696
1667824822887082800,10.820082763671875,-1.8096879720687866,1.5352261066436768,1.4191111326217651
1667824822897090600,10.830090576171875,-1.4653370380401611,0.24448351562023163,0.8261658549308777
1667824822907097900,10.840097900390624,-1.1821388006210327,-0.6650432348251343,0.41673970222473145
1667824822917105700,10.850105712890626,-1.0329227447509766,-0.8676480054855347,0.3611656427383423
1667824822927113700,10.86011376953125,-1.0488966703414917,-0.8419620990753174,0.4445148706436157
1667824822937120800,10.870120849609375,-1.1627368927001953,-0.8376048803329468,0.42729246616363525
1667824822947128800,10.88012890625,-1.262066125869751,-0.8302777409553528,0.20721390843391418
1667824822957136600,10.89013671875,-1.3619778156280518,-0.7913926839828491,-0.0942964106798172
1667824822967143700,10.900143798828125,-1.513037085533142,-0.6381634473800659,-0.3629944324493408
1667824822977151700,10.91015185546875,-1.7402132749557495,-0.45323726534843445,-0.6171327233314514
1667824822987158800,10.92015869140625,-1.9468761682510376,-0.42801952362060547,-0.8970546722412109
1667824822997166600,10.93016650390625,-2.022221088409424,-0.6721310019493103,-1.2506260871887207
1667824823007174700,10.940174560546875,-2.0555806159973145,-1.0850416421890259,-1.6433768272399902
1667824823017181700,10.950181640625,-2.1096365451812744,-1.466396450996399,-1.9296343326568604
1667824823027189800,10.960189697265625,-2.2549407482147217,-1.458337426185608,-1.986065149307251
1667824823037197800,10.97019775390625,-2.3539960384368896,-1.144461989402771,-1.708709716796875
1667824823047204600,10.98020458984375,-2.224848747253418,-0.9318629503250122,-1.2609316110610962
1667824823057213000,10.990212890625,-1.8908473253250122,-1.1138801574707031,-0.7913918495178223
1667824823067220700,11.000220703125,-1.5950422286987305,-1.5809967517852783,-0.3339678645133972
1667824823077227800,11.010227783203124,-1.4606237411499023,-2.0787136554718018,0.053998518735170364
1667824823087235600,11.020235595703125,-1.4616714715957642,-2.4873733520507812,0.3552433252334595
1667824823097242600,11.03024267578125,-1.5319035053253174,-2.556039333343506,0.5848192572593689
1667824823107250700,11.040250732421875,-1.6194194555282593,-2.1119887828826904,0.7745295166969299
1667824823117257700,11.0502578125,-1.7306303977966309,-1.4975532293319702,0.9309406876564026
1667824823127264800,11.0602646484375,-1.8859186172485352,-0.6874502897262573,0.9972305297851562
1667824823137272800,11.07027294921875,-1.985845685005188,0.07577572017908096,0.9588791131973267
1667824823147281000,11.080281005859375,-1.9618929624557495,0.5899285078048706,0.8814985752105713
1667824823157288000,11.090287841796876,-1.8831760883331299,0.8956660628318787,0.7850450277328491
1667824823167296000,11.1002958984375,-1.8180418014526367,0.9928275346755981,0.6402649283409119
1667824823177303800,11.1103037109375,-1.8223280906677246,0.9578157067298889,0.3984837234020233
1667824823187310800,11.120310791015624,-1.8692234754562378,0.8299616575241089,0.13928039371967316
1667824823197319000,11.13031884765625,-1.911035418510437,0.48943787813186646,-0.135125070810318
1667824823207327000,11.140326904296876,-1.865039348602295,0.053828079253435135,-0.37121161818504333
1667824823217333800,11.150333740234375,-1.670159935951233,-0.26814889907836914,-0.4886743426322937
1667824823227341800,11.160341796875,-1.3835768699645996,-0.4164819121360779,-0.4965178966522217
1667824823237348900,11.170348876953126,-1.093246579170227,-0.47298991680145264,-0.4567750096321106
1667824823247357000,11.18035693359375,-0.8588478565216064,-0.49353861808776855,-0.3788341283798218
1667824823257364700,11.19036474609375,-0.6791974306106567,-0.5642614960670471,-0.2739071846008301
1667824823267371800,11.200371826171875,-0.570618212223053,-0.6799185872077942,-0.15991376340389252
1667824823277379800,11.2103798828125,-0.5290489196777344,-0.8181172013282776,-0.0230557844042778
1667824823287388000,11.220387939453126,-0.545507550239563,-0.9524443745613098,0.1302453577518463
1667824823297394700,11.230394775390625,-0.585186779499054,-1.0302257537841797,0.28672176599502563
1667824823307402800,11.24040283203125,-0.5984221696853638,-1.0425399541854858,0.4751090109348297
1667824823317411000,11.2504111328125,-0.5913514494895935,-0.9877957105636597,0.6792056560516357
1667824823327417900,11.26041796875,-0.5860504508018494,-0.8763472437858582,0.8421255946159363
1667824823337426000,11.270426025390625,-0.5938233733177185,-0.6775611639022827,0.9620421528816223
1667824823347433000,11.280432861328125,-0.6199631094932556,-0.44490474462509155,1.0106089115142822
1667824823357441000,11.29044091796875,-0.6466690301895142,-0.21151810884475708,0.9980846047401428
1667824823367448800,11.30044873046875,-0.6761001348495483,0.008358597755432129,0.9385517835617065
1667824823377455900,11.310455810546875,-0.6956677436828613,0.1711706817150116,0.8152095675468445
1667824823387464000,11.3204638671875,-0.7182308435440063,0.2844650149345398,0.6434809565544128
1667824823397472000,11.330471923828124,-0.7468646168708801,0.39452865719795227,0.4869310259819031
1667824823407478800,11.340478759765626,-0.7503552436828613,0.5456681251525879,0.38275590538978577
1667824823417486800,11.35048681640625,-0.7517877221107483,0.8247069716453552,0.45024386048316956
1667824823427494700,11.36049462890625,-0.779671311378479,0.6514821648597717,0.41865450143814087
1667824823437502000,11.370501953125,-0.7905181050300598,0.0565173365175724,0.27692535519599915
1667824823447509800,11.380509765625,-0.7601380944252014,-0.33041760325431824,0.1829298734664917
1667824823457517800,11.390517822265625,-0.7738762497901917,-0.5356897711753845,0.06942833960056305
1667824823467524900,11.40052490234375,-0.8346261382102966,-0.5605498552322388,-0.08509811758995056
1667824823477533000,11.410532958984374,-0.8982746601104736,-0.45590895414352417,-0.22704966366291046
1667824823487539700,11.420539794921876,-0.968411386013031,-0.3239485025405884,-0.2670753598213196
