time,seconds_elapsed,z,y,x
1667824863907249700,0.019249755859375,0.09884031345844269,0.30838556569218634,-0.4931563690882176
1667824863917257700,0.0292578125,0.18222937528491018,0.11970686813741922,-0.5433582507796585
1667824863927265500,0.039265625,0.20833529192209244,-0.02613660403639078,-0.584212604541704
1667824863937272800,0.04927294921875,0.15615560735166073,-0.1410349028483033,-0.5553673991337418
1667824863947280600,0.05928076171875,0.1247854865759611,-0.1660144458040595,-0.46959436478018757
1667824863957288700,0.069288818359375,0.13913491444587706,-0.2045174871996045,-0.43281062145791943
1667824863967295700,0.079295654296875,0.12011632572114467,-0.262130302734673,-0.31732838527821
1667824863977303800,0.0893037109375,0.08433248015642165,-0.2403214987695217,-0.1334426941536367
1667824863987311600,0.0993115234375,0.0608504822820425,-0.17839637299329042,0.029600334624201058
1667824863997318700,0.109318603515625,-0.03853460557758808,-0.19610417138040065,0.12657879973351954
1667824864007326700,0.11932666015625,0.00428688353896141,-0.2331695811882615,0.26514208830390124
1667824864017333800,0.129333740234375,0.10291910720467567,-0.20977935325056313,0.3870310862533748
1667824864027341600,0.139341552734375,0.24926293011605738,-0.11020371125489473,0.7287445557255298
1667824864037349600,0.149349609375,-0.008926818299293518,-0.12634732906520366,0.8670606280691922
1667824864047356700,0.159356689453125,-0.3776981713712215,0.08169716321676969,0.27002390552870925
1667824864057364700,0.16936474609375,-0.2680839504420757,0.3686854283541441,0.3166902335051447
1667824864067372800,0.179372802734375,0.5708247882455587,0.2358463991820812,0.33699243229962883
1667824864077379600,0.189379638671875,0.7996592628389596,-0.25392829157859087,-0.26613508139662445
1667824864087388000,0.199387939453125,-0.5637053116291761,-0.43082858079522846,-0.4324117583334446
1667824864097395700,0.209395751953125,-1.0077344425201415,-0.3226709884151816,0.006980433471873402
1667824864107402800,0.21940283203125,-0.7243062079519033,0.19693273115903137,1.0327160313025117
1667824864117410600,0.22941064453125,-1.5496411793172358,1.132939031291008,2.1525657177872954
1667824864127419000,0.2394189453125,-1.632915674853325,1.4791197823703288,1.804736468848586
1667824864137425700,0.24942578125,-1.4016606951147317,1.5541045884668827,1.2932086498327553
1667824864147434500,0.2594345703125,-0.8116174116581678,1.3291834879249333,1.0153471094809472
1667824864157441500,0.269441650390625,-0.05119301162064075,0.6799453804388642,0.7983991067100316
1667824864167449600,0.27944970703125,0.6708510966181754,0.11246113479286432,0.713834425232932
1667824864177457700,0.289457763671875,1.5317606547117233,-0.6133130998849868,0.46207376001700756
1667824864187464400,0.29946435546875,2.616931388133764,-1.651399426048994,-0.36810178324729204
1667824864197472500,0.309472412109375,3.445291260278225,-1.9694398320540785,-0.9132339118316769
1667824864207480600,0.31948046875,3.4696418576806782,-1.3323656250923872,-0.2954829756297171
1667824864217487600,0.329487548828125,2.9227614241242406,-0.15708324359059334,0.5960796410113572
1667824864227495700,0.33949560546875,-1.786419890913367,0.5007283387124538,0.8293681724041699
1667824864237503500,0.34950341796875,-3.352043652260303,0.9836901345878839,1.124484798939526
1667824864247510800,0.3595107421875,-0.6631365767180919,1.1878045939445494,1.2113637487083673
1667824864257518600,0.3695185546875,-0.4389765236765146,0.6403121659696102,0.4804628186665475
1667824864267525600,0.379525634765625,0.050800212910771365,0.17956980068683623,0.15766937291547656
1667824864277533400,0.389533447265625,0.0015378770917654036,0.30001521223187444,0.45560310269817705
1667824864287541500,0.39954150390625,-0.22238895171582698,0.7931278152436018,0.8615826350495219
1667824864297548500,0.409548583984375,-0.4142985940158367,1.111944174057245,0.5875462059438228
1667824864307556600,0.419556640625,-0.4577233097225427,0.9114385528475045,-0.11387158611267804
1667824864317564400,0.429564453125,-0.06949439198672772,0.5781149452537298,-0.40612843930274245
1667824864327571700,0.43957177734375,0.4225754239737987,0.5333563505947589,-0.42317865056395526
1667824864337579500,0.44957958984375,0.6773048028022051,1.0106564674466847,-0.6959659563913941
1667824864347587600,0.459587646484375,0.8298872278422117,1.2506436196953057,-0.9732035196259617
1667824864357594400,0.469594482421875,0.8242121048152447,1.2083493693232537,-1.037810431832075
1667824864367602700,0.479602783203125,0.47071489324271676,1.2875959245175121,-1.0842629709273577
1667824864377610800,0.48961083984375,0.0993494320243597,1.320742991837859,-1.2747048787623643
1667824864387617500,0.499617431640625,-0.225001764562726,1.4574211607813834,-1.2077914431795478
1667824864397625600,0.50962548828125,-0.7705863130897284,1.5076695850282906,-1.1138310107171534
1667824864407632600,0.519632568359375,-1.394597332599759,1.547552098083496,-1.1286813738465309
1667824864417640700,0.529640625,-2.0623276668488977,1.856917322462797,-0.9056465254426002
1667824864427648500,0.5396484375,-2.5054835220366716,2.1441151386976243,-0.6217921744167805
1667824864437655600,0.549655517578125,-2.567514738535881,2.0276748711407184,-0.6151514212280511
1667824864447663600,0.55966357421875,-2.518960843247175,1.6809312254816293,-0.7785118453919887
1667824864457671700,0.569671630859375,-2.5648142474055287,1.3965560654520988,-0.9334498936474322
1667824864467678500,0.579678466796875,-2.5310072548717257,1.2389257093727588,-0.9527350243538617
1667824864477686500,0.5896865234375,-2.4086714995354415,1.0169558598518371,-1.0486106427878141
1667824864487694600,0.599694580078125,-2.313090480133891,0.6277315013378858,-1.2223048294395207
1667824864497701600,0.60970166015625,-2.365994971847534,0.4804547814905643,-1.2328671399861573
1667824864507709400,0.61970947265625,-2.3668448666751383,0.521901475122571,-0.8931149606496095
1667824864517716700,0.629716796875,-2.2433751388728616,0.4044511537402868,-0.5172895974129438
1667824864527724500,0.639724609375,-2.070787452158332,0.1269289283454418,-0.36322599390447136
1667824864537732600,0.649732666015625,-1.8590017275214195,-0.08869067536592483,-0.2413058336317539
1667824864547739400,0.659739501953125,-1.5958125633835791,-0.17471534639298913,-0.013597148197889328
1667824864557747700,0.669747802734375,-1.5214672242343426,-0.16393968535661696,0.270185306635499
1667824864567755500,0.679755615234375,-1.4877496635496616,-0.23563597130179403,0.41425241678655145
1667824864577762600,0.689762451171875,-1.4432359835624693,-0.4598328492224216,0.39488077684044837
1667824864587770400,0.699770263671875,-1.2770412127554416,-0.586866991508007,0.5343909543395042
1667824864597778400,0.7097783203125,-1.1524813516288994,-0.5172516034901142,0.6901338892370462
1667824864607785500,0.719785400390625,-1.057376133045554,-0.4544774596691131,0.8304127130210399
1667824864617793500,0.72979345703125,-1.0579524716287851,-0.5009346749395132,0.8269377303868531
1667824864627800600,0.739800537109375,-0.980446622622013,-0.5729600467085838,0.8024404179900884
1667824864637808600,0.74980859375,-0.6600239976555109,-0.6852846956402063,0.6840753198504448
1667824864647816700,0.759816650390625,-0.3025087826132774,-0.8532873926520347,0.5255149894446134
1667824864657823500,0.769823486328125,0.03923310923576355,-0.9728747260630131,0.44047640684545036
1667824864667831600,0.77983154296875,0.3273883723258972,-1.0320482150435446,0.34745968497395513
1667824864677839600,0.789839599609375,0.5663982039749622,-1.1134914034992456,0.21927724943608043
1667824864687846700,0.7998466796875,0.7823691053420305,-1.2440607341736554,0.07590893520414829
1667824864697854500,0.8098544921875,1.052788220733404,-1.4197709368228912,-0.09149959530681372
1667824864707862500,0.819862548828125,1.3448305543899535,-1.5631760759338735,-0.17398703211843966
1667824864717869600,0.82986962890625,1.6329221045941114,-1.4715990314766765,-0.1327177408799529
1667824864727877600,0.839877685546875,1.801433335649967,-1.3561159185141325,-0.12307634457051753
1667824864737885400,0.849885498046875,2.0047025763541457,-1.304759825286269,-0.3273930485010147
1667824864747892700,0.859892822265625,2.273731698691845,-1.1878291438639164,-0.6260574306458234
1667824864757900500,0.869900634765625,2.487436408692598,-0.9442834223508835,-0.8719859556421637
1667824864767907600,0.879907470703125,2.5857699416726825,-0.5382216185435652,-0.7569225293964147
1667824864777915400,0.889915283203125,2.5580373006165025,-0.07780190934389829,-0.6329492359861731
1667824864787923500,0.89992333984375,2.5269109254688025,0.03406593573093414,-1.034427511395514
1667824864797930500,0.909930419921875,2.692356339213252,-0.02897650363743305,-1.2846829596802591
1667824864807938600,0.9199384765625,2.779769249728322,-0.11311609157025813,-1.467912744179368
1667824864817946600,0.929946533203125,2.7092987061858174,-0.22223639150261879,-1.6205194268777965
1667824864827953700,0.93995361328125,2.5258330671042204,-0.3099392248749733,-1.613605117444694
1667824864837961700,0.949961669921875,2.210182478845119,-0.4756237080723047,-1.5280115313112734
1667824864847969500,0.959969482421875,1.7651228358626365,-0.7341530637055635,-1.5089093559563158
1667824864857976600,0.9699765625,1.2733102095335722,-0.9817962836652994,-1.4470707394197582
1667824864867984600,0.979984619140625,0.8489584235370159,-1.1618991683155298,-1.2291677009463309
1667824864877991700,0.98999169921875,0.5130483065813779,-1.2224638193935156,-0.9510483864411711
1667824864887999500,0.99999951171875,0.28635084401667116,-1.2699334265768527,-0.7189572481393813
1667824864898007600,1.010007568359375,0.15770868201255797,-1.3813620034515857,-0.6354770008981228
1667824864908014600,1.0200146484375,0.1191430967748165,-1.5080594611287117,-0.6699933107450604
1667824864918022700,1.030022705078125,0.10029635748565197,-1.558684317472577,-0.671307023692131
1667824864928030500,1.040030517578125,0.06371990023851394,-1.6060323441028594,-0.6748071407675743
1667824864938037800,1.050037841796875,0.05999415771365165,-1.6441402487009762,-0.7045254026830196
1667824864948045600,1.060045654296875,-0.07156944469511509,-1.6554413949161766,-0.7328980952084064
1667824864958053600,1.0700537109375,-0.03229658797085285,-1.5364064346909523,-0.6044567164734006
1667824864968060400,1.080060302734375,0.10270575671494006,-1.2478992894232273,-0.41514001327604055
1667824864978068500,1.090068359375,0.24500001197457313,-1.0247072046309709,-0.36452655510902404
1667824864988076500,1.10007666015625,0.44236441254913805,-0.97247023691535,-0.430193497762084
1667824864998083600,1.11008349609375,0.5857575689613819,-0.9740858554184436,-0.5046154092788696
1667824865008091400,1.12009130859375,0.6098509767323732,-0.9576169511765241,-0.5503589233219623
1667824865018098700,1.1300986328125,0.6348094769001007,-0.9520295064330101,-0.5610621036440133
1667824865028106500,1.1401064453125,0.7197720716536045,-0.8856675672531127,-0.551883356410265
1667824865038114600,1.150114501953125,0.7837491615235805,-0.6277326703816652,-0.40146892305910586
1667824865048121300,1.160121337890625,0.7401134334146976,-0.3851525790303945,-0.314219970934093
1667824865058129700,1.170129638671875,0.6430640950262546,-0.35842999179959295,-0.33367636655420063
1667824865068137700,1.1801376953125,0.5990525193423032,-0.44776305672228334,-0.15250380684584378
1667824865078144500,1.19014453125,0.4817331308633089,-0.4960650230765342,0.24654227298051118
1667824865088152600,1.200152587890625,0.22402736657261846,-0.5300730911403894,0.6101090431466698
1667824865098160400,1.210160400390625,-0.0842874719709158,-0.5364490559130907,0.8869163982704281
1667824865108167700,1.220167724609375,-0.5156225409835576,-0.4246148208469152,1.132118362557888
1667824865118175500,1.230175537109375,-1.4715572381615638,-0.20123276644051075,1.452436942628026
1667824865128182500,1.2401826171875,-2.023468067100644,-0.00016600421667099,2.197963341002166
1667824865138190600,1.250190673828125,-2.0022130976259707,0.4627940371155739,2.6533745743900536
1667824865148197000,1.260197021484375,-1.6757050152659416,0.8844599450290203,2.492065822058916
1667824865158204200,1.2702041015625,-0.9312094212442636,1.1148510014146567,2.169494494625926
1667824865168212200,1.280212158203125,-0.05133329687416553,1.324872054466605,1.8109680567145348
1667824865178220300,1.29022021484375,0.6627478696614504,1.4332389056831598,1.4811805142924188
1667824865188227000,1.30022705078125,1.2079992407113314,1.4156559027194977,1.1601727829143405
1667824865198235400,1.3102353515625,1.6451204919099807,1.4004641788065433,0.8221563413292169
1667824865208243200,1.3202431640625,2.1528730301707983,1.3942203159809112,0.5781652141362428
1667824865218250200,1.330250244140625,2.9507646988153455,1.259147828668356,0.36378012065589427
1667824865228258000,1.340258056640625,3.1491420758247375,1.202141746854782,0.10232874009609222
1667824865238266000,1.35026611328125,2.7302374493181705,1.3905273066818713,0.32791678011417386
1667824865248273200,1.360273193359375,2.0175760864526033,1.5046563746869563,0.6086679044276475
1667824865258281200,1.37028125,1.173588437065482,1.4514461780250072,0.7452315070807933
1667824865268288300,1.380288330078125,0.39533962652385235,1.3772966537088156,0.8164750808224082
1667824865278296300,1.39029638671875,-0.5729769978433847,1.4531886377781629,0.95210432523489
1667824865288304000,1.40030419921875,-1.6148814209908247,1.7195798128277062,1.561260013179481
1667824865298311200,1.410311279296875,-2.1809517081856726,2.0090444049507377,1.9905822810649871
1667824865308319000,1.420319091796875,-2.2131799070954323,1.966775873541832,1.6844968090087173
1667824865318327300,1.430327392578125,-1.7908359537899494,1.6434072582513093,1.1738920961871742
1667824865328334000,1.440333984375,-1.0282108288377523,1.4203051898300647,0.7940867234036326
1667824865338342100,1.450342041015625,-0.15929858155250548,1.324204530468583,0.42561055388599633
1667824865348350200,1.46035009765625,0.6235007319003343,1.3344114517062902,-0.055713119393587106
1667824865358357200,1.470357177734375,1.2495347816705702,1.3836819708317518,-0.5753124550536275
1667824865368365300,1.480365234375,1.7180162167727946,1.3098936810433863,-0.9873182619571685
1667824865378372000,1.4903720703125,1.9798738400459288,1.1778753206044434,-1.2491405216559768
1667824865388380400,1.50038037109375,2.0079688846737147,1.085647703284025,-1.367877667978406
1667824865398388200,1.51038818359375,1.9401094004124402,0.9804255798339843,-1.4274787347212432
1667824865408395300,1.520395263671875,1.8034055125057695,0.7813187195062636,-1.465357214477658
1667824865418403000,1.530403076171875,1.5274644188225268,0.45818917366862294,-1.5648656364560127
1667824865428411100,1.5404111328125,1.3648895920783282,0.19352000010609627,-1.464031811092794
1667824865438418200,1.550418212890625,1.065781557819247,0.17196750898957253,-1.1865680378869174
1667824865448426200,1.56042626953125,0.5944289511948824,0.2164914181098342,-0.902677738764882
1667824865458434000,1.57043408203125,0.12804770324230194,0.1283127839192748,-0.7728910829007625
1667824865468441300,1.58044140625,-0.19141572130322454,-0.008428805649280547,-0.771340346327424
1667824865478449200,1.59044921875,-0.32014030089378354,-0.1979305100247264,-0.8958341564804315
1667824865488457200,1.600457275390625,-0.26087913362979887,-0.41867023322880265,-1.005982338155806
1667824865498464000,1.610464111328125,-0.09246727129518985,-0.5303109915494919,-0.969431892132759
1667824865508472300,1.620472412109375,0.09654255791008472,-0.6228565887778997,-0.9413651968166231
1667824865518479000,1.63047900390625,0.2956038255304098,-0.718389092862606,-0.9179796450540423
1667824865528487200,1.640487060546875,0.4817892449647188,-0.8017945213019847,-0.946119405606389
1667824865538495200,1.6504951171875,0.6195593007981777,-0.8770128438934683,-0.9537836566239595
1667824865548502300,1.660502197265625,0.573612373137474,-0.9696867436766624,-0.9653484222114086
1667824865558510300,1.67051025390625,0.35637305926978585,-1.1562427499890326,-1.0575275242149829
1667824865568518100,1.68051806640625,0.16913316234648226,-1.3134949204057453,-1.0769988251432776
1667824865578525200,1.690525146484375,0.03002747399508953,-1.2803574976965784,-0.9873539177924394
1667824865588533200,1.700533203125,-0.05122048414945602,-1.1586866360098123,-0.787353323495388
1667824865598541300,1.710541259765625,-0.2537964818924665,-1.0354562699213623,-0.5525441584065556
1667824865608548000,1.720548095703125,-0.7823118221968411,-0.9944994056329131,-0.34092619155198334
1667824865618556200,1.73055615234375,-1.1656740106791257,-1.1529627054050564,-0.2382914542466402
1667824865628563200,1.740563232421875,-1.3091419858932494,-1.2453276853695512,-0.16398995423913001
1667824865638571300,1.7505712890625,-1.2640817779392004,-1.1666592223241925,-0.04062982429116964
1667824865648579000,1.7605791015625,-1.2160948688834905,-1.0695186985209584,0.1036322239100933
1667824865658586400,1.77058642578125,-1.1642518689215182,-0.9694292617842555,0.2348991814598441
1667824865668594200,1.78059423828125,-1.155059677684307,-0.8171937504857778,0.24961861168593166
1667824865678602200,1.790602294921875,-1.1355968523234128,-0.6112105746477842,0.17363778028935192
1667824865688609000,1.800609130859375,-0.9795295077770948,-0.3652922787845134,0.06157762751281261
1667824865698617300,1.810617431640625,-0.7955167562067508,-0.17186229504942893,-0.13517448638230561
1667824865708625200,1.820625244140625,-0.6505488978236913,-0.027866496568918226,-0.32594197290986776
1667824865718632200,1.830632080078125,-0.5403121610820293,0.1494789060667157,-0.3834457751125097
1667824865728640000,1.840639892578125,-0.6006476795792579,0.3227221340805292,-0.22016309235990048
1667824865738648000,1.85064794921875,-0.48273675494790075,0.2666185540646314,0.26139994263350963
1667824865748655000,1.860655029296875,-0.2033691939473152,-0.08943769434094428,0.47237142827808853
1667824865758663200,1.8706630859375,0.1101157407104969,-0.606188362571597,0.32010522958040233
1667824865768670200,1.880670166015625,0.2946247513651848,-0.9696844055891036,0.31718875761181115
1667824865778678300,1.89067822265625,0.36597266226410863,-0.8744333487942815,0.8543795718029141
1667824865788686300,1.900686279296875,0.36867432243824005,-0.507275860659778,1.7174436775818467
1667824865798693000,1.910693115234375,0.19206161799132823,-0.31677345480918884,2.2173811581775547
1667824865808701200,1.920701171875,-0.12099369307756423,-0.4342155928850174,2.248762677130103
1667824865818709200,1.930709228515625,-0.4840630351155996,-0.6701625298321247,2.078890094593167
1667824865828716300,1.94071630859375,-0.7330424721151589,-0.8515881875187158,1.9075123681902884
1667824865838724000,1.95072412109375,-0.7664917372524738,-0.9565648117750882,1.6686983513742684
1667824865848732200,1.960732177734375,-0.7009715095937251,-1.0517480640307069,1.3417869489103555
1667824865858739200,1.9707392578125,-0.6534633239656686,-1.157663430441916,0.9853720963254571
1667824865868747300,1.980747314453125,-0.529516041779518,-1.2539178190603852,0.6479112427964806
1667824865878755000,1.990755126953125,-0.33243279623389244,-1.3655468869432805,0.314445596383512
1667824865888762000,2.00076220703125,-0.1343710610449314,-1.525726050722599,-0.09020926323533057
1667824865898770200,2.010770263671875,0.03899403978288173,-1.6713275308340787,-0.36434096940904853
1667824865908778200,2.0207783203125,0.13347265090048313,-1.729444496499002,-0.5211714072823525
1667824865918785000,2.030784912109375,0.17812252448797225,-1.7429960519894956,-0.6515823325246572
1667824865928793000,2.04079296875,0.1396346806615591,-1.6640002566859124,-0.6714914403483271
1667824865938800000,2.050800048828125,0.015156652599573134,-1.483811739578843,-0.5995470248609781
1667824865948808200,2.06080810546875,-0.16340952400267122,-1.3405895558193326,-0.5745698199927807
1667824865958816300,2.070816162109375,-0.2730389425009489,-1.202068973879516,-0.582901887269318
1667824865968823300,2.0808232421875,-0.2824304557025432,-1.1008768365979194,-0.5930211302235722
1667824865978831400,2.090831298828125,-0.12162848384976387,-1.1199594304695726,-0.679404989951849
1667824865988839200,2.100839111328125,0.1631809759438038,-1.1972837854295968,-0.934315862827003
1667824865998846200,2.11084619140625,0.496537316763401,-1.3065715508833526,-1.172486028781533
1667824866008854300,2.120854248046875,0.8486147246658802,-1.338313427580893,-1.2299381007969379
1667824866018862300,2.1308623046875,1.1393635113805531,-1.337565531823039,-1.216386837567389
1667824866028869000,2.140869140625,1.3148930967658758,-1.358304368469119,-1.158136893172562
1667824866038877200,2.150877197265625,1.3126070316553116,-1.4119988415166735,-1.05606884983927
1667824866048885000,2.160885009765625,1.0377356130301951,-1.4953545855954289,-0.918371859242022
1667824866058892300,2.170892333984375,0.7778367226094007,-1.5030308193117379,-0.5990291384667158
1667824866068900000,2.180900146484375,0.5961889466047287,-1.365195589287579,-0.24144319627583025
1667824866078907100,2.1909072265625,0.5173503876894712,-1.1530413235992192,0.08479220662266015
1667824866088915200,2.200915283203125,0.5134755920827389,-0.9513505842581391,0.22242051589787004
1667824866098923300,2.21092333984375,0.5497872609138489,-0.8248238069728017,0.22035072388648985
1667824866108930000,2.220929931640625,0.6835247002303599,-0.687896339443326,0.35748891155719753
1667824866118938000,2.230938232421875,0.791933637022972,-0.5035606395289302,0.5659805630847812
1667824866128946400,2.240946533203125,0.7486988909304142,-0.31737638913840055,0.7864633889183401
1667824866138953200,2.250953125,0.5241700045764446,-0.1880892072290182,1.0200161242052912
1667824866148961500,2.26096142578125,0.18718378282189368,-0.07986527161449193,1.2836457255870104
1667824866158969600,2.270969482421875,-0.10674889462590217,0.07795271599143742,1.514106924599409
1667824866168976600,2.2809765625,-0.2845020012795925,0.24288988795280456,1.7503940532863138
1667824866178984700,2.290984619140625,-0.20917641892135141,0.43805648622214793,1.9814725074142217
1667824866188992500,2.300992431640625,-0.039356443354487416,0.588377688331902,2.1085133717015383
1667824866198999600,2.31099951171875,0.17925532791018484,0.6610965953230857,2.18360426852107
1667824866209007600,2.321007568359375,0.33116087660193444,0.7660200280874967,2.254601466286182
1667824866219014700,2.3310146484375,0.31410218977332116,0.9657996731102466,2.4004028528839347
1667824866229022500,2.3410224609375,0.16078034454286097,1.13761637545228,2.512267190827429
1667824866239030500,2.351030517578125,-0.06235094997286796,1.1480442459642886,2.542887077757716
1667824866249037600,2.36103759765625,-0.3453080598980188,1.1393623423367738,2.557793847249448
1667824866259045600,2.371045654296875,-0.6448533165305852,1.2817337544858456,2.621118902951479
1667824866269053700,2.3810537109375,-0.9232248522311448,1.5352835681408643,2.7497876607015725
1667824866279060500,2.391060546875,-1.056535006046295,1.7472540016949176,2.903487983855605
1667824866289068800,2.40106884765625,-0.9906026904553175,1.890107059881091,2.8936092716589568
1667824866299076600,2.41107666015625,-0.7176771452009677,2.0233090771466493,2.735066184648871
1667824866309083600,2.421083740234375,-0.2497188571900129,2.128805341362953,2.4923557449162006
1667824866319091500,2.431091552734375,0.31186288641393184,2.1855922274678945,2.161279623988271
1667824866329099800,2.441099853515625,0.8670154737532139,2.198158863574266,1.7079941505827008
1667824866339106600,2.4511064453125,1.4089900150895118,2.211892789894342,1.2850626066476105
1667824866349114600,2.461114501953125,1.8702064276248216,2.2684558041155336,0.919899214939773
1667824866359121700,2.47112158203125,2.1884569692492484,2.3784873736739156,0.5761131039120256
1667824866369129700,2.481129638671875,2.345795648905635,2.4605250208914278,0.21693273213654754
1667824866379137500,2.491137451171875,2.37415255934,2.4980828903913497,-0.09463000228703021
1667824866389144600,2.50114453125,2.2685043194323775,2.5041736084818838,-0.37770766985192894
1667824866399152600,2.511152587890625,2.1319658512204884,2.474959788957238,-0.6496412814594805
1667824866409160700,2.52116064453125,1.9891607238292692,2.4309260014414784,-0.8527982939608395
1667824866419167500,2.53116748046875,1.7900860122054814,2.3817677105188366,-0.9709998721018434
1667824866429175600,2.541175537109375,1.6219371847212314,2.319163078045845,-0.9708578332826494
1667824866439183600,2.55118359375,1.3936533297479152,2.1826929988950488,-0.9691545364961027
1667824866449190700,2.561190673828125,1.2437737339258192,1.94867030800879,-0.9985292456708847
1667824866459198700,2.57119873046875,1.1437731445163488,1.7545593562722206,-1.0115148378416896
1667824866469206500,2.58120654296875,0.9006950405150651,1.5760796889096498,-1.000176574486494
1667824866479213800,2.5912138671875,0.6094423959314823,1.4209960947036742,-0.8864122481405734
1667824866489221600,2.6012216796875,0.2585118199765682,1.2133534612208605,-0.8283490584895015
1667824866499229700,2.611229736328125,0.052824412214756006,0.963719359704852,-0.8142851695626974
1667824866509236500,2.621236572265625,-0.11470014589130878,0.7968342685461044,-0.8173588779196143
1667824866519244500,2.63124462890625,-0.2233551663994789,0.6600695903629065,-0.8671864464059471
1667824866529251600,2.64125146484375,-0.2979828296214342,0.4719862283527851,-0.9370677918836474
1667824866539259600,2.651259765625,-0.3277168736279011,0.27319530210644005,-0.9127563574478029
1667824866549267500,2.661267333984375,-0.41448797910809515,0.16395663649141787,-0.7870300828903913
1667824866559274800,2.671274658203125,-0.6222831728041172,0.12138415369987487,-0.5223784449845552
1667824866569282600,2.681282470703125,-0.821525642210245,0.13103256427198648,-0.26954379386156796
1667824866579290600,2.69129052734375,-0.9425824636518955,-0.17105565484166144,-0.38085166696608064
1667824866589297400,2.70129736328125,-0.7697182980835438,-1.0495257118061185,-0.6013479368031025
1667824866599305700,2.7113056640625,-0.7138572946518659,-1.9366528302177786,-0.6101978904739022
1667824866609313800,2.721313720703125,-0.8588070328563451,-2.4340274745881554,-0.44467064366489645
1667824866619320600,2.731320556640625,-1.2337328169047832,-2.5913874892935156,-0.21978899835050106
1667824866629328600,2.74132861328125,-1.6588561717957258,-2.6113696623533964,0.037169746965169906
1667824866639336700,2.751336669921875,-1.9552619613587856,-2.6718159477487204,0.22179887686818836
1667824866649343500,2.761343505859375,-2.1264918037235736,-2.526208037896454,0.2290481173440814
1667824866659351600,2.7713515625,-2.2623457968026397,-2.072370921957493,0.20046821180880067
1667824866669358600,2.781358642578125,-2.4316508085846897,-1.5150237471833825,0.24164485632777213
1667824866679366700,2.79136669921875,-2.5180951663285494,-1.0607011858150361,0.23948972412049768
1667824866689374700,2.801374755859375,-2.3704110347241163,-0.6572445960700511,0.18057196346670387
1667824866699381500,2.811381591796875,-1.9945687203526496,-0.3118143710970878,0.10044804091602563
1667824866709389600,2.8213896484375,-1.54441146197021,0.02773965531885624,-0.03134381729066372
1667824866719397600,2.831397705078125,-1.1074679054260252,0.3265297096699476,-0.2386190787658095
1667824866729404700,2.84140478515625,-0.573345831155777,0.44392187112420795,-0.5078521992430091
1667824866739412500,2.85141259765625,-0.04369008864462375,0.3624269524812698,-0.8118582346767187
1667824866749420500,2.861420654296875,0.4283177670180797,0.25848785457909107,-1.0200956191822885
1667824866759427600,2.871427490234375,0.7114011336714029,0.17782237249761818,-1.1439710051760077
1667824866769435600,2.881435546875,0.8444494216799735,0.15665800391584633,-1.1690820655569434
1667824866779443500,2.891443359375,0.8937649489909409,0.1353296769440174,-1.089997130665183
1667824866789450800,2.90145068359375,0.8769049996048212,0.004665361462533474,-0.9651189973697065
1667824866799458600,2.91145849609375,0.7760790652871131,-0.18698153824806213,-0.837104319614172
1667824866809466600,2.921466552734375,0.6502946308016777,-0.3784706170484423,-0.700966248896718
1667824866819473400,2.931473388671875,0.4915542676538229,-0.5638587486252188,-0.4921288526713848
1667824866829481700,2.941481689453125,0.29426234779357907,-0.6318836525812744,-0.11749971348196267
1667824866839488500,2.951488525390625,-0.014824644166231155,-0.670822162784636,0.39962183388769623
1667824866849496600,2.96149658203125,-0.5034972189038992,-0.8828104242563247,0.774249804033339
1667824866859504600,2.971504638671875,-1.0524503670811653,-1.2160264798223972,1.0011512647375465
1667824866869511700,2.98151171875,-1.4331214167833328,-1.4110083691745996,1.1870490994021297
1667824866879519700,2.991519775390625,-1.6617250052303074,-1.4061778802782297,1.2111527363061905
1667824866889527600,3.001527587890625,-1.7153332612991332,-1.380650932572782,1.12388040330559
1667824866899534600,3.01153466796875,-1.5913894862443208,-1.3572922688171267,0.9667577044874429
1667824866909542700,3.021542724609375,-1.2573638678610324,-1.2815709651395677,0.7669739678114652
1667824866919550700,3.03155078125,-0.8632891467064618,-1.2167813898429274,0.508022002851963
1667824866929557500,3.0415576171875,-0.42627895466685295,-1.159060145497322,0.25070932953208686
1667824866939565600,3.051565673828125,0.009620061260461806,-1.148815814858675,-0.002840191861987114
1667824866949573600,3.06157373046875,0.39877310810387134,-1.1939590249210594,-0.20769290236532686
1667824866959580700,3.07158056640625,0.7212041502833366,-1.2154293907120823,-0.30662644706517456
1667824866969588500,3.08158837890625,0.9961714304983615,-1.1925544188201427,-0.28025194261968134
1667824866979596500,3.091596435546875,1.1210948642402887,-1.1544541130065917,-0.2449099956035614
1667824866989603600,3.101603515625,1.081819084906578,-1.1509990041166542,-0.27764263690412044
1667824866999611600,3.111611572265625,0.9322247357666492,-1.1926739535465836,-0.2700347922489047
1667824867009618400,3.121618408203125,0.753128397810459,-1.2887988705664872,-0.29118396326154466
1667824867019626500,3.13162646484375,0.672080930674076,-1.3986647281691431,-0.3842188053116202
1667824867029634800,3.141634765625,0.7289414665371179,-1.4668573899075388,-0.4137991200610995
1667824867039641600,3.1516416015625,0.7982400436908006,-1.501415493069589,-0.3632365152984857
1667824867049649700,3.161649658203125,0.7684966473340987,-1.5155422180995344,-0.23539660958796738
1667824867059657500,3.171657470703125,0.6516402001917362,-1.5283578605309127,-0.013473229557275772
1667824867069664800,3.181664794921875,0.47476855254769323,-1.5263348302707076,0.21353578317463398
1667824867079672600,3.191672607421875,0.25716741963028905,-1.5049632486790419,0.35800679795145984
1667824867089680600,3.2016806640625,0.17719371920526025,-1.4615905554205177,0.5523895523667335
1667824867099687700,3.211687744140625,0.21990356464087962,-1.384634449250996,0.7912327952772379
1667824867109695700,3.22169580078125,0.21171090583503244,-1.2181091313153505,0.9886872122228145
1667824867119703600,3.23170361328125,0.18680618168115615,-1.0161664630398153,1.1087503464519977
1667824867129710600,3.241710693359375,0.12249474529027939,-0.8536196933463215,1.1519196260929108
1667824867139718700,3.25171875,0.009148936617374419,-0.674863547129929,1.215081307926774
1667824867149730600,3.26173046875,-0.07282324414849281,-0.4464654181271791,1.3390215758502482
1667824867159737600,3.271737548828125,-0.04766425297260284,-0.18826310249119996,1.3940011202722786
1667824867169745700,3.28174560546875,0.05029635504186153,0.06213380009084939,1.333971598984301
1667824867179752700,3.291752685546875,0.19187398646473883,0.3185825500577688,1.2948559786483644
1667824867189760800,3.3017607421875,0.3815250361829996,0.5925000289589166,1.306049718966335
1667824867199768600,3.3117685546875,0.6506447594135999,0.8239359182223677,1.2764995070941745
1667824867209775600,3.321775634765625,0.889236657911539,1.0003618679255246,1.2628307549647986
1667824867219783400,3.331783447265625,1.0280798959344626,1.1524757986709475,1.2704171184405684
1667824867229791700,3.341791748046875,1.15039168587327,1.2791919610485434,1.299098876915127
1667824867239798500,3.351798583984375,1.3073270454257726,1.4114461760699748,1.3143147123560308
1667824867249806600,3.361806640625,1.5182500157535075,1.553729325413704,1.3326518946878612
1667824867259814400,3.371814453125,1.7309025863528251,1.6522528280079363,1.2849755128860474
1667824867269821700,3.38182177734375,1.9037158985167741,1.768154166382551,1.2553693330429494
1667824867279829500,3.39182958984375,2.0557617324620483,1.9522920056372879,1.26684247482419
1667824867289837600,3.401837646484375,2.1893968804478643,2.1116350108534094,1.1788659390769898
1667824867299844600,3.4118447265625,2.2881828333705663,2.119193463408947,1.0054099450953304
1667824867309852700,3.421852783203125,2.32098094112277,1.9213877488076685,0.7781326368160545
1667824867319860700,3.43186083984375,2.244230294397473,1.6140490618199108,0.5709342399694025
1667824867329867500,3.441867431640625,2.0638561915904283,1.3793869039863347,0.44037776877656576
1667824867339875600,3.45187548828125,1.8202111013561486,1.2957353918313979,0.46005832854136824
1667824867349882600,3.461882568359375,1.5034458298534155,1.3028531148821114,0.621328648558259
1667824867359890700,3.471890625,1.0068073908030986,1.284179394072294,0.9047653586938976
1667824867369898500,3.4818984375,0.2885270190119743,1.1321078411638736,1.1026163737416266
1667824867379905800,3.49190576171875,-0.6380412984281778,0.9384563236325979,1.2428783925212918
1667824867389913600,3.50191357421875,-1.461359084752202,0.8931061928212642,1.497486775318533
1667824867399921700,3.511921630859375,-2.2870237264633175,0.9344190309405326,1.6720722117215394
1667824867409928400,3.521928466796875,-3.0520249328970905,1.0955687933176754,1.7923761689692734
1667824867419936800,3.531936767578125,-3.348834627085924,1.3218202656805516,1.8728923057079314
1667824867429944600,3.541944580078125,-3.166086196362972,1.438574421492219,1.775530248108506
1667824867439951600,3.55195166015625,-2.6097581355035304,1.4084800197407603,1.4138584979087114
1667824867449959400,3.56195947265625,-1.8323884458839892,1.338658295495808,0.8774597108781337
1667824867459967500,3.571967529296875,-1.0214122547388076,1.2323799409911036,0.3240402309417724
1667824867469974500,3.581974609375,-0.22995441853404044,1.1173480789273977,-0.1893219638943672
1667824867479982600,3.591982666015625,0.4952192199021578,0.9973848979413509,-0.648449587456882
1667824867489990700,3.60199072265625,1.105969191300869,0.9701511463180184,-0.9923974649176001
1667824867499997700,3.611997802734375,1.4862638089060782,0.9301099355697632,-1.2522700518533587
1667824867510005800,3.622005859375,1.7090841377764938,0.8172077790111303,-1.4198603686720133
1667824867520012500,3.632012451171875,1.7309861729830502,0.7229051089823245,-1.5460624440476298
1667824867530020600,3.6420205078125,1.5280600466281176,0.6300254574939608,-1.600087171962857
1667824867540028700,3.652028564453125,1.1291197652637959,0.4939510996624827,-1.6363377582564949
1667824867550035700,3.66203564453125,0.6887865662813186,0.3640586453363299,-1.647535151836276
1667824867560043500,3.67204345703125,0.3314765184223652,0.24812661956250667,-1.6179592210009692
1667824867570051600,3.682051513671875,-0.021399346381425856,0.15013678545355796,-1.5833903041839599
1667824867580058600,3.69205859375,-0.3767886553108692,0.09300269334614276,-1.5375661261200904
1667824867590066700,3.702066650390625,-0.5984837795436382,0.04622457555830478,-1.4489856331303714
1667824867600074500,3.712074462890625,-0.6215250479131936,-0.12954700188934803,-1.3949959765285254
1667824867610081800,3.722081787109375,-0.5048638310819864,-0.41509149795919653,-1.4029644711896776
1667824867620089600,3.732089599609375,-0.4061345767825842,-0.7140674302712082,-1.403200618033111
1667824867630097700,3.74209765625,-0.27549744156897066,-0.9642208794862032,-1.2670096480846404
1667824867640104400,3.7521044921875,-0.10114391422569752,-1.1740598539695144,-1.0369906398817896
1667824867650112500,3.762112548828125,-0.016875146955251694,-1.4351383095636963,-0.8970917553260922
1667824867660120800,3.772120849609375,-0.10393851338028907,-1.7871794771090148,-0.8003522135391831
1667824867670127600,3.782127685546875,-0.4787257657408714,-2.1041452396199105,-0.6369876977220177
1667824867680135700,3.7921357421875,-1.065994323787093,-2.1421537754967805,-0.3373471640214324
1667824867690142700,3.802142822265625,-1.6109551874577999,-1.954397745744884,-0.08381079436987637
1667824867700150800,3.81215087890625,-1.8619629154145716,-1.8065370885297656,0.04134147969186306
1667824867710158600,3.82215869140625,-1.8225164556890725,-1.7655083280488848,0.05283405682593584
1667824867720165400,3.832165283203125,-1.741926669192314,-1.7195847812637686,-0.05720511151701212
1667824867730173700,3.842173583984375,-1.7172335419625042,-1.5971841439977288,-0.2098237769141793
1667824867740181800,3.852181640625,-1.6836965985417365,-1.4297010869458318,-0.2311523961469531
1667824867750188500,3.8621884765625,-1.6430413475483654,-1.302094989991188,-0.1864534227207303
1667824867760196600,3.872196533203125,-1.564691448932886,-1.1530255415081978,-0.11189911699593066
1667824867770204700,3.88220458984375,-1.4324989009708164,-0.9248293648183346,-0.05780600001960993
1667824867780211700,3.892211669921875,-1.2309481546223162,-0.7269494159370661,-0.04549918389320373
1667824867790219500,3.902219482421875,-0.9682657709628343,-0.5931327739045024,-0.0776817900955677
1667824867800227600,3.9122275390625,-0.6925999870896339,-0.4671817506805062,-0.12669044341444968
1667824867810234600,3.922234619140625,-0.4420990396112203,-0.2880190694898367,-0.12232844881266355
1667824867820242700,3.93224267578125,-0.21034370913505554,-0.04150339225530624,-0.1048614734441042
1667824867830250500,3.94225048828125,-0.007392448338866233,0.19878975720256567,-0.07661796025633812
1667824867840257500,3.952257568359375,0.1660644224256277,0.39188539441674947,-0.050439416774362325
1667824867850265600,3.962265625,0.3397498412489891,0.5312102784767747,-0.051041620451211925
1667824867860272600,3.972272705078125,0.5507517220318318,0.5847095212131739,-0.10027516856715082
1667824867870280400,3.982280517578125,0.7082540678173304,0.4590259167537093,-0.20819296084195374
1667824867880288500,3.99228857421875,0.8442278878837823,0.2364876196950674,-0.3429296403288841
1667824867890295600,4.002295654296875,1.0154571457266808,0.07013122858554124,-0.33875293916612864
1667824867900303600,4.0123037109375,1.1432236939400433,0.022853344582021234,-0.24098332367911934
1667824867910311700,4.022311767578125,1.3136235152214766,0.07266717680394649,-0.008898761248588561
1667824867920318700,4.032318603515625,1.3095365381687878,0.08979980565160513,0.3234942874968052
1667824867930326800,4.042326904296875,1.0065648142188788,0.06861497880369424,0.8017915986925364
1667824867940334600,4.05233447265625,0.31432839974462984,0.01932254010736942,1.304996848912537
1667824867950341600,4.062341552734375,-0.5621335322678089,-0.09179770147055387,1.7080803675614296
1667824867960349400,4.072349365234375,-1.261333356013894,-0.1638932158663869,1.9604431633889674
1667824867970357800,4.082357666015625,-1.7940777121901512,-0.22169833910316228,2.1024775986686346
1667824867980364500,4.092364501953125,-1.9478525618851183,-0.11459171708077191,2.204689142125845
1667824867990372600,4.10237255859375,-1.6746587210834025,0.06539747806191444,2.119862448711693
1667824868000380400,4.11238037109375,-1.0027630838483572,0.09101327309459448,1.7662208602324128
1667824868010387700,4.1223876953125,-0.039485038170218464,-0.0670242024809122,1.2672408264920114
1667824868020395500,4.1323955078125,0.9728191964834928,-0.20965660365372896,0.7713143351033329
1667824868030402600,4.142402587890625,1.697524632886052,-0.3358376362413168,0.3236597071915865
1667824868040410600,4.15241064453125,2.2453239348530767,-0.4300549660742283,0.05852773842290043
1667824868050418700,4.162418701171875,2.5669109274238346,-0.5256316015616059,-0.13554463486894963
1667824868060425500,4.172425537109375,2.6143267585933208,-0.6318778073623776,-0.2927307543121278
1667824868070433500,4.18243359375,2.413908231145143,-0.6929834334492683,-0.3305354381799698
1667824868080441600,4.192441650390625,1.9851427203595637,-0.6910162250295281,-0.2613625332325697
1667824868090448600,4.20244873046875,1.5311018985420464,-0.5968333819881081,-0.18725845549330114
1667824868100456700,4.212456787109375,1.1881050381958485,-0.5300225299969316,-0.17920125963538885
1667824868110464500,4.222464599609375,1.0075520716905593,-0.5776736312270164,-0.2790789533175528
1667824868120471800,4.232471923828125,0.9415537051260471,-0.637856297250092,-0.5082793386138975
1667824868130479600,4.242479736328125,0.9395049559026956,-0.6482078876554965,-0.6744434220217168
1667824868140487700,4.25248779296875,0.9661866266012191,-0.661825494119525,-0.7271827863015234
1667824868150494500,4.262494384765625,1.0136147327303886,-0.6532359449505806,-0.7798781653091311
1667824868160499200,4.272499267578125,1.0706605620324612,-0.7107143204510211,-0.9191510269209742
1667824868170507300,4.28250732421875,1.097531617823243,-0.8150514777600765,-1.0474088657826184
1667824868180514000,4.29251416015625,1.0363923817276954,-0.9534496023640036,-1.1625332284353673
1667824868190522000,4.302522216796875,0.9344155238091945,-1.0364765528798103,-1.140863102288544
1667824868200530200,4.3125302734375,0.8435013271749019,-1.0573249873802064,-0.9727850019529461
1667824868210537200,4.322537109375,0.6997732397198677,-1.1054065889820457,-0.8657466228611767
1667824868220545300,4.332545166015625,0.5628069014847278,-1.2213418296262621,-0.8547048582345247
1667824868230552300,4.34255224609375,0.45583179688751696,-1.3325211079150439,-0.8476756902500987
1667824868240560400,4.352560302734375,0.385420290055871,-1.3650178946331142,-0.7707201686024665
1667824868250568200,4.362568115234375,0.2861801636248827,-1.3421511060476303,-0.641696313804388
1667824868260575200,4.3725751953125,0.15249065510332582,-1.3227338733941316,-0.4478434284821152
1667824868270583000,4.3825830078125,0.07957505649626255,-1.2716241561427712,-0.16053995991572736
1667824868280591400,4.39259130859375,-0.034551673421263696,-1.248019116410613,0.16030951216071843
1667824868290598100,4.40259814453125,-0.27685645496249195,-1.2899971404403447,0.44696123882010574
1667824868300606200,4.412606201171875,-0.6053811378419399,-1.3293307874411344,0.7425003285512328
1667824868310614000,4.422614013671875,-0.9203244546145201,-1.254281683936715,1.1245534802615642
1667824868320621300,4.432621337890625,-1.1430787325114011,-1.0151707300007342,1.4900842439770698
1667824868330629000,4.442629150390625,-1.24642044904232,-0.6457768611162901,1.7249433856874703
1667824868340637200,4.45263720703125,-1.3237778294891118,-0.17544892136454582,1.8814374312132596
1667824868350644200,4.462644287109375,-1.278638711079955,0.3261819191455841,1.9558274862870573
1667824868360652300,4.47265234375,-1.0718950722634792,0.7695739211767911,1.921176882535964
1667824868370660400,4.482660400390625,-0.7178536708116531,1.1600117471337317,1.8257180282093584
1667824868380667100,4.492667236328125,-0.35090134986042976,1.514899536281824,1.7591662655457854
1667824868390675200,4.50267529296875,-0.045479894670844075,1.6966414203107356,1.7228453904949128
1667824868400682200,4.51268212890625,0.12897066330611706,1.7231299065247176,1.717625756150484
1667824868410690300,4.522690185546875,0.16032909364402292,1.679503238505125,1.7654805632591246
1667824868420698000,4.532697998046875,0.07812368864417076,1.6723416763126848,1.9000296112194657
1667824868430705400,4.542705322265625,-0.08334522268474101,1.7205583024710416,2.138099677800387
1667824868440713200,4.552713134765625,-0.1996218241125345,1.767378505834937,2.3532867353133855
1667824868450721300,4.56272119140625,-0.225695592045784,1.7719108885675667,2.380205721899122
1667824868460728000,4.57272802734375,-0.15222119051218033,1.837864831468463,2.3387612202242014
1667824868470736400,4.582736328125,0.06594868220388889,1.9275299048244952,2.2042301463119682
1667824868480744200,4.592744140625,0.31686814735531804,1.9652958641171454,1.971749570301175
1667824868490751200,4.602751220703125,0.5795329953581094,1.9509160411089657,1.7502254187211392
1667824868500759000,4.612759033203125,0.7874047614216804,1.8865876535832882,1.5129146460749208
1667824868510767000,4.62276708984375,0.9750175833106041,1.7346891191542149,1.1793592755518854
1667824868520774100,4.632774169921875,1.0775848083376884,1.547083896049857,0.9243950650542974
1667824868530782200,4.6427822265625,1.0597872858405113,1.4270084868609905,0.7759241669863463
1667824868540790000,4.6527900390625,0.9473404718339443,1.4315776944726706,0.6887254837438463
1667824868550797300,4.66279736328125,0.7474129427731037,1.4718506681501864,0.6125529291674494
1667824868560805000,4.67280517578125,0.542270893934369,1.4997007981061934,0.5443126288950443
1667824868570813200,4.682813232421875,0.4395037624210119,1.5209692115843294,0.4185558130688965
1667824868580820000,4.692820068359375,0.4560609294682741,1.5383400331020354,0.2549352766640484
1667824868590828300,4.702828369140625,0.5646300252586602,1.4839876806676386,0.009852554842084646
1667824868600835000,4.7128349609375,0.7385808170199394,1.4015315157771109,-0.2128928090959787
1667824868610843100,4.722843017578125,0.9153203627169132,1.3127911560505627,-0.3513688212417066
1667824868620851200,4.732851318359375,1.071612163668871,1.241107145065069,-0.46786330320388075
1667824868630858200,4.742858154296875,1.1741618530392646,1.12025315271914,-0.6243123405441642
1667824868640866300,4.7528662109375,1.1584195095062255,0.9451452998772263,-0.7432825649701058
1667824868650874000,4.7628740234375,1.0535387468397617,0.8856845183879136,-0.7991516055777669
1667824868660881400,4.77288134765625,0.8716600846886634,0.839938958518207,-0.8028184575222432
1667824868670889200,4.78288916015625,0.653334144628048,0.6776409028887749,-0.8629691209718584
1667824868680897300,4.792897216796875,0.46764206166863437,0.4797039631232619,-1.0352952341407538
1667824868690904000,4.802904052734375,0.41508419143557546,0.31726620676219464,-1.1955673369005322
1667824868700912000,4.812912109375,0.4293704909414053,0.1776084374859929,-1.2562129442602394
1667824868710920200,4.822920166015625,0.531096004447341,-0.0016755319967865943,-1.346925042451173
1667824868720927200,4.83292724609375,0.6448842961907386,-0.17117840443849563,-1.4320751226007937
1667824868730935000,4.84293505859375,0.7273346158623695,-0.3741168057531118,-1.4261369647234678
1667824868740943000,4.852943115234375,0.6112766256213188,-0.6120338737294078,-1.3683373944446444
1667824868750950100,4.8629501953125,0.3344388753592968,-0.8170943817645311,-1.222260844167322
1667824868760958200,4.872958251953125,0.014150690427422523,-1.0200982495307922,-1.0699036061853169
1667824868770966300,4.88296630859375,-0.25605332090854643,-1.2816627350762486,-0.951387993659079
1667824868780973300,4.892973388671875,-0.5197083489924669,-1.5673390408322214,-0.8385463351160287
1667824868790981400,4.9029814453125,-0.7763216418713331,-1.810903759306669,-0.8318152732953429
1667824868800988200,4.91298828125,-0.9584685995697975,-1.9723729628965256,-0.751990918213129
1667824868810996200,4.922996337890625,-1.1164835710525511,-2.0756465826272965,-0.5212120315536857
1667824868821004000,4.933004150390625,-1.4433686700314283,-2.1700427761584518,-0.4004956941127777
1667824868831011300,4.94301123046875,-1.8251976575970648,-2.2385668618083,-0.3683639413148165
1667824868841019100,4.95301904296875,-2.1617887425541875,-2.1866630715698,-0.255589795050025
1667824868851027200,4.963027099609375,-2.379918867781758,-1.9977824217021465,-0.13746464314609766
1667824868861034200,4.9730341796875,-2.461007251450419,-1.7345923807814716,-0.09011369390636682
1667824868871042300,4.983042236328125,-2.4151374806791543,-1.430164905065298,-0.15331512322872876
1667824868881050000,4.993050048828125,-2.223393258073926,-1.1024860253602267,-0.217082954262197
1667824868891057200,5.00305712890625,-1.9021002800136804,-0.778194157744944,-0.2978808305516839
1667824868901065200,5.013065185546875,-1.5015426265805958,-0.44763826129883527,-0.3611436346724629
1667824868911073300,5.0230732421875,-1.0778379063159227,-0.12976853568553923,-0.4563642963290214
1667824868921080000,5.033080078125,-0.619870266443491,0.11455284637510776,-0.5913719017118215
1667824868931088100,5.043088134765625,-0.21815525966882704,0.23744945046454666,-0.7158291792467236
1667824868941096200,5.05309619140625,0.015439561194181441,0.21270079365521669,-0.8434805766478181
1667824868951103200,5.063103271484375,0.14453823479413985,0.03350157984644175,-0.9877990312114358
1667824868961111300,5.073111328125,0.22944003927111625,-0.19823153879791497,-1.0264989103533326
1667824868971118300,5.083118408203125,0.2734551220864057,-0.33610008656978607,-0.9248109523788094
1667824868981126400,5.09312646484375,0.31448446708917616,-0.3039864539504051,-0.7061708318024873
1667824868991134200,5.10313427734375,0.2838695485949516,-0.2512339379280805,-0.40270898624807594
1667824869001141200,5.113141357421875,0.13351941265165804,-0.30360826828777787,-0.05777618940323591
1667824869011149000,5.123149169921875,-0.23168694141507148,-0.4102724072396755,0.2916800762154162
1667824869021157400,5.133157470703125,-0.7792524346262216,-0.5090191971957684,0.6629848932877183
1667824869031164200,5.1431640625,-1.3212497723162173,-0.559691984334588,1.0168827946156263
1667824869041172200,5.153172119140625,-1.7866466854065655,-0.5438070174604654,1.3101345040619372
1667824869051180000,5.163179931640625,-2.0786060169547795,-0.4542506651759147,1.5887436479106545
1667824869061187300,5.173187255859375,-2.0186627126455305,-0.3204334386214614,1.7227493827745317
1667824869071195100,5.183195068359375,-1.5885679990828037,-0.21854367446452377,1.6228345719523727
1667824869081203200,5.193203125,-0.8709902226030826,-0.189296244931221,1.2796736070856451
1667824869091210200,5.203210205078125,0.12416355528533458,-0.1781944206804037,0.9198112443953752
1667824869101218300,5.21321826171875,1.0410200415283442,-0.20390695408582687,0.6023847325049341
1667824869111226000,5.22322607421875,1.7593652952492236,-0.25457623409330843,0.3583053425066173
1667824869121233200,5.233233154296875,2.222995783188939,-0.3357897054463625,0.187062932921201
1667824869131241000,5.243240966796875,2.480937109801173,-0.38493396784365175,0.14076631503999232
1667824869141248300,5.253248291015625,2.429275896146893,-0.46540597317963833,0.14130451356992124
1667824869151256000,5.263256103515625,2.0535943252950903,-0.5585352155148983,0.19146438275054095
1667824869161263400,5.273263427734375,1.5555091945677995,-0.5292395629256963,0.2902265164062381
1667824869171270400,5.2832705078125,1.1849749234765767,-0.42842064287066456,0.4196072218179703
1667824869181278500,5.293278564453125,0.9128513422548771,-0.3665741352885961,0.4444119927287101
1667824869191286300,5.303286376953125,0.8133335679262876,-0.3691764267414808,0.3191151956297457
1667824869201293600,5.31329345703125,0.8719102600574493,-0.3760813838243484,0.16969561853483317
1667824869211301400,5.32330126953125,0.9858686476707458,-0.38455870479047294,-0.043229339265078305
1667824869221309400,5.333309326171875,1.1601789203941821,-0.420206356754899,-0.1981115656800568
1667824869231316200,5.343316162109375,1.3462240545749664,-0.5308382302939891,-0.346274712973088
1667824869241324500,5.353324462890625,1.5173878459662198,-0.6647942807972431,-0.5688849062241613
1667824869251332600,5.36333251953125,1.6063877334117889,-0.7834636225804686,-0.7385949916757643
1667824869261339400,5.37333935546875,1.5706354520291088,-0.8486588560685515,-0.793938547104597
1667824869271347500,5.383347412109375,1.374809513068199,-0.8433557812243699,-0.7406430102467536
1667824869281355300,5.393355224609375,1.1135907722204923,-0.8428226972609758,-0.6850304286181926
1667824869291362600,5.403362548828125,0.8184218309760093,-0.8248612163737415,-0.5423009968116879
1667824869301370400,5.413370361328125,0.5783370635718107,-0.733922762081027,-0.29352877282202244
1667824869311378400,5.42337841796875,0.39076691178083417,-0.6436641067460179,-0.04697977783977985
1667824869321385500,5.433385498046875,0.051883331972360607,-0.617667495702207,0.2403194529429078
1667824869331393500,5.4433935546875,-0.39050504597425456,-0.586671176674962,0.5462232848219574
1667824869341400300,5.453400390625,-0.7970914581775664,-0.558802342018485,0.771345899285376
1667824869351408400,5.463408447265625,-1.0490998876094817,-0.45744799991250035,1.0462651025749743
1667824869361416400,5.47341650390625,-1.1811673478871583,-0.2706578925833106,1.4000441998288033
1667824869371423500,5.483423583984375,-1.1859411381602287,-0.056257017011940476,1.7204235701754689
1667824869381431300,5.493431396484375,-1.0624719948798418,0.1800678133368492,1.976254626635462
1667824869391439400,5.503439453125,-0.776219350540638,0.318559753704071,2.1882040174014863
1667824869401446400,5.5134462890625,-0.39834991425573824,0.4356947255268693,2.163474211423099
1667824869411454500,5.523454345703125,0.12334931629300117,0.6155307759344577,2.096382204402983
1667824869421462500,5.533462646484375,0.6201362239032984,0.7923030548572539,1.9694792872816322
1667824869431469600,5.543469482421875,1.009997711277008,0.9753107210382819,1.8367980790197849
1667824869441477600,5.5534775390625,1.2822078017383813,1.0959414260223508,1.7111369786530732
1667824869451485400,5.5634853515625,1.4077671952962874,1.103261101385951,1.5838313259497283
1667824869461492500,5.573492431640625,1.4358996493250131,1.009503498019278,1.4525881876669824
1667824869471500300,5.583500244140625,1.3955939424216746,0.9642787471532821,1.3927810769580304
1667824869481507600,5.593507568359375,1.2381722606569527,1.047692943421006,1.402040342082083
1667824869491515400,5.603515380859375,0.9712287124216556,1.2001327451199293,1.4569040050394833
1667824869501523500,5.6135234375,0.7218558921903372,1.321485334637761,1.512141908136755
1667824869511530500,5.623530517578125,0.4891442839026451,1.409163033568859,1.5383594684548676
1667824869521538600,5.63353857421875,0.2915659483164549,1.4757739790737627,1.4949084492631255
1667824869531546400,5.64354638671875,0.13305822488069532,1.5629723700553178,1.42421213414073
1667824869541553400,5.653553466796875,0.050099955686926836,1.623489674860239,1.309063513829559
1667824869551561500,5.6635615234375,0.07033201185464859,1.5881857217669486,1.1297001955002546
1667824869561569500,5.673569580078125,0.18065818044543266,1.5290058030456304,0.8913526271522044
1667824869571576300,5.683576416015625,0.37305706756711005,1.4765414563149213,0.5766242683045566
1667824869581584400,5.69358447265625,0.5511252315193415,1.4513240129500626,0.23380510261282322
1667824869591592400,5.703592529296875,0.7506552856951951,1.4533441206008195,-0.03460895656645298
1667824869601599500,5.713599609375,0.9076496819585561,1.4308330135852099,-0.34307504014894363
1667824869611607600,5.723607666015625,1.0044868389010428,1.385509186258912,-0.6449317885942757
1667824869621615400,5.733615478515625,1.01711835693717,1.2694845137655735,-0.9212253489769995
1667824869631622700,5.74362255859375,1.0121113424301147,1.1637678847968578,-1.0992340378269552
1667824869641630500,5.75363037109375,0.9620739305853843,1.0952256789684296,-1.2064490886598824
1667824869651638500,5.763638427734375,0.8557026371002197,1.115499236190319,-1.2050646485641598
1667824869661645300,5.773645263671875,0.6814122381210327,1.0844085168778896,-1.2460402175530791
1667824869671653600,5.783653564453125,0.4438385767549276,0.9353785236224531,-1.3508124052785335
1667824869681661400,5.793661376953125,0.22601883265078065,0.779501733212173,-1.4174946624539793
1667824869691668500,5.80366845703125,0.07433715584278107,0.6958534359276294,-1.4274167754009366
1667824869701676300,5.81367626953125,-0.06861117941141129,0.6101034901887178,-1.4491685884818435
1667824869711683600,5.82368359375,-0.19053543133735656,0.5150462024003267,-1.5220195974200963
1667824869721691400,5.83369140625,-0.3037766105920076,0.3545774080246687,-1.6532998528428375
1667824869731699500,5.843699462890625,-0.4251338762849569,0.16742694295048713,-1.7631044817775487
1667824869741706500,5.85370654296875,-0.4962058928519487,0.0138379712164402,-1.8463997278407216
1667824869751714600,5.863714599609375,-0.5397638795495033,-0.10133329931795597,-1.8533691284619271
1667824869761722400,5.873722412109375,-0.6015764848619699,-0.1940145056247711,-1.7708024889342486
1667824869771729400,5.8837294921875,-0.732378455248475,-0.27508973755091426,-1.6654250287920236
1667824869781737200,5.8937373046875,-0.9038438599348068,-0.42655923291295766,-1.520228476219624
1667824869791745500,5.90374560546875,-1.2327309463858604,-0.6954501158237457,-1.3612480207055806
1667824869801752300,5.91375244140625,-1.7375024230092764,-1.0470587371706963,-1.1347814442873
1667824869811760400,5.923760498046875,-2.271131160804629,-1.3921984547644852,-0.8691977862283587
1667824869821768400,5.9337685546875,-2.661223534324765,-1.6664879818484186,-0.6073819562703371
1667824869831775500,5.943775390625,-2.78740076752007,-1.854438949650526,-0.3992836879745126
1667824869841783600,5.953783447265625,-2.7428637066572903,-1.9808990914404392,-0.21376023958027363
1667824869851791400,5.963791259765625,-2.5668624121069907,-2.1427952882707118,-0.18937486312538385
1667824869861798400,5.97379833984375,-2.2472265536040066,-2.254836736346781,-0.20441811847835778
1667824869871806500,5.983806396484375,-1.9122738835036754,-2.1625106270879506,-0.1196615676909685
1667824869881813500,5.9938134765625,-1.7356167553931474,-1.908495826269686,-0.02027472626566887
1667824869891821300,6.0038212890625,-1.702836183297634,-1.598489089116454,-0.023408201985806225
1667824869901829400,6.013829345703125,-1.6969459562152622,-1.2419073555320501,0.028947862064838407
1667824869911836400,6.02383642578125,-1.610166082906723,-0.812609345304966,0.14302943766638634
1667824869921844500,6.033844482421875,-1.4220026413977145,-0.34917788706868885,0.27089389329627156
1667824869931852300,6.043852294921875,-1.1238713432163,0.09215805921554565,0.3569254324555397
1667824869941859600,6.053859619140625,-0.6818576438009738,0.3824327986776829,0.2645611831434071
1667824869951867400,6.063867431640625,-0.13928689013719558,0.44596565191149706,0.07607143228948116
1667824869961875500,6.07387548828125,0.3759866912782192,0.3617398469999432,-0.15644114629477263
1667824869971882200,6.08388232421875,0.8119429903507233,0.22480770329535008,-0.3172425336256623
1667824869981890600,6.093890625,1.202386077004671,0.05780249288827181,-0.40010771770849823
1667824869991898600,6.103898681640625,1.419541804242134,-0.09595365210622549,-0.4274216949611902
1667824870001905400,6.113905517578125,1.4084259514659643,-0.13344693193733692,-0.2683784033440053
1667824870011913500,6.12391357421875,1.1235831739246844,-0.10608312419354915,0.1728942684456706
1667824870021921300,6.13392138671875,0.6029302375584841,-0.20840981846302747,0.6969106898956
1667824870031928600,6.143928466796875,-0.06424304732978343,-0.5280076830431819,1.172161619132757
1667824870041936400,6.153936279296875,-0.7861030311733483,-0.8222253149122,1.6400732915230094
1667824870051943400,6.163943359375,-1.3851350922495127,-0.8598486508637666,2.1345462231025096
1667824870061951500,6.173951416015625,-1.9647680408507584,-0.760031016805768,2.5373189222365617
1667824870071959600,6.18395947265625,-2.361028873872757,-0.5853010573655366,2.8505878760561347
1667824870081966300,6.19396630859375,-2.272746779307723,-0.3047702978044748,3.036490971417725
1667824870091974400,6.203974365234375,-1.6810832011729477,-0.09538695813417435,2.8890128837794062
1667824870101982500,6.213982421875,-0.6698731914967299,-0.1215247312143445,2.3443539256647226
1667824870111989500,6.223989501953125,0.46304655057191846,-0.23214988275170326,1.7355775924265384
1667824870121997300,6.233997314453125,1.5114432583481072,-0.18704057495892046,1.2435378793433307
1667824870132005400,6.24400537109375,2.2420079421728847,-0.12420768668800591,0.8818350033529102
1667824870142012400,6.254012451171875,2.6984312752127644,-0.10587971057593822,0.6179607795603573
1667824870152020500,6.2640205078125,2.934036851376295,-0.10406301654279232,0.4934674077987671
1667824870162032400,6.274032470703125,2.9009377148509023,-0.19060820431262254,0.4320250971034169
1667824870172039200,6.2840390625,2.6847365118592976,-0.27458266481161114,0.3825741068445146
1667824870182047500,6.294047607421875,2.439295185858011,-0.3031727994799614,0.3339166050508618
1667824870192055300,6.30405517578125,2.1922095997810365,-0.3515022383630276,0.28783246087655423
1667824870202062300,6.314062255859375,1.9202602060824632,-0.39921091499924655,0.17990400107726454
1667824870212070100,6.324070068359375,1.6503274129033088,-0.40639848841577764,0.0374869962207973
1667824870222077400,6.334077392578125,1.4995640199840068,-0.40140345660746096,-0.04771306055039167
1667824870232085200,6.344085205078125,1.471553146508336,-0.42517216246873135,-0.2098958192370832
1667824870242093300,6.35409326171875,1.5297440541923044,-0.41167350620925425,-0.36750235604941844
1667824870252100400,6.364100341796875,1.672041232061386,-0.374571563783288,-0.5106565891392528
1667824870262108400,6.3741083984375,1.8002128539443014,-0.452713372606039,-0.7880491968050599
1667824870272116500,6.384116455078125,1.921325204965472,-0.5860159276366234,-1.0678428742632269
1667824870282123300,6.394123291015625,1.908380383196473,-0.7240896425917744,-1.308269879233837
1667824870292131300,6.40413134765625,1.8053414490044115,-0.8013552531018853,-1.4154790848478673
1667824870302139400,6.414139404296875,1.6299346132159231,-0.7464756619229912,-1.3588292691260575
1667824870312146400,6.424146484375,1.36510937230885,-0.7354545016929507,-1.199868541225791
1667824870322154200,6.434154296875,1.0085404982060193,-0.7685010312482714,-1.1204584660328925
1667824870332162300,6.444162353515625,0.5830880574911832,-0.8930579697653651,-1.0682510166727006
1667824870342169300,6.45416943359375,0.26301673018038274,-0.9929437006235122,-0.7950837716169655
1667824870352177400,6.464177490234375,-0.06553834783732891,-0.9885182853966951,-0.37463556893020866
1667824870362185200,6.474185302734375,-0.4027601319134235,-0.9923486573398113,-0.031870179252326485
1667824870372192300,6.484192138671875,-0.7533943552702664,-1.0524898223087191,0.22870967916995286
1667824870382200300,6.494200439453125,-1.1020739374279975,-1.1322072098851204,0.5164570921115577
1667824870392207400,6.504207275390625,-1.3485586350023746,-1.0947422793656587,0.8802297601133584
1667824870402215200,6.514215087890625,-1.5467191543906926,-0.8346855680346489,1.316235451285541
1667824870412223200,6.52422314453125,-1.7227888380020855,-0.5038870950043202,1.662157405298203
1667824870422230300,6.534230224609375,-1.8238111716747283,-0.25127719254791736,1.823617987190187
1667824870432238300,6.54423828125,-1.734470507967472,-0.041404023534059524,1.8346290644176304
1667824870442246100,6.55424609375,-1.3571113592922688,0.19893150376081464,1.776625057607889
1667824870452253400,6.56425341796875,-0.837693517678976,0.5060650235652924,1.6572199488960206
1667824870462261200,6.57426123046875,-0.3372393197327852,0.8649877673178911,1.5566687398664651
1667824870472269300,6.584269287109375,0.08562778066396713,1.1676420958817004,1.443301303883642
1667824870482276000,6.594276123046875,0.39304304001927376,1.303058866587281,1.2876368410497903
1667824870492284400,6.604284423828125,0.5615595317721367,1.2431342669785022,1.165096064660698
1667824870502292500,6.61429248046875,0.5565799897938967,1.1220277611762284,1.1447149554111062
1667824870512299300,6.62429931640625,0.4561275649636984,1.0954629948556422,1.231386838300526
1667824870522307300,6.634307373046875,0.2646346867710352,1.113906414040923,1.3931167386531829
1667824870532315100,6.644315185546875,-0.016788637715578078,1.1602952402502298,1.5196611977256833
1667824870542322400,6.654322509765625,-0.2930266685187816,1.2217571324288845,1.5711302498087285
1667824870552330200,6.664330322265625,-0.4661678974628448,1.314247200077772,1.5978813324816523
1667824870562337300,6.674337158203125,-0.5437111558705569,1.5041735596060752,1.6156645341925322
1667824870572345300,6.684345458984375,-0.5939490587234497,1.6736428220391273,1.5555058335669338
1667824870582353400,6.694353515625,-0.46879883048832416,1.732778901618719,1.4509424662865698
1667824870592360200,6.704360107421875,-0.21314707611799238,1.6874527362048626,1.3180914544157682
1667824870602368300,6.7143681640625,0.051579380589723584,1.5969740083783863,1.0720527470432222
1667824870612376300,6.724376220703125,0.27226094386577604,1.5458406179904938,0.8377434943005442
1667824870622383400,6.73438330078125,0.45491175943315026,1.557045318093896,0.7045620814315974
1667824870632391200,6.74439111328125,0.5952513734936714,1.597221261137724,0.5863489589832723
1667824870642399200,6.754399169921875,0.7022188793063163,1.6280232266366481,0.387488620762527
1667824870652406300,6.76440625,0.8345365149527788,1.6613672778338193,0.1516910291582346
1667824870662414300,6.774414306640625,1.0175164163440464,1.6429741275310514,-0.09044424103498458
1667824870672422400,6.78442236328125,1.300863986891508,1.6216688891738653,-0.26893486818298695
1667824870682429400,6.794429443359375,1.6196043578594923,1.6095862371921539,-0.44092181252539153
1667824870692437500,6.8044375,1.8726795397400855,1.570118734678626,-0.646129327815771
1667824870702445300,6.8144453125,2.0104981108903885,1.446912626248598,-0.8799997507497668
1667824870712452400,6.824452392578125,2.078150089880824,1.3073323061227797,-1.0973698513902723
1667824870722460200,6.834460205078125,2.0340829846173523,1.1664777282774448,-1.2319199222639203
1667824870732468500,6.844468505859375,1.787414162647724,1.0426099410682916,-1.2873467720620333
1667824870742475300,6.854475341796875,1.411391815534234,0.9196902483642101,-1.260630468441546
1667824870752483300,6.8644833984375,1.0643190840512513,0.7945230689942836,-1.2308594534255564
1667824870762490400,6.874490478515625,0.6963420962274074,0.6080027185171842,-1.2288622882589697
1667824870772498400,6.88449853515625,0.4016360963195562,0.356896790882945,-1.2815978531464933
1667824870782506200,6.89450634765625,0.2465828972518444,0.156755619071424,-1.319854080174118
1667824870792513300,6.90451318359375,0.16111644462943076,0.014921967060863971,-1.3291069155573845
1667824870802521300,6.914521240234375,0.07230009705722332,-0.11515285809487104,-1.3315535780571401
1667824870812529400,6.924529296875,0.03682780165970325,-0.26846155158281326,-1.4237579606324433
1667824870822536200,6.9345361328125,0.11733633961379528,-0.3882862008810043,-1.527384777715057
1667824870832544300,6.944544189453125,0.2425660628259182,-0.4432964327022433,-1.570454250243306
1667824870842552300,6.95455224609375,0.33981355413496495,-0.5290241666093468,-1.5700716806665063
1667824870852559400,6.964559326171875,0.3307739231109619,-0.7124743158608675,-1.4748022114321588
1667824870862567400,6.9745673828125,0.06943477075397968,-0.9514873623803257,-1.2617590340800582
1667824870872575200,6.9845751953125,-0.32025954335927964,-1.2006062078505755,-0.9759693310774862
1667824870882582500,6.99458251953125,-0.7114373740285634,-1.5002297904163597,-0.6051148881211876
1667824870892590300,7.00459033203125,-1.228928631493449,-1.860044806833565,-0.302032105012238
1667824870902598400,7.014598388671875,-1.6548878526866435,-2.0732257852211595,-0.0024859715968370438
1667824870912605200,7.024605224609375,-1.8501830457717179,-2.022509451201558,0.38833705428540705
1667824870922613500,7.034613525390625,-1.9060458027690648,-1.810050065086782,0.7348723178908229
1667824870932620300,7.044620361328125,-1.8403344364523886,-1.523301453924179,0.9477925995156168
1667824870942628400,7.05462841796875,-1.7468284697592258,-1.2238693022772669,1.0636959837168454
1667824870952636200,7.06463623046875,-1.6967682615607975,-1.0124807602643966,1.1467764179855584
1667824870962643500,7.0746435546875,-1.674135573992133,-0.7372396315440535,1.1707447380721567
1667824870972651300,7.0846513671875,-1.5295149216115473,-0.40779987964630127,1.1160706063374877
1667824870982659300,7.094659423828125,-1.219827625671029,-0.15390636712014674,0.930820714187622
1667824870992666400,7.104666259765625,-0.7655763759732246,-0.06933189490139484,0.5715136472925544
1667824871002674400,7.11467431640625,-0.249466928255558,-0.13485095351636409,0.12883680779337883
1667824871012682200,7.12468212890625,0.2976169189184904,-0.2666805133849382,-0.20449206049740312
1667824871022689300,7.134689208984375,0.7074667168319225,-0.403376510246098,-0.37310645966678857
1667824871032697000,7.144697021484375,0.9129951346397399,-0.45336160738170145,-0.3494640105336904
1667824871042705400,7.154705322265625,0.9012503363102674,-0.5020438052251934,-0.23600188200473785
1667824871052712200,7.164712158203125,0.6284376037806272,-0.6017191082030534,-0.02799538364559412
1667824871062720300,7.17472021484375,0.0742833798289299,-0.7274298929303884,0.384663041947782
1667824871072727300,7.184727294921875,-0.8139227659910917,-0.8441495619505643,0.822764244094491
1667824871082735400,7.1947353515625,-1.7065373759031295,-0.9227651257649063,1.230730712479353
1667824871092743400,7.204743408203125,-2.4323662633776664,-0.9183741973295807,1.5104036861672996
1667824871102750200,7.214750244140625,-3.060575319099426,-0.8567112296208739,1.6273720692515372
1667824871112758300,7.22475830078125,-3.294790902209282,-0.7072250170305371,1.629880837202072
1667824871122766300,7.234766357421875,-3.0054432144641874,-0.5015943078920245,1.4294593871444463
1667824871132773400,7.2447734375,-2.1157617353945968,-0.37497517614811654,0.9339879460468887
1667824871142781200,7.25478125,-1.0180734657049177,-0.4568021032243967,0.20354659634083508
1667824871152789200,7.264789306640625,-0.05076455707550048,-0.4768488659530878,-0.43127544777989385
1667824871162793200,7.274793212890625,0.7060480822056532,-0.3789516785636544,-0.8182736546769738
1667824871172801300,7.28480126953125,1.1899474511921404,-0.34524200892448426,-1.0780042027935386
1667824871182809300,7.294809326171875,1.4238105676025152,-0.38503392108678813,-1.2551871083438395
1667824871192816400,7.30481640625,1.4703426016747951,-0.41204701569676394,-1.3393699508965016
1667824871202824200,7.31482421875,1.3834358871161936,-0.3951674848273396,-1.2916565980851649
1667824871212832300,7.324832275390625,1.0961053844124078,-0.4327516578122973,-1.1865545938834547
1667824871222839000,7.334839111328125,0.7071084049135447,-0.5687105725705623,-1.161324583297968
1667824871232847000,7.34484716796875,0.42755847308337686,-0.7075187392801046,-1.1581389389991759
1667824871242855400,7.35485546875,0.27601298987567424,-0.8405649814620614,-1.1554133134275675
1667824871252862200,7.3648623046875,0.28835750766396523,-0.9397598074465989,-1.1228776560038327
1667824871262870300,7.374870361328125,0.29500352154970166,-0.9470005723550915,-1.0738330545887351
1667824871272877300,7.384877197265625,0.2868143698751926,-0.8913643175899982,-0.9704927993625402
1667824871282885400,7.394885498046875,0.21114918029904364,-0.865278859218955,-0.887295168454945
1667824871292893200,7.40489306640625,0.12429039653539657,-0.8681672741368412,-0.884053702315688
1667824871302900200,7.414900146484375,0.022419337078928948,-0.8542804953426122,-0.877686797632277
1667824871312908300,7.424908203125,-0.055657589814066884,-0.8008262607917189,-0.8538046945244073
1667824871322916400,7.434916259765625,-0.003267477363348007,-0.658306087821722,-0.7142994854614139
1667824871332923100,7.444923095703125,0.13610241488218305,-0.5593742966875433,-0.5189551925376057
1667824871342931200,7.45493115234375,0.3034580461621284,-0.5979883972421288,-0.4581073406040668
1667824871352939000,7.46493896484375,0.4639321012347936,-0.6776987705558538,-0.39469314531385896
1667824871362946300,7.4749462890625,0.5293476994752884,-0.6696446434378623,-0.10430004016906022
1667824871372954000,7.4849541015625,0.5110556714594364,-0.6318316301330924,0.3177940300285816
1667824871382962200,7.494962158203125,0.3686661391317844,-0.6110504156500101,0.680473495966196
1667824871392969200,7.50496923828125,0.0725099404156208,-0.5790513493210077,0.9915814723595976
1667824871402977300,7.514977294921875,-0.29681612392961976,-0.48081280114799735,1.241096039149165
1667824871412985300,7.5249853515625,-0.5493664051532745,-0.16599954049587248,1.610122828286886
1667824871422992100,7.5349921875,-0.6942869172632694,0.2654524328947067,1.9741420183956622
1667824871433000400,7.54500048828125,-0.7518769364446402,0.6617033290445804,2.1468314119189977
1667824871443007200,7.55500732421875,-0.6421165850430727,1.031355556604266,2.1452333290725947
1667824871453015300,7.565015380859375,-0.3552303189754486,1.4178665645062922,2.118201529762149
1667824871463023000,7.575023193359375,0.08885434149503707,1.7563012315034865,2.1094034524090586
1667824871473030400,7.585030517578125,0.6231979495614767,1.957892309862375,2.0722728684104976
1667824871483038200,7.5950380859375,1.145348431009054,2.0055524711817503,1.9600055026240646
1667824871493046300,7.60504638671875,1.4719313321709633,1.9307383454769849,1.868539225064963
1667824871503053300,7.61505322265625,1.5862795958846807,1.7939187222361563,1.8553709698036311
1667824871513061400,7.625061279296875,1.5218237825870513,1.7043612009078264,1.958458857703954
1667824871523069200,7.635069091796875,1.3060370056152344,1.7358008797883986,2.152509749816358
1667824871533076200,7.645076171875,1.0394207896381615,1.8312743471622466,2.3919879296295345
1667824871543084000,7.655083984375,0.6707312696307898,1.9412574014037847,2.496146369370818
1667824871553092400,7.66509228515625,0.3148848645836115,2.0353286007642746,2.551481887623668
1667824871563099100,7.67509912109375,0.09534487255811691,2.1496458848178386,2.5872251089170573
1667824871573107200,7.685107177734375,-0.015125672939419745,2.3262550821334123,2.5439491540312766
1667824871583115300,7.695115234375,-0.04745616317987442,2.5196768825620413,2.421526304933429
1667824871593122300,7.705122314453125,0.1072445691883564,2.627895265218615,2.1795150995112955
1667824871603130400,7.71513037109375,0.4790571896523237,2.636896902319789,1.8568379736162721
1667824871613137200,7.72513720703125,0.9197755885601043,2.5695897912442685,1.4941912409044802
1667824871623145200,7.735145263671875,1.3509797246694564,2.528573305723071,1.1577668908163905
1667824871633153300,7.7451533203125,1.7138719565749168,2.525708563941717,0.8585559807047247
1667824871643160300,7.755160400390625,1.9615327121913433,2.5218098029375073,0.5902050498895347
1667824871653168000,7.765168212890625,2.0925614770710466,2.4782991625130175,0.3639652679644525
1667824871663176200,7.77517626953125,2.161657809650898,2.3768244088977575,0.09063041125684976
1667824871673183200,7.785183349609375,2.1599632806926965,2.2426064925879237,-0.16800985740497706
1667824871683191300,7.79519140625,2.0972861675053833,2.066474849656224,-0.3359741221025586
1667824871693199000,7.80519921875,2.0561942786604166,1.8950532841116188,-0.512601585727185
1667824871703206400,7.815206298828125,2.0132062008053064,1.7099638432204722,-0.7152544480986893
1667824871713214200,7.825214111328125,2.0025567964971063,1.481702784600854,-0.832666483297199
1667824871723222300,7.83522216796875,1.9068693941116333,1.2351087814331054,-0.9660026483364402
1667824871733229000,7.84522900390625,1.6874188339352607,0.9800035550296307,-1.1000352712072432
1667824871743237400,7.8552373046875,1.2888561537116765,0.7567787370115518,-1.145284571992606
1667824871753245200,7.8652451171875,0.8660124341905117,0.579060117149353,-1.1392474837854505
1667824871763252200,7.875252197265625,0.5051245278447866,0.4372644590616226,-1.23614455422163
1667824871773260000,7.885260009765625,0.21335341234505176,0.33400808272659777,-1.3170714637182652
1667824871783267300,7.895267333984375,-0.06920154651999473,0.19169161563515663,-1.4503558985702694
1667824871793275100,7.905275146484375,-0.3150374247968197,0.054306759727001185,-1.5318106313332915
1667824871803283200,7.915283203125,-0.5368921235054731,-0.06715045920908451,-1.598546664522588
1667824871813290200,7.925290283203125,-0.7343617380201816,-0.2559536599263549,-1.7539043994948267
1667824871823298300,7.93529833984375,-0.9027736003547906,-0.4560708663403988,-1.9238085462138055
1667824871833306400,7.945306396484375,-1.0292647218048572,-0.6068412735223769,-1.9682798483639954
1667824871843313200,7.955313232421875,-1.080429676374793,-0.7835147682458162,-2.03207339836061
1667824871853321200,7.9653212890625,-1.2242267374128102,-1.023130749094486,-2.1065786042466756
1667824871863329300,7.975329345703125,-1.5028770900547503,-1.3648697183340788,-2.1272212870419023
1667824871873336300,7.98533642578125,-1.9559072735249996,-1.7560007872521877,-2.0639266264781355
1667824871883344100,7.99534423828125,-2.6065608007669447,-2.1052029319792984,-1.8627482205733656
1667824871893352200,8.005352294921876,-3.471851934945583,-2.400527940568328,-1.5042735128492115
1667824871903359200,8.015359130859375,-4.351180362305045,-2.5704861555621026,-0.9915373409569262
1667824871913367300,8.0253671875,-5.117113296630978,-2.5699630084708334,-0.5109589330866933
1667824871923374000,8.0353740234375,-5.57703966935575,-2.3259502539679406,-0.14217998123019931
1667824871933382400,8.04538232421875,-5.594340348246694,-1.9491855640545486,0.22603344569802283
1667824871943390200,8.05539013671875,-5.221051810011267,-1.5405816745489835,0.3693123280808329
1667824871953397200,8.065397216796875,-4.441513544180989,-1.087632447360456,0.18468261365592478
1667824871963405000,8.075405029296874,-3.4191309831053016,-0.6935530500307678,-0.20638591141998766
1667824871973413000,8.0854130859375,-2.333605444896221,-0.31191637016683815,-0.6252215643435717
1667824871983420200,8.095420166015625,-1.3271546124458313,0.01359568689316511,-1.0281342564702034
1667824871993428200,8.10542822265625,-0.3877846810996532,0.22284166391938923,-1.3527984645292161
1667824872003436300,8.115436279296874,0.36293607104718684,0.2430325112938881,-1.6912655724912882
1667824872013443300,8.125443359375,0.713907563534379,0.027345979826152323,-2.0354405367061497
1667824872023451400,8.135451416015625,0.7869844901829958,-0.17937398585379122,-2.151772959974408
1667824872033459200,8.145459228515625,0.654911769208312,-0.26588965526819225,-1.9630872481569646
1667824872043466200,8.15546630859375,0.3909153803408146,-0.23924597849249837,-1.5101874130681157
1667824872053474300,8.165474365234376,-0.03469429676234722,-0.15096213036179543,-0.8009352741241454
1667824872063482400,8.175482421875,-0.8480781335711479,-0.2332289101600647,0.01876286039799452
1667824872073489200,8.1854892578125,-1.77278124166131,-0.5399474194228648,0.80354721018821
1667824872083497200,8.195497314453124,-2.719919468921423,-0.8526748137116432,1.4572770761355758
1667824872093504300,8.205504150390626,-3.644489890542626,-0.9508493567377329,2.0372703824818132
1667824872103512300,8.21551220703125,-4.07901118837595,-0.7663795090496539,2.6475463066279885
1667824872113520000,8.22552001953125,-3.865387142395973,-0.4439420371294021,3.0213384104713796
1667824872123527200,8.235527099609374,-2.974895515987277,-0.29063246685862537,2.8499355496272445
1667824872133535200,8.24553515625,-1.7498609693229197,-0.4468120396077633,2.182794121181965
1667824872143543300,8.255543212890625,-0.4701397237032652,-0.45585956167727704,1.5406307743877172
1667824872153550000,8.265550048828125,0.7448457226336002,-0.198496327213943,1.1482228174015878
1667824872163557400,8.275557373046874,1.6886504215568303,-0.004748948092758655,0.8457455989703535
1667824872173565200,8.285565185546876,2.332106146249175,0.005533668729662895,0.5221081036105751
1667824872183572200,8.295572265625,2.7090602212548256,-0.08310381514430046,0.33505554595291615
1667824872193580000,8.305580078125,2.7648610189318656,-0.19285013802051543,0.24022505265772343
1667824872203588400,8.31558837890625,2.5160920098125934,-0.2337555643826723,0.31717326778173444
1667824872213595100,8.32559521484375,2.1112509799718855,-0.1368850896924734,0.537751955205202
1667824872223603200,8.335603271484375,1.7207108626842498,-0.07391454651653766,0.671469228516519
1667824872233611000,8.345611083984375,1.4141788159042596,-0.05176233594119548,0.6320867739379405
1667824872243618300,8.355618408203124,1.2009656888127327,-0.021772271347045898,0.5140215355277061
1667824872253626000,8.365626220703126,1.0618553242862223,0.07767068417966365,0.4618120403409004
1667824872263633200,8.375633056640625,1.0218448009371757,0.27504852875769137,0.5051750889882445
1667824872273641200,8.38564111328125,1.0121773934036493,0.417203667807579,0.475617570592463
1667824872283649300,8.395649169921874,1.0667273142367601,0.40229192987978457,0.2673857390448451
1667824872293656000,8.405656005859376,1.2565572276532648,0.3078945673048496,-0.012874971403181551
1667824872303664000,8.4156640625,1.5323901847869157,0.31786797204762696,-0.19568375401124358
1667824872313672200,8.425672119140625,1.780095948588848,0.3298445333063602,-0.31550197356864806
1667824872323679200,8.43567919921875,1.9596540588378906,0.3024608518183231,-0.384857103215158
1667824872333687300,8.445687255859376,2.0716461148142815,0.24635727180242536,-0.42332638847157356
1667824872343695000,8.455695068359375,2.0985697775751353,0.20259674827009438,-0.45319224216416476
1667824872353702400,8.465702392578125,2.000094205775857,0.11159458109140395,-0.509912200512737
1667824872363710200,8.475710205078125,1.9473808527201413,0.01930734253823757,-0.5467098992951214
1667824872373718300,8.48571826171875,1.8724913236916063,-0.023684826970100402,-0.5535204560928046
1667824872383725000,8.49572509765625,1.7764380106031894,0.034282793352007866,-0.4755893674112856
1667824872393733400,8.5057333984375,1.704425498315692,0.10232260261625051,-0.33871991367936133
1667824872403741200,8.5157412109375,1.550759954214096,0.09811053787916899,-0.15889321562200784
1667824872413748200,8.525748291015624,1.2682184393525122,0.05303308652937412,0.03821531049534678
1667824872423756000,8.535756103515626,0.9987678767323493,0.0410737686663866,0.30454978692159057
1667824872433764000,8.54576416015625,0.7647691512435674,0.07731412582695484,0.5991447276704013
1667824872443771100,8.555771240234375,0.5298328526437283,0.13018062361776828,0.9452668804302811
1667824872453779200,8.565779296875,0.2944967410713434,0.17121113766431809,1.2703026982806622
1667824872463786200,8.5757861328125,0.07931026808023452,0.21576953357607126,1.5668839905411005
1667824872473794300,8.585794189453125,-0.16509645417630672,0.3108718295499682,1.7981177813611924
1667824872483802000,8.595802001953125,-0.3998457057714462,0.5062494402214884,1.9762015812739728
1667824872493809200,8.60580908203125,-0.5170756624013185,0.7520104996964335,2.1348535354860125
1667824872503817000,8.61581689453125,-0.5513175392210483,0.8891548248469829,2.203124084766209
1667824872513825300,8.6258251953125,-0.48648003312945365,0.9811001180946827,2.222893637988716
1667824872523832000,8.63583203125,-0.41383857528865337,1.1398851971670985,2.2088265341915188
1667824872533840100,8.645840087890624,-0.38932138914763925,1.3334592655479907,2.1898431629106403
1667824872543848200,8.65584814453125,-0.4216138854652643,1.5038856825754046,2.1905434201344844
1667824872553855200,8.665855224609375,-0.4688058447510004,1.6428446559324859,2.180214333821833
1667824872563863300,8.67586328125,-0.4341261610358953,1.726253299242258,2.0741259489312767
1667824872573870000,8.6858701171875,-0.26543314367234705,1.781836070254445,1.8659101917356251
1667824872583878400,8.69587841796875,0.045015784290432924,1.8649024759978055,1.597023400478065
1667824872593886200,8.70588623046875,0.40918519652485846,1.9214438629090784,1.2829600814104078
1667824872603893200,8.715893310546875,0.7335971833884716,1.879205726638436,0.9228535347007214
1667824872613901000,8.725901123046874,1.0149334141135216,1.7526052995949983,0.5872086445525289
1667824872623909000,8.7359091796875,1.279647595861554,1.5763602594166992,0.25389921161457896
1667824872633916200,8.745916259765625,1.4631319396436213,1.427328220334649,0.004569646003097295
1667824872643924200,8.75592431640625,1.5509528464376925,1.2878104440510272,-0.1895002430707216
1667824872653932000,8.76593212890625,1.4959446604430675,1.0985223824262618,-0.36807226489186284
1667824872663939300,8.775939208984376,1.3942624015569687,0.9062707948207854,-0.48210503291562196
1667824872673947100,8.785947021484375,1.263830433526635,0.7795598931401968,-0.5760371160663664
1667824872683955200,8.795955078125,1.134796641856432,0.7494318813800811,-0.6469609563343226
1667824872693962000,8.8059619140625,1.0708142912894487,0.7270376787424087,-0.6911636706762015
1667824872703970300,8.81597021484375,0.9899275676727294,0.6447054324924946,-0.7816871144272387
1667824872713978400,8.825978271484376,0.8765601316899061,0.47797553189545866,-0.8991054332360625
1667824872723985200,8.835985107421875,0.7300760235249996,0.3294499810308218,-0.9118845430493354
1667824872733993200,8.8459931640625,0.6175941382050514,0.2590636086404323,-0.9418295994579792
1667824872744000300,8.856000244140626,0.5553039785087108,0.19663520951718091,-1.040302248647809
1667824872754008300,8.86600830078125,0.5196089802712202,0.14168196858018636,-1.1116285322368145
1667824872764016000,8.87601611328125,0.38726094948649403,0.1075017588198185,-1.1855886714607478
1667824872774023200,8.886023193359375,0.20991876172125337,0.09293781141638756,-1.2504074728518724
1667824872784031200,8.89603125,-0.03609247312247753,0.05813683940917253,-1.264593526853621
1667824872794039300,8.906039306640626,-0.2520674661427736,0.027386896358430383,-1.2332719213947654
1667824872804046000,8.916046142578125,-0.536703907456994,-0.033038053987920285,-1.2493842672839761
1667824872814054100,8.92605419921875,-0.8325520631372928,-0.07888064449131488,-1.2391723776102066
1667824872824062200,8.936062255859374,-1.0334791246294974,-0.22096651769727468,-1.2325418535545467
1667824872834069200,8.9460693359375,-1.0920967332929372,-0.4755529809236526,-1.2747180305048822
1667824872844077000,8.9560771484375,-0.9730623575896025,-0.7461585587978362,-1.3099506719276308
1667824872854085000,8.966085205078125,-0.7785065846949816,-1.0283283177375793,-1.3385098269358278
1667824872864092200,8.976092041015624,-0.6143681618958712,-1.412742353360355,-1.3147082417182623
1667824872874100200,8.986100341796876,-0.6101321317613124,-1.9712375291258095,-1.2714426620960235
1667824872884108300,8.9961083984375,-0.6898486425548791,-2.4821190130621194,-1.1651181303620337
1667824872894115300,9.006115234375,-0.7277817751079797,-2.743519247956574,-0.8340700664848089
1667824872904123400,9.016123291015624,-0.8869897557675838,-2.782443145112693,-0.32131782024055716
1667824872914131200,9.026131103515626,-1.0243833795040844,-2.66795693423301,0.27991175087988374
1667824872924138200,9.03613818359375,-1.1533785927295683,-2.4941204165011643,0.6448384112223983
1667824872934146000,9.04614599609375,-1.0966332076787948,-2.1547338556066156,0.9063996818974613
1667824872944153300,9.0561533203125,-0.8422510348528623,-1.6845818569436668,1.0940376382276416
1667824872954161200,9.0661611328125,-0.5160650240540504,-1.183974806523323,1.0782125848472117
1667824872964169200,9.076169189453125,-0.3034200522392988,-0.7884490097776055,0.9052806147396564
1667824872974176300,9.08617626953125,-0.33079613494277,-0.6032391573771834,0.606166150739789
1667824872984184300,9.096184326171874,-0.43115678983628747,-0.5256514753058552,0.32122166638970373
1667824872994192100,9.106192138671876,-0.5708160204172134,-0.4584069080725312,0.03360883961319923
1667824873004199200,9.11619921875,-0.7620365114092826,-0.3968868559658527,-0.1440323310986161
1667824873014207200,9.126207275390625,-0.9546727144181728,-0.40257600751817224,-0.1436798643991351
1667824873024215300,9.13621533203125,-1.2078192079693078,-0.3942626449421048,-0.04735182602256536
1667824873034222000,9.14622216796875,-1.477149943602085,-0.4034159654736519,0.0759907682687044
1667824873044230100,9.156230224609375,-1.9145868366211651,-0.42301732252240176,0.25548575015366076
1667824873054238200,9.16623828125,-2.434755788862705,-0.3936272696480155,0.4961588388398289
1667824873064245200,9.176245361328125,-2.8710025953143834,-0.3718357090786099,0.7185492518603801
1667824873074253000,9.186253173828124,-3.162386172801256,-0.3470058037266135,0.9023381315469742
1667824873084261000,9.19626123046875,-3.2080180431634187,-0.30306933910548683,1.0341191760987043
1667824873094268200,9.20626806640625,-2.9526544580847025,-0.2938040826320648,1.0066159598842264
1667824873104276200,9.216276123046875,-2.367069323080778,-0.2978147795781493,0.8740235989496111
1667824873114284300,9.2262841796875,-1.4133517174303531,-0.26170301723331213,0.6620356297388672
1667824873124291000,9.236291015625,-0.3588087619841099,-0.1764101676121354,0.3679837098255753
1667824873134299400,9.24629931640625,0.5680144069999457,-0.15435118827819824,0.05509703332185745
1667824873144306200,9.25630615234375,1.2842775937497615,-0.24342531000375747,-0.2512067576602101
1667824873154314800,9.266314697265624,1.6803537178546188,-0.38439737674891944,-0.5356821631938219
1667824873164322800,9.27632275390625,1.8955431134551763,-0.46917789293378587,-0.6708584031417966
1667824873174329900,9.286329833984375,1.8722586839795112,-0.5031041279330849,-0.67675476770401
1667824873184338000,9.296337890625,1.5920266151040792,-0.5122364056766033,-0.6021940322384238
1667824873194345700,9.306345703125,1.1395330227285623,-0.4886714056938886,-0.5175660762667655
1667824873204352800,9.316352783203126,0.7743892125040293,-0.38743659831434485,-0.39945962906330823
1667824873214360800,9.32636083984375,0.5927636483311652,-0.36185704363882537,-0.2672048295199871
1667824873224369000,9.336368896484375,0.49091070905327794,-0.37510873939990996,-0.30101036074906584
1667824873234375700,9.346375732421874,0.49097500646114345,-0.3501704052373767,-0.37833705379664895
1667824873244383700,9.3563837890625,0.5683785641372203,-0.2737052974551916,-0.40061961275339125
1667824873254391800,9.366391845703125,0.7365835057228803,-0.1939873253569007,-0.38000586379170415
1667824873264398800,9.37639892578125,0.8983967004448175,-0.1422661982089281,-0.4252352908328175
1667824873274407000,9.386406982421875,1.1083008491188286,-0.09125409611314535,-0.5094743936173618
1667824873284414700,9.396414794921874,1.3031541436553,-0.09229454507678747,-0.6283195303589105
1667824873294422000,9.406422119140625,1.4225579371929167,-0.12595716070383786,-0.7264370825007558
1667824873304429800,9.416429931640625,1.3627116635173557,-0.23955431378930805,-0.8351802196837961
1667824873314438000,9.42643798828125,1.2492448588132858,-0.2666466111153364,-0.7416687000326811
1667824873324444700,9.436444580078126,1.055768697848916,-0.1480193549081683,-0.39223976081237194
1667824873334453000,9.446452880859376,0.8134393663883209,0.046992637321352955,0.0179269940957427
1667824873344459800,9.456459716796875,0.5509358464270829,0.08882657670527697,0.32113398810625077
1667824873354467800,9.4664677734375,0.38608489144444463,0.024231939458847045,0.5183782694324851
1667824873364475600,9.4764755859375,0.25316052207648754,-0.019966390968859195,0.7451271699234843
1667824873374483000,9.48648291015625,0.04317570938169956,0.08240385018140077,1.019266767142713
1667824873384490800,9.49649072265625,-0.1393687232017517,0.3025958763748407,1.3328838037475943
1667824873394498800,9.506498779296875,-0.14341419920027254,0.5366325957864523,1.5514549507409334
1667824873404505900,9.516505859375,-0.018259294790029523,0.7093284190505743,1.641548478642106
1667824873414514000,9.526513916015626,0.22443711641728878,0.9901546544268727,1.716195431086421
1667824873424522000,9.53652197265625,0.39153438902199267,1.3599030358374118,1.7176248793676494
1667824873434528800,9.54652880859375,0.4250204790383577,1.6900073891237377,1.780006224478781
1667824873444536800,9.556536865234374,0.29920564941465855,1.9879089702025055,1.890190938772261
1667824873454545000,9.566544921875,0.03739420337080955,2.2911869836226106,1.9510671400174497
1667824873464552000,9.576552001953125,-0.20622049172520637,2.5851415806412694,1.9300915720060468
1667824873474559700,9.586559814453125,-0.2962368627369404,2.7190456086963413,1.7907108661055564
1667824873484567800,9.59656787109375,-0.28129648323655126,2.667270413273573,1.4481594114392995
1667824873494574800,9.606574951171876,0.04093523697853088,2.6428724695980548,1.3330949622802435
1667824873504583000,9.6165830078125,0.284361131504178,2.692909296920895,1.2259142521083355
1667824873514590700,9.6265908203125,0.4682037872046232,2.5918051301836966,0.9480600182801484
1667824873524597800,9.63659765625,0.30638883891701696,2.2530641737163064,0.6806476834893226
1667824873534605800,9.646605712890626,-0.11845745259821414,1.9162164836496114,0.6021843876272439
1667824873544614000,9.65661376953125,-0.428483186712861,1.7710875894859432,0.6875031023420393
1667824873554620700,9.66662060546875,-0.40815819156467914,1.7250453847572207,0.9207686912506818
1667824873564628700,9.676628662109374,-0.17085984000861643,1.7065104878962039,1.0902055127188564
1667824873574637000,9.686636962890624,0.013410685715079307,1.556103068807721,0.9334383493401109
1667824873584643800,9.696643798828125,-0.1064554646372795,1.0831593935996293,0.7128416878685355
1667824873594651600,9.706651611328125,-0.1837929713398218,0.9005947950109839,0.31984511733949184
1667824873604659700,9.71665966796875,-0.10691606788635254,0.8741606693327426,-0.040599136891961096
1667824873614666800,9.726666748046876,0.08116846316754818,0.5180070980325341,0.06757336079627276
1667824873624674800,9.7366748046875,0.5044049813985825,0.5731137759655713,0.06618629035204648
1667824873634681600,9.746681640625,0.8604536310195923,0.7959352738797664,0.02179915935397148
1667824873644690000,9.75668994140625,1.16749362732172,0.7775909311547875,-0.03094984953701496
1667824873654698000,9.766697998046874,1.4912860209822654,0.4921244687572121,-0.2125868118867278
1667824873664704800,9.776704833984375,1.654535970509052,-0.03724748837649822,-0.5274950573459267
1667824873674712800,9.786712890625,1.8611200348496435,-0.6150464995488524,-0.7314192548274994
1667824873684720600,9.796720703125,1.9994734435290098,-0.9951032167449593,-0.9424857252791523
1667824873694728000,9.80672802734375,1.889366470646858,-1.2099746324375271,-1.1376008856222033
1667824873704735700,9.81673583984375,1.5452572651445864,-1.4750962259426712,-1.18854021474272
1667824873714743800,9.826743896484375,1.278580843412876,-1.4273779046952724,-1.0159402530685067
1667824873724750800,9.836750732421875,0.9600000469207763,-0.9379568496778606,-0.919874957281351
1667824873734759000,9.846759033203124,0.378044208329916,-1.0602139868199825,-0.332983708114922
1667824873744766700,9.8567666015625,-0.20408231065273283,-0.8241863858520985,-0.6145382577657699
1667824873754773800,9.866773681640625,-0.18023907825052737,-0.25724077712744475,-1.3492960093662143
1667824873764781800,9.87678173828125,0.4540770621746778,-0.5836164652794599,-2.0163728481426832
1667824873774790000,9.886789794921874,0.8501660457611083,-1.3466191913723944,-2.4041963999480007
1667824873784796700,9.896796630859376,-0.39678164202570915,-1.8065341659203171,-2.685781929259002
1667824873794804700,9.9068046875,-0.5348942276865244,-2.03320123334676,-1.954846950817108
1667824873804812800,9.916812744140625,0.8522545424729585,-2.6592311914637685,-1.1655369402959943
1667824873814819800,9.92681982421875,1.5919377677768467,-3.1793451986476775,-1.1743392554327845
1667824873824828000,9.936827880859376,1.3145078968405723,-3.317522373977303,-1.6062147149324417
1667824873834834700,9.946834716796875,0.45378363218605516,-3.2017925927773114,-1.6191116059064865
1667824873844843000,9.956843017578125,-0.5536293232947588,-2.9890388998910784,-1.0834104457512497
1667824873854850800,9.966850830078124,-1.3323404906511307,-2.7385902671217917,-0.1966486535206437
1667824873864859000,9.97685888671875,-1.968129626238346,-2.429640345545113,0.5446218409746885
1667824873874865700,9.98686572265625,-3.4527298858463764,-2.0275453995421526,1.2276841843903064
1667824873884874000,9.9968740234375,-5.467658088138699,-1.5828089971646666,1.6923071904987095
1667824873894880800,10.006880859375,-4.428490396478772,-1.2649284578964113,1.2984800143644213
1667824873904888800,10.016888916015626,-4.272942691892386,-1.2940911317557096,0.7365218386635184
1667824873914896600,10.026896728515625,-4.340709821695089,-1.3103899401277304,0.3059294047117233
1667824873924904000,10.036904052734375,-3.8694448933541774,-1.1349871959924698,0.12018822191357612
1667824873934911700,10.046911865234375,-3.32092253780961,-1.1764835739850996,-0.13503712373822926
1667824873944919800,10.056919921875,-2.848229622492194,-1.3565075481802225,-0.1988891259238124
1667824873954926800,10.0669267578125,-2.3825351877599954,-1.2277727394565938,0.09567512742578983
1667824873964935000,10.076934814453125,-2.4610382311105727,-0.8546233174309134,0.5251631072670221
1667824873974943000,10.08694287109375,-2.777010306409001,-0.3946040057256818,0.714405283923447
1667824873984949800,10.09694970703125,-2.7956021941542626,-0.17001900527030228,0.5934437395498157
1667824873994957800,10.106957763671875,-2.830871660456061,-0.25619185259640215,0.329209888664633
1667824874004966000,10.1169658203125,-2.9601451061010358,-0.383430285282433,0.3503741111159324
1667824874014973000,10.126972900390625,-3.031587709546089,-0.5243529599279165,0.9119310125395655
1667824874024980700,10.136980712890624,-3.134418553945422,-0.5765063410133123,1.7295019257746636
1667824874034988800,10.14698876953125,-3.2730864354014395,-0.48716450826227664,2.415073329401761
1667824874044995800,10.156995849609375,-3.399163715353608,-0.19104221181571482,2.888866753306985
1667824874055004000,10.16700390625,-3.3005852677017447,0.020124504140019414,2.9843875669538975
1667824874065011700,10.17701171875,-2.8615339252233505,0.12699205670952796,2.774862188464403
1667824874075019000,10.18701904296875,-2.177741513967514,0.21068565444052217,2.3951322190046307
1667824874085026800,10.19702685546875,-1.4070552476346492,0.31298341487646103,1.9796916153468191
1667824874095033900,10.207033935546875,-0.6582382832825183,0.434986577257514,1.7801742745220661
1667824874105041700,10.217041748046874,0.08267652964293956,0.4389724320232868,1.7854364328339696
1667824874115049700,10.2270498046875,0.8018681710600852,0.45750060688257216,1.798999386501312
1667824874125058000,10.23705810546875,1.5807646318554878,0.6429027669847012,1.8200158710449932
1667824874135064800,10.24706494140625,2.5089076512664557,0.8401964404106139,1.6996066998571155
1667824874145072600,10.25707275390625,3.4462884546220303,0.8040496067523956,1.38058926551342
1667824874155080200,10.267080078125,4.282154756873846,0.6838555396199226,1.122770980758965
1667824874165088300,10.277088134765625,4.884052144253253,0.5449754767179489,0.9203437438368797
1667824874175096000,10.287095947265625,5.108676307675242,0.30642157214283944,0.7619956679422408
1667824874185103000,10.29710302734375,5.069976866924763,0.1365069040298462,0.7529732072487473
1667824874195111000,10.30711083984375,4.814971009242535,0.0479535913079977,0.6104654553689062
1667824874205119200,10.317119140625,4.199971563705802,-0.03239829477965832,0.4825136137165129
1667824874215126000,10.3271259765625,3.6125229729175565,-0.03340133434236049,0.8178535295687616
1667824874225134000,10.337134033203125,3.7404438349097964,-0.27164602683782574,1.160574349452555
1667824874235142000,10.347141845703124,3.780773507210612,-0.6352478683173656,1.0636775712773203
1667824874245149200,10.357149169921875,3.5317981618642804,-1.0260790775060653,0.9104216308899223
1667824874255157000,10.367156982421875,3.091232323169708,-1.2741396460950374,0.7755592791967093
1667824874265165000,10.3771650390625,2.647780699905753,-1.1585685625880957,0.7205119302354752
1667824874275172000,10.387172119140626,2.1471827095746994,-0.7311518360629677,0.8642775732219219
1667824874285180200,10.39718017578125,1.790142710828781,-0.25498744524270295,1.090346090233326
1667824874295188000,10.40718798828125,1.5804408067286013,0.0632943683028221,1.2437155739977954
1667824874305195000,10.417195068359375,1.3549796079605816,0.07482172448933123,1.1012542916081844
1667824874315203000,10.427203125,1.0254337653398513,-0.07920856127142906,1.0702050733499229
1667824874325211100,10.437211181640626,0.5304606291532517,-0.20154431660771369,1.0917485043771564
1667824874335218000,10.447218017578125,0.018709376645088194,-0.11329378622472286,1.1075807181507349
1667824874345226000,10.45722607421875,-0.40831425890922546,0.01090045645982027,1.2016723757773637
1667824874355234000,10.467234130859374,-0.6792956843584775,0.01541910292804241,1.2531268148131667
1667824874365241000,10.477240966796876,-1.0028437478691339,-0.2441322892293334,1.349773563750088
1667824874375249200,10.487249267578125,-1.423488496041298,-0.7674787024632096,1.483256882175058
1667824874385256000,10.497255859375,-1.7785235847055911,-1.2069862642765044,1.5101852211110294
1667824874395264300,10.50726416015625,-2.0818957061499357,-1.3797712271288036,1.5549546294249594
1667824874405272000,10.51727197265625,-2.33489431566298,-1.2816074977576732,1.8024153324246406
1667824874415279000,10.527279052734375,-2.487528178629279,-0.8411991877123713,2.1347141270153225
1667824874425287000,10.537286865234375,-2.483289225885272,-0.22890958565622566,2.3278598869815466
1667824874435295200,10.547295166015624,-2.3577251561522483,0.20646891352832317,2.2878489252410827
1667824874445302000,10.557302001953126,-2.132836204314232,0.3667892393440008,2.115196794988215
1667824874455310000,10.56731005859375,-1.9084008414626121,0.34958208395540713,1.8287310924202203
1667824874465318000,10.57731787109375,-1.7463988461703062,0.30437691457271576,1.483149037886411
1667824874475325200,10.5873251953125,-1.7404343848079442,0.29349662411808963,1.2166259070202707
1667824874485333000,10.5973330078125,-1.7779741341292856,0.2648731717020273,1.1024933318838477
1667824874495341000,10.607341064453125,-1.843756227594614,0.12950053239911793,0.993265918315202
1667824874505347800,10.617347900390625,-1.9495418301463125,-0.03353635889887809,0.9405869059205054
1667824874515356200,10.627356201171875,-2.126507001292705,-0.21396014606654642,1.0289154699757694
1667824874525364200,10.6373642578125,-2.248835742366314,-0.25195816054940223,1.194486994317919
1667824874535371000,10.64737109375,-2.2736071955293418,-0.1308247667402029,1.3473948519200085
1667824874545379000,10.657379150390625,-2.17642400162816,0.08950549888014793,1.4762237686678765
1667824874555387100,10.66738720703125,-2.0504408297002312,0.27138357650935646,1.541848187353462
1667824874565394200,10.677394287109376,-2.0911539483606814,0.5784869934365153,1.614872507032007
1667824874575402000,10.687402099609375,-2.146280207777023,1.1045192847535013,1.7484423346966504
1667824874585409300,10.6974091796875,-2.1579677229613066,1.6415812118679285,1.8811907629758118
1667824874595417000,10.7074169921875,-2.1841052037805317,2.0629396612673996,2.0012039205834267
1667824874605425200,10.717425048828124,-2.0751924091190097,2.2820611356198786,2.1641277068957687
1667824874615432000,10.727431884765625,-1.7073504458516835,2.2284873663425446,2.2709819615922866
1667824874625440000,10.73743994140625,-1.0887947691380977,1.920805272744596,2.227402493715286
1667824874635448000,10.747447998046875,-0.35623452758193014,1.4796516972899436,2.1399584574095902
1667824874645455000,10.757455078125,0.37513445836305614,1.0857175536498427,2.096125453162938
1667824874655463000,10.767462890625,0.9247247354000806,0.8143775240212678,2.068676889745146
1667824874665471000,10.777470947265625,1.260969783398509,0.6853028158187866,2.0408440031848847
1667824874675478000,10.78747802734375,1.4319576337009667,0.7386442376449703,2.0047263956211507
1667824874685486000,10.797486083984374,1.5005834261596203,0.9587313421592116,2.000751646771282
1667824874695494100,10.807494140625,1.4228694873601198,1.15292792635262,1.9758369857452809
1667824874705501200,10.817501220703125,1.3244476915746926,1.3046680553495884,1.8839419613800943
1667824874715509200,10.82750927734375,1.2394143696725368,1.4277838551476596,1.7729865549750625
1667824874725517000,10.83751708984375,1.099566338521242,1.4929863951593636,1.6575620403319595
1667824874735524000,10.847524169921876,1.0440928731024264,1.5293036169484258,1.5484085687823592
1667824874745532200,10.8575322265625,1.053232457369566,1.4523282215565443,1.3626422515429555
1667824874755540200,10.867540283203125,1.1073615224421023,1.381865276798606,1.169741844639927
1667824874765547000,10.877547119140624,1.097246371141076,1.2929928151249885,1.0742020340315996
1667824874775555000,10.88755517578125,1.0366127464801072,1.1781272495388984,1.0271594200886784
1667824874785563000,10.89756298828125,0.9322808498680591,1.00415658403337,0.889180836071074
1667824874795570200,10.907570068359375,0.688386753308773,0.8121130862206221,0.6986559261277318
1667824874805578000,10.917577880859374,0.26353753918409345,0.6940636299014091,0.5715158392496407
1667824874815585000,10.9275849609375,-0.19554946010708807,0.7010486664831638,0.6869931069932877
1667824874825593000,10.937593017578125,-0.6133721365958452,0.8336889582127333,0.9845341841965913
1667824874835601200,10.94760107421875,-0.965437269538641,0.9805839852660894,1.1638609699077904
1667824874845608000,10.95760791015625,-1.2017933718085287,1.04339612300992,1.2424853015504778
1667824874855616000,10.967615966796876,-1.374630649369955,0.9831102888733148,1.3372637723974883
1667824874865624000,10.9776240234375,-1.4972902298331259,0.9334440484285355,1.4535235688209533
1667824874875631000,10.987631103515625,-1.6271686556339262,1.0118120672225952,1.5598386020742356
1667824874885639000,10.997638916015624,-1.776476004526019,1.2665309246569871,1.7941029927618801
1667824874895647000,11.00764697265625,-1.6327181064546108,1.5811977625757454,2.0613531227283177
1667824874905654000,11.017654052734375,-1.370165486654639,1.6551543946683407,1.996821613845974
1667824874915662000,11.027662109375,-1.3456570683419704,1.634988973996043,2.0185313413508235
1667824874925670100,11.037670166015625,-1.4076064517766236,1.6191308951288461,2.2480475145980714
1667824874935677000,11.047677001953126,-1.5535148058801889,1.5886451559722423,2.2893999540753662
1667824874945685200,11.057685302734376,-1.612217170217633,1.566148077481985,2.1717612705141303
1667824874955693000,11.067693115234375,-1.5221733266770838,1.5311726256906986,2.0478741940826177
1667824874965700000,11.0777001953125,-1.3098603632956742,1.492939048886299,1.9047582471765576
1667824874975708000,11.0877080078125,-1.0035966120630502,1.3979577489435673,1.7584559253193437
