time,seconds_elapsed,z,y,x
1667824863894740500,0.006740478515625,-0.9483795166015625,-0.2681427001953125,-0.03155517578125
1667824863904747800,0.016747802734375,-0.934173583984375,-0.2971649169921875,-0.040252685546875
1667824863914755600,0.026755615234375,-0.9259185791015625,-0.317230224609375,-0.045654296875
1667824863924763600,0.036763671875,-0.9220428466796875,-0.332183837890625,-0.0503692626953125
1667824863934770700,0.046770751953125,-0.9264373779296875,-0.3457489013671875,-0.0480194091796875
1667824863944778800,0.05677880859375,-0.9300537109375,-0.34991455078125,-0.0379638671875
1667824863954786800,0.066786865234375,-0.9287872314453125,-0.353759765625,-0.0319671630859375
1667824863964793600,0.076793701171875,-0.92962646484375,-0.3599090576171875,-0.0181121826171875
1667824863974801700,0.0868017578125,-0.934112548828125,-0.357818603515625,0.0056915283203125
1667824863984809700,0.096809814453125,-0.935791015625,-0.3502197265625,0.029510498046875
1667824863994816800,0.106816650390625,-0.9465484619140625,-0.3490142822265625,0.0478515625
1667824864004824600,0.116824462890625,-0.9443817138671875,-0.351470947265625,0.06915283203125
1667824864014831900,0.126831787109375,-0.934600830078125,-0.34893798828125,0.0921630859375
1667824864024839700,0.136839599609375,-0.91949462890625,-0.3395538330078125,0.127532958984375
1667824864034847700,0.14684765625,-0.9358367919921875,-0.341339111328125,0.165802001953125
1667824864044854500,0.1568544921875,-0.9769744873046875,-0.327911376953125,0.1079254150390625
1667824864054862800,0.16686279296875,-0.96929931640625,-0.3008880615234375,0.1115264892578125
1667824864064870700,0.17687060546875,-0.889251708984375,-0.3161163330078125,0.120269775390625
1667824864074877700,0.186877685546875,-0.844818115234375,-0.3751983642578125,0.0679473876953125
1667824864084885500,0.196885498046875,-0.95941162109375,-0.41058349609375,0.03973388671875
1667824864094893600,0.2068935546875,-1.035125732421875,-0.410797119140625,0.087005615234375
1667824864104900600,0.216900634765625,-0.983673095703125,-0.3768157958984375,0.178802490234375
1667824864114908700,0.22690869140625,-1.0655670166015625,-0.289215087890625,0.30767822265625
1667824864124916700,0.236916748046875,-1.078094482421875,-0.2540130615234375,0.2823486328125
1667824864134923800,0.246923828125,-1.0554351806640625,-0.254364013671875,0.22076416015625
1667824864144932600,0.2569326171875,-0.9951171875,-0.279541015625,0.1826171875
1667824864154939600,0.266939697265625,-0.9141845703125,-0.3549957275390625,0.151275634765625
1667824864164947500,0.276947509765625,-0.8343963623046875,-0.4263916015625,0.1375885009765625
1667824864174955500,0.28695556640625,-0.7428741455078125,-0.5070648193359375,0.1172027587890625
1667824864184962600,0.296962646484375,-0.6266632080078125,-0.630859375,0.04547119140625
1667824864194970600,0.306970703125,-0.5230865478515625,-0.690277099609375,-0.0111083984375
1667824864204978400,0.316978515625,-0.4987335205078125,-0.6556243896484375,0.0595703125
1667824864214985700,0.32698583984375,-0.5332489013671875,-0.5558013916015625,0.1777496337890625
1667824864224993500,0.33699365234375,-0.9012908935546875,-0.497222900390625,0.23089599609375
1667824864235001600,0.347001708984375,-1.2071533203125,-0.467254638671875,0.2733306884765625
1667824864245008400,0.35700830078125,-0.874053955078125,-0.450836181640625,0.3060302734375
1667824864255016400,0.367016357421875,-0.8359527587890625,-0.5149383544921875,0.2498321533203125
1667824864265023500,0.3770234375,-0.7719573974609375,-0.5792236328125,0.2205352783203125
1667824864275031600,0.387031494140625,-0.7557373046875,-0.5857696533203125,0.261383056640625
1667824864285039600,0.39703955078125,-0.7685089111328125,-0.547271728515625,0.3194580078125
1667824864295046700,0.407046630859375,-0.7738800048828125,-0.5186920166015625,0.31781005859375
1667824864305054700,0.4170546875,-0.7718505859375,-0.5410919189453125,0.2593841552734375
1667824864315062500,0.4270625,-0.72479248046875,-0.5832977294921875,0.236602783203125
1667824864325069600,0.437069580078125,-0.661224365234375,-0.601287841796875,0.2486724853515625
1667824864335077600,0.44707763671875,-0.62042236328125,-0.56195068359375,0.2407379150390625
1667824864345085700,0.457085693359375,-0.590606689453125,-0.5366363525390625,0.2274017333984375
1667824864355092500,0.467092529296875,-0.5745391845703125,-0.5441436767578125,0.2386322021484375
1667824864365100500,0.4771005859375,-0.5923309326171875,-0.53955078125,0.257049560546875
1667824864375108600,0.487108642578125,-0.6179351806640625,-0.53692626953125,0.2598876953125
1667824864385115600,0.49711572265625,-0.634735107421875,-0.5242156982421875,0.2858734130859375
1667824864395123500,0.50712353515625,-0.6737518310546875,-0.515869140625,0.320037841796875
1667824864405130800,0.517130859375,-0.7231903076171875,-0.51214599609375,0.338592529296875
1667824864415138600,0.527138671875,-0.779266357421875,-0.4824371337890625,0.3746795654296875
1667824864425146600,0.537146728515625,-0.8194732666015625,-0.4481658935546875,0.419769287109375
1667824864435153400,0.5471533203125,-0.8213958740234375,-0.4544677734375,0.4339752197265625
1667824864445161500,0.557161376953125,-0.810302734375,-0.4882659912109375,0.425628662109375
1667824864455169800,0.567169677734375,-0.8094940185546875,-0.5194091796875,0.4131317138671875
1667824864465176600,0.577176513671875,-0.80645751953125,-0.5361785888671875,0.4127655029296875
1667824864475184600,0.5871845703125,-0.7934112548828125,-0.5551300048828125,0.4068145751953125
1667824864485192400,0.5971923828125,-0.78289794921875,-0.5925140380859375,0.391326904296875
1667824864495199700,0.60719970703125,-0.7894744873046875,-0.6086578369140625,0.3884735107421875
1667824864505207600,0.61720751953125,-0.7941436767578125,-0.599639892578125,0.421966552734375
1667824864515214600,0.627214599609375,-0.7881622314453125,-0.602691650390625,0.4642791748046875
1667824864525222700,0.63722265625,-0.7763824462890625,-0.6228485107421875,0.4852142333984375
1667824864535230700,0.647230712890625,-0.7627716064453125,-0.638031005859375,0.499298095703125
1667824864545237500,0.657237548828125,-0.743255615234375,-0.6396942138671875,0.5235748291015625
1667824864555245600,0.66724560546875,-0.7412261962890625,-0.6289215087890625,0.5549774169921875
1667824864565253400,0.67725341796875,-0.747222900390625,-0.624664306640625,0.57366943359375
1667824864575260700,0.6872607421875,-0.7534027099609375,-0.63739013671875,0.57073974609375
1667824864585268500,0.6972685546875,-0.74755859375,-0.6451568603515625,0.58074951171875
1667824864595276500,0.707276611328125,-0.7441864013671875,-0.631927490234375,0.5926361083984375
1667824864605283600,0.71728369140625,-0.7442626953125,-0.6169281005859375,0.603973388671875
1667824864615291600,0.727291748046875,-0.7530975341796875,-0.613739013671875,0.600067138671875
1667824864625298400,0.73729833984375,-0.7584228515625,-0.6134796142578125,0.5928955078125
1667824864635306500,0.747306396484375,-0.7374114990234375,-0.6163787841796875,0.57806396484375
1667824864645314600,0.757314453125,-0.71051025390625,-0.6256561279296875,0.5571746826171875
1667824864655321600,0.767321533203125,-0.683441162109375,-0.631134033203125,0.5449371337890625
1667824864665329400,0.777329345703125,-0.6611175537109375,-0.6292572021484375,0.5340576171875
1667824864675337500,0.78733740234375,-0.643035888671875,-0.6287078857421875,0.5202789306640625
1667824864685344500,0.797344482421875,-0.627471923828125,-0.6333770751953125,0.50555419921875
1667824864695352600,0.8073525390625,-0.6054534912109375,-0.64312744140625,0.488494873046875
1667824864705360600,0.817360595703125,-0.580322265625,-0.6533660888671875,0.4788970947265625
1667824864715367700,0.82736767578125,-0.5536041259765625,-0.6415863037109375,0.4817962646484375
1667824864725375700,0.837375732421875,-0.5377044677734375,-0.62548828125,0.484161376953125
1667824864735383600,0.847383544921875,-0.5202789306640625,-0.6181488037109375,0.46490478515625
1667824864745390600,0.857390625,-0.4939727783203125,-0.607757568359375,0.4332275390625
1667824864755398400,0.8673984375,-0.471435546875,-0.5864715576171875,0.4039459228515625
1667824864765405700,0.87740576171875,-0.4587554931640625,-0.550628662109375,0.4080963134765625
1667824864775413500,0.88741357421875,-0.4588165283203125,-0.5061187744140625,0.4237060546875
1667824864785421600,0.897421630859375,-0.4614715576171875,-0.4960784912109375,0.383697509765625
1667824864795428600,0.9074287109375,-0.4430084228515625,-0.5088653564453125,0.3521881103515625
1667824864805436700,0.917436767578125,-0.4273681640625,-0.525177001953125,0.3322601318359375
1667824864815444500,0.927444580078125,-0.426849365234375,-0.5447845458984375,0.314971923828125
1667824864825451500,0.937451416015625,-0.43707275390625,-0.5624237060546875,0.3139495849609375
1667824864835459600,0.94745947265625,-0.4602203369140625,-0.5861358642578125,0.3245086669921875
1667824864845467600,0.957467529296875,-0.49688720703125,-0.619232177734375,0.3291168212890625
1667824864855474400,0.967474365234375,-0.540374755859375,-0.6516876220703125,0.3360748291015625
1667824864865482500,0.977482421875,-0.5785064697265625,-0.6767425537109375,0.3585968017578125
1667824864875489500,0.987489501953125,-0.6092071533203125,-0.689117431640625,0.387908935546875
1667824864885497600,0.99749755859375,-0.6306610107421875,-0.69696044921875,0.412750244140625
1667824864895505700,1.007505615234375,-0.6431121826171875,-0.7103424072265625,0.4223785400390625
1667824864905512400,1.017512451171875,-0.6480712890625,-0.725677490234375,0.41717529296875
1667824864915520800,1.027520751953125,-0.6507568359375,-0.7332916259765625,0.4134063720703125
1667824864925528600,1.037528564453125,-0.6572265625,-0.7381439208984375,0.4092864990234375
1667824864935535600,1.04753564453125,-0.660797119140625,-0.7420196533203125,0.40240478515625
1667824864945543400,1.05754345703125,-0.677490234375,-0.742340087890625,0.3937530517578125
1667824864955551700,1.0675517578125,-0.68170166015625,-0.7325592041015625,0.398040771484375
1667824864965558500,1.07755859375,-0.67266845703125,-0.7040557861328125,0.4105987548828125
1667824864975566600,1.087566650390625,-0.663543701171875,-0.6806640625,0.409393310546875
1667824864985574400,1.097574462890625,-0.6480712890625,-0.6755218505859375,0.3941802978515625
1667824864995581700,1.107581787109375,-0.6347503662109375,-0.6790008544921875,0.37811279296875
1667824865005589500,1.117589599609375,-0.6330718994140625,-0.68096923828125,0.3642578125
1667824865015596500,1.127596435546875,-0.6330108642578125,-0.68365478515625,0.355499267578125
1667824865025604600,1.1376044921875,-0.6253814697265625,-0.682373046875,0.349578857421875
1667824865035612700,1.14761279296875,-0.6179656982421875,-0.6610260009765625,0.35833740234375
1667824865045619500,1.157619384765625,-0.620758056640625,-0.637176513671875,0.3660736083984375
1667824865055627500,1.16762744140625,-0.63006591796875,-0.6342010498046875,0.3616180419921875
1667824865065635600,1.177635498046875,-0.633636474609375,-0.64501953125,0.375457763671875
1667824865075642600,1.187642578125,-0.6427154541015625,-0.651611328125,0.4153594970703125
1667824865085650700,1.197650634765625,-0.666168212890625,-0.65509033203125,0.4558563232421875
1667824865095658500,1.207658447265625,-0.6968841552734375,-0.6553955078125,0.4878997802734375
1667824865105665800,1.217665771484375,-0.737579345703125,-0.6429901123046875,0.516357421875
1667824865115673600,1.227673583984375,-0.832763671875,-0.6158294677734375,0.547821044921875
1667824865125680600,1.2376806640625,-0.90521240234375,-0.59124755859375,0.6175384521484375
1667824865135688400,1.2476884765625,-0.9144744873046875,-0.542449951171875,0.6664276123046875
1667824865145695200,1.2576953125,-0.8959808349609375,-0.492218017578125,0.64471435546875
1667824865155702000,1.267701904296875,-0.832366943359375,-0.4653472900390625,0.59942626953125
1667824865165710300,1.27771044921875,-0.7507476806640625,-0.443359375,0.547943115234375
1667824865175718400,1.287718505859375,-0.6807403564453125,-0.43194580078125,0.4985504150390625
1667824865185725200,1.29772509765625,-0.6277923583984375,-0.4359283447265625,0.45172119140625
1667824865195733200,1.307733154296875,-0.5843353271484375,-0.4423065185546875,0.4046630859375
1667824865205741000,1.317740966796875,-0.53472900390625,-0.447540283203125,0.3693389892578125
1667824865215748400,1.327748291015625,-0.45159912109375,-0.4649505615234375,0.3456573486328125
1667824865225756200,1.337756103515625,-0.41400146484375,-0.4802093505859375,0.3182525634765625
1667824865235764200,1.34776416015625,-0.444366455078125,-0.46795654296875,0.3426513671875
1667824865245771300,1.357771240234375,-0.50531005859375,-0.458740234375,0.3841094970703125
1667824865255779300,1.367779296875,-0.5828704833984375,-0.464996337890625,0.4126434326171875
1667824865265786000,1.3777861328125,-0.655670166015625,-0.4738006591796875,0.4351959228515625
1667824865275794200,1.387794189453125,-0.743896484375,-0.467041015625,0.459381103515625
1667824865285802200,1.39780224609375,-0.8519287109375,-0.4380035400390625,0.5255889892578125
1667824865295809300,1.407809326171875,-0.91729736328125,-0.40252685546875,0.5832977294921875
1667824865305817000,1.417817138671875,-0.9315032958984375,-0.3954925537109375,0.5603790283203125
1667824865315825200,1.4278251953125,-0.9009246826171875,-0.420562744140625,0.505767822265625
1667824865325832200,1.437832275390625,-0.833740234375,-0.438568115234375,0.46160888671875
1667824865335840300,1.44784033203125,-0.7534637451171875,-0.442138671875,0.4202880859375
1667824865345848000,1.45784814453125,-0.6799774169921875,-0.434906005859375,0.369384765625
1667824865355855000,1.467855224609375,-0.6206512451171875,-0.4222564697265625,0.31341552734375
1667824865365863200,1.47786328125,-0.5764617919921875,-0.42071533203125,0.269287109375
1667824865375870200,1.4878701171875,-0.55078125,-0.4271240234375,0.242340087890625
1667824865385878000,1.4978779296875,-0.5485687255859375,-0.4298858642578125,0.2335205078125
1667824865395886000,1.507885986328125,-0.5572052001953125,-0.4327239990234375,0.2324371337890625
1667824865405893000,1.51789306640625,-0.5709381103515625,-0.4443359375,0.23626708984375
1667824865415901200,1.527901123046875,-0.5996856689453125,-0.468505859375,0.2342071533203125
1667824865425909200,1.5379091796875,-0.6183624267578125,-0.4901123046875,0.249420166015625
1667824865435916300,1.547916259765625,-0.6463623046875,-0.4869842529296875,0.28485107421875
1667824865445924400,1.55792431640625,-0.694061279296875,-0.47393798828125,0.3227386474609375
1667824865455932200,1.56793212890625,-0.7448272705078125,-0.4731903076171875,0.3445892333984375
1667824865465939200,1.577939208984375,-0.78143310546875,-0.4782257080078125,0.351837158203125
1667824865475947300,1.587947265625,-0.8007049560546875,-0.4886474609375,0.3438568115234375
1667824865485955300,1.597955322265625,-0.7996978759765625,-0.5034637451171875,0.3341827392578125
1667824865495962000,1.607962158203125,-0.786285400390625,-0.509674072265625,0.338470458984375
1667824865505970200,1.61797021484375,-0.769744873046875,-0.512542724609375,0.343505859375
1667824865515977200,1.627977294921875,-0.7511749267578125,-0.5178985595703125,0.347381591796875
1667824865525985300,1.6379853515625,-0.733184814453125,-0.522735595703125,0.346832275390625
1667824865535993000,1.6479931640625,-0.7176666259765625,-0.5283050537109375,0.3476409912109375
1667824865546000100,1.658000244140625,-0.7189178466796875,-0.53619384765625,0.34954833984375
1667824865556008200,1.66800830078125,-0.7386322021484375,-0.5540924072265625,0.3430328369140625
1667824865566016300,1.678016357421875,-0.7568206787109375,-0.572998046875,0.3416595458984375
1667824865576023000,1.68802294921875,-0.7690582275390625,-0.57366943359375,0.35174560546875
1667824865586031000,1.698031005859375,-0.775726318359375,-0.56353759765625,0.3724517822265625
1667824865596039200,1.7080390625,-0.7905120849609375,-0.553558349609375,0.397552490234375
1667824865606046200,1.718046142578125,-0.841217041015625,-0.5494537353515625,0.419769287109375
1667824865616054300,1.72805419921875,-0.8828887939453125,-0.5668792724609375,0.429534912109375
1667824865626061300,1.738061279296875,-0.9009552001953125,-0.581268310546875,0.4334716796875
1667824865636069400,1.7480693359375,-0.89849853515625,-0.576904296875,0.441802978515625
1667824865646077200,1.7580771484375,-0.894805908203125,-0.568206787109375,0.4521484375
1667824865656084200,1.768084228515625,-0.8918304443359375,-0.558624267578125,0.4624481201171875
1667824865666092000,1.778092041015625,-0.892974853515625,-0.542724609375,0.461822509765625
1667824865676100400,1.788100341796875,-0.8963470458984375,-0.5199432373046875,0.4495849609375
1667824865686107100,1.798107177734375,-0.8868560791015625,-0.4913787841796875,0.4334716796875
1667824865696115200,1.808115234375,-0.8741607666015625,-0.4661865234375,0.407470703125
1667824865706123000,1.818123046875,-0.8660125732421875,-0.4454193115234375,0.37957763671875
1667824865716130300,1.82813037109375,-0.861724853515625,-0.4219207763671875,0.362640380859375
1667824865726138000,1.83813818359375,-0.8748779296875,-0.39630126953125,0.3655853271484375
1667824865736146200,1.848146240234375,-0.875518798828125,-0.391204833984375,0.401397705078125
1667824865746153200,1.8581533203125,-0.85589599609375,-0.4182281494140625,0.4187164306640625
1667824865756161300,1.868161376953125,-0.830047607421875,-0.4650726318359375,0.3955230712890625
1667824865766168000,1.87816796875,-0.8139190673828125,-0.5027618408203125,0.383697509765625
1667824865776176000,1.888176025390625,-0.8088531494140625,-0.4967193603515625,0.426513671875
1667824865786184200,1.89818408203125,-0.8079833984375,-0.458709716796875,0.5131683349609375
1667824865796191200,1.908191162109375,-0.8236846923828125,-0.43450927734375,0.5729217529296875
1667824865806199000,1.918198974609375,-0.8524932861328125,-0.4421539306640625,0.586029052734375
1667824865816207000,1.92820703125,-0.8873138427734375,-0.4645233154296875,0.576690673828125
1667824865826214100,1.938214111328125,-0.912506103515625,-0.4825439453125,0.5672454833984375
1667824865836222200,1.94822216796875,-0.9151763916015625,-0.4921875,0.5521087646484375
1667824865846230300,1.958230224609375,-0.906341552734375,-0.50079345703125,0.5269317626953125
1667824865856237000,1.968237060546875,-0.8984222412109375,-0.5112152099609375,0.496856689453125
1667824865866245400,1.978245361328125,-0.88507080078125,-0.5222015380859375,0.465667724609375
1667824865876253200,1.988253173828125,-0.8628692626953125,-0.5351104736328125,0.4354248046875
1667824865886260200,1.99826025390625,-0.839935302734375,-0.554046630859375,0.3962860107421875
1667824865896268000,2.00826806640625,-0.81951904296875,-0.573394775390625,0.367095947265625
1667824865906276400,2.0182763671875,-0.806243896484375,-0.5840301513671875,0.352081298828125
1667824865916283100,2.028283203125,-0.7987060546875,-0.58984375,0.339019775390625
1667824865926291200,2.038291259765625,-0.7985076904296875,-0.5876007080078125,0.3368988037109375
1667824865936298200,2.04829833984375,-0.8079071044921875,-0.5721282958984375,0.3455963134765625
1667824865946306300,2.058306396484375,-0.8242645263671875,-0.559356689453125,0.350006103515625
1667824865956314000,2.068314208984375,-0.8360137939453125,-0.546661376953125,0.349700927734375
1667824865966321200,2.078321044921875,-0.8386077880859375,-0.5360107421875,0.34747314453125
1667824865976329200,2.0883291015625,-0.82525634765625,-0.537353515625,0.338043212890625
1667824865986337300,2.098337158203125,-0.799102783203125,-0.545257568359375,0.3095550537109375
1667824865996344000,2.108343994140625,-0.767333984375,-0.5572052001953125,0.2790985107421875
1667824866006352100,2.11835205078125,-0.7330780029296875,-0.5633087158203125,0.265838623046875
1667824866016360200,2.128360107421875,-0.7037200927734375,-0.564971923828125,0.261474609375
1667824866026367200,2.1383671875,-0.684967041015625,-0.569427490234375,0.262176513671875
1667824866036375300,2.148375244140625,-0.6826324462890625,-0.5775909423828125,0.26806640625
1667824866046383000,2.158383056640625,-0.7078704833984375,-0.5897064208984375,0.2763214111328125
1667824866056390400,2.168390380859375,-0.7358551025390625,-0.5964813232421875,0.3021087646484375
1667824866066398200,2.178398193359375,-0.7551116943359375,-0.58892822265625,0.3325653076171875
1667824866076405200,2.1884052734375,-0.7646942138671875,-0.573150634765625,0.359832763671875
1667824866086413000,2.1984130859375,-0.7659454345703125,-0.5576934814453125,0.368804931640625
1667824866096421000,2.208421142578125,-0.7638092041015625,-0.5503997802734375,0.3597869873046875
1667824866106428200,2.21842822265625,-0.751129150390625,-0.5426483154296875,0.36279296875
1667824866116436200,2.228436279296875,-0.738800048828125,-0.529449462890625,0.3765106201171875
1667824866126444000,2.238444091796875,-0.740631103515625,-0.5144500732421875,0.3927459716796875
1667824866136451300,2.248451416015625,-0.760498046875,-0.5041656494140625,0.412109375
1667824866146459600,2.258459716796875,-0.7945404052734375,-0.49615478515625,0.4354705810546875
1667824866156467700,2.2684677734375,-0.8249664306640625,-0.4824676513671875,0.456207275390625
1667824866166474500,2.278474609375,-0.8465118408203125,-0.4677886962890625,0.475830078125
1667824866176482600,2.288482666015625,-0.8416290283203125,-0.450592041015625,0.4950714111328125
1667824866186490600,2.29849072265625,-0.8254241943359375,-0.4375152587890625,0.5025482177734375
1667824866196497700,2.30849755859375,-0.8028564453125,-0.43438720703125,0.5041046142578125
1667824866206505500,2.31850537109375,-0.7843475341796875,-0.4301605224609375,0.5039520263671875
1667824866216512800,2.3285126953125,-0.7814483642578125,-0.4175872802734375,0.512725830078125
1667824866226520600,2.3385205078125,-0.7928314208984375,-0.4059600830078125,0.5202484130859375
1667824866236528600,2.348528564453125,-0.8110504150390625,-0.41070556640625,0.52044677734375
1667824866246535400,2.358535400390625,-0.835693359375,-0.4190826416015625,0.5191650390625
1667824866256543700,2.368543701171875,-0.862884521484375,-0.412933349609375,0.523101806640625
1667824866266551600,2.378551513671875,-0.8894500732421875,-0.3921356201171875,0.5333404541015625
1667824866276558600,2.38855859375,-0.9036407470703125,-0.372955322265625,0.54815673828125
1667824866286566400,2.39856640625,-0.898651123046875,-0.35980224609375,0.5476837158203125
1667824866296574700,2.40857470703125,-0.873565673828125,-0.348114013671875,0.52984619140625
1667824866306581500,2.41858154296875,-0.8280181884765625,-0.33740234375,0.50238037109375
1667824866316589600,2.428589599609375,-0.771759033203125,-0.3329010009765625,0.465301513671875
1667824866326597600,2.43859765625,-0.71514892578125,-0.3329010009765625,0.415130615234375
1667824866336604700,2.448604736328125,-0.6590728759765625,-0.3344573974609375,0.3657073974609375
1667824866346612700,2.45861279296875,-0.609710693359375,-0.33270263671875,0.3233795166015625
1667824866356619500,2.46861962890625,-0.5735931396484375,-0.325469970703125,0.284576416015625
1667824866366627600,2.478627685546875,-0.5540313720703125,-0.3197784423828125,0.2455291748046875
1667824866376635600,2.4886357421875,-0.5473480224609375,-0.3190155029296875,0.2119140625
1667824866386642700,2.498642578125,-0.554595947265625,-0.320648193359375,0.18292236328125
1667824866396650500,2.508650390625,-0.567291259765625,-0.3248291015625,0.156280517578125
1667824866406658600,2.518658447265625,-0.5802001953125,-0.329345703125,0.137054443359375
1667824866416665600,2.52866552734375,-0.6008758544921875,-0.332763671875,0.12774658203125
1667824866426673700,2.538673583984375,-0.61883544921875,-0.3350677490234375,0.131500244140625
1667824866436681500,2.548681396484375,-0.643798828125,-0.342529296875,0.1376495361328125
1667824866446688800,2.558688720703125,-0.6638031005859375,-0.358856201171875,0.1410369873046875
1667824866456696600,2.568696533203125,-0.6768341064453125,-0.3713226318359375,0.1461029052734375
1667824866466704600,2.57870458984375,-0.704132080078125,-0.3807220458984375,0.1537628173828125
1667824866476711400,2.58871142578125,-0.7368011474609375,-0.387359619140625,0.171661376953125
1667824866486719500,2.598719482421875,-0.77679443359375,-0.3975372314453125,0.1864166259765625
1667824866496727800,2.608727783203125,-0.8038482666015625,-0.413818359375,0.193939208984375
1667824866506734600,2.618734619140625,-0.8247833251953125,-0.4225006103515625,0.2001190185546875
1667824866516742700,2.62874267578125,-0.8402252197265625,-0.4278411865234375,0.2003021240234375
1667824866526749700,2.638749755859375,-0.8518829345703125,-0.43780517578125,0.1971588134765625
1667824866536757800,2.6487578125,-0.8582763671875,-0.451141357421875,0.2022552490234375
1667824866546765600,2.658765625,-0.86859130859375,-0.456085205078125,0.2176055908203125
1667824866556772600,2.668772705078125,-0.8916473388671875,-0.4537200927734375,0.24639892578125
1667824866566780700,2.67878076171875,-0.915191650390625,-0.4447021484375,0.2793426513671875
1667824866576788700,2.688788818359375,-0.932891845703125,-0.4602508544921875,0.2753448486328125
1667824866586795500,2.69879541015625,-0.9200897216796875,-0.53704833984375,0.2566680908203125
1667824866596803600,2.708803466796875,-0.9136505126953125,-0.6240997314453125,0.256683349609375
1667824866606811600,2.718811767578125,-0.9273681640625,-0.672882080078125,0.2765655517578125
1667824866616818700,2.728818603515625,-0.964691162109375,-0.686676025390625,0.303375244140625
1667824866626826500,2.738826416015625,-1.0108795166015625,-0.6823883056640625,0.3320770263671875
1667824866636834600,2.74883447265625,-1.045135498046875,-0.68206787109375,0.3553924560546875
1667824866646841600,2.758841552734375,-1.06695556640625,-0.66400146484375,0.358551025390625
1667824866656849700,2.768849609375,-1.084442138671875,-0.6126251220703125,0.3554534912109375
1667824866666856400,2.7788564453125,-1.1058502197265625,-0.5473480224609375,0.3576507568359375
1667824866676864500,2.788864501953125,-1.1214599609375,-0.4910430908203125,0.35601806640625
1667824866686872800,2.798872802734375,-1.115020751953125,-0.4410552978515625,0.346160888671875
1667824866696879600,2.808879638671875,-1.08404541015625,-0.3981475830078125,0.3329010009765625
1667824866706887700,2.8188876953125,-1.042877197265625,-0.3574981689453125,0.313446044921875
1667824866716895500,2.8288955078125,-1.003387451171875,-0.321075439453125,0.2858123779296875
1667824866726902800,2.83890283203125,-0.95391845703125,-0.3029937744140625,0.2511138916015625
1667824866736910600,2.84891064453125,-0.90264892578125,-0.3087921142578125,0.2119903564453125
1667824866746918700,2.858918701171875,-0.855499267578125,-0.3197021484375,0.1813812255859375
1667824866756925700,2.86892578125,-0.8253936767578125,-0.3299102783203125,0.1609954833984375
1667824866766933800,2.878933837890625,-0.8118743896484375,-0.3347320556640625,0.1509552001953125
1667824866776941600,2.888941650390625,-0.806365966796875,-0.3377838134765625,0.1539154052734375
1667824866786948600,2.898948486328125,-0.8070220947265625,-0.3510284423828125,0.16357421875
1667824866796956400,2.908956298828125,-0.816864013671875,-0.371612548828125,0.1759033203125
1667824866806964700,2.91896484375,-0.8285064697265625,-0.392059326171875,0.1894073486328125
1667824866816971500,2.928971435546875,-0.843536376953125,-0.412322998046875,0.21160888671875
1667824866826979600,2.9389794921875,-0.861419677734375,-0.4220428466796875,0.2503204345703125
1667824866836986600,2.948986572265625,-0.8897247314453125,-0.42437744140625,0.3074188232421875
1667824866846994700,2.95899462890625,-0.936004638671875,-0.44219970703125,0.355377197265625
1667824866857002500,2.96900244140625,-0.991790771484375,-0.47222900390625,0.3854522705078125
1667824866867009500,2.979009521484375,-1.0336151123046875,-0.4903717041015625,0.4113311767578125
1667824866877017600,2.989017578125,-1.0595245361328125,-0.48553466796875,0.420074462890625
1667824866887025700,2.999025634765625,-1.0687713623046875,-0.4759674072265625,0.4148101806640625
1667824866897032400,3.009032470703125,-1.060882568359375,-0.467498779296875,0.39996337890625
1667824866907040500,3.01904052734375,-1.0314788818359375,-0.4539642333984375,0.3792572021484375
1667824866917048600,3.029048583984375,-0.9942779541015625,-0.4423980712890625,0.350860595703125
1667824866927055600,3.0390556640625,-0.95233154296875,-0.4330291748046875,0.321563720703125
1667824866937063700,3.049063720703125,-0.9090423583984375,-0.429168701171875,0.29217529296875
1667824866947071500,3.059071533203125,-0.8694305419921875,-0.4332733154296875,0.268096923828125
1667824866957078800,3.069078857421875,-0.8360443115234375,-0.4375,0.2545928955078125
1667824866967086600,3.079086669921875,-0.806182861328125,-0.438232421875,0.2554168701171875
1667824866977094700,3.0890947265625,-0.789276123046875,-0.4379119873046875,0.261505126953125
1667824866987101400,3.099101318359375,-0.78948974609375,-0.4417724609375,0.2603607177734375
1667824866997109800,3.10910986328125,-0.8002166748046875,-0.450408935546875,0.2640228271484375
1667824867007116500,3.119116455078125,-0.8167724609375,-0.4649658203125,0.26513671875
1667824867017124600,3.12912451171875,-0.8231201171875,-0.48248291015625,0.2587432861328125
1667824867027132400,3.13913232421875,-0.81597900390625,-0.496337890625,0.256195068359375
1667824867037139700,3.1491396484375,-0.8044281005859375,-0.507568359375,0.2620086669921875
1667824867047147500,3.1591474609375,-0.8026123046875,-0.5170440673828125,0.27490234375
1667824867057155600,3.169155517578125,-0.8097381591796875,-0.5267791748046875,0.297607421875
1667824867067162600,3.17916259765625,-0.8234100341796875,-0.5355377197265625,0.322021484375
1667824867077170700,3.189170654296875,-0.8420257568359375,-0.542144775390625,0.336700439453125
1667824867087178800,3.1991787109375,-0.84942626953125,-0.5464019775390625,0.35321044921875
1667824867097185500,3.209185546875,-0.8428802490234375,-0.547149658203125,0.3751678466796875
1667824867107193600,3.219193603515625,-0.840667724609375,-0.5384063720703125,0.392730712890625
1667824867117201700,3.22920166015625,-0.84130859375,-0.5238189697265625,0.402618408203125
1667824867127208700,3.239208740234375,-0.8458404541015625,-0.5123138427734375,0.4034881591796875
1667824867137216500,3.249216552734375,-0.8562774658203125,-0.498931884765625,0.40460205078125
1667824867147224600,3.259224609375,-0.8661651611328125,-0.479888916015625,0.4110107421875
1667824867157235700,3.269235595703125,-0.865081787109375,-0.4566650390625,0.4120941162109375
1667824867167243800,3.279243896484375,-0.85711669921875,-0.43328857421875,0.399383544921875
1667824867177250600,3.28925048828125,-0.8444976806640625,-0.40924072265625,0.3864898681640625
1667824867187258600,3.299258544921875,-0.827484130859375,-0.3827667236328125,0.3800506591796875
1667824867197266700,3.3092666015625,-0.8020477294921875,-0.3598785400390625,0.3695831298828125
1667824867207273700,3.319273681640625,-0.7775421142578125,-0.343109130859375,0.361358642578125
1667824867217281500,3.329281494140625,-0.762542724609375,-0.3298492431640625,0.3560333251953125
1667824867227289600,3.33928955078125,-0.7503204345703125,-0.31927490234375,0.3541107177734375
1667824867237296600,3.349296630859375,-0.7338714599609375,-0.3100128173828125,0.35162353515625
1667824867247304700,3.3593046875,-0.7114410400390625,-0.3004150390625,0.3502044677734375
1667824867257312500,3.3693125,-0.6867828369140625,-0.295806884765625,0.3422393798828125
1667824867267319600,3.379319580078125,-0.6657562255859375,-0.2919158935546875,0.3349609375
1667824867277327600,3.38932763671875,-0.6465911865234375,-0.2822418212890625,0.3325042724609375
1667824867287335700,3.399335693359375,-0.62823486328125,-0.2736358642578125,0.321502685546875
1667824867297342500,3.409342529296875,-0.6129608154296875,-0.280029296875,0.301300048828125
1667824867307350500,3.4193505859375,-0.603485107421875,-0.3070220947265625,0.2762908935546875
1667824867317358600,3.429358642578125,-0.60443115234375,-0.3476409912109375,0.2530670166015625
1667824867327365600,3.43936572265625,-0.6158294677734375,-0.3814239501953125,0.2385101318359375
1667824867337373400,3.44937353515625,-0.6352691650390625,-0.4000244140625,0.240203857421875
1667824867347380700,3.459380615234375,-0.6603240966796875,-0.406036376953125,0.2591552734375
1667824867357388500,3.469388427734375,-0.7037353515625,-0.411651611328125,0.29443359375
1667824867367396600,3.479396728515625,-0.769775390625,-0.4273223876953125,0.3256683349609375
1667824867377403400,3.4894033203125,-0.8610992431640625,-0.4470977783203125,0.35052490234375
1667824867387411700,3.49941162109375,-0.9458160400390625,-0.4500579833984375,0.3872528076171875
1667824867397419800,3.509419677734375,-1.029998779296875,-0.43975830078125,0.4181671142578125
1667824867407426600,3.519426513671875,-1.114501953125,-0.415771484375,0.4396514892578125
1667824867417434600,3.5294345703125,-1.1572113037109375,-0.381134033203125,0.4546966552734375
1667824867427442400,3.5394423828125,-1.150726318359375,-0.3549041748046875,0.450531005859375
1667824867437449700,3.54944970703125,-1.105987548828125,-0.343963623046875,0.41571044921875
1667824867447457500,3.55945751953125,-1.0362396240234375,-0.3389129638671875,0.3597412109375
1667824867457465600,3.569465576171875,-0.9609375,-0.338409423828125,0.298583984375
1667824867467472600,3.57947265625,-0.88623046875,-0.3401336669921875,0.2413330078125
1667824867477480700,3.589480712890625,-0.816680908203125,-0.344757080078125,0.189453125
1667824867487488500,3.599488525390625,-0.7567291259765625,-0.342071533203125,0.1496429443359375
1667824867497495600,3.60949560546875,-0.717864990234375,-0.3403167724609375,0.1209564208984375
1667824867507503600,3.619503662109375,-0.6949310302734375,-0.347564697265625,0.1039886474609375
1667824867517510700,3.6295107421875,-0.6902008056640625,-0.35504150390625,0.093353271484375
1667824867527518500,3.6395185546875,-0.7079620361328125,-0.36138916015625,0.091766357421875
1667824867537526500,3.649526611328125,-0.7462005615234375,-0.37225341796875,0.0940399169921875
1667824867547533600,3.659533447265625,-0.791229248046875,-0.3828582763671875,0.0986328125
1667824867557541600,3.669541748046875,-0.828582763671875,-0.3907012939453125,0.1072845458984375
1667824867567549700,3.6795498046875,-0.864837646484375,-0.3961334228515625,0.1169281005859375
1667824867577556700,3.689556640625,-0.90277099609375,-0.39678955078125,0.125579833984375
1667824867587564800,3.699564697265625,-0.9293212890625,-0.394775390625,0.1386260986328125
1667824867597572600,3.709572509765625,-0.93597412109375,-0.40447998046875,0.14788818359375
1667824867607579600,3.71957958984375,-0.9269561767578125,-0.4266815185546875,0.149993896484375
1667824867617587500,3.72958740234375,-0.917755126953125,-0.4523468017578125,0.151702880859375
1667824867627595800,3.739595703125,-0.9068756103515625,-0.4746246337890625,0.1647796630859375
1667824867637602600,3.7496025390625,-0.88897705078125,-0.493560791015625,0.1907806396484375
1667824867647610600,3.759610595703125,-0.878143310546875,-0.5177154541015625,0.2095184326171875
1667824867657618400,3.769618408203125,-0.8826904296875,-0.5532989501953125,0.2230224609375
1667824867667625700,3.779625732421875,-0.915069580078125,-0.5886383056640625,0.24237060546875
1667824867677633500,3.789633544921875,-0.971343994140625,-0.5985260009765625,0.27557373046875
1667824867687640600,3.799640625,-1.0276031494140625,-0.582733154296875,0.304840087890625
1667824867697648600,3.809648681640625,-1.0565948486328125,-0.567657470703125,0.3201141357421875
1667824867707656700,3.81965673828125,-1.054901123046875,-0.564117431640625,0.321563720703125
1667824867717663500,3.82966357421875,-1.046112060546875,-0.561187744140625,0.310791015625
1667824867727671600,3.839671630859375,-1.043731689453125,-0.550323486328125,0.2920684814453125
1667824867737679600,3.8496796875,-1.041168212890625,-0.5336456298828125,0.285430908203125
1667824867747686700,3.859686767578125,-1.038299560546875,-0.52069091796875,0.2860870361328125
1667824867757694700,3.86969482421875,-1.0321807861328125,-0.506561279296875,0.2896728515625
1667824867767702500,3.87970263671875,-1.0208282470703125,-0.484710693359375,0.290618896484375
1667824867777709800,3.889709716796875,-1.00274658203125,-0.46453857421875,0.2869110107421875
1667824867787717600,3.899717529296875,-0.9780426025390625,-0.4520263671875,0.277374267578125
1667824867797725700,3.9097255859375,-0.950897216796875,-0.4414520263671875,0.2648468017578125
1667824867807732500,3.919732421875,-0.926788330078125,-0.4267120361328125,0.2568511962890625
1667824867817740800,3.92974072265625,-0.903717041015625,-0.4051971435546875,0.25006103515625
1667824867827748600,3.93974853515625,-0.883880615234375,-0.3834686279296875,0.243621826171875
1667824867837755600,3.949755615234375,-0.8668365478515625,-0.3668060302734375,0.2373504638671875
1667824867847763500,3.959763427734375,-0.850433349609375,-0.356170654296875,0.2272796630859375
1667824867857771500,3.969771484375,-0.8299102783203125,-0.352874755859375,0.2122650146484375
1667824867867778600,3.979778564453125,-0.813201904296875,-0.367950439453125,0.1918792724609375
1667824867877786600,3.98978662109375,-0.8004150390625,-0.3946533203125,0.1673736572265625
1667824867887794400,3.99979443359375,-0.78216552734375,-0.417236328125,0.1573333740234375
1667824867897801700,4.0098017578125,-0.7688446044921875,-0.427947998046875,0.158905029296875
1667824867907809500,4.0198095703125,-0.7501068115234375,-0.4274444580078125,0.1764678955078125
1667824867917816600,4.029816650390625,-0.745758056640625,-0.4286651611328125,0.207427978515625
1667824867927824400,4.039824462890625,-0.7703857421875,-0.4333038330078125,0.25714111328125
1667824867937832700,4.049832763671875,-0.8345947265625,-0.43865966796875,0.3147125244140625
1667824867947839500,4.059839599609375,-0.9232330322265625,-0.4483489990234375,0.364959716796875
1667824867957847600,4.06984765625,-0.9971160888671875,-0.452423095703125,0.4002227783203125
1667824867967855600,4.079855712890625,-1.055450439453125,-0.45391845703125,0.420928955078125
1667824867977862700,4.089862548828125,-1.079681396484375,-0.4384002685546875,0.4353790283203125
1667824867987870700,4.09987060546875,-1.060546875,-0.412750244140625,0.42901611328125
1667824867997878500,4.10987841796875,-1.00054931640625,-0.4011077880859375,0.3920745849609375
1667824868007885600,4.119885498046875,-0.9088134765625,-0.4117584228515625,0.335052490234375
1667824868017893600,4.1298935546875,-0.806121826171875,-0.4246368408203125,0.2780609130859375
1667824868027901700,4.139901611328125,-0.7298431396484375,-0.4376678466796875,0.224884033203125
1667824868037908500,4.149908447265625,-0.6716766357421875,-0.4496612548828125,0.192596435546875
1667824868047916500,4.15991650390625,-0.6338958740234375,-0.46240234375,0.1723785400390625
1667824868057924600,4.169924560546875,-0.623321533203125,-0.47784423828125,0.1583099365234375
1667824868067931600,4.179931640625,-0.6369781494140625,-0.4898223876953125,0.157623291015625
1667824868077939500,4.189939453125,-0.6747894287109375,-0.4961700439453125,0.16998291015625
1667824868087947500,4.199947509765625,-0.717864990234375,-0.4925689697265625,0.183990478515625
1667824868097954600,4.20995458984375,-0.751007080078125,-0.489837646484375,0.19061279296875
1667824868107962600,4.219962646484375,-0.7681884765625,-0.497894287109375,0.186065673828125
1667824868117969400,4.229969482421875,-0.7733917236328125,-0.5090179443359375,0.1662139892578125
1667824868127977700,4.239977783203125,-0.7717132568359375,-0.513671875,0.1498260498046875
1667824868137985800,4.24998583984375,-0.767364501953125,-0.5183563232421875,0.1447906494140625
1667824868147992600,4.25999267578125,-0.761077880859375,-0.520172119140625,0.1419219970703125
1667824868157997000,4.2699970703125,-0.753570556640625,-0.5275726318359375,0.129547119140625
1667824868168005000,4.280005126953125,-0.7484283447265625,-0.5399932861328125,0.11724853515625
1667824868178012200,4.29001220703125,-0.7518157958984375,-0.555999755859375,0.1066131591796875
1667824868188020200,4.300020263671875,-0.7613983154296875,-0.567413330078125,0.107025146484375
1667824868198028000,4.310028076171875,-0.7693634033203125,-0.5715789794921875,0.123931884765625
1667824868208035300,4.320035400390625,-0.7826995849609375,-0.57696533203125,0.1365966796875
1667824868218043100,4.330043212890625,-0.7966461181640625,-0.5887908935546875,0.138275146484375
1667824868228051200,4.34005126953125,-0.807861328125,-0.6010589599609375,0.1381683349609375
1667824868238058000,4.35005810546875,-0.816070556640625,-0.6049652099609375,0.14398193359375
1667824868248066300,4.36006640625,-0.8260650634765625,-0.60205078125,0.155792236328125
1667824868258074400,4.370074462890625,-0.8408355712890625,-0.5991668701171875,0.1731109619140625
1667824868268081200,4.3800810546875,-0.8491973876953125,-0.59332275390625,0.2011260986328125
1667824868278089200,4.390089111328125,-0.86016845703125,-0.589324951171875,0.233428955078125
1667824868288096300,4.40009619140625,-0.8832244873046875,-0.592254638671875,0.26409912109375
1667824868298104300,4.410104248046875,-0.9164886474609375,-0.5966796875,0.2945098876953125
1667824868308112100,4.420112060546875,-0.9488983154296875,-0.589935302734375,0.3336181640625
1667824868318119200,4.430119140625,-0.973480224609375,-0.567413330078125,0.3732757568359375
1667824868328127200,4.440127197265625,-0.984649658203125,-0.53118896484375,0.3985137939453125
1667824868338135300,4.45013525390625,-0.9932098388671875,-0.4852142333984375,0.4150390625
1667824868348142000,4.46014208984375,-0.990020751953125,-0.4354400634765625,0.421478271484375
1667824868358150100,4.470150146484375,-0.97052001953125,-0.39239501953125,0.41583251953125
1667824868368158200,4.480158203125,-0.9339752197265625,-0.3565216064453125,0.4018402099609375
1667824868378165200,4.490165283203125,-0.8945770263671875,-0.32537841796875,0.3899078369140625
1667824868388173000,4.500173095703125,-0.858978271484375,-0.311187744140625,0.3819427490234375
1667824868398181000,4.51018115234375,-0.835540771484375,-0.3147430419921875,0.378448486328125
1667824868408188200,4.520188232421875,-0.8263397216796875,-0.3270416259765625,0.38104248046875
1667824868418196200,4.5301962890625,-0.828460693359375,-0.336761474609375,0.3936004638671875
1667824868428204300,4.540204345703125,-0.8392333984375,-0.34039306640625,0.41729736328125
1667824868438211300,4.55021142578125,-0.84796142578125,-0.3426513671875,0.441375732421875
1667824868448219400,4.560219482421875,-0.8463134765625,-0.349212646484375,0.4462738037109375
1667824868458226200,4.57022607421875,-0.8368682861328125,-0.35003662109375,0.442169189453125
1667824868468234200,4.580234130859375,-0.8118438720703125,-0.3466796875,0.4288177490234375
1667824868478242000,4.590241943359375,-0.7834014892578125,-0.348052978515625,0.403961181640625
1667824868488249300,4.600249267578125,-0.753021240234375,-0.3542022705078125,0.3785552978515625
1667824868498257200,4.610257080078125,-0.728363037109375,-0.3644866943359375,0.3534393310546875
1667824868508265200,4.62026513671875,-0.706573486328125,-0.3831787109375,0.3180999755859375
1667824868518272300,4.630272216796875,-0.6929168701171875,-0.40496826171875,0.2895355224609375
1667824868528280300,4.6402802734375,-0.6926116943359375,-0.419952392578125,0.2735137939453125
1667824868538288000,4.6502880859375,-0.702911376953125,-0.4199371337890625,0.265533447265625
1667824868548295200,4.660295166015625,-0.72381591796875,-0.4129638671875,0.2596893310546875
1667824868558303200,4.67030322265625,-0.7486419677734375,-0.4048919677734375,0.255859375
1667824868568311300,4.680311279296875,-0.7647857666015625,-0.39556884765625,0.2450103759765625
1667824868578318000,4.690318115234375,-0.77032470703125,-0.384918212890625,0.2303314208984375
1667824868588326100,4.700326171875,-0.7668609619140625,-0.3793182373046875,0.2060089111328125
1667824868598333200,4.710333251953125,-0.75665283203125,-0.376861572265625,0.1820526123046875
1667824868608341200,4.72034130859375,-0.7456817626953125,-0.3742523193359375,0.1659698486328125
1667824868618349000,4.73034912109375,-0.7364044189453125,-0.370574951171875,0.1538848876953125
1667824868628356000,4.740356201171875,-0.7313079833984375,-0.3702239990234375,0.1375732421875
1667824868638364200,4.7503642578125,-0.737945556640625,-0.377685546875,0.125
1667824868648372200,4.760372314453125,-0.7526397705078125,-0.3747711181640625,0.119659423828125
1667824868658379000,4.77037890625,-0.7754669189453125,-0.3687744140625,0.12054443359375
1667824868668387000,4.780386962890625,-0.8014678955078125,-0.375,0.1180572509765625
1667824868678395400,4.7903955078125,-0.82537841796875,-0.387908935546875,0.102783203125
1667824868688402200,4.800402099609375,-0.8347625732421875,-0.398468017578125,0.0869293212890625
1667824868698410200,4.81041015625,-0.836456298828125,-0.407135009765625,0.0816192626953125
1667824868708418000,4.82041796875,-0.828460693359375,-0.4208221435546875,0.0749359130859375
1667824868718425300,4.83042529296875,-0.8177032470703125,-0.4347686767578125,0.0687408447265625
1667824868728433200,4.84043310546875,-0.8082122802734375,-0.452362060546875,0.0730743408203125
1667824868738441200,4.850441162109375,-0.8166656494140625,-0.4745635986328125,0.0843963623046875
1667824868748448300,4.8604482421875,-0.841827392578125,-0.49456787109375,0.1055908203125
1667824868758456300,4.870456298828125,-0.8732452392578125,-0.5135955810546875,0.1297149658203125
1667824868768464100,4.880464111328125,-0.90008544921875,-0.5385589599609375,0.1495208740234375
1667824868778471200,4.89047119140625,-0.9249725341796875,-0.5664825439453125,0.1692962646484375
1667824868788479000,4.90047900390625,-0.95013427734375,-0.591156005859375,0.177459716796875
1667824868798486300,4.910486328125,-0.9682464599609375,-0.60784912109375,0.1897125244140625
1667824868808494000,4.920494140625,-0.9824066162109375,-0.61834716796875,0.217315673828125
1667824868818502100,4.930502197265625,-1.0122528076171875,-0.627197265625,0.236663818359375
1667824868828509200,4.94050927734375,-1.050628662109375,-0.633880615234375,0.243072509765625
1667824868838517200,4.950517333984375,-1.0859527587890625,-0.62884521484375,0.256317138671875
1667824868848525300,4.960525390625,-1.110931396484375,-0.6089019775390625,0.2695159912109375
1667824868858532000,4.970531982421875,-1.1220855712890625,-0.5797576904296875,0.2749786376953125
1667824868868540200,4.9805400390625,-1.1214599609375,-0.5464324951171875,0.2670745849609375
1667824868878548200,4.99054833984375,-1.106109619140625,-0.5097503662109375,0.2567291259765625
1667824868888555300,5.00055517578125,-1.077728271484375,-0.473846435546875,0.2440185546875
1667824868898563000,5.01056298828125,-1.0404052734375,-0.4380035400390625,0.231170654296875
1667824868908571100,5.020571044921875,-0.9998779296875,-0.40374755859375,0.21575927734375
1667824868918578200,5.030578125,-0.9559478759765625,-0.37750244140625,0.1956024169921875
1667824868928586200,5.040586181640625,-0.9143829345703125,-0.36419677734375,0.1756744384765625
1667824868938594000,5.050593994140625,-0.8895263671875,-0.366912841796875,0.15625
1667824868948601300,5.060601318359375,-0.875885009765625,-0.387176513671875,0.134552001953125
1667824868958609200,5.070609130859375,-0.866607666015625,-0.4150238037109375,0.1221923828125
1667824868968616200,5.0806162109375,-0.8609161376953125,-0.435302734375,0.125640869140625
1667824868978624000,5.0906240234375,-0.8560791015625,-0.43804931640625,0.142059326171875
1667824868988632300,5.10063232421875,-0.856475830078125,-0.435302734375,0.169921875
1667824868998639000,5.11063916015625,-0.868743896484375,-0.44189453125,0.20489501953125
1667824869008647200,5.120647216796875,-0.9017791748046875,-0.4540252685546875,0.2425994873046875
1667824869018655200,5.1306552734375,-0.9554290771484375,-0.4644775390625,0.2843170166015625
1667824869028662300,5.140662353515625,-1.010986328125,-0.4686737060546875,0.3254547119140625
1667824869038670300,5.15067041015625,-1.0599822998046875,-0.4652557373046875,0.3595123291015625
1667824869048678100,5.16067822265625,-1.0944671630859375,-0.453277587890625,0.38995361328125
1667824869058685200,5.170685302734375,-1.0955657958984375,-0.4361114501953125,0.40509033203125
1667824869068693200,5.180693359375,-1.05810546875,-0.4214630126953125,0.3937225341796875
1667824869078701300,5.190701416015625,-0.9917449951171875,-0.41680908203125,0.35369873046875
1667824869088708000,5.2007080078125,-0.8930206298828125,-0.415008544921875,0.308807373046875
1667824869098716200,5.210716064453125,-0.799285888671875,-0.419464111328125,0.2673187255859375
1667824869108724200,5.22072412109375,-0.72235107421875,-0.427581787109375,0.2351531982421875
1667824869118731300,5.230731201171875,-0.6710205078125,-0.4412078857421875,0.2117156982421875
1667824869128739000,5.240739013671875,-0.6392364501953125,-0.4526214599609375,0.2041473388671875
1667824869138746400,5.250746337890625,-0.6369781494140625,-0.4664459228515625,0.2044525146484375
1667824869148754200,5.260754150390625,-0.66778564453125,-0.482757568359375,0.2113037109375
1667824869158761500,5.270761474609375,-0.7157135009765625,-0.4879150390625,0.2236480712890625
1667824869168768500,5.2807685546875,-0.751708984375,-0.48358154296875,0.2387542724609375
1667824869178776600,5.290776611328125,-0.7780609130859375,-0.4816436767578125,0.2444305419921875
1667824869188784400,5.300784423828125,-0.78875732421875,-0.4859619140625,0.2313995361328125
1667824869198791400,5.31079150390625,-0.7824249267578125,-0.4908447265625,0.214019775390625
1667824869208799500,5.320799560546875,-0.7705230712890625,-0.495086669921875,0.1894378662109375
1667824869218807600,5.3308076171875,-0.752197265625,-0.5015411376953125,0.16888427734375
1667824869228814300,5.340814453125,-0.7328948974609375,-0.5144805908203125,0.150970458984375
1667824869238822400,5.350822509765625,-0.7140350341796875,-0.5308685302734375,0.1255950927734375
1667824869248830500,5.36083056640625,-0.7028045654296875,-0.54547119140625,0.1048736572265625
1667824869258837500,5.37083740234375,-0.7037353515625,-0.5546722412109375,0.096466064453125
1667824869268845600,5.380845458984375,-0.7213134765625,-0.556304931640625,0.1002044677734375
1667824869278853400,5.390853271484375,-0.7474212646484375,-0.556549072265625,0.1055755615234375
1667824869288860700,5.400860595703125,-0.7774658203125,-0.555145263671875,0.1177825927734375
1667824869298868500,5.410868408203125,-0.8044586181640625,-0.54571533203125,0.1416778564453125
1667824869308876500,5.42087646484375,-0.823699951171875,-0.5334930419921875,0.166839599609375
1667824869318883300,5.43088330078125,-0.8582000732421875,-0.5266265869140625,0.1956939697265625
1667824869328891400,5.440891357421875,-0.9047698974609375,-0.5185699462890625,0.229339599609375
1667824869338898400,5.4508984375,-0.9506378173828125,-0.5099029541015625,0.254638671875
1667824869348906500,5.460906494140625,-0.98095703125,-0.4943695068359375,0.2836761474609375
1667824869358914300,5.470914306640625,-0.9990386962890625,-0.470001220703125,0.3202056884765625
1667824869368921600,5.480921630859375,-1.0031890869140625,-0.44329833984375,0.3545379638671875
1667824869378929400,5.490929443359375,-0.9947662353515625,-0.4155426025390625,0.3795166015625
1667824869388937500,5.5009375,-0.967987060546875,-0.3988037109375,0.4015350341796875
1667824869398944300,5.5109443359375,-0.9309539794921875,-0.3892059326171875,0.3986663818359375
1667824869408952600,5.52095263671875,-0.877532958984375,-0.3751068115234375,0.3888397216796875
1667824869418960400,5.53096044921875,-0.8231048583984375,-0.363983154296875,0.373321533203125
1667824869428967400,5.540967529296875,-0.7779541015625,-0.3538818359375,0.3565673828125
1667824869438975200,5.550975341796875,-0.743316650390625,-0.351043701171875,0.3416595458984375
1667824869448983600,5.560983642578125,-0.72308349609375,-0.3602142333984375,0.326690673828125
1667824869458990300,5.570990234375,-0.7127838134765625,-0.3808135986328125,0.3121185302734375
1667824869468998400,5.580998291015625,-0.7093658447265625,-0.3981781005859375,0.304931640625
1667824869479005400,5.59100537109375,-0.717376708984375,-0.4019622802734375,0.306243896484375
1667824869489013500,5.601013427734375,-0.7375030517578125,-0.395233154296875,0.3140869140625
1667824869499021600,5.611021484375,-0.75848388671875,-0.3905029296875,0.3229827880859375
1667824869509028400,5.6210283203125,-0.777557373046875,-0.386627197265625,0.330078125
1667824869519036400,5.631036376953125,-0.7952117919921875,-0.384124755859375,0.329986572265625
1667824869529044500,5.64104443359375,-0.80902099609375,-0.378662109375,0.326263427734375
1667824869539051500,5.651051513671875,-0.817169189453125,-0.37298583984375,0.3178863525390625
1667824869549059300,5.661059326171875,-0.8151702880859375,-0.37652587890625,0.301544189453125
1667824869559067400,5.6710673828125,-0.805511474609375,-0.3824920654296875,0.2789764404296875
1667824869569074400,5.681074462890625,-0.7864227294921875,-0.387237548828125,0.248260498046875
1667824869579082500,5.69108251953125,-0.7692718505859375,-0.38873291015625,0.2125396728515625
1667824869589090300,5.70109033203125,-0.7505340576171875,-0.38641357421875,0.185516357421875
1667824869599097600,5.71109765625,-0.7350921630859375,-0.3856201171875,0.155487060546875
1667824869609105400,5.72110546875,-0.7264556884765625,-0.3860626220703125,0.1260528564453125
1667824869619113500,5.731113525390625,-0.72625732421875,-0.3932952880859375,0.0991973876953125
1667824869629120300,5.741120361328125,-0.7291412353515625,-0.3999481201171875,0.08209228515625
1667824869639128300,5.75112841796875,-0.73590087890625,-0.40216064453125,0.0729522705078125
1667824869649136600,5.76113671875,-0.7491302490234375,-0.3950347900390625,0.075653076171875
1667824869659143400,5.771143310546875,-0.7692413330078125,-0.3890380859375,0.0770416259765625
1667824869669151500,5.7811513671875,-0.7968902587890625,-0.39495849609375,0.07049560546875
1667824869679159300,5.7911591796875,-0.8239593505859375,-0.402496337890625,0.067352294921875
1667824869689166600,5.80116650390625,-0.8443603515625,-0.402130126953125,0.0699005126953125
1667824869699174400,5.81117431640625,-0.8632354736328125,-0.4005279541015625,0.0723419189453125
1667824869709181400,5.821181396484375,-0.880462646484375,-0.4003753662109375,0.0693359375
1667824869719189500,5.831189453125,-0.8958740234375,-0.4060821533203125,0.0595245361328125
1667824869729197600,5.841197509765625,-0.912384033203125,-0.416656494140625,0.0508270263671875
1667824869739204400,5.851204345703125,-0.923919677734375,-0.42413330078125,0.0447235107421875
1667824869749212400,5.86121240234375,-0.931365966796875,-0.428314208984375,0.045318603515625
1667824869759220500,5.871220458984375,-0.9398040771484375,-0.4306793212890625,0.056427001953125
1667824869769227500,5.8812275390625,-0.9544830322265625,-0.431243896484375,0.0706634521484375
1667824869779235300,5.8912353515625,-0.9730377197265625,-0.43890380859375,0.09033203125
1667824869789243400,5.901243408203125,-1.0052642822265625,-0.45819091796875,0.1120452880859375
1667824869799250400,5.91125048828125,-1.055938720703125,-0.4869537353515625,0.14019775390625
1667824869809258500,5.921258544921875,-1.1120758056640625,-0.5172576904296875,0.1716766357421875
1667824869819266600,5.9312666015625,-1.156280517578125,-0.54010009765625,0.2026824951171875
1667824869829273300,5.9412734375,-1.1738128662109375,-0.5556182861328125,0.2249755859375
1667824869839281700,5.95128173828125,-1.1731109619140625,-0.56451416015625,0.2446746826171875
1667824869849289500,5.96128955078125,-1.1586761474609375,-0.5771026611328125,0.246246337890625
1667824869859296500,5.971296630859375,-1.1299591064453125,-0.588409423828125,0.2404632568359375
1667824869869304300,5.98130419921875,-1.0958251953125,-0.58074951171875,0.2434844970703125
1667824869879311600,5.9913115234375,-1.077239990234375,-0.5560302734375,0.2507781982421875
1667824869889319400,6.0013193359375,-1.0730438232421875,-0.5252685546875,0.2469940185546875
1667824869899327500,6.011327392578125,-1.074310302734375,-0.4907989501953125,0.2465362548828125
1667824869909334500,6.02133447265625,-1.067291259765625,-0.4492950439453125,0.2525177001953125
1667824869919342600,6.031342529296875,-1.050262451171875,-0.4043731689453125,0.258880615234375
1667824869929350400,6.041350341796875,-1.0220794677734375,-0.361785888671875,0.2614593505859375
1667824869939357400,6.051357421875,-0.979400634765625,-0.3336181640625,0.2449493408203125
1667824869949365500,6.061365478515625,-0.9246673583984375,-0.330108642578125,0.2165374755859375
1667824869959373600,6.07137353515625,-0.8706512451171875,-0.3441619873046875,0.1823577880859375
1667824869969380400,6.08138037109375,-0.82452392578125,-0.3650665283203125,0.1546630859375
1667824869979388400,6.091388427734375,-0.7818756103515625,-0.3899688720703125,0.13671875
1667824869989396200,6.101396240234375,-0.7543487548828125,-0.4144287109375,0.1267852783203125
1667824869999403500,6.111403564453125,-0.7495880126953125,-0.4280853271484375,0.135986328125
1667824870009411300,6.121411376953125,-0.77166748046875,-0.431732177734375,0.1785736083984375
1667824870019419400,6.13141943359375,-0.819122314453125,-0.445281982421875,0.2349700927734375
1667824870029426400,6.141426513671875,-0.882568359375,-0.47930908203125,0.2900848388671875
1667824870039434500,6.1514345703125,-0.9545745849609375,-0.51385498046875,0.3442230224609375
1667824870049441300,6.161441162109375,-1.0152740478515625,-0.520233154296875,0.40228271484375
1667824870059449300,6.171449462890625,-1.0746002197265625,-0.5090789794921875,0.4501495361328125
1667824870069457400,6.18145751953125,-1.1203460693359375,-0.4891510009765625,0.4863128662109375
1667824870079464400,6.19146435546875,-1.11981201171875,-0.45794677734375,0.5068511962890625
1667824870089472500,6.201472412109375,-1.068389892578125,-0.431182861328125,0.4923248291015625
1667824870099480300,6.211480224609375,-0.9710693359375,-0.429656982421875,0.433624267578125
1667824870109487600,6.221487548828125,-0.857574462890625,-0.4425048828125,0.3620758056640625
1667824870119495400,6.231495361328125,-0.7478790283203125,-0.44268798828125,0.303070068359375
1667824870129503500,6.24150341796875,-0.667938232421875,-0.440673828125,0.258514404296875
1667824870139510300,6.25151025390625,-0.6154632568359375,-0.4453887939453125,0.2273712158203125
1667824870149518600,6.2615185546875,-0.58489990234375,-0.45233154296875,0.2120208740234375
1667824870159530500,6.271530517578125,-0.5803070068359375,-0.468048095703125,0.2068939208984375
1667824870169537300,6.281537353515625,-0.596649169921875,-0.485565185546875,0.2046356201171875
1667824870179545300,6.29154541015625,-0.6171722412109375,-0.4957275390625,0.20355224609375
1667824870189553200,6.30155322265625,-0.6381378173828125,-0.5063323974609375,0.2023773193359375
1667824870199560400,6.311560546875,-0.66229248046875,-0.5162506103515625,0.1956634521484375
1667824870209568300,6.321568359375,-0.688232421875,-0.5212249755859375,0.181793212890625
1667824870219575300,6.3315751953125,-0.7038726806640625,-0.52294921875,0.1736297607421875
1667824870229583400,6.341583251953125,-0.7079620361328125,-0.5263519287109375,0.15679931640625
1667824870239591400,6.35159130859375,-0.7032012939453125,-0.5262908935546875,0.1372222900390625
1667824870249598200,6.36159814453125,-0.68975830078125,-0.52130126953125,0.12139892578125
1667824870259606300,6.371606201171875,-0.677764892578125,-0.5270538330078125,0.0912017822265625
1667824870269614300,6.3816142578125,-0.666015625,-0.5391845703125,0.059844970703125
1667824870279621400,6.391621337890625,-0.6664581298828125,-0.55181884765625,0.033233642578125
1667824870289629200,6.401629150390625,-0.6776580810546875,-0.55938720703125,0.0194091796875
1667824870299637200,6.41163720703125,-0.6949920654296875,-0.5528106689453125,0.0235443115234375
1667824870309644300,6.421644287109375,-0.7222900390625,-0.54833984375,0.0402984619140625
1667824870319652400,6.43165234375,-0.7583160400390625,-0.549041748046875,0.0510101318359375
1667824870329660400,6.441660400390625,-0.8032073974609375,-0.5575408935546875,0.0563812255859375
1667824870339667200,6.451667236328125,-0.8384552001953125,-0.5654296875,0.083221435546875
1667824870349675500,6.461675537109375,-0.873077392578125,-0.5614471435546875,0.1285858154296875
1667824870359683300,6.471683349609375,-0.9094696044921875,-0.5563201904296875,0.16900634765625
1667824870369690400,6.4816904296875,-0.9466400146484375,-0.55657958984375,0.2008209228515625
1667824870379698200,6.4916982421875,-0.9843597412109375,-0.5597686767578125,0.2343292236328125
1667824870389705500,6.50170556640625,-1.011993408203125,-0.554351806640625,0.2750091552734375
1667824870399713300,6.51171337890625,-1.0327606201171875,-0.52703857421875,0.324127197265625
1667824870409721300,6.521721435546875,-1.0511016845703125,-0.49200439453125,0.365081787109375
1667824870419728400,6.531728271484375,-1.061859130859375,-0.465667724609375,0.3863372802734375
1667824870429736400,6.541736328125,-1.0541534423828125,-0.447479248046875,0.389495849609375
1667824870439744300,6.551744140625,-1.0166015625,-0.429351806640625,0.3841552734375
1667824870449751300,6.561751220703125,-0.9604339599609375,-0.4067840576171875,0.371826171875
1667824870459759400,6.57175927734375,-0.9032440185546875,-0.3800201416015625,0.36029052734375
1667824870469767400,6.581767333984375,-0.85247802734375,-0.3600311279296875,0.3493194580078125
1667824870479774200,6.591774169921875,-0.8124542236328125,-0.35662841796875,0.3336181640625
1667824870489782300,6.6017822265625,-0.784515380859375,-0.3746185302734375,0.3213043212890625
1667824870499790300,6.611790283203125,-0.7740936279296875,-0.4012451171875,0.3192596435546875
1667824870509797400,6.62179736328125,-0.774383544921875,-0.41839599609375,0.3298492431640625
1667824870519805400,6.631805419921875,-0.783905029296875,-0.4288177490234375,0.3491058349609375
1667824870529813200,6.641813232421875,-0.8040008544921875,-0.4345550537109375,0.3669281005859375
1667824870539820500,6.651820556640625,-0.8262939453125,-0.4369964599609375,0.3757171630859375
1667824870549828400,6.661828369140625,-0.8401336669921875,-0.4349212646484375,0.3806304931640625
1667824870559835400,6.67183544921875,-0.84515380859375,-0.421051025390625,0.38385009765625
1667824870569843200,6.68184326171875,-0.84930419921875,-0.40594482421875,0.378082275390625
1667824870579851300,6.691851318359375,-0.8390960693359375,-0.3993072509765625,0.36553955078125
1667824870589858300,6.7018583984375,-0.8144073486328125,-0.402496337890625,0.35052490234375
1667824870599866400,6.711866455078125,-0.78924560546875,-0.4100189208984375,0.3234100341796875
1667824870609874200,6.721874267578125,-0.768585205078125,-0.4132843017578125,0.2958526611328125
1667824870619881500,6.731881591796875,-0.7529296875,-0.409515380859375,0.278533935546875
1667824870629889300,6.74188916015625,-0.7416229248046875,-0.4009552001953125,0.2650299072265625
1667824870639897300,6.7518974609375,-0.7344818115234375,-0.392974853515625,0.24346923828125
1667824870649904000,6.761904052734375,-0.725799560546875,-0.38427734375,0.216796875
1667824870659912400,6.771912353515625,-0.7124786376953125,-0.379974365234375,0.1888580322265625
1667824870669920300,6.781920166015625,-0.6894073486328125,-0.376617431640625,0.166259765625
1667824870679927300,6.79192724609375,-0.661102294921875,-0.3724822998046875,0.145599365234375
1667824870689935000,6.80193505859375,-0.6388702392578125,-0.369720458984375,0.1218414306640625
1667824870699943400,6.811943359375,-0.6275177001953125,-0.375213623046875,0.0958251953125
1667824870709950200,6.8219501953125,-0.624664306640625,-0.383026123046875,0.0713958740234375
1667824870719958300,6.831958251953125,-0.631256103515625,-0.3901824951171875,0.0570526123046875
1667824870729966300,6.84196630859375,-0.6581268310546875,-0.3951263427734375,0.0518341064453125
1667824870739973400,6.851973388671875,-0.7007904052734375,-0.399078369140625,0.056365966796875
1667824870749981400,6.8619814453125,-0.740814208984375,-0.4022369384765625,0.0628204345703125
1667824870759988200,6.87198828125,-0.783233642578125,-0.4101409912109375,0.0665130615234375
1667824870769996300,6.881996337890625,-0.8199462890625,-0.425079345703125,0.0641937255859375
1667824870780004400,6.89200439453125,-0.84210205078125,-0.4362640380859375,0.061981201171875
1667824870790011400,6.902011474609375,-0.8563232421875,-0.44091796875,0.06256103515625
1667824870800019200,6.912019287109375,-0.8698272705078125,-0.4447021484375,0.0639801025390625
1667824870810027300,6.92202734375,-0.8789825439453125,-0.4508209228515625,0.05682373046875
1667824870820034300,6.932034423828125,-0.875823974609375,-0.4556732177734375,0.0469207763671875
1667824870830042400,6.94204248046875,-0.8658905029296875,-0.454315185546875,0.0442352294921875
1667824870840050200,6.95205029296875,-0.857330322265625,-0.4556427001953125,0.047210693359375
1667824870850057500,6.962057373046875,-0.856689453125,-0.4686737060546875,0.0617523193359375
1667824870860065300,6.972065185546875,-0.8797760009765625,-0.489288330078125,0.0903778076171875
1667824870870073300,6.9820732421875,-0.91705322265625,-0.512725830078125,0.128173828125
1667824870880080100,6.992080078125,-0.9539642333984375,-0.5414276123046875,0.176971435546875
1667824870890088200,7.002088134765625,-1.001678466796875,-0.5786285400390625,0.2205047607421875
1667824870900096500,7.012096435546875,-1.044189453125,-0.6053619384765625,0.260498046875
1667824870910103300,7.022103271484375,-1.0626983642578125,-0.606292724609375,0.3080902099609375
1667824870920111400,7.032111328125,-1.066009521484375,-0.590362548828125,0.3513336181640625
1667824870930118400,7.042118408203125,-1.056243896484375,-0.5669403076171875,0.3792877197265625
1667824870940126500,7.05212646484375,-1.0434112548828125,-0.54095458984375,0.3951263427734375
1667824870950134300,7.06213427734375,-1.03424072265625,-0.5239105224609375,0.4060516357421875
1667824870960141300,7.072141357421875,-1.02984619140625,-0.5018463134765625,0.4100799560546875
1667824870970149400,7.0821494140625,-1.015167236328125,-0.4729766845703125,0.404296875
1667824870980157400,7.092157470703125,-0.985137939453125,-0.4497833251953125,0.3838348388671875
1667824870990164200,7.102164306640625,-0.939361572265625,-0.443572998046875,0.3434600830078125
1667824871000172300,7.11217236328125,-0.8868255615234375,-0.454010009765625,0.29132080078125
1667824871010180400,7.122180419921875,-0.8300933837890625,-0.4730682373046875,0.247955322265625
1667824871020187400,7.1321875,-0.7843780517578125,-0.49365234375,0.2227020263671875
1667824871030195200,7.1421953125,-0.7586212158203125,-0.5061798095703125,0.219024658203125
1667824871040203300,7.152203369140625,-0.753082275390625,-0.5169677734375,0.2302093505859375
1667824871050210300,7.162210205078125,-0.7733612060546875,-0.5323486328125,0.2527923583984375
1667824871060218400,7.17221826171875,-0.8204803466796875,-0.5497283935546875,0.3007659912109375
1667824871070225200,7.18222509765625,-0.9026947021484375,-0.564788818359375,0.35601806640625
1667824871080233200,7.192233154296875,-0.991607666015625,-0.575531005859375,0.4092254638671875
1667824871090241500,7.202241455078125,-1.062469482421875,-0.575714111328125,0.4508056640625
1667824871100248300,7.212248291015625,-1.127471923828125,-0.5690155029296875,0.4714813232421875
1667824871110256400,7.22225634765625,-1.1572265625,-0.55267333984375,0.4772796630859375
1667824871120264200,7.23226416015625,-1.1371002197265625,-0.5299072265625,0.458587646484375
1667824871130271500,7.242271484375,-1.055145263671875,-0.5126800537109375,0.4080352783203125
1667824871140279300,7.252279296875,-0.946502685546875,-0.5191192626953125,0.3280181884765625
1667824871150287400,7.262287353515625,-0.8474273681640625,-0.5233306884765625,0.25396728515625
1667824871160291000,7.272291015625,-0.7685546875,-0.514984130859375,0.2059173583984375
1667824871170299400,7.28229931640625,-0.7159271240234375,-0.5117034912109375,0.1749420166015625
1667824871180307200,7.29230712890625,-0.6886138916015625,-0.5173797607421875,0.155029296875
1667824871190314200,7.302314208984375,-0.67999267578125,-0.522613525390625,0.146453857421875
1667824871200322000,7.312322021484375,-0.6848907470703125,-0.5229644775390625,0.1525726318359375
1667824871210330400,7.322330322265625,-0.7089385986328125,-0.52764892578125,0.167388916015625
1667824871220337200,7.332337158203125,-0.746612548828125,-0.542266845703125,0.174835205078125
1667824871230345200,7.34234521484375,-0.7748870849609375,-0.5581207275390625,0.1779022216796875
1667824871240353300,7.352353271484375,-0.791412353515625,-0.5726776123046875,0.179595947265625
1667824871250360300,7.3623603515625,-0.790771484375,-0.5839080810546875,0.1833343505859375
1667824871260368400,7.372368408203125,-0.78961181640625,-0.5857696533203125,0.18829345703125
1667824871270375200,7.382375244140625,-0.7905426025390625,-0.5794677734375,0.1982269287109375
1667824871280383200,7.39238330078125,-0.7985687255859375,-0.57476806640625,0.2071685791015625
1667824871290391300,7.402391357421875,-0.808807373046875,-0.57305908203125,0.207000732421875
1667824871300398300,7.4123984375,-0.8205718994140625,-0.570068359375,0.20611572265625
1667824871310406100,7.42240625,-0.8314208984375,-0.563873291015625,0.2054595947265625
1667824871320414200,7.432414306640625,-0.8300628662109375,-0.54840087890625,0.2148895263671875
1667824871330421200,7.442421142578125,-0.8178558349609375,-0.536407470703125,0.2319793701171875
1667824871340429300,7.45242919921875,-0.802215576171875,-0.5386962890625,0.2363128662109375
1667824871350437000,7.46243701171875,-0.7856903076171875,-0.5482330322265625,0.2378082275390625
1667824871360444400,7.4724443359375,-0.777557373046875,-0.5504302978515625,0.261749267578125
1667824871370452200,7.4824521484375,-0.7774658203125,-0.5488433837890625,0.3032379150390625
1667824871380460300,7.492460205078125,-0.78857421875,-0.549652099609375,0.3404998779296875
1667824871390467000,7.502467041015625,-0.814727783203125,-0.550201416015625,0.3729095458984375
1667824871400475100,7.51247509765625,-0.850433349609375,-0.5457763671875,0.397857666015625
1667824871410483200,7.522483154296875,-0.8756103515625,-0.5215301513671875,0.4327850341796875
1667824871420490200,7.532490234375,-0.8886260986328125,-0.4833221435546875,0.46917724609375
1667824871430498000,7.542498046875,-0.893585205078125,-0.4482574462890625,0.4858551025390625
1667824871440505300,7.55250537109375,-0.8819732666015625,-0.417083740234375,0.482421875
1667824871450513200,7.56251318359375,-0.8527069091796875,-0.384674072265625,0.473388671875
1667824871460521200,7.572521240234375,-0.8059234619140625,-0.356536865234375,0.466033935546875
1667824871470528000,7.582528076171875,-0.7488861083984375,-0.342254638671875,0.4566192626953125
1667824871480536300,7.592536376953125,-0.6899566650390625,-0.344482421875,0.439849853515625
1667824871490544400,7.60254443359375,-0.6486663818359375,-0.3603363037109375,0.425048828125
1667824871500551200,7.61255126953125,-0.6285247802734375,-0.3839263916015625,0.418304443359375
1667824871510559200,7.622559326171875,-0.6268157958984375,-0.404083251953125,0.4250030517578125
1667824871520567300,7.6325673828125,-0.641204833984375,-0.4111175537109375,0.4417266845703125
1667824871530574300,7.64257421875,-0.6614990234375,-0.4096527099609375,0.4662017822265625
1667824871540582100,7.65258203125,-0.693511962890625,-0.404693603515625,0.4779815673828125
1667824871550590200,7.662590087890625,-0.7276458740234375,-0.399749755859375,0.482696533203125
1667824871560597200,7.67259716796875,-0.7498931884765625,-0.3914947509765625,0.485260009765625
1667824871570605300,7.682605224609375,-0.761932373046875,-0.3755035400390625,0.4788818359375
1667824871580613000,7.692613037109375,-0.767822265625,-0.35546875,0.4636077880859375
1667824871590620200,7.7026201171875,-0.7574005126953125,-0.341705322265625,0.4349365234375
1667824871600628200,7.712628173828125,-0.7253875732421875,-0.3371734619140625,0.3974761962890625
1667824871610635300,7.72263525390625,-0.68426513671875,-0.34039306640625,0.35491943359375
1667824871620643000,7.73264306640625,-0.6443634033203125,-0.341552734375,0.314727783203125
1667824871630651100,7.742651123046875,-0.610198974609375,-0.3376922607421875,0.2796630859375
1667824871640658200,7.752658203125,-0.5879364013671875,-0.33367919921875,0.24859619140625
1667824871650666200,7.762666259765625,-0.57708740234375,-0.33233642578125,0.2232208251953125
1667824871660674300,7.77267431640625,-0.57373046875,-0.3368072509765625,0.194793701171875
1667824871670681300,7.782681396484375,-0.5769500732421875,-0.34442138671875,0.166961669921875
1667824871680689400,7.792689453125,-0.5876312255859375,-0.355377197265625,0.14935302734375
1667824871690697200,7.802697265625,-0.597320556640625,-0.365570068359375,0.1327667236328125
1667824871700704300,7.812704345703125,-0.607421875,-0.3753204345703125,0.1140594482421875
1667824871710712300,7.82271240234375,-0.614410400390625,-0.3883514404296875,0.1037445068359375
1667824871720720400,7.832720458984375,-0.628997802734375,-0.4021148681640625,0.09466552734375
1667824871730727200,7.84272705078125,-0.6560821533203125,-0.41571044921875,0.0859222412109375
1667824871740735200,7.8527353515625,-0.701873779296875,-0.425048828125,0.0858001708984375
1667824871750743000,7.862742919921875,-0.7528839111328125,-0.4293212890625,0.09381103515625
1667824871760750300,7.872750244140625,-0.7971649169921875,-0.4283905029296875,0.0915679931640625
1667824871770758100,7.882758056640625,-0.8350372314453125,-0.423431396484375,0.0900115966796875
1667824871780765200,7.89276513671875,-0.869964599609375,-0.4220123291015625,0.0831146240234375
1667824871790773200,7.902773193359375,-0.9017181396484375,-0.421600341796875,0.0795440673828125
1667824871800781300,7.91278125,-0.9296417236328125,-0.419677734375,0.0782012939453125
1667824871810788000,7.9227880859375,-0.955352783203125,-0.4246826171875,0.068450927734375
1667824871820796200,7.932796142578125,-0.9763336181640625,-0.4332427978515625,0.0551300048828125
1667824871830804200,7.94280419921875,-0.994293212890625,-0.4373626708984375,0.0549774169921875
1667824871840811300,7.952811279296875,-1.0017242431640625,-0.4445648193359375,0.05584716796875
1667824871850819300,7.9628193359375,-1.0162353515625,-0.4588775634765625,0.0554046630859375
1667824871860827100,7.9728271484375,-1.042816162109375,-0.4844207763671875,0.061981201171875
1667824871870834400,7.98283447265625,-1.085968017578125,-0.51763916015625,0.0785980224609375
1667824871880842200,7.99284228515625,-1.1475677490234375,-0.54827880859375,0.1089324951171875
1667824871890850300,8.002850341796876,-1.231781005859375,-0.5731353759765625,0.15594482421875
1667824871900857000,8.012857177734375,-1.320343017578125,-0.586639404296875,0.2180938720703125
1667824871910865400,8.022865478515625,-1.39971923828125,-0.5820770263671875,0.2783050537109375
1667824871920873200,8.032873291015624,-1.452423095703125,-0.5527801513671875,0.321868896484375
1667824871930880300,8.04288037109375,-1.46142578125,-0.50732421875,0.3621826171875
1667824871940888000,8.05288818359375,-1.43170166015625,-0.458526611328125,0.3784942626953125
1667824871950896400,8.062896484375,-1.3611297607421875,-0.406707763671875,0.358001708984375
1667824871960903200,8.072903076171874,-1.26312255859375,-0.3616485595703125,0.3112945556640625
1667824871970911200,8.0829111328125,-1.156280517578125,-0.32098388671875,0.2585906982421875
1667824871980918300,8.092918212890625,-1.055389404296875,-0.2886810302734375,0.2061767578125
1667824871990926300,8.10292626953125,-0.961029052734375,-0.270599365234375,0.16156005859375
1667824872000934100,8.11293408203125,-0.88031005859375,-0.2731170654296875,0.1184539794921875
1667824872010941200,8.122941162109376,-0.83935546875,-0.30322265625,0.07415771484375
1667824872020949200,8.13294921875,-0.826263427734375,-0.3365325927734375,0.053802490234375
1667824872030957300,8.142957275390625,-0.8341064453125,-0.3584747314453125,0.0668792724609375
1667824872040964000,8.152964111328124,-0.85546875,-0.3677978515625,0.110870361328125
1667824872050972200,8.16297216796875,-0.890777587890625,-0.3675384521484375,0.1852569580078125
1667824872060980200,8.172980224609375,-0.9636993408203125,-0.3789215087890625,0.276397705078125
1667824872070987300,8.1829873046875,-1.0540313720703125,-0.411590576171875,0.3676910400390625
1667824872080995300,8.192995361328125,-1.1454315185546875,-0.444976806640625,0.4468994140625
1667824872091003100,8.203003173828124,-1.2407073974609375,-0.45623779296875,0.514373779296875
1667824872101010400,8.213010498046875,-1.2928619384765625,-0.436309814453125,0.58184814453125
1667824872111018200,8.223018310546875,-1.281707763671875,-0.3997650146484375,0.62396240234375
1667824872121026300,8.2330263671875,-1.2021942138671875,-0.3767547607421875,0.6089935302734375
1667824872131033000,8.243033203125,-1.08209228515625,-0.3891143798828125,0.5352783203125
1667824872141041200,8.253041259765626,-0.9551544189453125,-0.3958282470703125,0.4571380615234375
1667824872151049200,8.26304931640625,-0.831146240234375,-0.3752593994140625,0.4028778076171875
1667824872161055000,8.273054931640624,-0.7309112548828125,-0.3599395751953125,0.36346435546875
1667824872171063300,8.283063232421876,-0.6605987548828125,-0.365447998046875,0.3229522705078125
1667824872181070000,8.293070068359375,-0.6151885986328125,-0.384124755859375,0.2984771728515625
1667824872191078100,8.303078125,-0.6006011962890625,-0.4062652587890625,0.2861175537109375
1667824872201086200,8.313086181640625,-0.61761474609375,-0.4237823486328125,0.292266845703125
1667824872211093200,8.32309326171875,-0.6519775390625,-0.425567626953125,0.316009521484375
1667824872221101300,8.333101318359375,-0.6877899169921875,-0.4286041259765625,0.333282470703125
1667824872231109000,8.343109130859375,-0.7152099609375,-0.434844970703125,0.332183837890625
1667824872241116200,8.3531162109375,-0.7342987060546875,-0.44000244140625,0.319854736328125
1667824872251124200,8.363124267578126,-0.7471771240234375,-0.4375457763671875,0.3110198974609375
1667824872261132300,8.37313232421875,-0.7504425048828125,-0.4228668212890625,0.31170654296875
1667824872271139000,8.38313916015625,-0.7512359619140625,-0.410888671875,0.30560302734375
1667824872281147100,8.393147216796875,-0.747528076171875,-0.4124603271484375,0.2808380126953125
1667824872291155200,8.4031552734375,-0.7308349609375,-0.4239959716796875,0.2451171875
1667824872301162200,8.413162353515625,-0.7047119140625,-0.4249114990234375,0.2186737060546875
1667824872311170000,8.423170166015625,-0.68023681640625,-0.423553466796875,0.1990966796875
1667824872321178000,8.43317822265625,-0.6623687744140625,-0.4267120361328125,0.18560791015625
1667824872331185200,8.44318505859375,-0.651031494140625,-0.432830810546875,0.1763153076171875
1667824872341193200,8.453193115234376,-0.6475067138671875,-0.437744140625,0.1691436767578125
1667824872351200000,8.463199951171875,-0.65728759765625,-0.4472808837890625,0.16009521484375
1667824872361208300,8.473208251953125,-0.663726806640625,-0.4578094482421875,0.153289794921875
1667824872371216400,8.48321630859375,-0.6707000732421875,-0.463897705078125,0.14935302734375
1667824872381223200,8.49322314453125,-0.6806488037109375,-0.4598541259765625,0.154937744140625
1667824872391231200,8.503231201171875,-0.68792724609375,-0.4527587890625,0.1673431396484375
1667824872401239000,8.513239013671875,-0.7014617919921875,-0.4526519775390625,0.1859893798828125
1667824872411246300,8.523246337890624,-0.728851318359375,-0.457275390625,0.2068023681640625
1667824872421254100,8.533254150390626,-0.7565460205078125,-0.459075927734375,0.2356414794921875
1667824872431262200,8.54326220703125,-0.77984619140625,-0.455413818359375,0.268585205078125
1667824872441269200,8.553269287109375,-0.8029937744140625,-0.449951171875,0.3077392578125
1667824872451277300,8.56327734375,-0.82586669921875,-0.4453887939453125,0.3460235595703125
1667824872461285000,8.57328515625,-0.84661865234375,-0.4414825439453125,0.381744384765625
1667824872471292200,8.583292236328125,-0.8688201904296875,-0.433441162109375,0.4121856689453125
1667824872481300200,8.59330029296875,-0.891693115234375,-0.4162750244140625,0.4352874755859375
1667824872491307300,8.603307373046874,-0.9027862548828125,-0.393341064453125,0.4558868408203125
1667824872501315000,8.613315185546876,-0.904876708984375,-0.3809814453125,0.4663848876953125
1667824872511323100,8.6233232421875,-0.89617919921875,-0.3766937255859375,0.470428466796875
1667824872521330200,8.633330078125,-0.884857177734375,-0.3667144775390625,0.4711456298828125
1667824872531338200,8.643338134765624,-0.8778533935546875,-0.3531341552734375,0.4703216552734375
1667824872541346300,8.65334619140625,-0.8760223388671875,-0.3412628173828125,0.472259521484375
1667824872551353300,8.663353271484375,-0.87725830078125,-0.3328857421875,0.4731903076171875
1667824872561361200,8.673361083984375,-0.8709259033203125,-0.3298797607421875,0.465118408203125
1667824872571369200,8.683369140625,-0.8519134521484375,-0.3302459716796875,0.4454193115234375
1667824872581376000,8.6933759765625,-0.818145751953125,-0.328033447265625,0.417938232421875
1667824872591384000,8.703384033203125,-0.7782745361328125,-0.326385498046875,0.385833740234375
1667824872601392400,8.713392333984375,-0.7413177490234375,-0.334716796875,0.34765625
1667824872611399200,8.723399169921874,-0.7099456787109375,-0.3510894775390625,0.311126708984375
1667824872621407200,8.7334072265625,-0.680877685546875,-0.37274169921875,0.27490234375
1667824872631415000,8.7434150390625,-0.6593780517578125,-0.3914642333984375,0.245880126953125
1667824872641422300,8.75342236328125,-0.6484222412109375,-0.4069976806640625,0.2247314453125
1667824872651430100,8.76343017578125,-0.652496337890625,-0.4254608154296875,0.2057647705078125
1667824872661437200,8.773437255859376,-0.664031982421875,-0.4433135986328125,0.19378662109375
1667824872671445200,8.7834453125,-0.67938232421875,-0.452667236328125,0.185791015625
1667824872681453300,8.793453369140625,-0.6971588134765625,-0.450103759765625,0.1796875
1667824872691460000,8.803460205078125,-0.7088165283203125,-0.44384765625,0.1770477294921875
1667824872701468200,8.81346826171875,-0.721954345703125,-0.4416046142578125,0.17059326171875
1667824872711476000,8.82347607421875,-0.7392578125,-0.44677734375,0.1595916748046875
1667824872721483300,8.833483154296875,-0.7608489990234375,-0.4511260986328125,0.15777587890625
1667824872731491000,8.843490966796875,-0.780426025390625,-0.446014404296875,0.15667724609375
1667824872741499100,8.8534990234375,-0.7945709228515625,-0.4385223388671875,0.1467132568359375
1667824872751506200,8.863506103515626,-0.8053741455078125,-0.4299774169921875,0.1401214599609375
1667824872761514200,8.87351416015625,-0.8249053955078125,-0.4192962646484375,0.13323974609375
1667824872771522300,8.883522216796875,-0.8489837646484375,-0.4060821533203125,0.1282958984375
1667824872781529000,8.893529052734374,-0.8800811767578125,-0.395263671875,0.1269989013671875
1667824872791537400,8.903537353515626,-0.9076995849609375,-0.38421630859375,0.132293701171875
1667824872801545200,8.913545166015625,-0.9407806396484375,-0.3773193359375,0.132232666015625
1667824872811552300,8.92355224609375,-0.97674560546875,-0.36932373046875,0.132904052734375
1667824872821560000,8.93356005859375,-1.00341796875,-0.371185302734375,0.133148193359375
1667824872831568100,8.943568115234376,-1.0162200927734375,-0.38580322265625,0.1270751953125
1667824872841575200,8.9535751953125,-1.0098724365234375,-0.4049224853515625,0.1204681396484375
1667824872851583200,8.963583251953125,-0.9940338134765625,-0.4250640869140625,0.114715576171875
1667824872861590300,8.97359033203125,-0.978759765625,-0.455352783203125,0.11541748046875
1667824872871598300,8.983598388671876,-0.97833251953125,-0.50469970703125,0.1202545166015625
1667824872881606100,8.993606201171875,-0.9871673583984375,-0.55462646484375,0.1307525634765625
1667824872891613200,9.00361328125,-0.99114990234375,-0.581268310546875,0.1649169921875
1667824872901621000,9.01362109375,-1.006072998046875,-0.5865936279296875,0.2188262939453125
1667824872911629300,9.02362939453125,-1.01788330078125,-0.575714111328125,0.286834716796875
1667824872921636000,9.033635986328125,-1.030517578125,-0.56170654296875,0.3319854736328125
1667824872931644200,9.04364404296875,-1.02484130859375,-0.534027099609375,0.362823486328125
1667824872941652200,9.05365234375,-0.9973907470703125,-0.4943695068359375,0.3867645263671875
1667824872951659300,9.0636591796875,-0.9600067138671875,-0.4527130126953125,0.390045166015625
1667824872961667300,9.073667236328125,-0.93072509765625,-0.4221038818359375,0.3766021728515625
1667824872971675100,9.083675048828125,-0.9252471923828125,-0.414154052734375,0.347442626953125
1667824872981682200,9.09368212890625,-0.92962646484375,-0.4195709228515625,0.319091796875
1667824872991690200,9.103690185546874,-0.9371795654296875,-0.4264678955078125,0.288818359375
1667824873001698300,9.1136982421875,-0.9515228271484375,-0.4321441650390625,0.2683258056640625
1667824873011705000,9.123705078125,-0.966522216796875,-0.44122314453125,0.265899658203125
1667824873021713200,9.133713134765625,-0.9891357421875,-0.4469451904296875,0.2758636474609375
1667824873031721200,9.14372119140625,-1.0135955810546875,-0.4491424560546875,0.2909088134765625
1667824873041728300,9.153728271484376,-1.0561370849609375,-0.4491424560546875,0.311859130859375
1667824873051736000,9.163736083984375,-1.1104278564453125,-0.4403533935546875,0.34014892578125
1667824873061743400,9.173743408203125,-1.1594085693359375,-0.427581787109375,0.367828369140625
1667824873071751200,9.183751220703124,-1.19635009765625,-0.412994384765625,0.3894195556640625
1667824873081759200,9.19375927734375,-1.21002197265625,-0.394744873046875,0.4047088623046875
1667824873091766000,9.20376611328125,-1.1946868896484375,-0.3798980712890625,0.40118408203125
1667824873101774300,9.2137744140625,-1.1457366943359375,-0.36822509765625,0.38330078125
1667824873111782100,9.2237822265625,-1.0586090087890625,-0.3558349609375,0.3553009033203125
1667824873121789200,9.2337890625,-0.9546661376953125,-0.3408660888671875,0.318145751953125
1667824873131797000,9.243796875,-0.861663818359375,-0.3348541259765625,0.2790069580078125
1667824873141805000,9.25380517578125,-0.78619384765625,-0.3426513671875,0.2418212890625
1667824873151812000,9.26381201171875,-0.742950439453125,-0.3608245849609375,0.2080841064453125
1667824873161821000,9.273821044921876,-0.716766357421875,-0.3753662109375,0.190093994140625
1667824873171828700,9.283828857421875,-0.71331787109375,-0.38629150390625,0.189361572265625
1667824873181835800,9.293835693359375,-0.7356414794921875,-0.394256591796875,0.1980743408203125
1667824873191843800,9.30384375,-0.777008056640625,-0.39935302734375,0.2097015380859375
1667824873201852000,9.313851806640624,-0.8145904541015625,-0.394622802734375,0.2225799560546875
1667824873211858700,9.323858642578125,-0.8319244384765625,-0.395599365234375,0.2389984130859375
1667824873221866800,9.33386669921875,-0.8423309326171875,-0.400421142578125,0.237060546875
1667824873231873800,9.343873779296874,-0.84295654296875,-0.401611328125,0.2271881103515625
1667824873241881900,9.3538818359375,-0.836456298828125,-0.3964996337890625,0.219818115234375
1667824873251889700,9.3638896484375,-0.8207550048828125,-0.3899383544921875,0.2170867919921875
1667824873261897000,9.37389697265625,-0.8052215576171875,-0.38592529296875,0.2066650390625
1667824873271904800,9.38390478515625,-0.7858428955078125,-0.3817291259765625,0.1917572021484375
1667824873281912800,9.393912841796874,-0.7668609619140625,-0.382354736328125,0.172332763671875
1667824873291919600,9.403919677734375,-0.75439453125,-0.386138916015625,0.1556243896484375
1667824873301927700,9.413927734375,-0.759765625,-0.3976593017578125,0.1372833251953125
1667824873311936000,9.42393603515625,-0.772735595703125,-0.4027557373046875,0.1369781494140625
1667824873321942800,9.43394287109375,-0.792083740234375,-0.392608642578125,0.16448974609375
1667824873331950800,9.443950927734376,-0.8181915283203125,-0.3720245361328125,0.20159912109375
1667824873341958700,9.453958740234375,-0.8460693359375,-0.3653411865234375,0.228790283203125
1667824873351966000,9.463966064453125,-0.86541748046875,-0.371185302734375,0.2453460693359375
1667824873361973800,9.473973876953124,-0.8794403076171875,-0.376190185546875,0.2639923095703125
1667824873371981800,9.48398193359375,-0.9007568359375,-0.3678131103515625,0.28857421875
1667824873381988900,9.49398876953125,-0.9215240478515625,-0.3461151123046875,0.317840576171875
1667824873391997000,9.503996826171875,-0.924102783203125,-0.3222198486328125,0.34051513671875
1667824873402004700,9.514004638671874,-0.913299560546875,-0.3060760498046875,0.3480987548828125
1667824873412011800,9.52401171875,-0.8877105712890625,-0.2824859619140625,0.35479736328125
1667824873422019800,9.534019775390625,-0.8671112060546875,-0.25048828125,0.3547515869140625
1667824873432028000,9.54402783203125,-0.858489990234375,-0.2232513427734375,0.3593597412109375
1667824873442034700,9.55403466796875,-0.865692138671875,-0.2014617919921875,0.3702392578125
1667824873452042800,9.564042724609376,-0.88702392578125,-0.1797332763671875,0.3777008056640625
1667824873462050800,9.57405078125,-0.90966796875,-0.157745361328125,0.37677001953125
1667824873472057900,9.584057861328125,-0.91552734375,-0.149078369140625,0.3665771484375
1667824873482066000,9.59406591796875,-0.914276123046875,-0.15948486328125,0.332244873046875
1667824873492072700,9.60407275390625,-0.88037109375,-0.16888427734375,0.318817138671875
1667824873502081000,9.6140810546875,-0.8511810302734375,-0.16851806640625,0.3121185302734375
1667824873512088800,9.6240888671875,-0.8285064697265625,-0.177825927734375,0.2906036376953125
1667824873522095900,9.634095947265624,-0.8376007080078125,-0.2115478515625,0.2686004638671875
1667824873532103700,9.644103759765626,-0.8781585693359375,-0.24609375,0.2665252685546875
1667824873542112000,9.654112060546876,-0.91302490234375,-0.2596435546875,0.2812957763671875
1667824873552118800,9.664118896484375,-0.91650390625,-0.2590179443359375,0.311004638671875
1667824873562126800,9.674126953125,-0.8958892822265625,-0.2519073486328125,0.3391265869140625
1667824873572134700,9.684134765625,-0.87860107421875,-0.2522125244140625,0.334503173828125
1667824873582142000,9.694141845703125,-0.89141845703125,-0.282257080078125,0.319732666015625
1667824873592149800,9.704149658203125,-0.9079132080078125,-0.293304443359375,0.2921142578125
1667824873602157800,9.71415771484375,-0.9048309326171875,-0.27398681640625,0.256103515625
1667824873612164600,9.72416455078125,-0.89385986328125,-0.295379638671875,0.26995849609375
1667824873622173000,9.7341728515625,-0.8568267822265625,-0.282135009765625,0.27484130859375
1667824873632181000,9.744180908203125,-0.822296142578125,-0.2473602294921875,0.2709503173828125
1667824873642187800,9.754187744140625,-0.794586181640625,-0.2361907958984375,0.2668914794921875
1667824873652195800,9.76419580078125,-0.763092041015625,-0.2554779052734375,0.250244140625
1667824873662204000,9.774203857421876,-0.746124267578125,-0.3017120361328125,0.2196502685546875
1667824873672211000,9.7842109375,-0.7268218994140625,-0.3589630126953125,0.1991729736328125
1667824873682218800,9.79421875,-0.70941162109375,-0.39990234375,0.1818695068359375
1667824873692226000,9.80422607421875,-0.7153167724609375,-0.423095703125,0.166046142578125
1667824873702233900,9.81423388671875,-0.7463226318359375,-0.451751708984375,0.164947509765625
1667824873712242000,9.824241943359375,-0.7717437744140625,-0.456390380859375,0.188140869140625
1667824873722248700,9.834248779296875,-0.79779052734375,-0.4129180908203125,0.206573486328125
1667824873732256800,9.8442568359375,-0.8496551513671875,-0.41790771484375,0.26824951171875
1667824873742264800,9.854264892578126,-0.9083404541015625,-0.4144134521484375,0.2648468017578125
1667824873752272000,9.86427197265625,-0.9122161865234375,-0.354766845703125,0.1916046142578125
1667824873762279700,9.87427978515625,-0.846466064453125,-0.38665771484375,0.1274261474609375
1667824873772287700,9.884287841796874,-0.7939300537109375,-0.4707489013671875,0.08428955078125
1667824873782294800,9.894294677734376,-0.8954315185546875,-0.5355072021484375,0.0534820556640625
1667824873792302800,9.904302734375,-0.9429473876953125,-0.564208984375,0.10870361328125
1667824873802310700,9.914310546875,-0.799896240234375,-0.6331634521484375,0.1978759765625
1667824873812318000,9.92431787109375,-0.709136962890625,-0.6989898681640625,0.206207275390625
1667824873822325800,9.93432568359375,-0.71954345703125,-0.7245941162109375,0.169036865234375
1667824873832333800,9.944333740234375,-0.7973175048828125,-0.7213897705078125,0.1674346923828125
1667824873842340600,9.954340576171875,-0.8939056396484375,-0.7054901123046875,0.2263336181640625
1667824873852349000,9.964348876953125,-0.970428466796875,-0.684722900390625,0.3258209228515625
1667824873862357000,9.97435693359375,-1.0284423828125,-0.657440185546875,0.417236328125
1667824873872363800,9.98436376953125,-1.148651123046875,-0.6209869384765625,0.49298095703125
1667824873882371800,9.994371826171875,-1.381439208984375,-0.5768585205078125,0.5559844970703125
1667824873892379600,10.004379638671875,-1.2903900146484375,-0.5447845458984375,0.52325439453125
1667824873902387000,10.014386962890624,-1.2587432861328125,-0.546539306640625,0.4610595703125
1667824873912394800,10.024394775390626,-1.2750396728515625,-0.5553741455078125,0.4026336669921875
1667824873922402800,10.03440283203125,-1.236083984375,-0.542755126953125,0.3660736083984375
1667824873932409900,10.044409912109375,-1.1848602294921875,-0.5487213134765625,0.319244384765625
1667824873942418000,10.05441796875,-1.1423797607421875,-0.5752716064453125,0.283447265625
1667824873952425700,10.06442578125,-1.0962982177734375,-0.57598876953125,0.2835693359375
1667824873962432800,10.074432861328125,-1.0992889404296875,-0.54888916015625,0.3050537109375
1667824873972440800,10.08444091796875,-1.132232666015625,-0.5103607177734375,0.31378173828125
1667824873982447900,10.09444775390625,-1.1363983154296875,-0.4904022216796875,0.2941131591796875
1667824873992455700,10.10445556640625,-1.1345672607421875,-0.505157470703125,0.261322021484375
1667824874002463700,10.114463623046875,-1.14434814453125,-0.5276947021484375,0.2508697509765625
1667824874012470800,10.124470703125,-1.1468658447265625,-0.55303955078125,0.2973175048828125
1667824874022478800,10.134478759765624,-1.1500091552734375,-0.5715484619140625,0.37744140625
1667824874032487000,10.14448681640625,-1.156829833984375,-0.5769195556640625,0.4491729736328125
1667824874042493700,10.15449365234375,-1.16400146484375,-0.5584564208984375,0.500030517578125
1667824874052502000,10.164501953125,-1.152496337890625,-0.5431671142578125,0.5157470703125
1667824874062509800,10.174509765625,-1.10791015625,-0.5379180908203125,0.4958953857421875
1667824874072516900,10.184516845703126,-1.0386810302734375,-0.5321197509765625,0.4575347900390625
1667824874082524700,10.194524658203125,-0.9611053466796875,-0.5233917236328125,0.409637451171875
1667824874092533000,10.204532958984375,-0.8871612548828125,-0.508056640625,0.3790435791015625
1667824874102539800,10.214539794921874,-0.8166046142578125,-0.50238037109375,0.368743896484375
1667824874112547800,10.2245478515625,-0.7491302490234375,-0.4962310791015625,0.3590850830078125
1667824874122555600,10.2345556640625,-0.6787261962890625,-0.473052978515625,0.347442626953125
1667824874132563000,10.24456298828125,-0.591522216796875,-0.445465087890625,0.3233642578125
1667824874142570800,10.25457080078125,-0.5008392333984375,-0.4420166015625,0.2754669189453125
1667824874152578800,10.264578857421874,-0.4176788330078125,-0.452056884765625,0.2317047119140625
1667824874162585900,10.2745859375,-0.3544464111328125,-0.4644012451171875,0.1957244873046875
1667824874172594200,10.28459423828125,-0.328155517578125,-0.4881744384765625,0.1658172607421875
1667824874182602200,10.294602294921875,-0.3299407958984375,-0.50799560546875,0.1541595458984375
1667824874192609000,10.304609130859374,-0.353912353515625,-0.5169830322265625,0.1336669921875
1667824874202617000,10.3146171875,-0.41204833984375,-0.5253753662109375,0.1090240478515625
1667824874212625200,10.324625244140625,-0.4812164306640625,-0.5225372314453125,0.128631591796875
1667824874222632200,10.334632080078125,-0.4765625,-0.5401153564453125,0.1585235595703125
1667824874232640000,10.344639892578124,-0.4711761474609375,-0.57208251953125,0.1453094482421875
1667824874242647300,10.354647216796875,-0.496978759765625,-0.6064910888671875,0.1215057373046875
1667824874252655000,10.364655029296875,-0.5443572998046875,-0.6291961669921875,0.1019744873046875
1667824874262663200,10.3746630859375,-0.593505859375,-0.6158599853515625,0.088104248046875
1667824874272670000,10.384669921875,-0.64752197265625,-0.5689697265625,0.0944671630859375
1667824874282678000,10.394677978515626,-0.6900482177734375,-0.5141754150390625,0.1100921630859375
1667824874292686000,10.40468603515625,-0.71429443359375,-0.4745025634765625,0.1210479736328125
1667824874302693000,10.414693115234375,-0.7388458251953125,-0.465911865234375,0.1009674072265625
1667824874312701000,10.424700927734374,-0.770843505859375,-0.478363037109375,0.0863189697265625
1667824874322709000,10.434708984375,-0.8217620849609375,-0.4897613525390625,0.081512451171875
1667824874332716000,10.444716064453125,-0.8756256103515625,-0.479827880859375,0.0762481689453125
1667824874342724000,10.45472412109375,-0.9235687255859375,-0.46136474609375,0.0810089111328125
1667824874352732200,10.464732177734374,-0.95526123046875,-0.4532318115234375,0.08502197265625
1667824874362739200,10.4747392578125,-0.989013671875,-0.4698486328125,0.0934295654296875
1667824874372747300,10.484747314453125,-1.0339508056640625,-0.517608642578125,0.107086181640625
1667824874382755000,10.494755126953125,-1.0721282958984375,-0.5629730224609375,0.110595703125
1667824874392762000,10.50476220703125,-1.103363037109375,-0.5841064453125,0.1107940673828125
1667824874402770000,10.51477001953125,-1.1295166015625,-0.5789947509765625,0.1302490234375
1667824874412778200,10.5247783203125,-1.145233154296875,-0.5407562255859375,0.1591339111328125
1667824874422785000,10.534784912109375,-1.1451416015625,-0.4805755615234375,0.17694091796875
1667824874432793000,10.54479296875,-1.1321563720703125,-0.4353485107421875,0.16943359375
1667824874442801000,10.55480078125,-1.1084442138671875,-0.4178009033203125,0.1477508544921875
1667824874452808200,10.56480810546875,-1.0837249755859375,-0.4203033447265625,0.1143798828125
1667824874462816000,10.57481591796875,-1.063995361328125,-0.4274139404296875,0.07342529296875
1667824874472823000,10.584822998046874,-1.0600433349609375,-0.4313201904296875,0.039337158203125
1667824874482831000,10.5948310546875,-1.0618896484375,-0.4354095458984375,0.0211181640625
1667824874492839200,10.604839111328126,-1.0667266845703125,-0.4504852294921875,0.0059967041015625
1667824874502846000,10.614845947265625,-1.07562255859375,-0.468292236328125,-0.0052337646484375
1667824874512854000,10.62485400390625,-1.091644287109375,-0.4881134033203125,-0.0021209716796875
1667824874522862000,10.634862060546874,-1.1048583984375,-0.495208740234375,0.00958251953125
1667824874532869000,10.644869140625,-1.1082916259765625,-0.4844207763671875,0.021942138671875
1667824874542877000,10.654876953125,-1.0999755859375,-0.4609222412109375,0.0333251953125
1667824874552885000,10.664885009765625,-1.0876007080078125,-0.439697265625,0.040008544921875
1667824874562892000,10.67489208984375,-1.09161376953125,-0.407989501953125,0.0485992431640625
1667824874572900000,10.684900146484376,-1.1009674072265625,-0.3520965576171875,0.0645751953125
1667824874582908200,10.694908203125,-1.10467529296875,-0.2922515869140625,0.0839691162109375
1667824874592915000,10.7049150390625,-1.1104736328125,-0.2437591552734375,0.1010894775390625
1667824874602923300,10.71492333984375,-1.10357666015625,-0.21533203125,0.1232147216796875
1667824874612931000,10.72493115234375,-1.0710296630859375,-0.2162933349609375,0.140228271484375
1667824874622938000,10.734938232421875,-1.0106964111328125,-0.2453765869140625,0.141693115234375
1667824874632946000,10.74494580078125,-0.9356231689453125,-0.292205810546875,0.13592529296875
1667824874642954000,10.7549541015625,-0.8589935302734375,-0.33685302734375,0.1346282958984375
1667824874652961000,10.7649609375,-0.7978363037109375,-0.3705902099609375,0.1356048583984375
1667824874662969000,10.774968994140625,-0.7595367431640625,-0.39013671875,0.1377105712890625
1667824874672976100,10.78497607421875,-0.7379302978515625,-0.3917694091796875,0.1388092041015625
1667824874682984200,10.794984130859374,-0.72796630859375,-0.37481689453125,0.1426849365234375
1667824874692992000,10.804991943359376,-0.7321929931640625,-0.3582611083984375,0.1457061767578125
1667824874702999000,10.8149990234375,-0.7408294677734375,-0.3470001220703125,0.141021728515625
1667824874713006800,10.8250068359375,-0.7465362548828125,-0.3378753662109375,0.1335601806640625
1667824874723015200,10.83501513671875,-0.7583160400390625,-0.33575439453125,0.124359130859375
1667824874733022000,10.84502197265625,-0.76263427734375,-0.336334228515625,0.1158905029296875
1667824874743030000,10.855030029296875,-0.758941650390625,-0.3484039306640625,0.100250244140625
1667824874753038000,10.8650380859375,-0.7508392333984375,-0.362030029296875,0.0811920166015625
1667824874763045000,10.875045166015624,-0.747100830078125,-0.3763885498046875,0.07159423828125
1667824874773053200,10.88505322265625,-0.7499237060546875,-0.393218994140625,0.068511962890625
1667824874783061000,10.89506103515625,-0.7559814453125,-0.4156646728515625,0.05767822265625
1667824874793068300,10.905068359375,-0.7751922607421875,-0.4409027099609375,0.0402069091796875
1667824874803076000,10.915076171875,-0.814117431640625,-0.4590606689453125,0.027801513671875
1667824874813084200,10.925084228515624,-0.8583984375,-0.4647064208984375,0.0373687744140625
1667824874823091000,10.935091064453125,-0.899383544921875,-0.4560546875,0.0697021484375
1667824874833099000,10.94509912109375,-0.9347076416015625,-0.443511962890625,0.092132568359375
1667824874843107000,10.955107177734375,-0.9591827392578125,-0.43731689453125,0.1035308837890625
1667824874853114000,10.965114013671876,-0.9767913818359375,-0.4429473876953125,0.115814208984375
1667824874863122000,10.975121826171875,-0.990386962890625,-0.4485321044921875,0.1312713623046875
1667824874873130000,10.9851298828125,-1.003875732421875,-0.441131591796875,0.1454925537109375
1667824874883137000,10.995136962890625,-1.0211944580078125,-0.4147491455078125,0.170867919921875
1667824874893145000,11.00514501953125,-1.015106201171875,-0.3797607421875,0.2029571533203125
1667824874903151900,11.01515185546875,-0.985107421875,-0.3658294677734375,0.20294189453125
1667824874913160200,11.02516015625,-0.9838714599609375,-0.365936279296875,0.2050018310546875
1667824874923168300,11.035168212890625,-0.9900665283203125,-0.364166259765625,0.23236083984375
1667824874933175000,11.045175048828124,-1.007110595703125,-0.3638153076171875,0.2463836669921875
1667824874943183000,11.05518310546875,-1.0174102783203125,-0.3618621826171875,0.2404937744140625
1667824874953191200,11.065191162109375,-1.012420654296875,-0.36126708984375,0.232269287109375
1667824874963198200,11.0751982421875,-0.9941558837890625,-0.3607940673828125,0.2210693359375
1667824874973206000,11.0852060546875,-0.96649169921875,-0.366119384765625,0.206024169921875
1667824874983214000,11.095214111328126,-0.924102783203125,-0.3721466064453125,0.1945343017578125
