time,seconds_elapsed,z,y,x
1667824863907249700,0.019249755859375,0.5225355625152588,0.12251166999340057,-0.12844450771808624
1667824863917257700,0.0292578125,0.5628960132598877,0.1796087771654129,-0.013217789120972157
1667824863927265500,0.039265625,0.6204949021339417,0.24690933525562286,0.06500167399644852
1667824863937272800,0.04927294921875,0.6750678420066833,0.3294718563556671,0.08401850610971451
1667824863947280600,0.05928076171875,0.7158165574073792,0.4346214830875397,0.0638667419552803
1667824863957288700,0.069288818359375,0.732722818851471,0.5797344446182251,0.006133411545306444
1667824863967295700,0.079295654296875,0.7154805064201355,0.7400737404823303,-0.06809890270233154
1667824863977303800,0.0893037109375,0.674807608127594,0.888259768486023,-0.14450232684612274
1667824863987311600,0.0993115234375,0.6397404074668884,1.0042126178741455,-0.20190811157226562
1667824863997318700,0.109318603515625,0.6388410925865173,1.0970194339752197,-0.22203335165977478
1667824864007326700,0.11932666015625,0.6588909029960632,1.1667925119400024,-0.17564423382282257
1667824864017333800,0.129333740234375,0.7245327234268188,1.1881026029586792,-0.06736651062965393
1667824864027341600,0.139341552734375,0.8290117979049683,1.2217433452606201,0.05620099604129791
1667824864037349600,0.149349609375,1.0110268592834473,1.1181330680847168,0.18101562559604645
1667824864047356700,0.159356689453125,1.175923466682434,0.9071007966995239,0.3469153344631195
1667824864057364700,0.16936474609375,1.2889487743377686,0.7658373713493347,0.6057075262069702
1667824864067372800,0.179372802734375,1.3963377475738525,0.7690448760986328,0.9312577843666077
1667824864077379600,0.189379638671875,1.5298012495040894,0.8748487830162048,1.067751169204712
1667824864087388000,0.199387939453125,1.5761281251907349,0.9481427073478699,0.9216240644454956
1667824864097395700,0.209395751953125,1.5410425662994385,0.8906530737876892,0.9522389769554138
1667824864107402800,0.21940283203125,1.376286506652832,0.6859710216522217,0.8827570676803589
1667824864117410600,0.22941064453125,1.2821301221847534,0.36221134662628174,0.8067858815193176
1667824864127419000,0.2394189453125,1.2789329290390015,0.008945315144956112,0.7914777994155884
1667824864137425700,0.24942578125,1.2761088609695435,-0.26409342885017395,0.8791258931159973
1667824864147434500,0.2594345703125,1.256179928779602,-0.3634547293186188,1.058253526687622
1667824864157441500,0.269441650390625,1.183530569076538,-0.14236308634281158,1.2249881029129028
1667824864167449600,0.27944970703125,1.0539257526397705,0.3875246047973633,1.3411507606506348
1667824864177457700,0.289457763671875,1.071972131729126,1.0079995393753052,1.480933666229248
1667824864187464400,0.29946435546875,1.2459334135055542,1.7670135498046875,1.690772294998169
1667824864197472500,0.309472412109375,1.3522443771362305,2.6349880695343018,1.8867738246917725
1667824864207480600,0.31948046875,1.2751768827438354,3.4532339572906494,2.0350825786590576
1667824864217487600,0.329487548828125,1.085719347000122,3.759911060333252,2.086606502532959
1667824864227495700,0.33949560546875,0.8551862835884094,2.6435439586639404,1.8796583414077759
1667824864237503500,0.34950341796875,0.612539529800415,2.275831937789917,1.7467243671417236
1667824864247510800,0.3595107421875,0.5549254417419434,2.03737735748291,1.6469964981079102
1667824864257518600,0.3695185546875,0.6432902216911316,2.2054967880249023,1.4743363857269287
1667824864267525600,0.379525634765625,0.7700831890106201,2.510110855102539,1.28101646900177
1667824864277533400,0.389533447265625,0.8861303925514221,2.7011518478393555,1.1076334714889526
1667824864287541500,0.39954150390625,0.987716794013977,2.8264036178588867,0.9364458322525024
1667824864297548500,0.409548583984375,1.100889801979065,2.8775599002838135,0.7586561441421509
1667824864307556600,0.419556640625,1.1903941631317139,2.912287473678589,0.615474283695221
1667824864317564400,0.429564453125,1.2556586265563965,3.0590553283691406,0.4930807054042816
1667824864327571700,0.43957177734375,1.2698127031326294,3.3410797119140625,0.36276382207870483
1667824864337579500,0.44957958984375,1.1901439428329468,3.6359636783599854,0.230852410197258
1667824864347587600,0.459587646484375,1.038657784461975,3.858041763305664,0.12634317576885223
1667824864357594400,0.469594482421875,0.8419808149337769,4.017399311065674,0.015749825164675713
1667824864367602700,0.479602783203125,0.6359845995903015,4.091903209686279,-0.11153964698314667
1667824864377610800,0.48961083984375,0.43155208230018616,4.091823101043701,-0.21845358610153198
1667824864387617500,0.499617431640625,0.2594864070415497,3.992845296859741,-0.2986389398574829
1667824864397625600,0.50962548828125,0.18349230289459229,3.7655279636383057,-0.3757941722869873
1667824864407632600,0.519632568359375,0.20814305543899536,3.4254026412963867,-0.4402565360069275
1667824864417640700,0.529640625,0.2729707956314087,2.9625818729400635,-0.48741626739501953
1667824864427648500,0.5396484375,0.37274372577667236,2.4696011543273926,-0.5035073757171631
1667824864437655600,0.549655517578125,0.48086515069007874,2.030878782272339,-0.49437883496284485
1667824864447663600,0.55966357421875,0.5652373433113098,1.6363762617111206,-0.491702675819397
1667824864457671700,0.569671630859375,0.571718692779541,1.2701170444488525,-0.5240363478660583
1667824864467678500,0.579678466796875,0.506687581539154,1.0104353427886963,-0.6057866811752319
1667824864477686500,0.5896865234375,0.4377764165401459,0.8984467387199402,-0.7304295301437378
1667824864487694600,0.599694580078125,0.3864317536354065,0.8570197224617004,-0.8933433294296265
1667824864497701600,0.60970166015625,0.3137016296386719,0.7865577936172485,-1.0612510442733765
1667824864507709400,0.61970947265625,0.22412538528442383,0.6941859722137451,-1.2218886613845825
1667824864517716700,0.629716796875,0.1509704738855362,0.6284328103065491,-1.3798892498016357
1667824864527724500,0.639724609375,0.11147971451282501,0.5825141072273254,-1.5102040767669678
1667824864537732600,0.649732666015625,0.08200864493846893,0.5526864528656006,-1.6260747909545898
1667824864547739400,0.659739501953125,0.06046675145626068,0.48853805661201477,-1.7085466384887695
1667824864557747700,0.669747802734375,0.0881737470626831,0.3512558341026306,-1.7478560209274292
1667824864567755500,0.679755615234375,0.19240769743919373,0.16839522123336792,-1.7494558095932007
1667824864577762600,0.689762451171875,0.33405962586402893,0.006026280112564564,-1.7005940675735474
1667824864587770400,0.699770263671875,0.43368324637413025,-0.13871793448925018,-1.6231926679611206
1667824864597778400,0.7097783203125,0.463141530752182,-0.2525273263454437,-1.5411303043365479
1667824864607785500,0.719785400390625,0.4329144060611725,-0.3441380262374878,-1.4674177169799805
1667824864617793500,0.72979345703125,0.3551838994026184,-0.43747034668922424,-1.410207986831665
1667824864627800600,0.739800537109375,0.25210005044937134,-0.504435122013092,-1.3372890949249268
1667824864637808600,0.74980859375,0.13762514293193817,-0.523732602596283,-1.2572829723358154
1667824864647816700,0.759816650390625,0.019246673211455345,-0.48298758268356323,-1.1771531105041504
1667824864657823500,0.769823486328125,-0.09833268821239471,-0.413288414478302,-1.1030811071395874
1667824864667831600,0.77983154296875,-0.198689803481102,-0.3449193239212036,-1.0414319038391113
1667824864677839600,0.789839599609375,-0.25694429874420166,-0.27509230375289917,-0.9815677404403687
1667824864687846700,0.7998466796875,-0.26116517186164856,-0.17840377986431122,-0.9206160306930542
1667824864697854500,0.8098544921875,-0.18542271852493286,-0.08149214088916779,-0.8382138013839722
1667824864707862500,0.819862548828125,-0.0801902636885643,-0.035518087446689606,-0.7118523120880127
1667824864717869600,0.82986962890625,0.0033541610464453697,-0.040564246475696564,-0.5554482936859131
1667824864727877600,0.839877685546875,0.07406844198703766,-0.06499926000833511,-0.38061362504959106
1667824864737885400,0.849885498046875,0.14281022548675537,-0.09718462824821472,-0.19231592118740082
1667824864747892700,0.859892822265625,0.21241015195846558,-0.11542283743619919,0.0007017371244728565
1667824864757900500,0.869900634765625,0.25522580742836,-0.1256120800971985,0.19944065809249878
1667824864767907600,0.879907470703125,0.22762419283390045,-0.15944501757621765,0.40034106373786926
1667824864777915400,0.889915283203125,0.20253801345825195,-0.23351657390594482,0.6073997020721436
1667824864787923500,0.89992333984375,0.16968727111816406,-0.26555335521698,0.8169254064559937
1667824864797930500,0.909930419921875,0.12699654698371887,-0.19887208938598633,0.9993593692779541
1667824864807938600,0.9199384765625,0.09100161492824554,-0.069434754550457,1.1295100450515747
1667824864817946600,0.929946533203125,0.0561581552028656,0.06918784230947495,1.1912082433700562
1667824864827953700,0.93995361328125,0.017891427502036095,0.187387153506279,1.1983553171157837
1667824864837961700,0.949961669921875,-0.013090191408991814,0.2600560188293457,1.1390541791915894
1667824864847969500,0.959969482421875,-0.014173600822687149,0.2993399500846863,1.027969479560852
1667824864857976600,0.9699765625,0.006891738157719374,0.33082088828086853,0.8760911226272583
1667824864867984600,0.979984619140625,0.0437336228787899,0.28161895275115967,0.7099278569221497
1667824864877991700,0.98999169921875,0.07454507052898407,0.14834292232990265,0.5504564642906189
1667824864887999500,0.99999951171875,0.1016402542591095,-0.021786030381917953,0.4000129699707031
1667824864898007600,1.010007568359375,0.13716840744018555,-0.17483364045619965,0.25912243127822876
1667824864908014600,1.0200146484375,0.1634233444929123,-0.29763415455818176,0.12589611113071442
1667824864918022700,1.030022705078125,0.1667211353778839,-0.40281838178634644,-0.005456060171127319
1667824864928030500,1.040030517578125,0.15448631346225739,-0.492418110370636,-0.13788950443267822
1667824864938037800,1.050037841796875,0.13560236990451813,-0.5881054997444153,-0.23085379600524902
1667824864948045600,1.060045654296875,0.15031276643276215,-0.7189961075782776,-0.23976662755012512
1667824864958053600,1.0700537109375,0.18783323466777802,-0.8892077803611755,-0.16547055542469025
1667824864968060400,1.080060302734375,0.24417555332183838,-1.019068956375122,-0.050697825849056244
1667824864978068500,1.090068359375,0.31549927592277527,-1.0327509641647339,0.0636814758181572
1667824864988076500,1.10007666015625,0.37645795941352844,-0.9715452790260315,0.167637437582016
1667824864998083600,1.11008349609375,0.4015584886074066,-0.8908309936523438,0.24703265726566315
1667824865008091400,1.12009130859375,0.39719516038894653,-0.7979683876037598,0.2878245413303375
1667824865018098700,1.1300986328125,0.3649912476539612,-0.6588843464851379,0.2925841212272644
1667824865028106500,1.1401064453125,0.3109540343284607,-0.49649566411972046,0.2872072756290436
1667824865038114600,1.150114501953125,0.22575953602790833,-0.3641650378704071,0.2857007086277008
1667824865048121300,1.160121337890625,0.14075212180614471,-0.2764623761177063,0.2854583263397217
1667824865058129700,1.170129638671875,0.050066158175468445,-0.17110426723957062,0.27163517475128174
1667824865068137700,1.1801376953125,-0.045872073620557785,-0.03710664063692093,0.23471637070178986
1667824865078144500,1.19014453125,-0.14664022624492645,0.09560799598693848,0.15588094294071198
1667824865088152600,1.200152587890625,-0.21411427855491638,0.2093239575624466,0.02225809544324875
1667824865098160400,1.210160400390625,-0.2671535313129425,0.26889246702194214,-0.17412634193897247
1667824865108167700,1.220167724609375,-0.2877350449562073,0.1501428782939911,-0.4125705063343048
1667824865118175500,1.230175537109375,-0.2540162205696106,-0.26345428824424744,-0.5800599455833435
1667824865128182500,1.2401826171875,-0.18143650889396667,-0.8020673394203186,-0.6346998810768127
1667824865138190600,1.250190673828125,-0.03968257084488869,-1.308519721031189,-0.6064746379852295
1667824865148197000,1.260197021484375,0.1694161295890808,-1.6034713983535767,-0.5152533650398254
1667824865158204200,1.2702041015625,0.3822373151779175,-1.6945600509643555,-0.3555133044719696
1667824865168212200,1.280212158203125,0.5289214849472046,-1.6810171604156494,-0.13861075043678284
1667824865178220300,1.29022021484375,0.5787129998207092,-1.5724231004714966,0.09307147562503815
1667824865188227000,1.30022705078125,0.5471566319465637,-1.356234073638916,0.295264333486557
1667824865198235400,1.3102353515625,0.4655059576034546,-1.0027774572372437,0.44834017753601074
1667824865208243200,1.3202431640625,0.37240079045295715,-0.4451523423194885,0.5731981992721558
1667824865218250200,1.330250244140625,0.3260977268218994,0.2667066156864166,0.663964033126831
1667824865228258000,1.340258056640625,0.2619275748729706,0.9222841262817383,0.6862702965736389
1667824865238266000,1.35026611328125,0.15561634302139282,1.4441808462142944,0.6119651794433594
1667824865248273200,1.360273193359375,0.03187654912471771,1.7997651100158691,0.4464057981967926
1667824865258281200,1.37028125,-0.08031097799539566,1.9544247388839722,0.21896307170391083
1667824865268288300,1.380288330078125,-0.1641811728477478,1.885110855102539,-0.050419606268405914
1667824865278296300,1.39029638671875,-0.2175847440958023,1.4627149105072021,-0.30014875531196594
1667824865288304000,1.40030419921875,-0.2599985599517822,0.7959495782852173,-0.4797162711620331
1667824865298311200,1.410311279296875,-0.2718661427497864,0.1310887485742569,-0.6342717409133911
1667824865308319000,1.420319091796875,-0.22823308408260345,-0.35870838165283203,-0.7748270034790039
1667824865318327300,1.430327392578125,-0.20070026814937592,-0.6664912104606628,-0.8719455599784851
1667824865328334000,1.440333984375,-0.21705101430416107,-0.7983747720718384,-0.9062784910202026
1667824865338342100,1.450342041015625,-0.24720892310142517,-0.7667793035507202,-0.89668208360672
1667824865348350200,1.46035009765625,-0.278916597366333,-0.6216031312942505,-0.8678105473518372
1667824865358357200,1.470357177734375,-0.3090113699436188,-0.38824519515037537,-0.8254566788673401
1667824865368365300,1.480365234375,-0.35160842537879944,-0.10359977185726166,-0.7798058986663818
1667824865378372000,1.4903720703125,-0.40601226687431335,0.1597176194190979,-0.735924482345581
1667824865388380400,1.50038037109375,-0.4649040699005127,0.3648334741592407,-0.7095605134963989
1667824865398388200,1.51038818359375,-0.5156514048576355,0.5394766330718994,-0.7048062086105347
1667824865408395300,1.520395263671875,-0.5368432402610779,0.6757847666740417,-0.7273007035255432
1667824865418403000,1.530403076171875,-0.513539731502533,0.7602301239967346,-0.7481790781021118
1667824865428411100,1.5404111328125,-0.47745177149772644,0.7979252934455872,-0.763547956943512
1667824865438418200,1.550418212890625,-0.4639194905757904,0.7562242150306702,-0.7922568917274475
1667824865448426200,1.56042626953125,-0.45460599660873413,0.6447464823722839,-0.8252383470535278
1667824865458434000,1.57043408203125,-0.4457312524318695,0.4752520024776459,-0.8496153354644775
1667824865468441300,1.58044140625,-0.42972156405448914,0.29225003719329834,-0.8497606515884399
1667824865478449200,1.59044921875,-0.40444415807724,0.1421894133090973,-0.8103256225585938
1667824865488457200,1.600457275390625,-0.37042316794395447,0.06471838057041168,-0.7385088205337524
1667824865498464000,1.610464111328125,-0.32809755206108093,0.023504097014665604,-0.6361541748046875
1667824865508472300,1.620472412109375,-0.2672015428543091,0.037541672587394714,-0.526678204536438
1667824865518479000,1.63047900390625,-0.18126079440116882,0.1098097488284111,-0.40735289454460144
1667824865528487200,1.640487060546875,-0.06740544736385345,0.2120271623134613,-0.30005794763565063
1667824865538495200,1.6504951171875,0.06144441291689873,0.323864221572876,-0.21372410655021667
1667824865548502300,1.660502197265625,0.20088306069374084,0.42255380749702454,-0.1617584526538849
1667824865558510300,1.67051025390625,0.35456475615501404,0.5041298866271973,-0.12417379021644592
1667824865568518100,1.68051806640625,0.4920499622821808,0.5546716451644897,-0.09383490681648254
1667824865578525200,1.690525146484375,0.5898122787475586,0.5789905786514282,-0.07282523065805435
1667824865588533200,1.700533203125,0.6458832621574402,0.5711760520935059,-0.06464745849370956
1667824865598541300,1.710541259765625,0.6778403520584106,0.44170913100242615,-0.06787440925836563
1667824865608548000,1.720548095703125,0.7317060828208923,0.2523503601551056,-0.0880906954407692
1667824865618556200,1.73055615234375,0.8094125986099243,0.10701446980237961,-0.13063549995422363
1667824865628563200,1.740563232421875,0.8860031962394714,0.03480302542448044,-0.20095837116241455
1667824865638571300,1.7505712890625,0.9467272162437439,0.03317423537373543,-0.3194067180156708
1667824865648579000,1.7605791015625,0.9917975664138794,0.07859475165605545,-0.4776850938796997
1667824865658586400,1.77058642578125,1.0305036306381226,0.11503372341394424,-0.6675407886505127
1667824865668594200,1.78059423828125,1.0782151222229004,0.0785154402256012,-0.8595612049102783
1667824865678602200,1.790602294921875,1.1234904527664185,-0.021010618656873703,-1.0303268432617188
1667824865688609000,1.800609130859375,1.1576707363128662,-0.14581508934497833,-1.1667308807373047
1667824865698617300,1.810617431640625,1.1729782819747925,-0.27614083886146545,-1.2699408531188965
1667824865708625200,1.820625244140625,1.144547939300537,-0.41459983587265015,-1.3414617776870728
1667824865718632200,1.830632080078125,1.0481992959976196,-0.6166306734085083,-1.3540266752243042
1667824865728640000,1.840639892578125,0.8623912334442139,-0.8746768832206726,-1.254740834236145
1667824865738648000,1.85064794921875,0.6144192814826965,-1.0359264612197876,-1.0719764232635498
1667824865748655000,1.860655029296875,0.3828578591346741,-1.0258300304412842,-0.8322771191596985
1667824865758663200,1.8706630859375,0.19594575464725494,-0.8612081408500671,-0.5845463871955872
1667824865768670200,1.880670166015625,0.01847309246659279,-0.6382468938827515,-0.332408607006073
1667824865778678300,1.89067822265625,-0.21497827768325806,-0.3913010358810425,-0.0983167439699173
1667824865788686300,1.900686279296875,-0.49348747730255127,-0.13480104506015778,0.08516117930412292
1667824865798693000,1.910693115234375,-0.7487392425537109,0.13030944764614105,0.19557370245456696
1667824865808701200,1.920701171875,-0.9388661980628967,0.33262699842453003,0.24150066077709198
1667824865818709200,1.930709228515625,-1.0534993410110474,0.43091708421707153,0.25859177112579346
1667824865828716300,1.94071630859375,-1.0890567302703857,0.45021557807922363,0.2793898582458496
1667824865838724000,1.95072412109375,-1.052851676940918,0.41034460067749023,0.3237362802028656
1667824865848732200,1.960732177734375,-0.9597679376602173,0.3234274387359619,0.38715845346450806
1667824865858739200,1.9707392578125,-0.8413372039794922,0.18031446635723114,0.4630931615829468
1667824865868747300,1.980747314453125,-0.7401832342147827,0.038451794534921646,0.5544745922088623
1667824865878755000,1.990755126953125,-0.654305100440979,-0.05220593884587288,0.6385535001754761
1667824865888762000,2.00076220703125,-0.5908036231994629,-0.10299000889062881,0.7078610062599182
1667824865898770200,2.010770263671875,-0.5499605536460876,-0.12339115887880325,0.7433212995529175
1667824865908778200,2.0207783203125,-0.5154138207435608,-0.11353251338005066,0.7459380626678467
1667824865918785000,2.030784912109375,-0.48357653617858887,-0.07142580300569534,0.7040340304374695
1667824865928793000,2.04079296875,-0.4613629877567291,-0.03281378373503685,0.6232320070266724
1667824865938800000,2.050800048828125,-0.44399651885032654,-0.043490931391716,0.5200334191322327
1667824865948808200,2.06080810546875,-0.42230457067489624,-0.12674887478351593,0.4196176826953888
1667824865958816300,2.070816162109375,-0.4085046052932739,-0.282134473323822,0.33803465962409973
1667824865968823300,2.0808232421875,-0.4143466651439667,-0.47137096524238586,0.28537747263908386
1667824865978831400,2.090831298828125,-0.4069041907787323,-0.6448588371276855,0.2633661925792694
1667824865988839200,2.100839111328125,-0.37613967061042786,-0.7619035243988037,0.272636741399765
1667824865998846200,2.11084619140625,-0.3346444368362427,-0.8063732385635376,0.3041318356990814
1667824866008854300,2.120854248046875,-0.2876056134700775,-0.7996424436569214,0.35936611890792847
1667824866018862300,2.1308623046875,-0.23615626990795135,-0.7341028451919556,0.4137103259563446
1667824866028869000,2.140869140625,-0.1858610212802887,-0.6358304619789124,0.4553351104259491
1667824866038877200,2.150877197265625,-0.11623107641935349,-0.5734301805496216,0.4813661575317383
1667824866048885000,2.160885009765625,-0.030865676701068878,-0.5755317211151123,0.5095804929733276
1667824866058892300,2.170892333984375,0.060558781027793884,-0.6455869674682617,0.5451368689537048
1667824866068900000,2.180900146484375,0.14391353726387024,-0.7447935342788696,0.5765923261642456
1667824866078907100,2.1909072265625,0.21392884850502014,-0.8363569974899292,0.6067153215408325
1667824866088915200,2.200915283203125,0.2752382755279541,-0.9101667404174805,0.6112155318260193
1667824866098923300,2.21092333984375,0.31077948212623596,-0.9182910323143005,0.5927230715751648
1667824866108930000,2.220929931640625,0.2959435284137726,-0.8230122327804565,0.5547066926956177
1667824866118938000,2.230938232421875,0.24436023831367493,-0.651496946811676,0.48889386653900146
1667824866128946400,2.240946533203125,0.17608000338077545,-0.4716591238975525,0.4026658535003662
1667824866138953200,2.250953125,0.10844478011131287,-0.3701474070549011,0.3191845417022705
1667824866148961500,2.26096142578125,0.05127852410078049,-0.34528249502182007,0.24974510073661804
1667824866158969600,2.270969482421875,0.034175172448158264,-0.42627134919166565,0.21648354828357697
1667824866168976600,2.2809765625,0.05661648511886597,-0.563882052898407,0.24593333899974823
1667824866178984700,2.290984619140625,0.11399002373218536,-0.6797375082969666,0.319561243057251
1667824866188992500,2.300992431640625,0.20398740470409393,-0.702093243598938,0.4298827052116394
1667824866198999600,2.31099951171875,0.3081740140914917,-0.6248514652252197,0.5487632751464844
1667824866209007600,2.321007568359375,0.39633050560951233,-0.49500200152397156,0.6605287790298462
1667824866219014700,2.3310146484375,0.4601092040538788,-0.34171736240386963,0.7345726490020752
1667824866229022500,2.3410224609375,0.4972054958343506,-0.1800660490989685,0.7547597289085388
1667824866239030500,2.351030517578125,0.5133349299430847,-0.03142384812235832,0.71171635389328
1667824866249037600,2.36103759765625,0.5118124485015869,0.07542255520820618,0.617239236831665
1667824866259045600,2.371045654296875,0.48876968026161194,0.12671609222888947,0.48316851258277893
1667824866269053700,2.3810537109375,0.4468655288219452,0.10702059417963028,0.3352735936641693
1667824866279060500,2.391060546875,0.39674484729766846,0.02518271841108799,0.2032788246870041
1667824866289068800,2.40106884765625,0.36722469329833984,-0.08150411397218704,0.0993768721818924
1667824866299076600,2.41107666015625,0.36224403977394104,-0.1765877604484558,0.04171011224389076
1667824866309083600,2.421083740234375,0.40053218603134155,-0.2553494870662689,0.03623586520552635
1667824866319091500,2.431091552734375,0.47605279088020325,-0.29094982147216797,0.06966572999954224
1667824866329099800,2.441099853515625,0.5611539483070374,-0.2683238983154297,0.12466270476579666
1667824866339106600,2.4511064453125,0.6397145390510559,-0.17981615662574768,0.1909080445766449
1667824866349114600,2.461114501953125,0.691828727722168,-0.03442123532295227,0.24200694262981415
1667824866359121700,2.47112158203125,0.7178528904914856,0.14671286940574646,0.26138460636138916
1667824866369129700,2.481129638671875,0.7087959051132202,0.3084213137626648,0.24679577350616455
1667824866379137500,2.491137451171875,0.6560032963752747,0.43629512190818787,0.19735178351402283
1667824866389144600,2.50114453125,0.5642746686935425,0.5285210609436035,0.10416102409362793
1667824866399152600,2.511152587890625,0.4455660879611969,0.6071946024894714,-0.03461763262748718
1667824866409160700,2.52116064453125,0.31438177824020386,0.6623859405517578,-0.20501850545406342
1667824866419167500,2.53116748046875,0.17679354548454285,0.6939648985862732,-0.3964049816131592
1667824866429175600,2.541175537109375,0.03728323429822922,0.7077531814575195,-0.593151867389679
1667824866439183600,2.55118359375,-0.07749448716640472,0.7069500088691711,-0.7782977223396301
1667824866449190700,2.561190673828125,-0.15634408593177795,0.7163540720939636,-0.9196953177452087
1667824866459198700,2.57119873046875,-0.2208130955696106,0.7269644141197205,-1.021061897277832
1667824866469206500,2.58120654296875,-0.28256937861442566,0.7273220419883728,-1.0785038471221924
1667824866479213800,2.5912138671875,-0.3510645627975464,0.6751033067703247,-1.0909287929534912
1667824866489221600,2.6012216796875,-0.40609365701675415,0.5717498064041138,-1.05849027633667
1667824866499229700,2.611229736328125,-0.4452010989189148,0.4582405388355255,-0.9993610978126526
1667824866509236500,2.621236572265625,-0.46139779686927795,0.3511376976966858,-0.9295869469642639
1667824866519244500,2.63124462890625,-0.45933598279953003,0.2589755654335022,-0.8526421189308167
1667824866529251600,2.64125146484375,-0.45718497037887573,0.21060983836650848,-0.7898219227790833
1667824866539259600,2.651259765625,-0.485971063375473,0.19718536734580994,-0.740382194519043
1667824866549267500,2.661267333984375,-0.5665604472160339,0.15695509314537048,-0.6907537579536438
1667824866559274800,2.671274658203125,-0.7010431885719299,0.07094112038612366,-0.6519296765327454
1667824866569282600,2.681282470703125,-0.8297353982925415,-0.003051826963201165,-0.6376159191131592
1667824866579290600,2.69129052734375,-0.8661251068115234,0.008851970545947552,-0.6123182773590088
1667824866589297400,2.70129736328125,-0.7846896648406982,0.10658136755228043,-0.5883541107177734
1667824866599305700,2.7113056640625,-0.5863555669784546,0.2269810140132904,-0.5743930339813232
1667824866609313800,2.721313720703125,-0.3145701289176941,0.3469872772693634,-0.6179807186126709
1667824866619320600,2.731320556640625,-0.025075994431972504,0.4049126207828522,-0.7181366086006165
1667824866629328600,2.74132861328125,0.2262256145477295,0.39954259991645813,-0.8571857213973999
1667824866639336700,2.751336669921875,0.4448698163032532,0.37515148520469666,-1.0152534246444702
1667824866649343500,2.761343505859375,0.6335434317588806,0.3462866246700287,-1.1622728109359741
1667824866659351600,2.7713515625,0.7614918351173401,0.28019627928733826,-1.277191400527954
1667824866669358600,2.781358642578125,0.8175813555717468,0.1373569220304489,-1.3180874586105347
1667824866679366700,2.79136669921875,0.8231976628303528,-0.05796171352267265,-1.2909959554672241
1667824866689374700,2.801374755859375,0.8045461177825928,-0.2600465416908264,-1.185013771057129
1667824866699381500,2.811381591796875,0.7704629302024841,-0.4042742848396301,-1.0315715074539185
1667824866709389600,2.8213896484375,0.7344499826431274,-0.516614556312561,-0.8584035038948059
1667824866719397600,2.831397705078125,0.6808112263679504,-0.6084874868392944,-0.6530410051345825
1667824866729404700,2.84140478515625,0.6303095817565918,-0.667064905166626,-0.4244133234024048
1667824866739412500,2.85141259765625,0.5799606442451477,-0.672672688961029,-0.20697395503520966
1667824866749420500,2.861420654296875,0.5327513217926025,-0.6085273027420044,-0.04361072927713394
1667824866759427600,2.871427490234375,0.4851771295070648,-0.5038597583770752,0.04697030782699585
1667824866769435600,2.881435546875,0.41213253140449524,-0.38475146889686584,0.08369198441505432
1667824866779443500,2.891443359375,0.2971060872077942,-0.2524091303348541,0.09153339266777039
1667824866789450800,2.90145068359375,0.1426137238740921,-0.12964268028736115,0.09737854450941086
1667824866799458600,2.91145849609375,-0.026357727125287056,-0.027535490691661835,0.11986228823661804
1667824866809466600,2.921466552734375,-0.1859433501958847,0.07494533807039261,0.15918640792369843
1667824866819473400,2.931473388671875,-0.33454665541648865,0.1760929822921753,0.1911347508430481
1667824866829481700,2.941481689453125,-0.4834476709365845,0.30579760670661926,0.17116232216358185
1667824866839488500,2.951488525390625,-0.6222811937332153,0.42177799344062805,0.0745372474193573
1667824866849496600,2.96149658203125,-0.7041866183280945,0.4542003571987152,-0.07135429233312607
1667824866859504600,2.971504638671875,-0.7286054491996765,0.4013957381248474,-0.2472531497478485
1667824866869511700,2.98151171875,-0.689153790473938,0.2878619432449341,-0.40886422991752625
1667824866879519700,2.991519775390625,-0.5984236001968384,0.1262134164571762,-0.5215274095535278
1667824866889527600,3.001527587890625,-0.49556416273117065,-0.050606619566679,-0.5846888422966003
1667824866899534600,3.01153466796875,-0.41809627413749695,-0.21988032758235931,-0.5685884356498718
1667824866909542700,3.021542724609375,-0.37540096044540405,-0.35486966371536255,-0.4773220419883728
1667824866919550700,3.03155078125,-0.37005624175071716,-0.4409257173538208,-0.3260001540184021
1667824866929557500,3.0415576171875,-0.388024240732193,-0.4772217571735382,-0.1407243013381958
1667824866939565600,3.051565673828125,-0.4185909330844879,-0.4621221721172333,0.05530804768204689
1667824866949573600,3.06157373046875,-0.4582242965698242,-0.39584797620773315,0.23897819221019745
1667824866959580700,3.07158056640625,-0.5031031370162964,-0.2715958058834076,0.4048379957675934
1667824866969588500,3.08158837890625,-0.5466877818107605,-0.11864961683750153,0.548358678817749
1667824866979596500,3.091596435546875,-0.5760030746459961,0.013839444145560265,0.6572648882865906
1667824866989603600,3.101603515625,-0.58674556016922,0.10976981371641159,0.7349067330360413
1667824866999611600,3.111611572265625,-0.5829108357429504,0.1171872541308403,0.7862338423728943
1667824867009618400,3.121618408203125,-0.5618388056755066,0.06996577978134155,0.8285143971443176
1667824867019626500,3.13162646484375,-0.5168247222900391,0.02289573661983013,0.8752467632293701
1667824867029634800,3.141634765625,-0.456826388835907,0.0033088778145611286,0.9342321753501892
1667824867039641600,3.1516416015625,-0.3902020752429962,0.0011748869437724352,0.9939128160476685
1667824867049649700,3.161649658203125,-0.3243680000305176,-0.008965941146016121,1.0418647527694702
1667824867059657500,3.171657470703125,-0.2501233220100403,-0.035583969205617905,1.0611199140548706
1667824867069664800,3.181664794921875,-0.1497027426958084,-0.09770853072404861,1.0458407402038574
1667824867079672600,3.191672607421875,-0.030905524268746376,-0.1756022572517395,0.988192081451416
1667824867089680600,3.2016806640625,0.08417276293039322,-0.233061283826828,0.9053733348846436
1667824867099687700,3.211687744140625,0.18138958513736725,-0.26450520753860474,0.8013893961906433
1667824867109695700,3.22169580078125,0.25619497895240784,-0.2816455364227295,0.6812247037887573
1667824867119703600,3.23170361328125,0.31740108132362366,-0.29892414808273315,0.5482610464096069
1667824867129710600,3.241710693359375,0.36077165603637695,-0.3317969739437103,0.42326071858406067
1667824867139718700,3.25171875,0.39084088802337646,-0.41131365299224854,0.3133701682090759
1667824867149730600,3.26173046875,0.4044366776943207,-0.5164747834205627,0.22958233952522278
1667824867159737600,3.271737548828125,0.4113915264606476,-0.6110468506813049,0.16104242205619812
1667824867169745700,3.28174560546875,0.4093751311302185,-0.6894651055335999,0.11025792360305786
1667824867179752700,3.291752685546875,0.3819645345211029,-0.739373505115509,0.08392059057950974
1667824867189760800,3.3017607421875,0.32618600130081177,-0.7307806015014648,0.08480646461248398
1667824867199768600,3.3117685546875,0.26563504338264465,-0.6702848076820374,0.11221705377101898
1667824867209775600,3.321775634765625,0.199995756149292,-0.5891951322555542,0.17523282766342163
1667824867219783400,3.331783447265625,0.14044268429279327,-0.5118340253829956,0.2629144787788391
1667824867229791700,3.341791748046875,0.10289742797613144,-0.4502708315849304,0.37278491258621216
1667824867239798500,3.351798583984375,0.09133903682231903,-0.39796847105026245,0.5005732178688049
1667824867249806600,3.361806640625,0.10269344598054886,-0.36527779698371887,0.6288168430328369
1667824867259814400,3.371814453125,0.1352551132440567,-0.3407208025455475,0.7624497413635254
1667824867269821700,3.38182177734375,0.17389127612113953,-0.3357183039188385,0.8798490166664124
1667824867279829500,3.39182958984375,0.20542177557945251,-0.3208405673503876,0.9742798805236816
1667824867289837600,3.401837646484375,0.23224616050720215,-0.27109912037849426,1.0380083322525024
1667824867299844600,3.4118447265625,0.25398901104927063,-0.18496423959732056,1.0673723220825195
1667824867309852700,3.421852783203125,0.26645427942276,-0.07192055135965347,1.0607019662857056
1667824867319860700,3.43186083984375,0.26543721556663513,0.10023683309555054,1.0160703659057617
1667824867329867500,3.441867431640625,0.26036137342453003,0.3052903711795807,0.9280797243118286
1667824867339875600,3.45187548828125,0.24368572235107422,0.5618395805358887,0.7941895127296448
1667824867349882600,3.461882568359375,0.2120882123708725,0.867954432964325,0.6057291030883789
1667824867359890700,3.471890625,0.16739051043987274,1.1721426248550415,0.34201037883758545
1667824867369898500,3.4818984375,0.13336855173110962,1.4034531116485596,0.00953923724591732
1667824867379905800,3.49190576171875,0.10761232674121857,1.5217525959014893,-0.35772907733917236
1667824867389913600,3.50191357421875,0.09277405589818954,1.511417031288147,-0.7289042472839355
1667824867399921700,3.511921630859375,0.0984303429722786,1.3241310119628906,-1.0828330516815186
1667824867409928400,3.521928466796875,0.10209164023399353,0.9548256397247314,-1.3570153713226318
1667824867419936800,3.531936767578125,0.08390224725008011,0.49677973985671997,-1.5117673873901367
1667824867429944600,3.541944580078125,0.06029943376779556,0.07494796812534332,-1.5543287992477417
1667824867439951600,3.55195166015625,0.04956742376089096,-0.23645280301570892,-1.5009372234344482
1667824867449959400,3.56195947265625,0.04980522394180298,-0.4300401508808136,-1.3848799467086792
1667824867459967500,3.571967529296875,0.051463041454553604,-0.5145320892333984,-1.2206172943115234
1667824867469974500,3.581974609375,0.0555545836687088,-0.4899033308029175,-1.0380524396896362
1667824867479982600,3.591982666015625,0.07025869190692902,-0.3741932213306427,-0.84548020362854
1667824867489990700,3.60199072265625,0.08514107763767242,-0.18029621243476868,-0.6622403264045715
1667824867499997700,3.611997802734375,0.0907885730266571,0.05357886478304863,-0.5036059021949768
1667824867510005800,3.622005859375,0.09330566972494125,0.29973065853118896,-0.3777679204940796
1667824867520012500,3.632012451171875,0.07585157454013824,0.5201034545898438,-0.30971217155456543
1667824867530020600,3.6420205078125,0.0447077639400959,0.6660866141319275,-0.2980715334415436
1667824867540028700,3.652028564453125,0.016995972022414207,0.7196443676948547,-0.33964666724205017
1667824867550035700,3.66203564453125,-0.021085452288389206,0.703349232673645,-0.40896928310394287
1667824867560043500,3.67204345703125,-0.06745614856481552,0.648424506187439,-0.5016874670982361
1667824867570051600,3.682051513671875,-0.12285309284925461,0.5569851398468018,-0.5906751751899719
1667824867580058600,3.69205859375,-0.20917141437530518,0.41216015815734863,-0.6413422226905823
1667824867590066700,3.702066650390625,-0.31657829880714417,0.23388870060443878,-0.6291425228118896
1667824867600074500,3.712074462890625,-0.42288634181022644,0.10076739639043808,-0.5642394423484802
1667824867610081800,3.722081787109375,-0.5032406449317932,0.023592259734869003,-0.46572133898735046
1667824867620089600,3.732089599609375,-0.541269838809967,-0.014486150816082954,-0.32968947291374207
1667824867630097700,3.74209765625,-0.543563187122345,0.010083192028105259,-0.17240068316459656
1667824867640104400,3.7521044921875,-0.4982180595397949,0.09591474384069443,-0.015033697709441185
1667824867650112500,3.762112548828125,-0.3922966718673706,0.2368548959493637,0.10989989340305328
1667824867660120800,3.772120849609375,-0.23014689981937408,0.3750109076499939,0.18963468074798584
1667824867670127600,3.782127685546875,-0.0336303673684597,0.4395497441291809,0.21212883293628693
1667824867680135700,3.7921357421875,0.16084030270576477,0.3931167423725128,0.16681088507175446
1667824867690142700,3.802142822265625,0.32681843638420105,0.27216529846191406,0.08818800002336502
1667824867700150800,3.81215087890625,0.434785395860672,0.15648263692855835,0.01086045615375042
1667824867710158600,3.82215869140625,0.4941619038581848,0.07034601271152496,-0.04946873337030411
1667824867720165400,3.832165283203125,0.5229247808456421,0.0008265890646725893,-0.09838886559009552
1667824867730173700,3.842173583984375,0.5370373129844666,-0.06572482734918594,-0.1314058005809784
1667824867740181800,3.852181640625,0.5411425828933716,-0.1199989840388298,-0.15329591929912567
1667824867750188500,3.8621884765625,0.5579583048820496,-0.18356338143348694,-0.15730679035186768
1667824867760196600,3.872196533203125,0.5915173292160034,-0.2533040940761566,-0.14994049072265625
1667824867770204700,3.88220458984375,0.6405358910560608,-0.33024606108665466,-0.1197575107216835
1667824867780211700,3.892211669921875,0.6986362338066101,-0.4069640040397644,-0.07759115099906921
1667824867790219500,3.902219482421875,0.7528072595596313,-0.47435930371284485,-0.02221500128507614
1667824867800227600,3.9122275390625,0.7928507924079895,-0.531243085861206,0.02983115427196026
1667824867810234600,3.922234619140625,0.8178877830505371,-0.5680687427520752,0.07750363647937775
1667824867820242700,3.93224267578125,0.8260287642478943,-0.6183383464813232,0.12017227709293365
1667824867830250500,3.94225048828125,0.8137514591217041,-0.6912826895713806,0.17391180992126465
1667824867840257500,3.952257568359375,0.7841325998306274,-0.7731096148490906,0.22214645147323608
1667824867850265600,3.962265625,0.7412076592445374,-0.8483791351318359,0.2772582173347473
1667824867860272600,3.972272705078125,0.6814945340156555,-0.8852325081825256,0.3152841627597809
1667824867870280400,3.982280517578125,0.61863774061203,-0.8678988218307495,0.33780089020729065
1667824867880288500,3.99228857421875,0.5404326915740967,-0.7909877896308899,0.36592841148376465
1667824867890295600,4.002295654296875,0.4438672363758087,-0.6654632687568665,0.3879814147949219
1667824867900303600,4.0123037109375,0.3204512894153595,-0.4861923158168793,0.4128021001815796
1667824867910311700,4.022311767578125,0.1683966964483261,-0.22034326195716858,0.4144308567047119
1667824867920318700,4.032318603515625,-0.004561233334243298,0.11563128232955933,0.3632989823818207
1667824867930326800,4.042326904296875,-0.18920819461345673,0.43432915210723877,0.23782342672348022
1667824867940334600,4.05233447265625,-0.35142746567726135,0.6319152116775513,0.037029605358839035
1667824867950341600,4.062341552734375,-0.47716426849365234,0.6557638049125671,-0.20220479369163513
1667824867960349400,4.072349365234375,-0.5545533299446106,0.4843883216381073,-0.4301127791404724
1667824867970357800,4.082357666015625,-0.5846137404441833,0.1723313182592392,-0.5968917012214661
1667824867980364500,4.092364501953125,-0.5949305891990662,-0.22535932064056396,-0.6675682663917542
1667824867990372600,4.10237255859375,-0.5885732769966125,-0.6297757029533386,-0.6105210185050964
1667824868000380400,4.11238037109375,-0.5712499618530273,-0.9311382174491882,-0.4426347613334656
1667824868010387700,4.1223876953125,-0.5783449411392212,-1.039536952972412,-0.20909655094146729
1667824868020395500,4.1323955078125,-0.5934479832649231,-0.9705765247344971,0.04295353591442108
1667824868030402600,4.142402587890625,-0.6144049167633057,-0.7544915080070496,0.26658907532691956
1667824868040410600,4.15241064453125,-0.6253710389137268,-0.4459635019302368,0.4522886276245117
1667824868050418700,4.162418701171875,-0.6140781044960022,-0.09307330846786499,0.5876701474189758
1667824868060425500,4.172425537109375,-0.5876424908638,0.21745818853378296,0.6735392212867737
1667824868070433500,4.18243359375,-0.5477873682975769,0.40805962681770325,0.7240508794784546
1667824868080441600,4.192441650390625,-0.5156004428863525,0.4470522999763489,0.728046178817749
1667824868090448600,4.20244873046875,-0.48718029260635376,0.3667292296886444,0.7051785588264465
1667824868100456700,4.212456787109375,-0.4636206328868866,0.24366378784179688,0.6609522104263306
1667824868110464500,4.222464599609375,-0.4422730505466461,0.13543948531150818,0.6020296216011047
1667824868120471800,4.232471923828125,-0.43169867992401123,0.045252345502376556,0.5433189272880554
1667824868130479600,4.242479736328125,-0.4483029544353485,-0.030560661107301712,0.48936429619789124
1667824868140487700,4.25248779296875,-0.48133814334869385,-0.08423028141260147,0.45234742760658264
1667824868150494500,4.262494384765625,-0.5134504437446594,-0.12189799547195435,0.42820650339126587
1667824868160499200,4.272499267578125,-0.5367413759231567,-0.13631848990917206,0.40567055344581604
1667824868170507300,4.28250732421875,-0.5446182489395142,-0.14778338372707367,0.39012446999549866
1667824868180514000,4.29251416015625,-0.5412977933883667,-0.17421045899391174,0.37259021401405334
1667824868190522000,4.302522216796875,-0.5415969491004944,-0.21688112616539001,0.3517013192176819
1667824868200530200,4.3125302734375,-0.5394640564918518,-0.25221461057662964,0.3085325360298157
1667824868210537200,4.322537109375,-0.5185825228691101,-0.2788616120815277,0.24308495223522186
1667824868220545300,4.332545166015625,-0.47990334033966064,-0.2998262941837311,0.1614614725112915
1667824868230552300,4.34255224609375,-0.4401072561740875,-0.3227522075176239,0.08950582891702652
1667824868240560400,4.352560302734375,-0.4193255603313446,-0.3383101224899292,0.025247741490602493
1667824868250568200,4.362568115234375,-0.42299190163612366,-0.35388702154159546,-0.004736681003123522
1667824868260575200,4.3725751953125,-0.4572683870792389,-0.35504841804504395,0.005721020512282848
1667824868270583000,4.3825830078125,-0.5088573098182678,-0.32094189524650574,0.035181380808353424
1667824868280591400,4.39259130859375,-0.5443000197410583,-0.24605245888233185,0.056544460356235504
1667824868290598100,4.40259814453125,-0.5343088507652283,-0.1698043793439865,0.06180763617157936
1667824868300606200,4.412606201171875,-0.49518653750419617,-0.11665860563516617,0.055515922605991364
1667824868310614000,4.422614013671875,-0.43170681595802307,-0.10200780630111694,0.05500503256917
1667824868320621300,4.432621337890625,-0.34906837344169617,-0.11719155311584473,0.07246284931898117
1667824868330629000,4.442629150390625,-0.2467678189277649,-0.16667187213897705,0.11639069765806198
1667824868340637200,4.45263720703125,-0.1452353447675705,-0.2659238874912262,0.19433662295341492
1667824868350644200,4.462644287109375,-0.05625683814287186,-0.39465469121932983,0.311007022857666
1667824868360652300,4.47265234375,0.0011100498959422112,-0.49942076206207275,0.46142101287841797
1667824868370660400,4.482660400390625,0.014054065570235252,-0.5428895950317383,0.6194092035293579
1667824868380667100,4.492667236328125,-0.015336047857999802,-0.5051504373550415,0.7717753052711487
1667824868390675200,4.50267529296875,-0.06500901281833649,-0.39910799264907837,0.8968812823295593
1667824868400682200,4.51268212890625,-0.1103818267583847,-0.26208382844924927,0.9792232513427734
1667824868410690300,4.522690185546875,-0.13521188497543335,-0.12715639173984528,1.0114487409591675
1667824868420698000,4.532697998046875,-0.1332121193408966,-0.03660412132740021,0.9985911250114441
1667824868430705400,4.542705322265625,-0.11384568363428116,0.0017424281686544418,0.9476789832115173
1667824868440713200,4.552713134765625,-0.06874558329582214,0.0013701182324439287,0.8939797878265381
1667824868450721300,4.56272119140625,-0.00665974011644721,-0.039324335753917694,0.8246942758560181
1667824868460728000,4.57272802734375,0.06550979614257812,-0.08060359954833984,0.7559239864349365
1667824868470736400,4.582736328125,0.13590678572654724,-0.1083102822303772,0.696513831615448
1667824868480744200,4.592744140625,0.1941080391407013,-0.12420643121004105,0.6340102553367615
1667824868490751200,4.602751220703125,0.23833735287189484,-0.1113007590174675,0.5654704570770264
1667824868500759000,4.612759033203125,0.2786165773868561,-0.05289337411522865,0.46911439299583435
1667824868510767000,4.62276708984375,0.3218556046485901,0.06417238712310791,0.3321709632873535
1667824868520774100,4.632774169921875,0.35912519693374634,0.2287067323923111,0.14403702318668365
1667824868530782200,4.6427822265625,0.3819705545902252,0.3999269902706146,-0.08852715790271759
1667824868540790000,4.6527900390625,0.38594451546669006,0.518887460231781,-0.3520072400569916
1667824868550797300,4.66279736328125,0.364562451839447,0.5492485165596008,-0.6188552379608154
1667824868560805000,4.67280517578125,0.3261988162994385,0.4841909408569336,-0.872838020324707
1667824868570813200,4.682813232421875,0.2787911593914032,0.35616087913513184,-1.0753625631332397
1667824868580820000,4.692820068359375,0.2426811009645462,0.2147931158542633,-1.2421369552612305
1667824868590828300,4.702828369140625,0.22240480780601501,0.09815816581249237,-1.3459198474884033
1667824868600835000,4.7128349609375,0.21343182027339935,0.03083532117307186,-1.4024072885513306
1667824868610843100,4.722843017578125,0.20143063366413116,0.025130074471235275,-1.4202990531921387
1667824868620851200,4.732851318359375,0.19195856153964996,0.048357635736465454,-1.400566577911377
1667824868630858200,4.742858154296875,0.19508998095989227,0.10848907381296158,-1.3526440858840942
1667824868640866300,4.7528662109375,0.18930692970752716,0.19843600690364838,-1.2893990278244019
1667824868650874000,4.7628740234375,0.17044483125209808,0.2677304148674011,-1.2038991451263428
1667824868660881400,4.77288134765625,0.13922564685344696,0.29088154435157776,-1.093536615371704
1667824868670889200,4.78288916015625,0.1301114410161972,0.27504962682724,-0.9631723165512085
1667824868680897300,4.792897216796875,0.12894071638584137,0.23813395202159882,-0.8207254409790039
1667824868690904000,4.802904052734375,0.12065252661705017,0.216512531042099,-0.6760534048080444
1667824868700912000,4.812912109375,0.09937173873186111,0.24758656322956085,-0.5439473390579224
1667824868710920200,4.822920166015625,0.0690307766199112,0.33839166164398193,-0.42989635467529297
1667824868720927200,4.83292724609375,0.02760450728237629,0.486437052488327,-0.32857611775398254
1667824868730935000,4.84293505859375,-0.0038084429688751698,0.6469297409057617,-0.23963479697704315
1667824868740943000,4.852943115234375,-0.022428732365369797,0.7835964560508728,-0.17690962553024292
1667824868750950100,4.8629501953125,-0.025404684245586395,0.8565805554389954,-0.13658416271209717
1667824868760958200,4.872958251953125,-0.024725310504436493,0.8769311308860779,-0.12323080748319626
1667824868770966300,4.88296630859375,-0.004789768252521753,0.8739572167396545,-0.12507237493991852
1667824868780973300,4.892973388671875,0.04856719821691513,0.8388311862945557,-0.13719294965267181
1667824868790981400,4.9029814453125,0.13657844066619873,0.7808511257171631,-0.14053133130073547
1667824868800988200,4.91298828125,0.21775610744953156,0.729828417301178,-0.1420072615146637
1667824868810996200,4.922996337890625,0.2916521728038788,0.6874727010726929,-0.16477225720882416
1667824868821004000,4.933004150390625,0.3763071298599243,0.6262463331222534,-0.22021634876728058
1667824868831011300,4.94301123046875,0.4575220048427582,0.5399496555328369,-0.30506810545921326
1667824868841019100,4.95301904296875,0.5332561731338501,0.4128386378288269,-0.4063321352005005
1667824868851027200,4.963027099609375,0.5974559187889099,0.26681262254714966,-0.4918581247329712
1667824868861034200,4.9730341796875,0.647366464138031,0.1080583855509758,-0.5571777820587158
1667824868871042300,4.983042236328125,0.673244059085846,-0.058354031294584274,-0.5838454961776733
1667824868881050000,4.993050048828125,0.6755620837211609,-0.21984998881816864,-0.5547627210617065
1667824868891057200,5.00305712890625,0.6530939340591431,-0.3479386866092682,-0.49025940895080566
1667824868901065200,5.013065185546875,0.6135108470916748,-0.451577752828598,-0.37993234395980835
1667824868911073300,5.0230732421875,0.5560505390167236,-0.5176488161087036,-0.24127505719661713
1667824868921080000,5.033080078125,0.49186328053474426,-0.5490331053733826,-0.07881024479866028
1667824868931088100,5.043088134765625,0.42508605122566223,-0.573980987071991,0.08921298384666443
1667824868941096200,5.05309619140625,0.362189382314682,-0.6028397679328918,0.2462734431028366
1667824868951103200,5.063103271484375,0.31274178624153137,-0.6007705926895142,0.3618696928024292
1667824868961111300,5.073111328125,0.2644728124141693,-0.5518096685409546,0.4209412634372711
1667824868971118300,5.083118408203125,0.1968778520822525,-0.45265910029411316,0.435269296169281
1667824868981126400,5.09312646484375,0.09483351558446884,-0.31593507528305054,0.4132859408855438
1667824868991134200,5.10313427734375,-0.04823555797338486,-0.12450054287910461,0.35274437069892883
1667824869001141200,5.113141357421875,-0.20487016439437866,0.07899265736341476,0.261243999004364
1667824869011149000,5.123149169921875,-0.34453287720680237,0.23712612688541412,0.13795702159404755
1667824869021157400,5.133157470703125,-0.44263413548469543,0.30176371335983276,-0.005289081484079361
1667824869031164200,5.1431640625,-0.49600017070770264,0.23338985443115234,-0.1489202082157135
1667824869041172200,5.153172119140625,-0.5172255039215088,0.03656309098005295,-0.2569580078125
1667824869051180000,5.163179931640625,-0.5172024369239807,-0.24969857931137085,-0.3058173954486847
1667824869061187300,5.173187255859375,-0.5064190626144409,-0.5874500274658203,-0.2559523582458496
1667824869071195100,5.183195068359375,-0.4787294864654541,-0.9018844962120056,-0.13154423236846924
1667824869081203200,5.193203125,-0.46187275648117065,-1.0938608646392822,0.04892861098051071
1667824869091210200,5.203210205078125,-0.4624995291233063,-1.1428660154342651,0.2519591152667999
1667824869101218300,5.21321826171875,-0.48062047362327576,-1.0367342233657837,0.45398813486099243
1667824869111226000,5.22322607421875,-0.48660987615585327,-0.8239378929138184,0.6218945384025574
1667824869121233200,5.233233154296875,-0.47736871242523193,-0.5376377105712891,0.7483017444610596
1667824869131241000,5.243240966796875,-0.44526976346969604,-0.20657241344451904,0.8104771375656128
1667824869141248300,5.253248291015625,-0.3891897201538086,0.048761092126369476,0.8201793432235718
1667824869151256000,5.263256103515625,-0.3265607953071594,0.16192248463630676,0.7860522866249084
1667824869161263400,5.273263427734375,-0.26338502764701843,0.15045279264450073,0.7243340611457825
1667824869171270400,5.2832705078125,-0.21548032760620117,0.030837174504995346,0.6552748680114746
1667824869181278500,5.293278564453125,-0.16489438712596893,-0.14646223187446594,0.5914381146430969
1667824869191286300,5.303286376953125,-0.12230007350444794,-0.29990726709365845,0.5289453864097595
1667824869201293600,5.31329345703125,-0.09527244418859482,-0.4077050983905792,0.4576200842857361
1667824869211301400,5.32330126953125,-0.09672611951828003,-0.47398754954338074,0.39554330706596375
1667824869221309400,5.333309326171875,-0.1179371327161789,-0.4907737374305725,0.35314229130744934
1667824869231316200,5.343316162109375,-0.13446825742721558,-0.452995240688324,0.32615137100219727
1667824869241324500,5.353324462890625,-0.13785234093666077,-0.3638802766799927,0.3006174862384796
1667824869251332600,5.36333251953125,-0.12666216492652893,-0.24635326862335205,0.2620624899864197
1667824869261339400,5.37333935546875,-0.11071408540010452,-0.14405247569084167,0.20104281604290009
1667824869271347500,5.383347412109375,-0.09885597974061966,-0.10107798129320145,0.12235077470541
1667824869281355300,5.393355224609375,-0.09382526576519012,-0.12045887112617493,0.03776398301124573
1667824869291362600,5.403362548828125,-0.11233045160770416,-0.14727167785167694,-0.06693753600120544
1667824869301370400,5.413370361328125,-0.14655953645706177,-0.13659746944904327,-0.18001961708068848
1667824869311378400,5.42337841796875,-0.19215673208236694,-0.07159170508384705,-0.31376054883003235
1667824869321385500,5.433385498046875,-0.2560150623321533,0.005142485722899437,-0.4618091285228729
1667824869331393500,5.4433935546875,-0.3135998547077179,0.04886982962489128,-0.5880162119865417
1667824869341400300,5.453400390625,-0.36393120884895325,0.04384976997971535,-0.6617647409439087
1667824869351408400,5.463408447265625,-0.4052779972553253,-0.025232329964637756,-0.646898090839386
1667824869361416400,5.47341650390625,-0.4320827126502991,-0.12854620814323425,-0.5480242371559143
1667824869371423500,5.483423583984375,-0.42932963371276855,-0.24877537786960602,-0.38207894563674927
1667824869381431300,5.493431396484375,-0.40972158312797546,-0.3611493408679962,-0.1562596708536148
1667824869391439400,5.503439453125,-0.359438419342041,-0.4497595727443695,0.11168792843818665
1667824869401446400,5.5134462890625,-0.2771347761154175,-0.48965001106262207,0.4016489088535309
1667824869411454500,5.523454345703125,-0.17904111742973328,-0.45676299929618835,0.6883347630500793
1667824869421462500,5.533462646484375,-0.0810631513595581,-0.3864576816558838,0.9428908824920654
1667824869431469600,5.543469482421875,0.01418963260948658,-0.29298824071884155,1.1425449848175049
1667824869441477600,5.5534775390625,0.08952965587377548,-0.19154711067676544,1.2774332761764526
1667824869451485400,5.5634853515625,0.14964263141155243,-0.07767268270254135,1.3372939825057983
1667824869461492500,5.573492431640625,0.1908465325832367,0.05928090214729309,1.3289737701416016
1667824869471500300,5.583500244140625,0.21337072551250458,0.22355760633945465,1.2480027675628662
1667824869481507600,5.593507568359375,0.2234257459640503,0.38076719641685486,1.1051723957061768
1667824869491515400,5.603515380859375,0.22784532606601715,0.49729079008102417,0.9240137934684753
1667824869501523500,5.6135234375,0.22143402695655823,0.5603163242340088,0.7310651540756226
1667824869511530500,5.623530517578125,0.2197667509317398,0.5816822648048401,0.5397520065307617
1667824869521538600,5.63353857421875,0.22793041169643402,0.5585761666297913,0.35886749625205994
1667824869531546400,5.64354638671875,0.24606089293956757,0.49761107563972473,0.19964997470378876
1667824869541553400,5.653553466796875,0.27661266922950745,0.40723031759262085,0.06806984543800354
1667824869551561500,5.6635615234375,0.31251370906829834,0.31683412194252014,-0.04369649663567543
1667824869561569500,5.673569580078125,0.3468596935272217,0.2698173522949219,-0.14033329486846924
1667824869571576300,5.683576416015625,0.3818506598472595,0.2639148533344269,-0.23679107427597046
1667824869581584400,5.69358447265625,0.39747780561447144,0.2958245873451233,-0.3279404044151306
1667824869591592400,5.703592529296875,0.39598727226257324,0.34211891889572144,-0.4056476950645447
1667824869601599500,5.713599609375,0.36760249733924866,0.392437219619751,-0.4700365364551544
1667824869611607600,5.723607666015625,0.3299015462398529,0.4341597259044647,-0.530843198299408
1667824869621615400,5.733615478515625,0.2859567105770111,0.45855215191841125,-0.5920450091362
1667824869631622700,5.74362255859375,0.2332950085401535,0.468835711479187,-0.6585513949394226
1667824869641630500,5.75363037109375,0.18621137738227844,0.49833711981773376,-0.7430167198181152
1667824869651638500,5.763638427734375,0.14187391102313995,0.5476248264312744,-0.8550825715065002
1667824869661645300,5.773645263671875,0.12290634214878082,0.5780226588249207,-0.9703249931335449
1667824869671653600,5.783653564453125,0.11751867085695267,0.5811067223548889,-1.076625943183899
1667824869681661400,5.793661376953125,0.11218941956758499,0.5681666731834412,-1.1413204669952393
1667824869691668500,5.80366845703125,0.09719144552946091,0.5284386873245239,-1.1737639904022217
1667824869701676300,5.81367626953125,0.07627923786640167,0.4816991090774536,-1.1622812747955322
1667824869711683600,5.82368359375,0.04831811040639877,0.41638311743736267,-1.1219667196273804
1667824869721691400,5.83369140625,0.025231698527932167,0.36028867959976196,-1.0610003471374512
1667824869731699500,5.843699462890625,0.005087263882160187,0.3163938820362091,-0.9982853531837463
1667824869741706500,5.85370654296875,-0.017417244613170624,0.30474653840065,-0.934579610824585
1667824869751714600,5.863714599609375,-0.051362112164497375,0.32589414715766907,-0.867883563041687
1667824869761722400,5.873722412109375,-0.09276760369539261,0.3782865107059479,-0.8008643388748169
1667824869771729400,5.8837294921875,-0.1387612223625183,0.4652116298675537,-0.7428479790687561
1667824869781737200,5.8937373046875,-0.18836712837219238,0.5558863878250122,-0.6961116194725037
1667824869791745500,5.90374560546875,-0.22739872336387634,0.5824579000473022,-0.6570793986320496
1667824869801752300,5.91375244140625,-0.24573910236358643,0.513651430606842,-0.6187887191772461
1667824869811760400,5.923760498046875,-0.2334623783826828,0.35483518242836,-0.5827137231826782
1667824869821768400,5.9337685546875,-0.17823266983032227,0.15095582604408264,-0.5366735458374023
1667824869831775500,5.943775390625,-0.09791193902492523,-0.044228535145521164,-0.48436036705970764
1667824869841783600,5.953783447265625,-0.006212112493813038,-0.22388218343257904,-0.4076994061470032
1667824869851791400,5.963791259765625,0.09999821335077286,-0.34526506066322327,-0.31175315380096436
1667824869861798400,5.97379833984375,0.2056436687707901,-0.3727867007255554,-0.20770984888076782
1667824869871806500,5.983806396484375,0.30142533779144287,-0.33634960651397705,-0.1340063363313675
1667824869881813500,5.9938134765625,0.38209861516952515,-0.2866464853286743,-0.08218441903591156
1667824869891821300,6.0038212890625,0.44924309849739075,-0.29242950677871704,-0.03642605245113373
1667824869901829400,6.013829345703125,0.47252097725868225,-0.36105969548225403,0.018819892778992653
1667824869911836400,6.02383642578125,0.4451388418674469,-0.4882424473762512,0.1017284244298935
1667824869921844500,6.033844482421875,0.37180203199386597,-0.6564123034477234,0.21036222577095032
1667824869931852300,6.043852294921875,0.2822344899177551,-0.8493761420249939,0.35179468989372253
1667824869941859600,6.053859619140625,0.1916486769914627,-1.0140389204025269,0.505942702293396
1667824869951867400,6.063867431640625,0.1253524124622345,-1.1072618961334229,0.6596074104309082
1667824869961875500,6.07387548828125,0.07229025661945343,-1.1175122261047363,0.7815711498260498
1667824869971882200,6.08388232421875,0.024877529591321945,-1.0213758945465088,0.8674782514572144
1667824869981890600,6.093890625,-0.02798488549888134,-0.8200363516807556,0.9199230670928955
1667824869991898600,6.103898681640625,-0.10474976152181625,-0.5450398325920105,0.9252324104309082
1667824870001905400,6.113905517578125,-0.23807160556316376,-0.23103076219558716,0.8707625269889832
1667824870011913500,6.12391357421875,-0.41671693325042725,0.04048953950405121,0.7696163058280945
1667824870021921300,6.13392138671875,-0.5908842086791992,0.2592490315437317,0.6204041838645935
1667824870031928600,6.143928466796875,-0.7089274525642395,0.41458451747894287,0.4303584694862366
1667824870041936400,6.153936279296875,-0.7630841732025146,0.4659627377986908,0.21962331235408783
1667824870051943400,6.163943359375,-0.7487087249755859,0.37543582916259766,0.007195836398750544
1667824870061951500,6.173951416015625,-0.6824392080307007,0.13636812567710876,-0.17872023582458496
1667824870071959600,6.18395947265625,-0.594738781452179,-0.22337469458580017,-0.2818984091281891
1667824870081966300,6.19396630859375,-0.5226116180419922,-0.6328865885734558,-0.2702406942844391
1667824870091974400,6.203974365234375,-0.46459245681762695,-0.9466763734817505,-0.14235934615135193
1667824870101982500,6.213982421875,-0.4207853376865387,-1.1109228134155273,0.0698637068271637
1667824870111989500,6.223989501953125,-0.4058990478515625,-1.0997602939605713,0.32651472091674805
1667824870121997300,6.233997314453125,-0.40434324741363525,-0.9315258264541626,0.5734161138534546
1667824870132005400,6.24400537109375,-0.40341833233833313,-0.6785426139831543,0.7738354802131653
1667824870142012400,6.254012451171875,-0.4013577103614807,-0.3933826982975006,0.9185056686401367
1667824870152020500,6.2640205078125,-0.3993103504180908,-0.11426903307437897,0.9875730872154236
1667824870162032400,6.274032470703125,-0.38210129737854004,0.09179119020700455,0.9876439571380615
1667824870172039200,6.2840390625,-0.3570553660392761,0.21439950168132782,0.9196357131004333
1667824870182047500,6.294047607421875,-0.326728880405426,0.2573070228099823,0.8115292191505432
1667824870192055300,6.30405517578125,-0.28170081973075867,0.22627264261245728,0.6775029301643372
1667824870202062300,6.314062255859375,-0.22613582015037537,0.12846139073371887,0.5189558863639832
1667824870212070100,6.324070068359375,-0.18163233995437622,-0.01984246075153351,0.36223104596138
1667824870222077400,6.334077392578125,-0.15602470934391022,-0.18378426134586334,0.2226172387599945
1667824870232085200,6.344085205078125,-0.15646062791347504,-0.3259616196155548,0.10859359055757523
1667824870242093300,6.35409326171875,-0.18788033723831177,-0.4256541132926941,0.01926344260573387
1667824870252100400,6.364100341796875,-0.2256474792957306,-0.4648027718067169,-0.0432259701192379
1667824870262108400,6.3741083984375,-0.2638992369174957,-0.44769755005836487,-0.08007106930017471
1667824870272116500,6.384116455078125,-0.29729411005973816,-0.3832644522190094,-0.10911063104867935
1667824870282123300,6.394123291015625,-0.3193432092666626,-0.2871110439300537,-0.13582028448581696
1667824870292131300,6.40413134765625,-0.3644436299800873,-0.1978643536567688,-0.15440602600574493
1667824870302139400,6.414139404296875,-0.42158761620521545,-0.15214799344539642,-0.15860210359096527
1667824870312146400,6.424146484375,-0.4842047393321991,-0.14003923535346985,-0.17306490242481232
1667824870322154200,6.434154296875,-0.5360162258148193,-0.14318227767944336,-0.20582525432109833
1667824870332162300,6.444162353515625,-0.5999571084976196,-0.12781552970409393,-0.26051080226898193
1667824870342169300,6.45416943359375,-0.6832981109619141,-0.07687059044837952,-0.3264637291431427
1667824870352177400,6.464177490234375,-0.7726551294326782,0.007842804305255413,-0.39136141538619995
1667824870362185200,6.474185302734375,-0.8301679491996765,0.08175138384103775,-0.43309980630874634
1667824870372192300,6.484192138671875,-0.8565208315849304,0.1274867206811905,-0.4275546073913574
1667824870382200300,6.494200439453125,-0.8545352220535278,0.1398770660161972,-0.35597366094589233
1667824870392207400,6.504207275390625,-0.837376058101654,0.1225530356168747,-0.22434161603450775
1667824870402215200,6.514215087890625,-0.8050929307937622,0.07226695865392685,-0.044350817799568176
1667824870412223200,6.52422314453125,-0.7375335693359375,-0.02717645838856697,0.16399429738521576
1667824870422230300,6.534230224609375,-0.6310718655586243,-0.15617811679840088,0.3966240882873535
1667824870432238300,6.54423828125,-0.5086791515350342,-0.2544950544834137,0.6482514142990112
1667824870442246100,6.55424609375,-0.39368757605552673,-0.27709224820137024,0.8948910236358643
1667824870452253400,6.56425341796875,-0.29982709884643555,-0.2408461719751358,1.1318366527557373
1667824870462261200,6.57426123046875,-0.23309439420700073,-0.17677690088748932,1.3526272773742676
1667824870472269300,6.584269287109375,-0.18197649717330933,-0.10708621144294739,1.5318927764892578
1667824870482276000,6.594276123046875,-0.1323990821838379,-0.016543526202440262,1.6573766469955444
1667824870492284400,6.604284423828125,-0.0852474793791771,0.10800871253013611,1.6912450790405273
1667824870502292500,6.61429248046875,-0.039808087050914764,0.26199933886528015,1.6428320407867432
1667824870512299300,6.62429931640625,0.005709211342036724,0.40044718980789185,1.5188506841659546
1667824870522307300,6.634307373046875,0.05612950772047043,0.4952528178691864,1.3318259716033936
1667824870532315100,6.644315185546875,0.1221068948507309,0.5090187788009644,1.1030082702636719
1667824870542322400,6.654322509765625,0.19933004677295685,0.45258423686027527,0.8573836088180542
1667824870552330200,6.664330322265625,0.27453532814979553,0.35619252920150757,0.6028900742530823
1667824870562337300,6.674337158203125,0.33758431673049927,0.22968387603759766,0.35167863965034485
1667824870572345300,6.684345458984375,0.3930000960826874,0.0932665765285492,0.11480079591274261
1667824870582353400,6.694353515625,0.4281056225299835,-0.004921247251331806,-0.0924551859498024
1667824870592360200,6.704360107421875,0.4601939618587494,-0.023553883656859398,-0.2715274393558502
1667824870602368300,6.7143681640625,0.5023472905158997,0.00910925306379795,-0.42543524503707886
1667824870612376300,6.724376220703125,0.5361422896385193,0.06096087023615837,-0.5534486770629883
1667824870622383400,6.73438330078125,0.5615278482437134,0.10650225728750229,-0.6532804369926453
1667824870632391200,6.74439111328125,0.5817471742630005,0.12673737108707428,-0.7285805344581604
1667824870642399200,6.754399169921875,0.6014636158943176,0.11074934899806976,-0.7840054631233215
1667824870652406300,6.76440625,0.6186196208000183,0.06143162399530411,-0.8178648948669434
1667824870662414300,6.774414306640625,0.6284991502761841,0.007992633618414402,-0.8374626040458679
1667824870672422400,6.78442236328125,0.6305415630340576,-0.02217864990234375,-0.8418100476264954
1667824870682429400,6.794429443359375,0.6291940212249756,-0.007635660469532013,-0.8473960161209106
1667824870692437500,6.8044375,0.6364786028862,0.062030985951423645,-0.8639125227928162
1667824870702445300,6.8144453125,0.6306614875793457,0.17530933022499084,-0.9031355381011963
1667824870712452400,6.824452392578125,0.600383996963501,0.3123975098133087,-0.9573360681533813
1667824870722460200,6.834460205078125,0.542834460735321,0.4577823877334595,-1.0233839750289917
1667824870732468500,6.844468505859375,0.4635384678840637,0.5544202923774719,-1.0929546356201172
1667824870742475300,6.854475341796875,0.375908225774765,0.5778678059577942,-1.154309630393982
1667824870752483300,6.8644833984375,0.3015635907649994,0.538827657699585,-1.2042866945266724
1667824870762490400,6.874490478515625,0.2595847249031067,0.4713951051235199,-1.2437824010849
1667824870772498400,6.88449853515625,0.24097920954227448,0.400919109582901,-1.2553181648254395
1667824870782506200,6.89450634765625,0.22648309171199799,0.33163750171661377,-1.2313462495803833
1667824870792513300,6.90451318359375,0.20787668228149414,0.25834646821022034,-1.1766082048416138
1667824870802521300,6.914521240234375,0.18822121620178223,0.20573225617408752,-1.1059255599975586
1667824870812529400,6.924529296875,0.16968880593776703,0.20423555374145508,-1.0203014612197876
1667824870822536200,6.9345361328125,0.1373942494392395,0.271786630153656,-0.9142833948135376
1667824870832544300,6.944544189453125,0.08664237707853317,0.4000605642795563,-0.7724112868309021
1667824870842552300,6.95455224609375,0.013752991333603859,0.5919607877731323,-0.5948359966278076
1667824870852559400,6.964559326171875,-0.06778652966022491,0.7898910641670227,-0.4031432569026947
1667824870862567400,6.9745673828125,-0.1276938021183014,0.9825028777122498,-0.23224209249019623
1667824870872575200,6.9845751953125,-0.16195325553417206,1.1593064069747925,-0.09019763767719269
1667824870882582500,6.99458251953125,-0.13332055509090424,1.2551027536392212,0.03435707092285156
1667824870892590300,7.00459033203125,-0.04171116650104523,1.2246705293655396,0.15413543581962585
1667824870902598400,7.014598388671875,0.0928780734539032,1.0991770029067993,0.27351245284080505
1667824870912605200,7.024605224609375,0.23607519268989563,0.9277466535568237,0.37649449706077576
1667824870922613500,7.034613525390625,0.37008944153785706,0.7728404402732849,0.437103807926178
1667824870932620300,7.044620361328125,0.47571998834609985,0.6527628898620605,0.44724398851394653
1667824870942628400,7.05462841796875,0.5327709913253784,0.5472084879875183,0.42364785075187683
1667824870952636200,7.06463623046875,0.547653317451477,0.40143340826034546,0.38063177466392517
1667824870962643500,7.0746435546875,0.5379087924957275,0.19354809820652008,0.3462439775466919
1667824870972651300,7.0846513671875,0.5180380940437317,-0.05938313528895378,0.3415936827659607
1667824870982659300,7.094659423828125,0.5077700018882751,-0.319580614566803,0.37047165632247925
1667824870992666400,7.104666259765625,0.5026106834411621,-0.5397253632545471,0.4305938184261322
1667824871002674400,7.11467431640625,0.48235413432121277,-0.6392165422439575,0.5063229203224182
1667824871012682200,7.12468212890625,0.43257880210876465,-0.566638708114624,0.5823734998703003
1667824871022689300,7.134689208984375,0.34190109372138977,-0.361703097820282,0.6525267362594604
1667824871032697000,7.144697021484375,0.21176467835903168,-0.0615241713821888,0.6931531429290771
1667824871042705400,7.154705322265625,0.05687844008207321,0.3118259906768799,0.6959473490715027
1667824871052712200,7.164712158203125,-0.10013629496097565,0.6930118799209595,0.6494243144989014
1667824871062720300,7.17472021484375,-0.23988114297389984,0.9963104724884033,0.5327035188674927
1667824871072727300,7.184727294921875,-0.33575424551963806,1.1563273668289185,0.37008318305015564
1667824871082735400,7.1947353515625,-0.38330313563346863,1.1217819452285767,0.19191743433475494
1667824871092743400,7.204743408203125,-0.3839266300201416,0.8621119856834412,0.02613620087504387
1667824871102750200,7.214750244140625,-0.3497265875339508,0.4174770414829254,-0.10265986621379852
1667824871112758300,7.22475830078125,-0.3109726309776306,-0.1275741159915924,-0.16102778911590576
1667824871122766300,7.234766357421875,-0.2897823750972748,-0.6018815040588379,-0.13539433479309082
1667824871132773400,7.2447734375,-0.2883107364177704,-0.8961756229400635,-0.03825443238019943
1667824871142781200,7.25478125,-0.3079614043235779,-1.019561767578125,0.09912340342998505
1667824871152789200,7.264789306640625,-0.354108601808548,-0.9557732939720154,0.22679518163204193
1667824871162793200,7.274793212890625,-0.43027928471565247,-0.7641932368278503,0.32343465089797974
1667824871172801300,7.28480126953125,-0.5120057463645935,-0.5197901725769043,0.395027220249176
1667824871182809300,7.294809326171875,-0.5877603888511658,-0.2665936052799225,0.43747374415397644
1667824871192816400,7.30481640625,-0.6536043286323547,-0.06677336245775223,0.4660901725292206
1667824871202824200,7.31482421875,-0.7067298293113708,0.04137681424617767,0.48272669315338135
1667824871212832300,7.324832275390625,-0.7437342405319214,0.03724665939807892,0.4813598394393921
1667824871222839000,7.334839111328125,-0.7587987184524536,-0.06101599708199501,0.4517129957675934
1667824871232847000,7.34484716796875,-0.754812479019165,-0.20214346051216125,0.4039575457572937
1667824871242855400,7.35485546875,-0.7447159290313721,-0.3148486912250519,0.343045711517334
1667824871252862200,7.3648623046875,-0.7383073568344116,-0.39045119285583496,0.27165114879608154
1667824871262870300,7.374870361328125,-0.7482063174247742,-0.43812230229377747,0.1990206241607666
1667824871272877300,7.384877197265625,-0.7655773162841797,-0.48421788215637207,0.13139736652374268
1667824871282885400,7.394885498046875,-0.7807978391647339,-0.5415355563163757,0.08056110143661499
1667824871292893200,7.40489306640625,-0.7818649411201477,-0.6162417531013489,0.04945697262883186
1667824871302900200,7.414900146484375,-0.771308183670044,-0.712702214717865,0.04805854335427284
1667824871312908300,7.424908203125,-0.7818354368209839,-0.8030787110328674,0.08114603906869888
1667824871322916400,7.434916259765625,-0.819780707359314,-0.8787471055984497,0.15897957980632782
1667824871332923100,7.444923095703125,-0.8558727502822876,-0.9250571727752686,0.26143741607666016
1667824871342931200,7.45493115234375,-0.8680256009101868,-0.915471613407135,0.36910074949264526
1667824871352939000,7.46493896484375,-0.8613842129707336,-0.846445620059967,0.46908342838287354
1667824871362946300,7.4749462890625,-0.8519976735115051,-0.7287765145301819,0.551616907119751
1667824871372954000,7.4849541015625,-0.8234872221946716,-0.5842309594154358,0.6096965074539185
1667824871382962200,7.494962158203125,-0.7552371025085449,-0.45568785071372986,0.6493390202522278
1667824871392969200,7.50496923828125,-0.6343898773193359,-0.38984835147857666,0.679947555065155
1667824871402977300,7.514977294921875,-0.49270379543304443,-0.39362844824790955,0.7148400545120239
1667824871412985300,7.5249853515625,-0.3622989356517792,-0.4370335340499878,0.7547554969787598
1667824871422992100,7.5349921875,-0.2380552738904953,-0.518683910369873,0.7871733903884888
1667824871433000400,7.54500048828125,-0.12930119037628174,-0.6220338344573975,0.8163331747055054
1667824871443007200,7.55500732421875,-0.04477032274007797,-0.724503755569458,0.8515390753746033
1667824871453015300,7.565015380859375,-0.0015377495437860489,-0.7844752669334412,0.897243320941925
1667824871463023000,7.575023193359375,0.004994451999664307,-0.7971503138542175,0.9701052904129028
1667824871473030400,7.585030517578125,-0.0016266820020973682,-0.7604715824127197,1.0736021995544434
1667824871483038200,7.5950380859375,0.01059376634657383,-0.6668071746826172,1.1744883060455322
1667824871493046300,7.60504638671875,0.05290967971086502,-0.5094806551933289,1.229353666305542
1667824871503053300,7.61505322265625,0.13322634994983673,-0.2966964840888977,1.2118580341339111
1667824871513061400,7.625061279296875,0.22085200250148773,-0.08186109364032745,1.1241673231124878
1667824871523069200,7.635069091796875,0.307856947183609,0.11069237440824509,0.9785655736923218
1667824871533076200,7.645076171875,0.40448692440986633,0.2478562295436859,0.7769238948822021
1667824871543084000,7.655083984375,0.5076577663421631,0.30373677611351013,0.543354332447052
1667824871553092400,7.66509228515625,0.6037856340408325,0.28599998354911804,0.29674768447875977
1667824871563099100,7.67509912109375,0.669589638710022,0.21195372939109802,0.060733288526535034
1667824871573107200,7.685107177734375,0.7178459763526917,0.09567578136920929,-0.14966176450252533
1667824871583115300,7.695115234375,0.7436844706535339,-0.03779519349336624,-0.3316555619239807
1667824871593122300,7.705122314453125,0.751680850982666,-0.13906322419643402,-0.47605016827583313
1667824871603130400,7.71513037109375,0.7567762732505798,-0.16177891194820404,-0.583402156829834
1667824871613137200,7.72513720703125,0.7619568705558777,-0.10788077861070633,-0.6608166694641113
1667824871623145200,7.735145263671875,0.7708390355110168,-0.0028449101373553276,-0.7111824154853821
1667824871633153300,7.7451533203125,0.7762290239334106,0.12928058207035065,-0.7511827349662781
1667824871643160300,7.755160400390625,0.763655960559845,0.25146719813346863,-0.7784891724586487
1667824871653168000,7.765168212890625,0.7378472089767456,0.34986504912376404,-0.8122340440750122
1667824871663176200,7.77517626953125,0.7038807272911072,0.4189927279949188,-0.8570353388786316
1667824871673183200,7.785183349609375,0.6541882753372192,0.47393640875816345,-0.9251288771629333
1667824871683191300,7.79519140625,0.5960367918014526,0.5212171077728271,-1.0233547687530518
1667824871693199000,7.80519921875,0.5428045988082886,0.5643277168273926,-1.1364027261734009
1667824871703206400,7.815206298828125,0.5026755332946777,0.6352863311767578,-1.2628333568572998
1667824871713214200,7.825214111328125,0.47456181049346924,0.7444552779197693,-1.4081439971923828
1667824871723222300,7.83522216796875,0.4620710611343384,0.8691492676734924,-1.559945821762085
1667824871733229000,7.84522900390625,0.4534393846988678,0.9833230972290039,-1.7102056741714478
1667824871743237400,7.8552373046875,0.44980791211128235,1.0462485551834106,-1.8337403535842896
1667824871753245200,7.8652451171875,0.44523942470550537,1.0658453702926636,-1.9227782487869263
1667824871763252200,7.875252197265625,0.44168171286582947,1.045629620552063,-1.9520930051803589
1667824871773260000,7.885260009765625,0.43554213643074036,0.992646336555481,-1.9270341396331787
1667824871783267300,7.895267333984375,0.4253140091896057,0.893436074256897,-1.851409912109375
1667824871793275100,7.905275146484375,0.4050167500972748,0.788118839263916,-1.7468514442443848
1667824871803283200,7.915283203125,0.38582122325897217,0.7326353788375854,-1.6469967365264893
1667824871813290200,7.925290283203125,0.3757975697517395,0.721102237701416,-1.5351366996765137
1667824871823298300,7.93529833984375,0.3455997407436371,0.7403686046600342,-1.430220603942871
1667824871833306400,7.945306396484375,0.2886544466018677,0.7939141392707825,-1.2940422296524048
1667824871843313200,7.955313232421875,0.22061094641685486,0.9054164290428162,-1.14670729637146
1667824871853321200,7.9653212890625,0.15765416622161865,1.0584766864776611,-0.9827514290809631
1667824871863329300,7.975329345703125,0.11677784472703934,1.2277370691299438,-0.8317741751670837
1667824871873336300,7.98533642578125,0.09423628449440002,1.3590766191482544,-0.7145176529884338
1667824871883344100,7.99534423828125,0.08313276618719101,1.4225709438323975,-0.6641935110092163
1667824871893352200,8.005352294921876,0.08961895853281021,1.3805352449417114,-0.6934521198272705
1667824871903359200,8.015359130859375,0.1147615984082222,1.2064882516860962,-0.7759630084037781
1667824871913367300,8.0253671875,0.16301150619983673,0.8797585964202881,-0.884334146976471
1667824871923374000,8.0353740234375,0.21543583273887634,0.460930198431015,-0.9642260670661926
1667824871933382400,8.04538232421875,0.2536669969558716,0.0022633643820881844,-0.9652957320213318
1667824871943390200,8.05539013671875,0.28427496552467346,-0.4235907196998596,-0.8618407249450684
1667824871953397200,8.065397216796875,0.29947057366371155,-0.7354928851127625,-0.6646938920021057
1667824871963405000,8.075405029296874,0.30345308780670166,-0.9470168352127075,-0.377921462059021
1667824871973413000,8.0854130859375,0.27632981538772583,-1.0779685974121094,-0.02865065634250641
1667824871983420200,8.095420166015625,0.2222876250743866,-1.1210130453109741,0.3413550853729248
1667824871993428200,8.10542822265625,0.13758552074432373,-1.0723421573638916,0.7088246941566467
1667824872003436300,8.115436279296874,0.05200803279876709,-0.9253551363945007,1.0077840089797974
1667824872013443300,8.125443359375,-0.035316698253154755,-0.6854276061058044,1.2103196382522583
1667824872023451400,8.135451416015625,-0.13964763283729553,-0.40740343928337097,1.3097140789031982
1667824872033459200,8.145459228515625,-0.2930862307548523,-0.12971143424510956,1.3179726600646973
1667824872043466200,8.15546630859375,-0.5063628554344177,0.1652805209159851,1.2427027225494385
1667824872053474300,8.165474365234376,-0.7634342312812805,0.4665899872779846,1.0691239833831787
1667824872063482400,8.175482421875,-1.0058902502059937,0.6888070702552795,0.8231914043426514
1667824872073489200,8.1854892578125,-1.1801470518112183,0.7561933398246765,0.5397915840148926
1667824872083497200,8.195497314453124,-1.2400140762329102,0.6098968386650085,0.2489781379699707
1667824872093504300,8.205504150390626,-1.2010635137557983,0.22889819741249084,0.015177246183156967
1667824872103512300,8.21551220703125,-1.1065442562103271,-0.3161270320415497,-0.10287003219127655
1667824872113520000,8.22552001953125,-0.99033123254776,-0.8432162404060364,-0.08158207684755325
1667824872123527200,8.235527099609374,-0.8516737818717957,-1.235451579093933,0.06372318416833878
1667824872133535200,8.24553515625,-0.7313902378082275,-1.453849196434021,0.2917134761810303
1667824872143543300,8.255543212890625,-0.6633608341217041,-1.4971873760223389,0.5666624903678894
1667824872153550000,8.265550048828125,-0.6376004219055176,-1.369584560394287,0.8346034288406372
1667824872163557400,8.275557373046874,-0.6112258434295654,-1.1192713975906372,1.0746897459030151
1667824872173565200,8.285565185546876,-0.5660527944564819,-0.7872693538665771,1.2556145191192627
1667824872183572200,8.295572265625,-0.4959733188152313,-0.43656161427497864,1.375285267829895
1667824872193580000,8.305580078125,-0.40433233976364136,-0.15145288407802582,1.414056658744812
1667824872203588400,8.31558837890625,-0.31877776980400085,0.03510501980781555,1.3772642612457275
1667824872213595100,8.32559521484375,-0.23595070838928223,0.10591999441385269,1.2695850133895874
1667824872223603200,8.335603271484375,-0.14441093802452087,0.08090225607156754,1.1238714456558228
1667824872233611000,8.345611083984375,-0.05093797296285629,-0.008782260119915009,0.9579567909240723
1667824872243618300,8.355618408203124,0.01918971538543701,-0.15096257627010345,0.7931795120239258
1667824872253626000,8.365626220703126,0.04172004014253616,-0.3135324716567993,0.6364313960075378
1667824872263633200,8.375633056640625,0.018552672117948532,-0.4935706853866577,0.4870712161064148
1667824872273641200,8.38564111328125,-0.03830407187342644,-0.6654396653175354,0.3435104787349701
1667824872283649300,8.395649169921874,-0.0826353132724762,-0.79511958360672,0.2289024293422699
1667824872293656000,8.405656005859376,-0.1244521364569664,-0.8617770671844482,0.1514512002468109
1667824872303664000,8.4156640625,-0.16511860489845276,-0.8713537454605103,0.11225106567144394
1667824872313672200,8.425672119140625,-0.21156062185764313,-0.8395982384681702,0.1137327328324318
1667824872323679200,8.43567919921875,-0.26713335514068604,-0.77162104845047,0.12540748715400696
1667824872333687300,8.445687255859376,-0.32491153478622437,-0.69222491979599,0.15710273385047913
1667824872343695000,8.455695068359375,-0.374291330575943,-0.6288720369338989,0.17769749462604523
1667824872353702400,8.465702392578125,-0.3998773992061615,-0.5762872099876404,0.19509615004062653
1667824872363710200,8.475710205078125,-0.41864123940467834,-0.5222135782241821,0.19854068756103516
1667824872373718300,8.48571826171875,-0.442538857460022,-0.4536907970905304,0.1916009485721588
1667824872383725000,8.49572509765625,-0.48853856325149536,-0.3794908821582794,0.1788230985403061
1667824872393733400,8.5057333984375,-0.5592398047447205,-0.30317404866218567,0.17549899220466614
1667824872403741200,8.5157412109375,-0.6320980191230774,-0.21762265264987946,0.1674426645040512
1667824872413748200,8.525748291015624,-0.7001835703849792,-0.139381542801857,0.15900291502475739
1667824872423756000,8.535756103515626,-0.7605100274085999,-0.06688495725393295,0.1596367508172989
1667824872433764000,8.54576416015625,-0.8012656569480896,0.012952684424817562,0.16852644085884094
1667824872443771100,8.555771240234375,-0.8235296607017517,0.0980105921626091,0.1896732747554779
1667824872453779200,8.565779296875,-0.8143342733383179,0.16851761937141418,0.224779412150383
1667824872463786200,8.5757861328125,-0.7623674273490906,0.22604137659072876,0.2617094814777374
1667824872473794300,8.585794189453125,-0.6683405041694641,0.23508726060390472,0.31206968426704407
1667824872483802000,8.595802001953125,-0.548424243927002,0.18546563386917114,0.38048627972602844
1667824872493809200,8.60580908203125,-0.4269886910915375,0.10668056458234787,0.47284138202667236
1667824872503817000,8.61581689453125,-0.3141353726387024,0.05613909289240837,0.577775239944458
1667824872513825300,8.6258251953125,-0.22224228084087372,0.05433221161365509,0.6697357892990112
1667824872523832000,8.63583203125,-0.15130925178527832,0.09685038030147552,0.7322324514389038
1667824872533840100,8.645840087890624,-0.09958600252866745,0.14721953868865967,0.7611241936683655
1667824872543848200,8.65584814453125,-0.06797481328248978,0.16570933163166046,0.7733952403068542
1667824872553855200,8.665855224609375,-0.04572691395878792,0.13486188650131226,0.762256920337677
1667824872563863300,8.67586328125,-0.004884143825620413,0.08190945535898209,0.7357459664344788
1667824872573870000,8.6858701171875,0.05572434142231941,0.028283070772886276,0.6876397132873535
1667824872583878400,8.69587841796875,0.1294073462486267,-0.015213007107377052,0.6355048418045044
1667824872593886200,8.70588623046875,0.20685167610645294,-0.040466077625751495,0.5780067443847656
1667824872603893200,8.715893310546875,0.2811216413974762,-0.04958420991897583,0.5016619563102722
1667824872613901000,8.725901123046874,0.34954631328582764,-0.039982497692108154,0.4137168228626251
1667824872623909000,8.7359091796875,0.40508148074150085,0.005053154192864895,0.2956423759460449
1667824872633916200,8.745916259765625,0.4404861032962799,0.09975790977478027,0.1378318816423416
1667824872643924200,8.75592431640625,0.45330578088760376,0.21391510963439941,-0.07127979397773743
1667824872653932000,8.76593212890625,0.4553370773792267,0.33065372705459595,-0.3171693682670593
1667824872663939300,8.775939208984376,0.44915616512298584,0.4365119934082031,-0.585951566696167
1667824872673947100,8.785947021484375,0.44800376892089844,0.5025840401649475,-0.8481473326683044
1667824872683955200,8.795955078125,0.45225924253463745,0.5281975269317627,-1.078671932220459
1667824872693962000,8.8059619140625,0.46095985174179077,0.5251684188842773,-1.2672046422958374
1667824872703970300,8.81597021484375,0.4865213930606842,0.4934278130531311,-1.417250633239746
1667824872713978400,8.825978271484376,0.5139614343643188,0.4383436143398285,-1.5442479848861694
1667824872723985200,8.835985107421875,0.5402284860610962,0.3761713206768036,-1.6615514755249023
1667824872733993200,8.8459931640625,0.5706229209899902,0.34594619274139404,-1.758463978767395
1667824872744000300,8.856000244140626,0.6014865636825562,0.3659111261367798,-1.8312729597091675
1667824872754008300,8.86600830078125,0.6255427002906799,0.42345649003982544,-1.868199348449707
1667824872764016000,8.87601611328125,0.6355860233306885,0.4725864827632904,-1.8736250400543213
1667824872774023200,8.886023193359375,0.6352930665016174,0.49048054218292236,-1.8482933044433594
1667824872784031200,8.89603125,0.6230571866035461,0.46960774064064026,-1.7843190431594849
1667824872794039300,8.906039306640626,0.6131138205528259,0.42195743322372437,-1.69661283493042
1667824872804046000,8.916046142578125,0.6038066148757935,0.3226476311683655,-1.5923762321472168
1667824872814054100,8.92605419921875,0.5917266607284546,0.18178701400756836,-1.467307209968567
1667824872824062200,8.936062255859374,0.5552211403846741,0.01434422843158245,-1.321739912033081
1667824872834069200,8.9460693359375,0.4849400222301483,-0.11840997636318207,-1.1640987396240234
1667824872844077000,8.9560771484375,0.3868970572948456,-0.15355943143367767,-1.0175098180770874
1667824872854085000,8.966085205078125,0.26291489601135254,-0.09760817885398865,-0.8725003004074097
1667824872864092200,8.976092041015624,0.1426348239183426,0.020812736824154854,-0.7287606596946716
1667824872874100200,8.986100341796876,0.050515152513980865,0.14208438992500305,-0.566166877746582
1667824872884108300,8.9961083984375,-0.017083335667848587,0.2798806130886078,-0.3950989842414856
1667824872894115300,9.006115234375,-0.060579564422369,0.41838204860687256,-0.22153350710868835
1667824872904123400,9.016123291015624,-0.08639411628246307,0.5262272953987122,-0.045660220086574554
1667824872914131200,9.026131103515626,-0.055760107934474945,0.5446161031723022,0.15593715012073517
1667824872924138200,9.03613818359375,0.043718814849853516,0.4914841949939728,0.38259294629096985
1667824872934146000,9.04614599609375,0.192043736577034,0.4224340319633484,0.6252952814102173
1667824872944153300,9.0561533203125,0.3549383580684662,0.4017263352870941,0.8709351420402527
1667824872954161200,9.0661611328125,0.4971504509449005,0.41681814193725586,1.087805151939392
1667824872964169200,9.076169189453125,0.5828483700752258,0.3939759433269501,1.2627835273742676
1667824872974176300,9.08617626953125,0.5975708365440369,0.3095713257789612,1.375050663948059
1667824872984184300,9.096184326171874,0.5565600395202637,0.2125592827796936,1.406275987625122
1667824872994192100,9.106192138671876,0.4627722501754761,0.13495862483978271,1.3176912069320679
1667824873004199200,9.11619921875,0.3061608076095581,0.08061762154102325,1.1182433366775513
1667824873014207200,9.126207275390625,0.1017751395702362,0.08265674859285355,0.8134014010429382
1667824873024215300,9.13621533203125,-0.12725403904914856,0.1576543003320694,0.4355154037475586
1667824873034222000,9.14622216796875,-0.35488179326057434,0.233626127243042,0.02293178252875805
1667824873044230100,9.156230224609375,-0.5617915391921997,0.22679778933525085,-0.3858805000782013
1667824873054238200,9.16623828125,-0.7315694689750671,0.16127070784568787,-0.7571649551391602
1667824873064245200,9.176245361328125,-0.8613075017929077,0.016487158834934235,-1.0515944957733154
1667824873074253000,9.186253173828124,-0.9558475017547607,-0.24587294459342957,-1.2132675647735596
1667824873084261000,9.19626123046875,-1.0082155466079712,-0.5749943852424622,-1.2317110300064087
1667824873094268200,9.20626806640625,-1.0168826580047607,-0.9047362804412842,-1.1096770763397217
1667824873104276200,9.216276123046875,-0.9901135563850403,-1.1410936117172241,-0.859917163848877
1667824873114284300,9.2262841796875,-0.9513401985168457,-1.2298412322998047,-0.5326175689697266
1667824873124291000,9.236291015625,-0.9071290493011475,-1.1800533533096313,-0.17058239877223969
1667824873134299400,9.24629931640625,-0.8523954153060913,-1.0156333446502686,0.1797398030757904
1667824873144306200,9.25630615234375,-0.7799137830734253,-0.785086452960968,0.4833969175815582
1667824873154314800,9.266314697265624,-0.6938437819480896,-0.522392749786377,0.7204449772834778
1667824873164322800,9.27632275390625,-0.6174464225769043,-0.23895728588104248,0.8687734603881836
1667824873174329900,9.286329833984375,-0.5552096366882324,-0.017764704301953316,0.9276057481765747
1667824873184338000,9.296337890625,-0.5189645290374756,0.0893244594335556,0.903596818447113
1667824873194345700,9.306345703125,-0.5106269121170044,0.07797713577747345,0.8127582669258118
1667824873204352800,9.316352783203126,-0.5121755599975586,-0.0013291325885802507,0.6979398131370544
1667824873214360800,9.32636083984375,-0.5039471387863159,-0.15010927617549896,0.5849501490592957
1667824873224369000,9.336368896484375,-0.47945383191108704,-0.33636945486068726,0.4870491027832031
1667824873234375700,9.346375732421874,-0.4443478584289551,-0.5385096073150635,0.4073692262172699
1667824873244383700,9.3563837890625,-0.42440930008888245,-0.7143330574035645,0.35038504004478455
1667824873254391800,9.366391845703125,-0.4180474579334259,-0.8501695394515991,0.30068299174308777
1667824873264398800,9.37639892578125,-0.43512123823165894,-0.9465874433517456,0.26623526215553284
1667824873274407000,9.386406982421875,-0.4664742648601532,-0.9983823895454407,0.25219494104385376
1667824873284414700,9.396414794921874,-0.5071479082107544,-0.9946454167366028,0.24541158974170685
1667824873294422000,9.406422119140625,-0.5586391091346741,-0.9832623600959778,0.23084551095962524
1667824873304429800,9.416429931640625,-0.6247766017913818,-0.9602862000465393,0.20630528032779694
1667824873314438000,9.42643798828125,-0.7234085202217102,-0.9408915042877197,0.19021612405776978
1667824873324444700,9.436444580078126,-0.8604348301887512,-0.9514490365982056,0.18985632061958313
1667824873334453000,9.446452880859376,-0.9930009245872498,-0.9885889887809753,0.19659903645515442
1667824873344459800,9.456459716796875,-1.097899317741394,-0.9939587116241455,0.21111272275447845
1667824873354467800,9.4664677734375,-1.1607247591018677,-0.9287395477294922,0.2187836915254593
1667824873364475600,9.4764755859375,-1.180935263633728,-0.8251766562461853,0.21859301626682281
1667824873374483000,9.48648291015625,-1.162664532661438,-0.744152843952179,0.21259821951389313
1667824873384490800,9.49649072265625,-1.1161489486694336,-0.699395477771759,0.24162107706069946
1667824873394498800,9.506498779296875,-1.0298410654067993,-0.6582803130149841,0.32576337456703186
1667824873404505900,9.516505859375,-0.9220791459083557,-0.569757878780365,0.467868834733963
1667824873414514000,9.526513916015626,-0.8007398843765259,-0.44690001010894775,0.6538889408111572
1667824873424522000,9.53652197265625,-0.6727854013442993,-0.3500962555408478,0.8597467541694641
1667824873434528800,9.54652880859375,-0.555260181427002,-0.2839491069316864,1.0322788953781128
1667824873444536800,9.556536865234374,-0.4452503025531769,-0.1998520791530609,1.1042755842208862
1667824873454545000,9.566544921875,-0.34366410970687866,-0.11248569935560226,1.062469720840454
1667824873464552000,9.576552001953125,-0.25698089599609375,-0.03749028593301773,0.966639518737793
1667824873474559700,9.586559814453125,-0.16824516654014587,-0.0036148084327578545,0.8316895961761475
1667824873484567800,9.59656787109375,-0.0954468622803688,0.04579455405473709,0.7099564671516418
1667824873494574800,9.606574951171876,-0.0506424605846405,0.18856564164161682,0.5687056183815002
1667824873504583000,9.6165830078125,0.0019086319953203201,0.46417883038520813,0.3872564733028412
1667824873514590700,9.6265908203125,0.09558204561471939,0.7718219757080078,0.16122840344905853
1667824873524597800,9.63659765625,0.22390273213386536,1.0306137800216675,-0.10314439237117767
1667824873534605800,9.646605712890626,0.36034154891967773,1.1451655626296997,-0.39410400390625
1667824873544614000,9.65661376953125,0.4357641339302063,1.0961875915527344,-0.6841819286346436
1667824873554620700,9.66662060546875,0.425616979598999,1.0311908721923828,-0.9907976984977722
1667824873564628700,9.676628662109374,0.3604278564453125,1.0894051790237427,-1.3265246152877808
1667824873574637000,9.686636962890624,0.31688809394836426,1.1267364025115967,-1.649309754371643
1667824873584643800,9.696643798828125,0.3450835049152374,1.0355557203292847,-1.8960988521575928
1667824873594651600,9.706651611328125,0.45027750730514526,1.0260663032531738,-2.0147953033447266
1667824873604659700,9.71665966796875,0.5352286100387573,0.8831855654716492,-1.9622905254364014
1667824873614666800,9.726666748046876,0.5865397453308105,0.6309387683868408,-1.775286078453064
1667824873624674800,9.7366748046875,0.5858273506164551,0.40465208888053894,-1.5156992673873901
1667824873634681600,9.746681640625,0.5204788446426392,0.23081789910793304,-1.2365158796310425
1667824873644690000,9.75668994140625,0.41261953115463257,0.15199019014835358,-0.9625316858291626
1667824873654698000,9.766697998046874,0.3033561110496521,0.1535237580537796,-0.7108175754547119
1667824873664704800,9.776704833984375,0.20318341255187988,0.20666368305683136,-0.4565834105014801
1667824873674712800,9.786712890625,0.11220625042915344,0.3442322909832001,-0.21239353716373444
1667824873684720600,9.796720703125,0.04261172190308571,0.5240329504013062,0.0002454938367009163
1667824873694728000,9.80672802734375,-0.06896789371967316,0.6478596925735474,0.17939254641532898
1667824873704735700,9.81673583984375,-0.24134738743305206,0.7063027620315552,0.3480321764945984
1667824873714743800,9.826743896484375,-0.38259848952293396,0.7379456162452698,0.49780741333961487
1667824873724750800,9.836750732421875,-0.515929639339447,0.7297734618186951,0.6427566409111023
1667824873734759000,9.846759033203124,-0.6915467381477356,0.5881688594818115,0.7795305252075195
1667824873744766700,9.8567666015625,-0.6829649806022644,0.3408392071723938,0.896870493888855
1667824873754773800,9.866773681640625,-0.5066172480583191,0.20889152586460114,0.9976410865783691
1667824873764781800,9.87678173828125,-0.2158394753932953,0.21824002265930176,1.0621401071548462
1667824873774790000,9.886789794921874,0.0816788300871849,0.1044037863612175,1.053048849105835
1667824873784796700,9.896796630859376,0.2176387906074524,-0.20786942541599274,0.9788334965705872
1667824873794804700,9.9068046875,0.15665118396282196,-0.24296043813228607,0.939739465713501
1667824873804812800,9.916812744140625,0.04539177939295769,0.001318805618211627,0.9355244636535645
1667824873814819800,9.92681982421875,0.012482112273573875,0.43069255352020264,0.88355952501297
1667824873824828000,9.936827880859376,0.0795503631234169,0.8876752853393555,0.7495130300521851
1667824873834834700,9.946834716796875,0.1825193464756012,1.2187466621398926,0.5781137943267822
1667824873844843000,9.956843017578125,0.24745920300483704,1.3968058824539185,0.4294295012950897
1667824873854850800,9.966850830078124,0.2927064895629883,1.5253570079803467,0.3111353814601898
1667824873864859000,9.97685888671875,0.37457022070884705,1.5612775087356567,0.19304603338241577
1667824873874865700,9.98686572265625,0.4443754255771637,0.9447219967842102,0.0918084979057312
1667824873884874000,9.9968740234375,0.5000045895576477,0.5062444806098938,0.06894952058792114
1667824873894880800,10.006880859375,0.5052579641342163,-0.050018224865198135,0.10936394333839417
1667824873904888800,10.016888916015626,0.521034836769104,-0.8180592060089111,0.2018193155527115
1667824873914896600,10.026896728515625,0.5723766684532166,-1.4712765216827393,0.29056182503700256
1667824873924904000,10.036904052734375,0.625328540802002,-2.040705442428589,0.39519450068473816
1667824873934911700,10.046911865234375,0.6746006608009338,-2.500969409942627,0.5397154092788696
1667824873944919800,10.056919921875,0.7088294625282288,-2.709268808364868,0.7224341034889221
1667824873954926800,10.0669267578125,0.6666246056556702,-2.564840793609619,0.8762415051460266
1667824873964935000,10.076934814453125,0.5028228759765625,-1.8874057531356812,0.8866589665412903
1667824873974943000,10.08694287109375,0.2820514738559723,-1.1587179899215698,0.8376213312149048
1667824873984949800,10.09694970703125,0.10750548541545868,-0.8041388392448425,0.8848876357078552
1667824873994957800,10.106957763671875,0.04869558662176132,-0.7051231861114502,1.0398499965667725
1667824874004966000,10.1169658203125,0.06345614790916443,-0.594934344291687,1.2258256673812866
1667824874014973000,10.126972900390625,0.07742904126644135,-0.363447368144989,1.3629952669143677
1667824874024980700,10.136980712890624,0.04266573488712311,-0.16254010796546936,1.4135937690734863
1667824874034988800,10.14698876953125,-0.03497884422540665,-0.06235947459936142,1.3531639575958252
1667824874044995800,10.156995849609375,-0.13128994405269623,-0.0621272474527359,1.1801530122756958
1667824874055004000,10.16700390625,-0.20642678439617157,-0.16481852531433105,0.9166581630706787
1667824874065011700,10.17701171875,-0.23212601244449615,-0.3225889801979065,0.5835264921188354
1667824874075019000,10.18701904296875,-0.19587263464927673,-0.5323505401611328,0.24138577282428741
1667824874085026800,10.19702685546875,-0.11642921715974808,-0.8075211644172668,-0.08385223895311356
1667824874095033900,10.207033935546875,-0.017454110085964203,-1.0741273164749146,-0.3968808650970459
1667824874105041700,10.217041748046874,0.07892035692930222,-1.2710767984390259,-0.6570104360580444
1667824874115049700,10.2270498046875,0.1606900542974472,-1.438496470451355,-0.8030027747154236
1667824874125058000,10.23705810546875,0.2160041779279709,-1.6251622438430786,-0.780781090259552
1667824874135064800,10.24706494140625,0.27079880237579346,-1.7488030195236206,-0.6322659254074097
1667824874145072600,10.25707275390625,0.3293915390968323,-1.7549304962158203,-0.4192905128002167
1667824874155080200,10.267080078125,0.39486128091812134,-1.6063181161880493,-0.2022777646780014
1667824874165088300,10.277088134765625,0.490931898355484,-1.285151720046997,-0.05042404308915138
1667824874175096000,10.287095947265625,0.6075325608253479,-0.9003971219062805,0.011872170493006706
1667824874185103000,10.29710302734375,0.7099340558052063,-0.5940307974815369,-0.024343622848391533
1667824874195111000,10.30711083984375,0.7724194526672363,-0.46151262521743774,-0.13439439237117767
1667824874205119200,10.317119140625,0.7807450294494629,-0.5817908644676208,-0.27068430185317993
1667824874215126000,10.3271259765625,0.765258252620697,-0.625339925289154,-0.386721134185791
1667824874225134000,10.337134033203125,0.7659831643104553,-0.5268189311027527,-0.5077998638153076
1667824874235142000,10.347141845703124,0.8092945218086243,-0.3604399263858795,-0.627932071685791
1667824874245149200,10.357149169921875,0.918919026851654,-0.19376733899116516,-0.7242929339408875
1667824874255157000,10.367156982421875,1.0589624643325806,-0.07697003334760666,-0.7649224400520325
1667824874265165000,10.3771650390625,1.1828769445419312,-0.03893396630883217,-0.7446275949478149
1667824874275172000,10.387172119140626,1.2544912099838257,-0.06748023629188538,-0.6699962615966797
1667824874285180200,10.39718017578125,1.261711835861206,-0.1212606430053711,-0.5503026247024536
1667824874295188000,10.40718798828125,1.2431539297103882,-0.220610111951828,-0.4154239594936371
1667824874305195000,10.417195068359375,1.2082726955413818,-0.30063754320144653,-0.29922786355018616
1667824874315203000,10.427203125,1.1489907503128052,-0.32054033875465393,-0.24598051607608795
1667824874325211100,10.437211181640626,1.0846102237701416,-0.218455508351326,-0.303932249546051
1667824874335218000,10.447218017578125,1.0129060745239258,-0.020055629312992096,-0.44399192929267883
1667824874345226000,10.45722607421875,0.909498929977417,0.17587392032146454,-0.5769705176353455
1667824874355234000,10.467234130859374,0.7748280763626099,0.29851534962654114,-0.6082841753959656
1667824874365241000,10.477240966796876,0.64959317445755,0.3169596195220947,-0.5023266077041626
1667824874375249200,10.487249267578125,0.6062264442443848,0.24615414440631866,-0.29639872908592224
1667824874385256000,10.497255859375,0.6750063300132751,0.13934646546840668,-0.060023460537195206
1667824874395264300,10.50726416015625,0.8419097661972046,0.05834313482046127,0.14109444618225098
1667824874405272000,10.51727197265625,1.051813006401062,0.03664050251245499,0.2797210216522217
1667824874415279000,10.527279052734375,1.252580165863037,0.05245634540915489,0.34782662987709045
1667824874425287000,10.537286865234375,1.4099961519241333,0.09101279824972153,0.36682215332984924
1667824874435295200,10.547295166015624,1.5075665712356567,0.13570372760295868,0.3613854944705963
1667824874445302000,10.557302001953126,1.5449703931808472,0.16295531392097473,0.36297062039375305
1667824874455310000,10.56731005859375,1.5415736436843872,0.1646442413330078,0.3833388090133667
1667824874465318000,10.57731787109375,1.5151660442352295,0.16581177711486816,0.40401744842529297
1667824874475325200,10.5873251953125,1.4670119285583496,0.18372628092765808,0.4056163430213928
1667824874485333000,10.5973330078125,1.4180102348327637,0.21634361147880554,0.38389164209365845
1667824874495341000,10.607341064453125,1.3744890689849854,0.2426002472639084,0.3488522469997406
1667824874505347800,10.617347900390625,1.3448829650878906,0.2251749187707901,0.3149592876434326
1667824874515356200,10.627356201171875,1.3483425378799438,0.21094173192977905,0.26637259125709534
1667824874525364200,10.6373642578125,1.3915534019470215,0.269143283367157,0.19142724573612213
1667824874535371000,10.64737109375,1.4642276763916016,0.43408045172691345,0.09089367836713791
1667824874545379000,10.657379150390625,1.5559965372085571,0.6784694194793701,-0.022297855466604233
1667824874555387100,10.66738720703125,1.6393300294876099,0.9501542448997498,-0.13828982412815094
1667824874565394200,10.677394287109376,1.6687244176864624,1.1923761367797852,-0.22931906580924988
1667824874575402000,10.687402099609375,1.6244748830795288,1.3525012731552124,-0.275020956993103
1667824874585409300,10.6974091796875,1.5225954055786133,1.394386887550354,-0.2664969861507416
1667824874595417000,10.7074169921875,1.361900806427002,1.3252885341644287,-0.20133408904075623
1667824874605425200,10.717425048828124,1.168387532234192,1.167962908744812,-0.07701372355222702
1667824874615432000,10.727431884765625,0.9805468320846558,0.9776067733764648,0.09194124490022659
1667824874625440000,10.73743994140625,0.8534368276596069,0.8306047916412354,0.267672598361969
1667824874635448000,10.747447998046875,0.8001004457473755,0.7839297652244568,0.41823554039001465
1667824874645455000,10.757455078125,0.8383232355117798,0.8590633869171143,0.526323676109314
1667824874655463000,10.767462890625,0.962323009967804,0.9930561184883118,0.5875576734542847
1667824874665471000,10.777470947265625,1.1323658227920532,1.1281540393829346,0.6098020076751709
1667824874675478000,10.78747802734375,1.3112760782241821,1.2416385412216187,0.5932062268257141
1667824874685486000,10.797486083984374,1.4627844095230103,1.3232154846191406,0.5771825313568115
1667824874695494100,10.807494140625,1.572090983390808,1.3507404327392578,0.5685589909553528
1667824874705501200,10.817501220703125,1.6162062883377075,1.3137059211730957,0.5829933285713196
1667824874715509200,10.82750927734375,1.6013329029083252,1.2397172451019287,0.6153794527053833
1667824874725517000,10.83751708984375,1.5531504154205322,1.160353422164917,0.6540754437446594
1667824874735524000,10.847524169921876,1.5019621849060059,1.0947561264038086,0.6963031888008118
1667824874745532200,10.8575322265625,1.4934594631195068,1.0519969463348389,0.7300683259963989
1667824874755540200,10.867540283203125,1.523950219154358,1.0577350854873657,0.7433786988258362
1667824874765547000,10.877547119140624,1.5939936637878418,1.1112419366836548,0.7376217246055603
1667824874775555000,10.88755517578125,1.6848125457763672,1.2016352415084839,0.7229847311973572
1667824874785563000,10.89756298828125,1.7871711254119873,1.319836974143982,0.7051010727882385
1667824874795570200,10.907570068359375,1.8866565227508545,1.4041593074798584,0.6752364039421082
1667824874805578000,10.917577880859374,1.956183910369873,1.4536839723587036,0.6142963171005249
1667824874815585000,10.9275849609375,1.9875925779342651,1.4911137819290161,0.5413758754730225
1667824874825593000,10.937593017578125,2.0043785572052,1.5468672513961792,0.4432988464832306
1667824874835601200,10.94760107421875,2.0302512645721436,1.6196006536483765,0.3186531364917755
1667824874845608000,10.95760791015625,2.063537359237671,1.6978511810302734,0.18291501700878143
1667824874855616000,10.967615966796876,2.0983622074127197,1.7619097232818604,0.04110331833362579
1667824874865624000,10.9776240234375,2.1366851329803467,1.8306429386138916,-0.09177030622959137
1667824874875631000,10.987631103515625,2.162993907928467,1.8394443988800049,-0.21064232289791107
1667824874885639000,10.997638916015624,2.155090808868408,1.771795392036438,-0.28990280628204346
1667824874895647000,11.00764697265625,2.138289451599121,1.6671485900878906,-0.27156561613082886
1667824874905654000,11.017654052734375,2.1369547843933105,1.7361867427825928,-0.28844180703163147
1667824874915662000,11.027662109375,2.1141605377197266,1.840284824371338,-0.332218199968338
1667824874925670100,11.037670166015625,2.0780327320098877,1.9482133388519287,-0.4117029011249542
1667824874935677000,11.047677001953126,2.0518155097961426,1.961802363395691,-0.49031612277030945
1667824874945685200,11.057685302734376,2.0299627780914307,1.8484400510787964,-0.5382524728775024
1667824874955693000,11.067693115234375,2.01615047454834,1.6332260370254517,-0.538063108921051
1667824874965700000,11.0777001953125,2.024492025375366,1.3621615171432495,-0.5032761693000793
1667824874975708000,11.0877080078125,2.061084508895874,1.0735373497009277,-0.44769108295440674
