time,seconds_elapsed,z,y,x
1667267051582105600,0.096105712890625,9.377771377563477,0.8018946647644043,0.0933200865983963
1667267051584503300,0.09850341796875,9.317950248718262,0.8114659786224365,0.06699903309345245
1667267051586901000,0.10090087890625,9.248259544372559,0.8282157182693481,0.05024927482008934
1667267051589298700,0.103298583984375,9.181260108947754,0.8258228898048401,0.02153540402650833
1667267051591696600,0.105696533203125,9.135796546936035,0.8258228898048401,-0.031106693670153618
1667267051594094300,0.10809423828125,9.116654396057129,0.8452646136283875,-0.07178468257188797
1667267051596492000,0.110491943359375,9.095118522644043,0.8377870321273804,-0.12203395366668701
1667267051598889700,0.1128896484375,9.073583602905273,0.8234301209449768,-0.14835500717163086
1667267051601287400,0.115287353515625,9.059226989746094,0.8210372924804688,-0.1746760457754135
1667267051603685000,0.11768505859375,9.05444049835205,0.8090731501579285,-0.1818545162677765
1667267051606083000,0.1200830078125,9.068798065185547,0.7851449251174927,-0.16749759018421173
1667267051608480800,0.122480712890625,9.059226989746094,0.7851449251174927,-0.15553347766399384
1667267051610878500,0.12487841796875,9.037691116333008,0.7803592681884766,-0.14117653667926788
1667267051613276200,0.127276123046875,9.040083885192871,0.766002357006073,-0.09571290761232376
1667267051615673900,0.129673828125,9.056833267211914,0.7851449251174927,-0.11246266216039658
1667267051618071800,0.13207177734375,9.059226989746094,0.7779664397239685,-0.09810572862625122
1667267051620469500,0.134469482421875,9.052047729492188,0.7947162389755249,-0.09810572862625122
1667267051622867200,0.1368671875,9.049654960632324,0.7851449251174927,-0.12921242415905
1667267051625265000,0.139264892578125,9.078369140625,0.7803592681884766,-0.15553347766399384
1667267051627662600,0.14166259765625,9.135796546936035,0.8138588070869446,-0.20099709928035736
1667267051630060500,0.144060546875,9.152546882629395,0.8452646136283875,-0.23688943684101105
1667267051632458200,0.146458251953125,9.21715259552002,0.8715856671333313,-0.2874378263950348
1667267051634856000,0.14885595703125,9.274879455566406,0.893121063709259,-0.2946162819862366
1667267051637253600,0.151253662109375,9.361021041870117,0.9050851464271545,-0.3281157910823822
1667267051639651300,0.1536513671875,9.451948165893555,0.9529415965080261,-0.3448655605316162
1667267051642049300,0.15604931640625,9.535696983337402,0.9601200819015503,-0.3616153299808502
1667267051644447000,0.158447021484375,9.600303649902344,0.9672985672950745,-0.385543555021286
1667267051646844700,0.1608447265625,9.681659698486328,1.0103694200515747,-0.3975076675415039
1667267051649242400,0.163242431640625,9.741479873657227,1.0295119285583496,-0.38793638348579407
1667267051651640000,0.16564013671875,9.803693771362305,1.0414760112762451,-0.4166502356529236
1667267051654037800,0.168037841796875,9.839884757995605,1.0319048166275024,-0.4166502356529236
1667267051656435700,0.170435791015625,9.90688419342041,1.0342975854873657,-0.40707895159721375
1667267051658833400,0.17283349609375,9.952347755432129,1.036690354347229,-0.4046861231327057
1667267051661231000,0.175231201171875,9.957133293151855,1.0582258701324463,-0.3975076675415039
1667267051663628800,0.17762890625,9.981060981750488,1.0582258701324463,-0.39990049600601196
1667267051666026500,0.180026611328125,9.985847473144531,1.0630114078521729,-0.40707895159721375
1667267051668424200,0.182424072265625,9.990633010864258,1.0654042959213257,-0.3927220106124878
1667267051670822100,0.184822265625,10.0073823928833,1.0630114078521729,-0.38315072655677795
1667267051673219800,0.1872197265625,10.03131103515625,1.072582721710205,-0.39511483907699585
1667267051675617500,0.189617431640625,10.05284595489502,1.0917253494262695,-0.4286143481731415
1667267051678015200,0.19201513671875,10.086345672607422,1.0965110063552856,-0.4262215197086334
1667267051680413200,0.1944130859375,10.12463092803955,1.1060823202133179,-0.4405784606933594
1667267051682811000,0.196810791015625,10.174880027770996,1.1276177167892456,-0.48364928364753723
1667267051685208600,0.19920849609375,10.191629409790039,1.1371889114379883,-0.48364928364753723
1667267051687606300,0.201606201171875,10.208379745483398,1.170688509941101,-0.48843491077423096
1667267051690004000,0.20400390625,10.237093925476074,1.170688509941101,-0.5003990530967712
1667267051692401700,0.206401611328125,10.2418794631958,1.1826525926589966,-0.49322056770324707
1667267051694799600,0.208799560546875,10.229914665222168,1.1802598237991333,-0.4860421121120453
1667267051697197300,0.211197265625,10.244272232055664,1.189831018447876,-0.46450668573379517
1667267051699595000,0.213594970703125,10.2418794631958,1.2065808773040771,-0.46450668573379517
1667267051701992700,0.21599267578125,10.237093925476074,1.194616675376892,-0.43579283356666565
1667267051704390400,0.218390380859375,10.239486694335938,1.1874382495880127,-0.43100717663764954
1667267051706788000,0.2207880859375,10.261021614074707,1.1874382495880127,-0.4046861231327057
1667267051709186000,0.22318603515625,10.296914100646973,1.1874382495880127,-0.39032918214797974
1667267051711583700,0.225583740234375,10.292128562927246,1.1850453615188599,-0.3975076675415039
1667267051713981400,0.2279814453125,10.29452133178711,1.158724308013916,-0.40229329466819763
1667267051716379100,0.230379150390625,10.304092407226562,1.1635099649429321,-0.37597227096557617
1667267051718776800,0.23277685546875,10.318449020385742,1.1491531133651733,-0.3448655605316162
1667267051721174800,0.2351748046875,10.311270713806152,1.1419745683670044,-0.34725838899612427
1667267051723572500,0.237572509765625,10.299306869506836,1.103689432144165,-0.34247273206710815
1667267051725970200,0.23997021484375,10.272985458374023,1.079761266708374,-0.3161516785621643
1667267051728367900,0.242367919921875,10.234700202941895,1.0558329820632935,-0.2994019389152527
1667267051730765600,0.244765625,10.160523414611816,1.043868899345398,-0.2922234535217285
1667267051733163500,0.24716357421875,10.103095054626465,1.0271191596984863,-0.275174617767334
1667267051735561200,0.249561279296875,10.033703804016113,1.0223335027694702,-0.26081767678260803
1667267051737959000,0.251958984375,9.954740524291992,0.9936196208000183,-0.25363919138908386
1667267051740356600,0.254356689453125,9.868598937988281,0.9601200819015503,-0.24406790733337402
1667267051742754300,0.25675439453125,9.779765129089355,0.9601200819015503,-0.2679961323738098
1667267051745152000,0.259152099609375,9.7366943359375,0.9529415965080261,-0.30179476737976074
1667267051747550000,0.261550048828125,9.674481391906738,0.9170492887496948,-0.3281157910823822
1667267051749947600,0.26394775390625,9.600303649902344,0.8787640929222107,-0.3400799036026001
1667267051752345300,0.266345458984375,9.552447319030762,0.8787640929222107,-0.37836506962776184
1667267051754743000,0.268742919921875,9.52612590789795,0.8548358678817749,-0.4286143481731415
1667267051757140700,0.271140625,9.492626190185547,0.8353942036628723,-0.4573282301425934
1667267051759538700,0.27353857421875,9.48784065246582,0.8353942036628723,-0.4788636267185211
1667267051761936400,0.275936279296875,9.454340934753418,0.8042874932289124,-0.5123631358146667
1667267051764334000,0.278333984375,9.430413246154785,0.7851449251174927,-0.5386841893196106
1667267051766731800,0.280731689453125,9.396913528442383,0.7636095285415649,-0.5578267574310303
1667267051769129500,0.28312939453125,9.361021041870117,0.7396813035011292,-0.5626124143600464
1667267051771527200,0.285527099609375,9.327521324157715,0.7229315638542175,-0.5721837282180786
1667267051773925000,0.287925048828125,9.286844253540039,0.7133602499961853,-0.5578267574310303
1667267051776322800,0.29032275390625,9.26291561126709,0.7133602499961853,-0.5650052428245544
1667267051778720500,0.292720458984375,9.255437850952148,0.6894320249557495,-0.5386841893196106
1667267051781118200,0.2951181640625,9.238688468933105,0.6583253145217896,-0.5338985323905945
1667267051783516000,0.297515869140625,9.233902931213379,0.6726822853088379,-0.5195416212081909
1667267051785913900,0.299913818359375,9.255437850952148,0.6774678826332092,-0.5147559642791748
1667267051788311600,0.3023115234375,9.286844253540039,0.701396107673645,-0.4980062246322632
1667267051790709200,0.304709228515625,9.3490571975708,0.7085745930671692,-0.46450668573379517
1667267051793107000,0.30710693359375,9.428020477294922,0.7109674215316772,-0.4405784606933594
1667267051795504600,0.309504638671875,9.521340370178223,0.6966105103492737,-0.3927220106124878
1667267051797902600,0.311902587890625,9.595518112182617,0.7037889361381531,-0.3568296730518341
1667267051800300300,0.31430029296875,9.684052467346191,0.7061817646026611,-0.3161516785621643
1667267051802698000,0.316697998046875,9.72951602935791,0.7085745930671692,-0.27038896083831787
1667267051805095700,0.319095703125,9.796515464782715,0.732502818107605,-0.22492532432079315
1667267051807493400,0.321493408203125,9.847063064575195,0.7253243923187256,-0.2105683982372284
1667267051809891000,0.32389111328125,9.887741088867188,0.7396813035011292,-0.1579262912273407
1667267051812289000,0.3262890625,9.9140625,0.732502818107605,-0.14117653667926788
1667267051814686700,0.328686767578125,9.93559741973877,0.7468597888946533,-0.11724831163883209
1667267051817084400,0.33108447265625,9.940383911132812,0.7564310431480408,-0.12203395366668701
1667267051819482000,0.333482177734375,9.971489906311035,0.7444669604301453,-0.12681959569454193
1667267051821879800,0.3358798828125,9.997811317443848,0.7277171611785889,-0.13160525262355804
1667267051824277800,0.33827783203125,10.004989624023438,0.7229315638542175,-0.14835500717163086
1667267051826675500,0.340675537109375,10.040882110595703,0.7229315638542175,-0.14117653667926788
1667267051829073200,0.3430732421875,10.067203521728516,0.7253243923187256,-0.14117653667926788
1667267051831470800,0.345470947265625,10.088738441467285,0.6990033388137817,-0.16031911969184875
1667267051833868500,0.34786865234375,10.088738441467285,0.6990033388137817,-0.19142581522464752
1667267051836266500,0.3502666015625,10.081560134887695,0.6846463680267334,-0.19142581522464752
1667267051838664200,0.352664306640625,10.069596290588379,0.6607181429862976,-0.20817556977272034
1667267051841062000,0.355061767578125,10.050453186035156,0.6511468887329102,-0.23210379481315613
1667267051843459600,0.35745947265625,10.000204086303711,0.6296114325523376,-0.2632105052471161
1667267051845857300,0.359857177734375,9.961918830871582,0.6200401782989502,-0.2994019389152527
1667267051848255000,0.3622548828125,9.947562217712402,0.6008976101875305,-0.3448655605316162
1667267051850653000,0.36465283203125,9.945169448852539,0.5865406394004822,-0.38315072655677795
1667267051853050600,0.367050537109375,9.957133293151855,0.5913262963294983,-0.38793638348579407
1667267051855448300,0.3694482421875,9.952347755432129,0.5985047817230225,-0.42382872104644775
1667267051857846000,0.371845947265625,9.959526062011719,0.5889334678649902,-0.43579283356666565
1667267051860244000,0.374243896484375,10.03131103515625,0.6008976101875305,-0.45254257321357727
1667267051862641700,0.3766416015625,10.057631492614746,0.6152545213699341,-0.4860421121120453
1667267051865039400,0.379039306640625,10.067203521728516,0.6032904386520386,-0.47168517112731934
1667267051867437000,0.38143701171875,10.076774597167969,0.646361231803894,-0.4573282301425934
1667267051869834800,0.383834716796875,10.074381828308105,0.6655037999153137,-0.43100717663764954
1667267051872232400,0.386232421875,10.043274879455566,0.6535396575927734,-0.4214358925819397
1667267051874630400,0.38863037109375,10.012167930603027,0.6607181429862976,-0.40229329466819763
1667267051877028000,0.391028076171875,9.971489906311035,0.6559324860572815,-0.38793638348579407
1667267051879425800,0.39342578125,9.940383911132812,0.643968403339386,-0.3568296730518341
1667267051881823500,0.395823486328125,9.892526626586914,0.6583253145217896,-0.3448655605316162
1667267051884221200,0.39822119140625,9.842277526855469,0.6391827464103699,-0.34725838899612427
1667267051886619000,0.400618896484375,9.798908233642578,0.6320042610168457,-0.34725838899612427
1667267051889016800,0.403016845703125,9.763015747070312,0.6224330067634583,-0.34725838899612427
1667267051891414500,0.40541455078125,9.734301567077637,0.6320042610168457,-0.3329014480113983
1667267051893812200,0.407812255859375,9.688838005065918,0.612861692905426,-0.3329014480113983
1667267051896210000,0.4102099609375,9.657731056213379,0.6176473498344421,-0.30658039450645447
1667267051898607600,0.412607666015625,9.6433744430542,0.6056832075119019,-0.32572299242019653
1667267051901005600,0.415005615234375,9.61226749420166,0.6056832075119019,-0.33768710494041443
1667267051903403300,0.4174033203125,9.559625625610352,0.6056832075119019,-0.30179476737976074
1667267051905801000,0.419801025390625,9.547661781311035,0.5985047817230225,-0.28504499793052673
1667267051908198700,0.42219873046875,9.535696983337402,0.6080760359764099,-0.2994019389152527
1667267051910596400,0.424596435546875,9.51894760131836,0.6032904386520386,-0.3089732229709625
1667267051912994300,0.426994384765625,9.509376525878906,0.6032904386520386,-0.30179476737976074
1667267051915392000,0.42939208984375,9.516554832458496,0.6200401782989502,-0.29700911045074463
1667267051917789700,0.431789794921875,9.51894760131836,0.6320042610168457,-0.28983065485954285
1667267051920187400,0.4341875,9.535696983337402,0.6415755748748779,-0.28504499793052673
1667267051922585000,0.436585205078125,9.540482521057129,0.6415755748748779,-0.2994019389152527
1667267051924982800,0.438982666015625,9.540482521057129,0.6296114325523376,-0.2994019389152527
1667267051927380700,0.441380615234375,9.547661781311035,0.6296114325523376,-0.3041875660419464
1667267051929778400,0.4437783203125,9.550054550170898,0.6487540602684021,-0.29700911045074463
1667267051932176100,0.446176025390625,9.569196701049805,0.6678966283798218,-0.3233301639556885
1667267051934573800,0.44857373046875,9.59791088104248,0.6655037999153137,-0.32572299242019653
1667267051936971500,0.450971435546875,9.655338287353516,0.6511468887329102,-0.33529427647590637
1667267051939369500,0.453369384765625,9.700801849365234,0.6559324860572815,-0.3041875660419464
1667267051941767200,0.45576708984375,9.75344467163086,0.6511468887329102,-0.2874378263950348
1667267051944164900,0.458164794921875,9.774979591369629,0.6726822853088379,-0.27038896083831787
1667267051946562600,0.4605625,9.782157897949219,0.6607181429862976,-0.26081767678260803
1667267051948960300,0.462960205078125,9.806086540222168,0.646361231803894,-0.24406790733337402
1667267051951358200,0.465358154296875,9.837491989135742,0.6224330067634583,-0.2512463629245758
1667267051953756000,0.467755859375,9.849455833435059,0.6032904386520386,-0.2560320198535919
1667267051956153600,0.470153564453125,9.863813400268555,0.5985047817230225,-0.23210379481315613
1667267051958551300,0.47255126953125,9.892526626586914,0.5913262963294983,-0.21774685382843018
1667267051960949000,0.474948974609375,9.916455268859863,0.5889334678649902,-0.20338992774486542
1667267051963346700,0.4773466796875,9.940383911132812,0.5434698462486267,-0.18424734473228455
1667267051965744600,0.47974462890625,9.937990188598633,0.5602195858955383,-0.20578274130821228
1667267051968142300,0.482142333984375,9.947562217712402,0.5673980712890625,-0.2392822653055191
1667267051970540000,0.4845400390625,9.926026344299316,0.5554339289665222,-0.23449662327766418
1667267051972937700,0.486937744140625,9.93559741973877,0.5482555031776428,-0.26081767678260803
1667267051975335700,0.489335693359375,9.940383911132812,0.5506483316421509,-0.3089732229709625
1667267051977733400,0.4917333984375,9.949954986572266,0.5626124143600464,-0.33768710494041443
1667267051980131000,0.494131103515625,9.964311599731445,0.5650052428245544,-0.3568296730518341
1667267051982528800,0.49652880859375,9.981060981750488,0.5673980712890625,-0.39511483907699585
1667267051984926500,0.498926513671875,10.002596855163574,0.5745765566825867,-0.45972105860710144
1667267051987324200,0.50132421875,10.016953468322754,0.5865406394004822,-0.48364928364753723
1667267051989722000,0.50372216796875,10.03848934173584,0.6032904386520386,-0.5099703073501587
1667267051992119800,0.506119873046875,10.081560134887695,0.5985047817230225,-0.5506483316421509
1667267051994517500,0.508517578125,10.103095054626465,0.610468864440918,-0.5865406394004822
1667267051996915200,0.510915283203125,10.098309516906738,0.6056832075119019,-0.6032904386520386
1667267051999313000,0.51331298828125,10.091131210327148,0.6008976101875305,-0.6032904386520386
1667267052001710600,0.515710693359375,10.067203521728516,0.6152545213699341,-0.6200401782989502
1667267052004108500,0.518108642578125,10.036096572875977,0.6152545213699341,-0.5985047817230225
1667267052006506200,0.52050634765625,9.983454704284668,0.5937191247940063,-0.6080760359764099
1667267052008904000,0.522904052734375,9.940383911132812,0.5817549824714661,-0.612861692905426
1667267052011301600,0.525301513671875,9.89970588684082,0.5745765566825867,-0.6248258352279663
1667267052013699300,0.52769921875,9.825528144836426,0.5841478109359741,-0.6535396575927734
1667267052016097300,0.53009716796875,9.75105094909668,0.5650052428245544,-0.6296114325523376
1667267052018495000,0.532494873046875,9.696016311645508,0.5841478109359741,-0.6726822853088379
1667267052020892700,0.534892578125,9.645767211914062,0.579362154006958,-0.6966105103492737
1667267052023290400,0.537290283203125,9.624231338500977,0.579362154006958,-0.7037889361381531
1667267052025688000,0.53968798828125,9.578767776489258,0.5913262963294983,-0.7253243923187256
1667267052028086000,0.5420859375,9.533304214477539,0.579362154006958,-0.7444669604301453
1667267052030483700,0.544483642578125,9.530911445617676,0.5769693851470947,-0.7468597888946533
1667267052032881400,0.54688134765625,9.51176929473877,0.5817549824714661,-0.7181459069252014
1667267052035279000,0.549279052734375,9.509376525878906,0.5865406394004822,-0.701396107673645
1667267052037676800,0.5516767578125,9.502198219299316,0.5913262963294983,-0.6822535395622253
1667267052040074500,0.554074462890625,9.506983757019043,0.6008976101875305,-0.6415755748748779
1667267052042472400,0.556472412109375,9.499805450439453,0.6200401782989502,-0.6056832075119019
1667267052044870100,0.5588701171875,9.502198219299316,0.6200401782989502,-0.5913262963294983
1667267052047267800,0.561267822265625,9.47348403930664,0.6152545213699341,-0.5673980712890625
1667267052049665500,0.56366552734375,9.463912963867188,0.6224330067634583,-0.5578267574310303
1667267052052063500,0.5660634765625,9.468698501586914,0.6248258352279663,-0.5506483316421509
1667267052054461200,0.568461181640625,9.46630573272705,0.6272186636924744,-0.5458626747131348
1667267052056859000,0.57085888671875,9.478269577026367,0.6248258352279663,-0.5697908997535706
1667267052059256600,0.573256591796875,9.48784065246582,0.6248258352279663,-0.5626124143600464
1667267052061654300,0.575654296875,9.499805450439453,0.6080760359764099,-0.5410770177841187
1667267052064052000,0.578052001953125,9.514162063598633,0.6152545213699341,-0.5195416212081909
1667267052066450000,0.580449951171875,9.521340370178223,0.6008976101875305,-0.5362913608551025
1667267052068847600,0.58284765625,9.550054550170898,0.579362154006958,-0.5626124143600464
1667267052071245300,0.585245361328125,9.566803932189941,0.5721837282180786,-0.5865406394004822
1667267052073643000,0.58764306640625,9.562018394470215,0.5697908997535706,-0.5841478109359741
1667267052076040700,0.590040771484375,9.554840087890625,0.5721837282180786,-0.5985047817230225
1667267052078438400,0.5924384765625,9.535696983337402,0.5578267574310303,-0.5961119532585144
1667267052080836400,0.59483642578125,9.52612590789795,0.5650052428245544,-0.5865406394004822
1667267052083234000,0.597234130859375,9.516554832458496,0.5721837282180786,-0.5745765566825867
1667267052085631700,0.5996318359375,9.485447883605957,0.5769693851470947,-0.5865406394004822
1667267052088029400,0.602029541015625,9.48066234588623,0.5961119532585144,-0.5626124143600464
1667267052090427400,0.604427490234375,9.478269577026367,0.6056832075119019,-0.5338985323905945
1667267052092825000,0.6068251953125,9.463912963867188,0.610468864440918,-0.5171487927436829
1667267052095222800,0.609222900390625,9.478269577026367,0.6176473498344421,-0.48364928364753723
1667267052097620500,0.611620361328125,9.521340370178223,0.6343970894813538,-0.4621138870716095
1667267052100018200,0.61401806640625,9.588339805603027,0.6559324860572815,-0.45972105860710144
1667267052102416000,0.616415771484375,9.696016311645508,0.6966105103492737,-0.4381856322288513
1667267052104813800,0.618813720703125,9.791728973388672,0.7109674215316772,-0.41904306411743164
1667267052107211500,0.62121142578125,9.892526626586914,0.7229315638542175,-0.39990049600601196
1667267052109609200,0.623609130859375,9.969097137451172,0.7444669604301453,-0.37836506962776184
1667267052112007000,0.6260068359375,10.055238723754883,0.768395185470581,-0.35922250151634216
1667267052114404600,0.628404541015625,10.148558616638184,0.7827520966529846,-0.3161516785621643
1667267052116802600,0.630802490234375,10.201201438903809,0.7827520966529846,-0.2826521694660187
1667267052119200300,0.6332001953125,10.239486694335938,0.797109067440033,-0.25363919138908386
1667267052121598000,0.635597900390625,10.272985458374023,0.7827520966529846,-0.22013968229293823
1667267052123995600,0.63799560546875,10.28734302520752,0.7899305820465088,-0.18424734473228455
1667267052126393300,0.640393310546875,10.292128562927246,0.8090731501579285,-0.16271193325519562
1667267052128791300,0.642791259765625,10.311270713806152,0.8090731501579285,-0.15074782073497772
1667267052131189000,0.64518896484375,10.29452133178711,0.8234301209449768,-0.10767702013254166
1667267052133586700,0.647586669921875,10.265807151794434,0.8306085467338562,-0.09810572862625122
1667267052135984400,0.649984375,10.251450538635254,0.8500502705574036,-0.08614161610603333
1667267052138382000,0.652382080078125,10.229914665222168,0.8476574420928955,-0.07657032459974289
1667267052140779800,0.65477978515625,10.213165283203125,0.8548358678817749,-0.06939185410737991
1667267052143177700,0.657177734375,10.217950820922852,0.8428717851638794,-0.05503492057323456
1667267052145575400,0.659575439453125,10.201201438903809,0.859621524810791,-0.09810572862625122
1667267052147973000,0.66197314453125,10.18445110321045,0.8428717851638794,-0.10289137065410614
1667267052150370800,0.664370849609375,10.167701721191406,0.8524430394172668,-0.13639089465141296
1667267052152768500,0.6667685546875,10.136594772338867,0.8282157182693481,-0.1579262912273407
1667267052155166500,0.66916650390625,10.103095054626465,0.8234301209449768,-0.19381862878799438
1667267052157564200,0.671564208984375,10.062417030334473,0.797109067440033,-0.23449662327766418
1667267052159961900,0.6739619140625,10.004989624023438,0.7899305820465088,-0.29700911045074463
1667267052162359600,0.676359619140625,9.92841911315918,0.7707880139350891,-0.3400799036026001
1667267052164757200,0.67875732421875,9.868598937988281,0.7516453862190247,-0.385543555021286
1667267052167155200,0.6811552734375,9.801301002502441,0.7205387353897095,-0.4405784606933594
1667267052169553000,0.683552978515625,9.803693771362305,0.7085745930671692,-0.4812564551830292
1667267052171950600,0.68595068359375,9.782157897949219,0.7277171611785889,-0.524327278137207
1667267052174348300,0.688348388671875,9.770194053649902,0.7157530784606934,-0.5721837282180786
1667267052176746000,0.69074609375,9.772586822509766,0.7085745930671692,-0.6176473498344421
1667267052179144000,0.69314404296875,9.796515464782715,0.7205387353897095,-0.6367899179458618
1667267052181541600,0.695541748046875,9.813264846801758,0.7157530784606934,-0.6583253145217896
1667267052183939300,0.697939208984375,9.861420631408691,0.6942176818847656,-0.675075113773346
1667267052186337000,0.7003369140625,9.875777244567871,0.6966105103492737,-0.6774678826332092
1667267052188734700,0.702734619140625,9.887741088867188,0.7061817646026611,-0.6655037999153137
1667267052191132400,0.70513232421875,9.894919395446777,0.701396107673645,-0.6535396575927734
1667267052193530400,0.7075302734375,9.923633575439453,0.6966105103492737,-0.6391827464103699
1667267052195928000,0.709927978515625,9.916455268859863,0.6918248534202576,-0.6056832075119019
1667267052198325800,0.71232568359375,9.909276962280273,0.6774678826332092,-0.5650052428245544
1667267052200723500,0.714723388671875,9.9140625,0.6726822853088379,-0.521934449672699
1667267052203121400,0.717121337890625,9.887741088867188,0.6894320249557495,-0.4956133961677551
1667267052205519000,0.71951904296875,9.863813400268555,0.675075113773346,-0.4668995141983032
1667267052207916800,0.721916748046875,9.835099220275879,0.6631109714508057,-0.4549354016780853
1667267052210314500,0.724314453125,9.837491989135742,0.6655037999153137,-0.4501497745513916
1667267052212712200,0.726712158203125,9.832706451416016,0.6487540602684021,-0.4334000051021576
1667267052215110000,0.72910986328125,9.823135375976562,0.6702894568443298,-0.39032918214797974
1667267052217507800,0.7315078125,9.810872077941895,0.6678966283798218,-0.38315072655677795
1667267052219905500,0.733905517578125,9.832706451416016,0.6942176818847656,-0.368793785572052
1667267052222303200,0.73630322265625,9.859027862548828,0.7277171611785889,-0.33050861954689026
1667267052224701000,0.738700927734375,9.892526626586914,0.7420741319656372,-0.31854450702667236
1667267052227098600,0.7410986328125,9.940383911132812,0.7588238716125488,-0.3209373354911804
1667267052229496300,0.743496337890625,9.952347755432129,0.768395185470581,-0.31375887989997864
1667267052231894300,0.745894287109375,9.971489906311035,0.7875377535820007,-0.3113660514354706
1667267052234292000,0.7482919921875,9.969097137451172,0.8042874932289124,-0.31375887989997864
1667267052236689700,0.750689697265625,9.92841911315918,0.7851449251174927,-0.30179476737976074
1667267052239087400,0.75308740234375,9.882955551147461,0.7731808423995972,-0.2922234535217285
1667267052241485300,0.7554853515625,9.830313682556152,0.7636095285415649,-0.2994019389152527
1667267052243883000,0.757883056640625,9.746265411376953,0.7444669604301453,-0.3496512174606323
1667267052246280700,0.76028076171875,9.660123825073242,0.7205387353897095,-0.385543555021286
1667267052248678400,0.762678466796875,9.566803932189941,0.6822535395622253,-0.41186460852622986
1667267052251076000,0.765076171875,9.48784065246582,0.675075113773346,-0.4453641176223755
1667267052253474000,0.76747412109375,9.416056632995605,0.6487540602684021,-0.4860421121120453
1667267052255871700,0.769871826171875,9.327521324157715,0.6367899179458618,-0.5027918815612793
1667267052258269400,0.77226953125,9.260522842407227,0.6367899179458618,-0.5386841893196106
1667267052260667100,0.774667236328125,9.212367057800293,0.6272186636924744,-0.5602195858955383
1667267052263064800,0.77706494140625,9.169296264648438,0.6152545213699341,-0.5745765566825867
1667267052265462500,0.779462646484375,9.140582084655762,0.6056832075119019,-0.5721837282180786
1667267052267860500,0.781860595703125,9.140582084655762,0.6080760359764099,-0.5626124143600464
1667267052270258200,0.784258056640625,9.138189315795898,0.5961119532585144,-0.5530411601066589
1667267052272656000,0.78665576171875,9.154939651489258,0.6056832075119019,-0.5458626747131348
1667267052275053600,0.789053466796875,9.169296264648438,0.612861692905426,-0.5267201066017151
1667267052277451500,0.791451416015625,9.186046600341797,0.6176473498344421,-0.5147559642791748
1667267052279849200,0.79384912109375,9.207581520080566,0.6200401782989502,-0.49322056770324707
1667267052282247000,0.796246826171875,9.236295700073242,0.6320042610168457,-0.4549354016780853
1667267052284644600,0.79864453125,9.279664993286133,0.6320042610168457,-0.4549354016780853
1667267052287042300,0.801042236328125,9.325128555297852,0.6343970894813538,-0.4381856322288513
1667267052289440000,0.80343994140625,9.382556915283203,0.6343970894813538,-0.4286143481731415
1667267052291838000,0.805837890625,9.430413246154785,0.6535396575927734,-0.4142574071884155
1667267052294235600,0.808235595703125,9.463912963867188,0.6702894568443298,-0.42382872104644775
1667267052296633300,0.81063330078125,9.50459098815918,0.6726822853088379,-0.4286143481731415
1667267052299031000,0.813031005859375,9.557232856750488,0.6798607110977173,-0.4381856322288513
1667267052301428700,0.8154287109375,9.59791088104248,0.6990033388137817,-0.4046861231327057
1667267052303826700,0.81782666015625,9.633803367614746,0.6774678826332092,-0.40707895159721375
1667267052306224400,0.820224365234375,9.696016311645508,0.7109674215316772,-0.41186460852622986
1667267052308622000,0.8226220703125,9.746265411376953,0.7085745930671692,-0.3975076675415039
1667267052311019800,0.825019775390625,9.806086540222168,0.6942176818847656,-0.385543555021286
1667267052313417500,0.82741748046875,9.839884757995605,0.701396107673645,-0.3807578980922699
1667267052315815400,0.8298154296875,9.878170013427734,0.7109674215316772,-0.35922250151634216
1667267052318213000,0.832213134765625,9.93559741973877,0.6966105103492737,-0.34725838899612427
1667267052320610800,0.83461083984375,9.964311599731445,0.6798607110977173,-0.32572299242019653
1667267052323008500,0.837008544921875,9.990633010864258,0.6846463680267334,-0.31854450702667236
1667267052325406200,0.83940625,10.0073823928833,0.6894320249557495,-0.3113660514354706
1667267052327804200,0.84180419921875,9.997811317443848,0.6702894568443298,-0.28504499793052673
1667267052330201900,0.844201904296875,9.969097137451172,0.6631109714508057,-0.27038896083831787
1667267052332599600,0.846599609375,9.918848037719727,0.6487540602684021,-0.28504499793052673
1667267052334997200,0.848997314453125,9.863813400268555,0.6415755748748779,-0.2946162819862366
1667267052337395000,0.85139501953125,9.832706451416016,0.6487540602684021,-0.30179476737976074
1667267052339793000,0.85379296875,9.8207426071167,0.6583253145217896,-0.33050861954689026
1667267052342190600,0.856190673828125,9.784550666809082,0.6511468887329102,-0.35443684458732605
1667267052344588300,0.85858837890625,9.746265411376953,0.6367899179458618,-0.3735794425010681
1667267052346986000,0.860986083984375,9.717552185058594,0.646361231803894,-0.3975076675415039
1667267052349383700,0.8633837890625,9.681659698486328,0.6224330067634583,-0.42382872104644775
1667267052351781400,0.865781494140625,9.655338287353516,0.6224330067634583,-0.44297128915786743
1667267052354179300,0.868179443359375,9.640981674194336,0.6152545213699341,-0.47647079825401306
1667267052356577000,0.870576904296875,9.640981674194336,0.6152545213699341,-0.48364928364753723
1667267052358974700,0.872974609375,9.660123825073242,0.612861692905426,-0.47647079825401306
1667267052361372400,0.875372314453125,9.688838005065918,0.6056832075119019,-0.4860421121120453
1667267052363770400,0.877770263671875,9.707980155944824,0.6056832075119019,-0.45972105860710144
1667267052366168000,0.88016796875,9.7366943359375,0.6032904386520386,-0.4549354016780853
1667267052368565800,0.882565673828125,9.806086540222168,0.610468864440918,-0.41904306411743164
1667267052370963500,0.88496337890625,9.904491424560547,0.6152545213699341,-0.368793785572052
1667267052373361200,0.887361083984375,10.012167930603027,0.6343970894813538,-0.33529427647590637
1667267052375758800,0.8897587890625,10.088738441467285,0.6511468887329102,-0.28983065485954285
1667267052378156800,0.89215673828125,10.115059852600098,0.6702894568443298,-0.24167509377002716
1667267052380554500,0.894554443359375,10.13180923461914,0.6702894568443298,-0.22971096634864807
1667267052382952200,0.8969521484375,10.167701721191406,0.6870391964912415,-0.20338992774486542
1667267052385350000,0.899349853515625,10.186843872070312,0.6846463680267334,-0.1579262912273407
1667267052387747600,0.90174755859375,10.201201438903809,0.7037889361381531,-0.1339980661869049
1667267052390145500,0.9041455078125,10.213165283203125,0.7205387353897095,-0.1052841991186142
1667267052392543200,0.906543212890625,10.2418794631958,0.734895646572113,-0.09810572862625122
1667267052394941000,0.90894091796875,10.253843307495117,0.7420741319656372,-0.11724831163883209
1667267052397338600,0.911338623046875,10.234700202941895,0.7492526173591614,-0.16271193325519562
1667267052399736300,0.913736328125,10.225129127502441,0.7420741319656372,-0.20578274130821228
1667267052402134300,0.91613427734375,10.205986976623535,0.7516453862190247,-0.24885354936122894
1667267052404532000,0.918531982421875,10.17009449005127,0.7540382146835327,-0.2946162819862366
1667267052406929700,0.9209296875,10.143773078918457,0.7468597888946533,-0.3281157910823822
1667267052409327400,0.923327392578125,10.110274314880371,0.7133602499961853,-0.37597227096557617
1667267052411725000,0.92572509765625,10.071989059448242,0.7109674215316772,-0.39032918214797974
1667267052414123000,0.928123046875,10.043274879455566,0.7061817646026611,-0.41186460852622986
1667267052416520700,0.930520751953125,10.004989624023438,0.6894320249557495,-0.4142574071884155
1667267052418918400,0.93291845703125,9.997811317443848,0.6822535395622253,-0.38793638348579407
1667267052421316000,0.935316162109375,9.978668212890625,0.6894320249557495,-0.37118661403656006
1667267052423713800,0.9377138671875,9.947562217712402,0.7061817646026611,-0.3640081584453583
1667267052426111700,0.94011181640625,9.902098655700684,0.7109674215316772,-0.3496512174606323
1667267052428509400,0.942509521484375,9.866206169128418,0.7301099896430969,-0.34247273206710815
1667267052430907100,0.9449072265625,9.825528144836426,0.7444669604301453,-0.3640081584453583
1667267052433304800,0.947304931640625,9.806086540222168,0.7468597888946533,-0.39990049600601196
1667267052435702500,0.94970263671875,9.779765129089355,0.7372884750366211,-0.42382872104644775
1667267052438100200,0.952100341796875,9.72951602935791,0.734895646572113,-0.4453641176223755
1667267052440498200,0.954498291015625,9.672088623046875,0.7468597888946533,-0.4812564551830292
1667267052442896000,0.956895751953125,9.655338287353516,0.7540382146835327,-0.5051847100257874
1667267052445293600,0.95929345703125,9.633803367614746,0.7707880139350891,-0.5147559642791748
1667267052447691300,0.961691162109375,9.705587387084961,0.7779664397239685,-0.5147559642791748
1667267052450089200,0.964089111328125,9.758230209350586,0.7827520966529846,-0.490827739238739
1667267052452487000,0.96648681640625,9.837491989135742,0.7851449251174927,-0.48843491077423096
1667267052454884600,0.968884521484375,9.892526626586914,0.7899305820465088,-0.5099703073501587
1667267052457282300,0.9712822265625,9.937990188598633,0.7707880139350891,-0.5123631358146667
1667267052459680000,0.973679931640625,9.971489906311035,0.7731808423995972,-0.521934449672699
1667267052462078000,0.976077880859375,10.012167930603027,0.766002357006073,-0.521934449672699
1667267052464475600,0.9784755859375,10.03131103515625,0.7516453862190247,-0.5195416212081909
1667267052466873300,0.980873291015625,10.043274879455566,0.7588238716125488,-0.5195416212081909
1667267052469271000,0.98327099609375,10.033703804016113,0.7396813035011292,-0.5338985323905945
1667267052471668700,0.985668701171875,10.016953468322754,0.7396813035011292,-0.5147559642791748
1667267052474066400,0.98806640625,9.995418548583984,0.7253243923187256,-0.5195416212081909
1667267052476464400,0.99046435546875,9.961918830871582,0.7133602499961853,-0.5338985323905945
1667267052478862000,0.992862060546875,9.93559741973877,0.7301099896430969,-0.5458626747131348
1667267052481259800,0.995259765625,9.89970588684082,0.7277171611785889,-0.5889334678649902
1667267052483657500,0.997657470703125,9.866206169128418,0.7229315638542175,-0.6032904386520386
1667267052486055400,1.000055419921875,9.856635093688965,0.6990033388137817,-0.6056832075119019
1667267052488453000,1.002453125,9.8207426071167,0.6846463680267334,-0.6176473498344421
1667267052490850800,1.004850830078125,9.796515464782715,0.6918248534202576,-0.6367899179458618
1667267052493248500,1.00724853515625,9.779765129089355,0.6966105103492737,-0.6535396575927734
1667267052495646200,1.009646240234375,9.74387264251709,0.6846463680267334,-0.6678966283798218
1667267052498044200,1.012044189453125,9.712766647338867,0.6702894568443298,-0.6774678826332092
1667267052500441900,1.01444189453125,9.707980155944824,0.6487540602684021,-0.675075113773346
1667267052502839600,1.016839599609375,9.72951602935791,0.6248258352279663,-0.6846463680267334
1667267052505237200,1.0192373046875,9.75105094909668,0.6152545213699341,-0.6702894568443298
1667267052507635000,1.021635009765625,9.779765129089355,0.610468864440918,-0.6607181429862976
1667267052510032600,1.02403271484375,9.827920913696289,0.612861692905426,-0.6367899179458618
1667267052512430600,1.0264306640625,9.825528144836426,0.6176473498344421,-0.6296114325523376
1667267052514828300,1.028828369140625,9.825528144836426,0.6272186636924744,-0.6224330067634583
1667267052517226000,1.03122607421875,9.808479309082031,0.6152545213699341,-0.6272186636924744
1667267052519623700,1.033623779296875,9.810872077941895,0.6248258352279663,-0.6272186636924744
1667267052522021400,1.036021484375,9.777372360229492,0.6224330067634583,-0.6367899179458618
1667267052524419300,1.03841943359375,9.763015747070312,0.6032904386520386,-0.6774678826332092
1667267052526817000,1.040817138671875,9.72951602935791,0.5841478109359741,-0.7109674215316772
1667267052529214700,1.043214599609375,9.672088623046875,0.5769693851470947,-0.7468597888946533
1667267052531612400,1.0456123046875,9.655338287353516,0.5817549824714661,-0.7731808423995972
1667267052534010400,1.04801025390625,9.595518112182617,0.5769693851470947,-0.8114659786224365
1667267052536408000,1.050407958984375,9.557232856750488,0.5721837282180786,-0.8452646136283875
1667267052538805800,1.0528056640625,9.521340370178223,0.5817549824714661,-0.8548358678817749
1667267052541203500,1.055203369140625,9.46630573272705,0.5817549824714661,-0.8811569213867188
1667267052543601200,1.05760107421875,9.425627708435059,0.5745765566825867,-0.9050851464271545
1667267052545999000,1.0599990234375,9.39452075958252,0.5745765566825867,-0.9290133714675903
1667267052548396800,1.062396728515625,9.37298583984375,0.5769693851470947,-0.9266205430030823
1667267052550794500,1.06479443359375,9.332307815551758,0.5865406394004822,-0.9218349456787109
1667267052553192200,1.067192138671875,9.27727222442627,0.5889334678649902,-0.9361918568611145
1667267052555590000,1.06958984375,9.260522842407227,0.5937191247940063,-0.9601200819015503
1667267052557987600,1.071987548828125,9.245866775512695,0.6032904386520386,-0.9481559991836548
1667267052560385500,1.074385498046875,9.245866775512695,0.5985047817230225,-0.9314061999320984
1667267052562783200,1.076783203125,9.241081237792969,0.6032904386520386,-0.9194421172142029
1667267052565181000,1.079180908203125,9.248259544372559,0.6200401782989502,-0.9122636318206787
1667267052567578600,1.08157861328125,9.267701148986816,0.6415755748748779,-0.8691928386688232
1667267052569976300,1.083976318359375,9.28445053100586,0.6487540602684021,-0.8306085467338562
1667267052572374300,1.086374267578125,9.313164710998535,0.6415755748748779,-0.8138588070869446
1667267052574772000,1.08877197265625,9.341878890991211,0.6320042610168457,-0.7827520966529846
1667267052577169700,1.091169677734375,9.368199348449707,0.6535396575927734,-0.768395185470581
1667267052579567400,1.0935673828125,9.406484603881836,0.6655037999153137,-0.7564310431480408
1667267052581965300,1.09596533203125,9.437591552734375,0.6774678826332092,-0.732502818107605
1667267052584363000,1.098363037109375,9.490233421325684,0.6655037999153137,-0.7229315638542175
1667267052586760700,1.1007607421875,9.545269012451172,0.6726822853088379,-0.6918248534202576
1667267052589158400,1.103158447265625,9.614660263061523,0.6870391964912415,-0.6702894568443298
1667267052591556000,1.10555615234375,9.686445236206055,0.6990033388137817,-0.6343970894813538
1667267052593953800,1.107953857421875,9.739087104797363,0.7229315638542175,-0.6224330067634583
1667267052596351700,1.110351806640625,9.789336204528809,0.7444669604301453,-0.6296114325523376
1667267052598749400,1.11274951171875,9.835099220275879,0.7516453862190247,-0.6272186636924744
1667267052601147100,1.115147216796875,9.875777244567871,0.7540382146835327,-0.6296114325523376
1667267052603544800,1.117544921875,9.885348320007324,0.7851449251174927,-0.6391827464103699
1667267052605942500,1.119942626953125,9.897313117980957,0.7947162389755249,-0.6702894568443298
1667267052608340500,1.122340576171875,9.897313117980957,0.8114659786224365,-0.701396107673645
1667267052610738200,1.12473828125,9.880562782287598,0.8090731501579285,-0.7253243923187256
1667267052613136000,1.127135986328125,9.859027862548828,0.7899305820465088,-0.7468597888946533
1667267052615533600,1.129533447265625,9.823135375976562,0.7827520966529846,-0.7468597888946533
1667267052617931500,1.131931640625,9.786943435668945,0.7851449251174927,-0.7229315638542175
1667267052620329200,1.1343291015625,9.741479873657227,0.7827520966529846,-0.7061817646026611
1667267052622727000,1.136726806640625,9.679266929626465,0.7899305820465088,-0.6966105103492737
1667267052625124600,1.13912451171875,9.62901782989502,0.797109067440033,-0.7181459069252014
1667267052627522300,1.141522216796875,9.578767776489258,0.7851449251174927,-0.6774678826332092
1667267052629920000,1.143919921875,9.535696983337402,0.7947162389755249,-0.6631109714508057
1667267052632318000,1.14631787109375,9.502198219299316,0.797109067440033,-0.6631109714508057
1667267052634715600,1.148715576171875,9.459127426147461,0.7899305820465088,-0.6798607110977173
1667267052637113300,1.15111328125,9.432806015014648,0.7995018362998962,-0.6846463680267334
1667267052639511000,1.153510986328125,9.406484603881836,0.8162516355514526,-0.701396107673645
1667267052641908700,1.15590869140625,9.368199348449707,0.8258228898048401,-0.734895646572113
1667267052644306700,1.158306640625,9.35623550415039,0.8306085467338562,-0.7444669604301453
1667267052646704400,1.160704345703125,9.346664428710938,0.8452646136283875,-0.7540382146835327
1667267052649102000,1.16310205078125,9.35623550415039,0.8668000102043152,-0.7516453862190247
1667267052651499800,1.165499755859375,9.37059211730957,0.8691928386688232,-0.7301099896430969
1667267052653897500,1.1678974609375,9.423234939575195,0.8811569213867188,-0.7109674215316772
1667267052656295400,1.17029541015625,9.46630573272705,0.8835497498512268,-0.6798607110977173
1667267052658693000,1.172693115234375,9.506983757019043,0.9002995491027832,-0.646361231803894
1667267052661090800,1.1750908203125,9.523733139038086,0.9290133714675903,-0.6152545213699341
1667267052663488500,1.177488525390625,9.540482521057129,0.9457631707191467,-0.5769693851470947
1667267052665886500,1.179886474609375,9.554840087890625,0.9385846853256226,-0.5434698462486267
1667267052668284200,1.1822841796875,9.573982238769531,0.9457631707191467,-0.5410770177841187
1667267052670681900,1.184681884765625,9.585947036743164,0.9457631707191467,-0.5434698462486267
1667267052673079600,1.18707958984375,9.595518112182617,0.9625129103660583,-0.5434698462486267
1667267052675477200,1.189477294921875,9.62901782989502,0.9720842242240906,-0.579362154006958
1667267052677875000,1.191875,9.667302131652832,0.9720842242240906,-0.5985047817230225
1667267052680273000,1.19427294921875,9.703194618225098,0.97926265001297,-0.6296114325523376
1667267052682670600,1.196670654296875,9.755837440490723,1.0031908750534058,-0.6391827464103699
1667267052685068300,1.199068359375,9.823135375976562,1.0007981061935425,-0.643968403339386
1667267052687466000,1.201466064453125,9.911669731140137,1.017547845840454,-0.6320042610168457
1667267052689863700,1.20386376953125,9.993025779724121,1.036690354347229,-0.6272186636924744
1667267052692261600,1.20626171875,10.086345672607422,1.0271191596984863,-0.6176473498344421
1667267052694659300,1.208659423828125,10.158130645751953,1.0295119285583496,-0.5745765566825867
1667267052697057000,1.21105712890625,10.222736358642578,1.017547845840454,-0.5315057039260864
1667267052699454700,1.213454833984375,10.25623607635498,1.0103694200515747,-0.5099703073501587
1667267052701852400,1.215852294921875,10.289735794067383,0.9864411354064941,-0.48843491077423096
1667267052704250400,1.21825048828125,10.328021049499512,0.97926265001297,-0.44775694608688354
1667267052706648000,1.22064794921875,10.354341506958008,0.9553344249725342,-0.4501497745513916
1667267052709045800,1.223045654296875,10.392926216125488,0.9361918568611145,-0.41186460852622986
1667267052711443500,1.225443359375,10.409675598144531,0.9385846853256226,-0.41186460852622986
1667267052713841400,1.22784130859375,10.443175315856934,0.9337990283966064,-0.37597227096557617
1667267052716239000,1.230239013671875,10.47188949584961,0.9266205430030823,-0.3400799036026001
1667267052718636800,1.23263671875,10.505388259887695,0.9266205430030823,-0.30179476737976074
1667267052721034500,1.235034423828125,10.529316902160645,0.9314061999320984,-0.2727817893028259
1667267052723432200,1.23743212890625,10.500602722167969,0.9505487680435181,-0.24167509377002716
1667267052725830000,1.239829833984375,10.445568084716797,0.9146564602851868,-0.26081767678260803
1667267052728227800,1.242227783203125,10.356734275817871,0.9002995491027832,-0.26560330390930176
1667267052730625500,1.24462548828125,10.282557487487793,0.893121063709259,-0.2727817893028259
1667267052733023200,1.247023193359375,10.148558616638184,0.8739784955978394,-0.29700911045074463
1667267052735421000,1.2494208984375,10.028918266296387,0.859621524810791,-0.33050861954689026
1667267052737818600,1.251818603515625,9.882955551147461,0.8500502705574036,-0.35443684458732605
1667267052740216600,1.254216552734375,9.765408515930176,0.8353942036628723,-0.39511483907699585
1667267052742614300,1.2566142578125,9.650552749633789,0.8138588070869446,-0.47647079825401306
1667267052745012000,1.259011962890625,9.528518676757812,0.7947162389755249,-0.5458626747131348
1667267052747409700,1.26140966796875,9.418449401855469,0.7851449251174927,-0.610468864440918
1667267052749807400,1.263807373046875,9.332307815551758,0.7468597888946533,-0.6702894568443298
1667267052752205300,1.266205322265625,9.257830619812012,0.7205387353897095,-0.7061817646026611
1667267052754603000,1.26860302734375,9.21715259552002,0.7037889361381531,-0.7516453862190247
1667267052757000700,1.271000732421875,9.19561767578125,0.6822535395622253,-0.7755736112594604
1667267052759398400,1.2733984375,9.166903495788574,0.6607181429862976,-0.8114659786224365
1667267052761796400,1.27579638671875,9.116654396057129,0.6702894568443298,-0.8306085467338562
1667267052764194000,1.278194091796875,9.090332984924316,0.6678966283798218,-0.8548358678817749
1667267052766591700,1.280591796875,9.107083320617676,0.6726822853088379,-0.8691928386688232
1667267052768989400,1.282989501953125,9.154939651489258,0.6678966283798218,-0.8715856671333313
1667267052771387100,1.28538720703125,9.257830619812012,0.6655037999153137,-0.8644071817398071
1667267052773784800,1.287784912109375,9.35623550415039,0.6702894568443298,-0.8476574420928955
1667267052776182800,1.290182861328125,9.418449401855469,0.6822535395622253,-0.8500502705574036
1667267052778580500,1.29258056640625,9.454340934753418,0.701396107673645,-0.8210372924804688
1667267052780978200,1.294978271484375,9.49501895904541,0.6894320249557495,-0.8066803216934204
1667267052783376000,1.2973759765625,9.585947036743164,0.6822535395622253,-0.7851449251174927
1667267052785773600,1.299773681640625,9.698409080505371,0.6631109714508057,-0.7612167000770569
1667267052788171500,1.302171630859375,9.813264846801758,0.6583253145217896,-0.7468597888946533
1667267052790569200,1.3045693359375,9.909276962280273,0.6702894568443298,-0.7444669604301453
1667267052792967000,1.306966796875,9.969097137451172,0.6583253145217896,-0.7516453862190247
1667267052795364600,1.309364501953125,10.0073823928833,0.6535396575927734,-0.7396813035011292
1667267052797762600,1.311762451171875,10.036096572875977,0.675075113773346,-0.7277171611785889
1667267052800160300,1.31416015625,10.064809799194336,0.6774678826332092,-0.7492526173591614
1667267052802558000,1.316557861328125,10.076774597167969,0.6774678826332092,-0.768395185470581
1667267052804955600,1.31895556640625,10.086345672607422,0.6678966283798218,-0.7779664397239685
1667267052807353300,1.321353271484375,10.064809799194336,0.6822535395622253,-0.8186444640159607
1667267052809751300,1.323751220703125,10.019346237182617,0.6894320249557495,-0.8739784955978394
1667267052812149000,1.32614892578125,9.973882675170898,0.6798607110977173,-0.9409775137901306
1667267052814546700,1.328546630859375,9.926026344299316,0.6870391964912415,-0.9840483069419861
1667267052816944400,1.3309443359375,9.868598937988281,0.6894320249557495,-1.0007981061935425
1667267052819342000,1.333342041015625,9.823135375976562,0.6990033388137817,-1.0271191596984863
1667267052821739800,1.33573974609375,9.770194053649902,0.7037889361381531,-1.043868899345398
1667267052824137700,1.3381376953125,9.731908798217773,0.7205387353897095,-1.0390832424163818
1667267052826535400,1.340535400390625,9.676874160766602,0.7181459069252014,-1.0510473251342773
1667267052828933000,1.34293310546875,9.621838569641113,0.7229315638542175,-1.0414760112762451
1667267052831330800,1.345330810546875,9.576375007629395,0.7492526173591614,-1.0462616682052612
1667267052833728500,1.347728515625,9.533304214477539,0.7396813035011292,-1.0390832424163818
1667267052836126500,1.35012646484375,9.506983757019043,0.732502818107605,-1.036690354347229
1667267052838524200,1.352524169921875,9.516554832458496,0.7444669604301453,-1.0295119285583496
1667267052840921900,1.354921875,9.545269012451172,0.7420741319656372,-1.0103694200515747
1667267052843319600,1.357319580078125,9.59073257446289,0.7396813035011292,-0.9864411354064941
1667267052845717500,1.359717529296875,9.62901782989502,0.734895646572113,-0.9529415965080261
1667267052848115200,1.362115234375,9.667302131652832,0.7157530784606934,-0.9337990283966064
1667267052850513000,1.364512939453125,9.688838005065918,0.7133602499961853,-0.9266205430030823
1667267052852910600,1.36691064453125,9.686445236206055,0.6822535395622253,-0.9433703422546387
1667267052855308300,1.369308349609375,9.688838005065918,0.6655037999153137,-0.9553344249725342
1667267052857706200,1.371706298828125,9.688838005065918,0.6583253145217896,-0.9744769930839539
1667267052860104000,1.37410400390625,9.660123825073242,0.6415755748748779,-0.9840483069419861
1667267052862501600,1.376501708984375,9.650552749633789,0.646361231803894,-1.0055837631225586
1667267052864899300,1.3788994140625,9.62901782989502,0.646361231803894,-1.0319048166275024
1667267052867297000,1.381297119140625,9.624231338500977,0.6272186636924744,-1.0247262716293335
1667267052869694700,1.38369482421875,9.600303649902344,0.6367899179458618,-1.0390832424163818
1667267052872092700,1.3860927734375,9.583553314208984,0.6391827464103699,-1.048654556274414
1667267052874490400,1.388490478515625,9.569196701049805,0.6535396575927734,-1.0606186389923096
1667267052876888000,1.39088818359375,9.554840087890625,0.6535396575927734,-1.079761266708374
1667267052879285800,1.39328564453125,9.523733139038086,0.6607181429862976,-1.079761266708374
1667267052881683500,1.395683349609375,9.502198219299316,0.6678966283798218,-1.0821540355682373
1667267052884081400,1.398081298828125,9.502198219299316,0.6511468887329102,-1.079761266708374
1667267052886479000,1.40047900390625,9.478269577026367,0.6487540602684021,-1.0773683786392212
1667267052888876800,1.402876708984375,9.449555397033691,0.6535396575927734,-1.0941181182861328
1667267052891274500,1.4052744140625,9.396913528442383,0.6535396575927734,-1.1204391717910767
1667267052893672400,1.40767236328125,9.346664428710938,0.6487540602684021,-1.1371889114379883
1667267052896070100,1.410070068359375,9.303593635559082,0.6631109714508057,-1.1874382495880127
1667267052898467800,1.4124677734375,9.267701148986816,0.6918248534202576,-1.1994023323059082
1667267052900865500,1.414865478515625,9.238688468933105,0.6990033388137817,-1.220937728881836
1667267052903263200,1.41726318359375,9.226723670959473,0.7229315638542175,-1.2783654928207397
1667267052905661200,1.4196611328125,9.207581520080566,0.734895646572113,-1.3405789136886597
1667267052908059000,1.422058837890625,9.20279598236084,0.7707880139350891,-1.3764712810516357
1667267052910456600,1.42445654296875,9.226723670959473,0.797109067440033,-1.407876968383789
1667267052912854300,1.426854248046875,9.245866775512695,0.8090731501579285,-1.415055513381958
1667267052915252000,1.429251953125,9.253045082092285,0.8162516355514526,-1.407876968383789
1667267052917650000,1.43164990234375,9.27727222442627,0.8042874932289124,-1.3716856241226196
1667267052920047600,1.434047607421875,9.27727222442627,0.7851449251174927,-1.3453645706176758
1667267052922445300,1.4364453125,9.272486686706543,0.7707880139350891,-1.323829174041748
1667267052924843000,1.438843017578125,9.291629791259766,0.7779664397239685,-1.2759727239608765
1667267052927240700,1.44124072265625,9.317950248718262,0.7612167000770569,-1.2424731254577637
1667267052929638700,1.443638671875,9.361021041870117,0.734895646572113,-1.225723385810852
1667267052932036400,1.446036376953125,9.399306297302246,0.7037889361381531,-1.197009563446045
1667267052934434000,1.44843408203125,9.439984321594238,0.6798607110977173,-1.1515458822250366
1667267052936831700,1.450831787109375,9.471091270446777,0.6583253145217896,-1.1419745683670044
1667267052939229400,1.4532294921875,9.506983757019043,0.6391827464103699,-1.1204391717910767
1667267052941627400,1.45562744140625,9.535696983337402,0.646361231803894,-1.1252248287200928
1667267052944025000,1.458025146484375,9.538089752197266,0.6343970894813538,-1.098903775215149
1667267052946422800,1.4604228515625,9.538089752197266,0.610468864440918,-1.098903775215149
1667267052948820500,1.462820556640625,9.528518676757812,0.6152545213699341,-1.0845468044281006
1667267052951218200,1.46521826171875,9.506983757019043,0.6296114325523376,-1.079761266708374
1667267052953616100,1.4676162109375,9.499805450439453,0.6224330067634583,-1.0893324613571167
1667267052956013800,1.470013916015625,9.47348403930664,0.6248258352279663,-1.098903775215149
1667267052958411500,1.47241162109375,9.463912963867188,0.6152545213699341,-1.1060823202133179
1667267052960809200,1.474809326171875,9.461520195007324,0.6343970894813538,-1.1395817995071411
1667267052963207000,1.47720703125,9.461520195007324,0.6320042610168457,-1.201795220375061
1667267052965604900,1.47960498046875,9.442377090454102,0.6559324860572815,-1.2400803565979004
1667267052968002600,1.48200244140625,9.442377090454102,0.6655037999153137,-1.2472587823867798
1667267052970400300,1.484400146484375,9.463912963867188,0.675075113773346,-1.256830096244812
1667267052972798000,1.4867978515625,9.485447883605957,0.6774678826332092,-1.2855439186096191
1667267052975195600,1.489195556640625,9.475876808166504,0.6822535395622253,-1.280758261680603
1667267052977593600,1.491593505859375,9.483055114746094,0.6990033388137817,-1.2711870670318604
1667267052979991300,1.4939912109375,9.50459098815918,0.7061817646026611,-1.2448660135269165
1667267052982389000,1.496388916015625,9.528518676757812,0.7229315638542175,-1.197009563446045
1667267052984786700,1.49878662109375,9.569196701049805,0.7396813035011292,-1.134796142578125
1667267052987184600,1.5011845703125,9.59791088104248,0.7301099896430969,-1.0654042959213257
1667267052989582300,1.503582275390625,9.609874725341797,0.7492526173591614,-1.0079765319824219
1667267052991980000,1.50597998046875,9.595518112182617,0.7492526173591614,-0.9385846853256226
1667267052994377700,1.508377685546875,9.571589469909668,0.7588238716125488,-0.9002995491027832
1667267052996775400,1.510775390625,9.552447319030762,0.7468597888946533,-0.8811569213867188
1667267052999173000,1.513173095703125,9.51176929473877,0.7492526173591614,-0.857228696346283
1667267053001571000,1.515571044921875,9.468698501586914,0.7420741319656372,-0.8210372924804688
1667267053003968800,1.51796875,9.416056632995605,0.7133602499961853,-0.8018946647644043
1667267053006366500,1.520366455078125,9.353842735290527,0.7037889361381531,-0.7923234105110168
1667267053008764200,1.52276416015625,9.28445053100586,0.7277171611785889,-0.7612167000770569
1667267053011161900,1.525161865234375,9.229117393493652,0.7037889361381531,-0.7540382146835327
1667267053013559800,1.527559814453125,9.159725189208984,0.6870391964912415,-0.7444669604301453
1667267053015957500,1.52995751953125,9.119047164916992,0.6798607110977173,-0.7636095285415649
1667267053018355200,1.532355224609375,9.097511291503906,0.6631109714508057,-0.7827520966529846
1667267053020753000,1.5347529296875,9.075976371765137,0.6607181429862976,-0.7755736112594604
1667267053023150600,1.537150634765625,9.044869422912598,0.6798607110977173,-0.7947162389755249
1667267053025548500,1.539548583984375,9.059226989746094,0.6894320249557495,-0.8210372924804688
1667267053027946200,1.5419462890625,9.080761909484863,0.6678966283798218,-0.8548358678817749
1667267053030344000,1.544343994140625,9.075976371765137,0.6559324860572815,-0.9002995491027832
1667267053032741600,1.54674169921875,9.075976371765137,0.646361231803894,-0.9481559991836548
1667267053035139600,1.5491396484375,9.080761909484863,0.6391827464103699,-0.9840483069419861
1667267053037537300,1.551537353515625,9.095118522644043,0.6272186636924744,-1.043868899345398
1667267053039935000,1.55393505859375,9.126225471496582,0.6224330067634583,-1.048654556274414
1667267053042332700,1.556332763671875,9.135796546936035,0.6320042610168457,-1.0869396924972534
1667267053044730400,1.55873046875,9.17886734008789,0.646361231803894,-1.1443674564361572
1667267053047128300,1.56112841796875,9.205188751220703,0.6272186636924744,-1.197009563446045
1667267053049526000,1.563526123046875,9.282057762145996,0.6200401782989502,-1.2185449600219727
1667267053051923700,1.565923828125,9.36341381072998,0.6224330067634583,-1.2496516704559326
1667267053054321400,1.5683212890625,9.475876808166504,0.612861692905426,-1.292722463607788
1667267053056719000,1.570718994140625,9.581160545349121,0.5841478109359741,-1.316650629043579
1667267053059116800,1.57311669921875,9.679266929626465,0.579362154006958,-1.350150227546692
1667267053061514800,1.5755146484375,9.772586822509766,0.5913262963294983,-1.3621143102645874
1667267053063912400,1.577912353515625,9.851848602294922,0.5841478109359741,-1.3573286533355713
1667267053066310100,1.58031005859375,9.894919395446777,0.5865406394004822,-1.342971682548523
1667267053068707800,1.582707763671875,9.949954986572266,0.5841478109359741,-1.3334003686904907
1667267053071105500,1.58510546875,9.993025779724121,0.610468864440918,-1.319043517112732
1667267053073503500,1.58750341796875,10.033703804016113,0.6511468887329102,-1.2640085220336914
1667267053075901200,1.589901123046875,10.076774597167969,0.6655037999153137,-1.2089736461639404
1667267053078299000,1.592298828125,10.098309516906738,0.6966105103492737,-1.1276177167892456
1667267053080696600,1.594696533203125,10.117452621459961,0.7061817646026611,-1.0558329820632935
1667267053083094500,1.597094482421875,10.119845390319824,0.7492526173591614,-1.012762188911438
1667267053085492200,1.5994921875,10.093523979187012,0.7755736112594604,-0.9505487680435181
1667267053087890000,1.601889892578125,10.067203521728516,0.7947162389755249,-0.9002995491027832
1667267053090287600,1.60428759765625,10.03848934173584,0.7923234105110168,-0.8524430394172668
1667267053092685300,1.606685302734375,10.02173900604248,0.7779664397239685,-0.8258228898048401
1667267053095083300,1.609083251953125,10.0073823928833,0.7707880139350891,-0.8138588070869446
1667267053097481000,1.61148095703125,10.000204086303711,0.7492526173591614,-0.7947162389755249
1667267053099878700,1.613878662109375,9.990633010864258,0.7396813035011292,-0.7947162389755249
1667267053102276400,1.6162763671875,9.978668212890625,0.7420741319656372,-0.7995018362998962
1667267053104674000,1.618674072265625,9.969097137451172,0.7229315638542175,-0.8282157182693481
1667267053107071700,1.62107177734375,9.945169448852539,0.7037889361381531,-0.8524430394172668
1667267053109469700,1.6234697265625,9.92841911315918,0.6870391964912415,-0.8955138921737671
1667267053111867400,1.625867431640625,9.9140625,0.6870391964912415,-0.9433703422546387
1667267053114265000,1.62826513671875,9.90688419342041,0.6870391964912415,-0.9744769930839539
1667267053116662800,1.630662841796875,9.897313117980957,0.6798607110977173,-1.0223335027694702
1667267053119060700,1.633060791015625,9.887741088867188,0.6774678826332092,-1.0654042959213257
1667267053121458400,1.63545849609375,9.873384475708008,0.6918248534202576,-1.0965110063552856
1667267053123856100,1.637856201171875,9.870991706848145,0.7085745930671692,-1.1300104856491089
1667267053126253800,1.64025390625,9.875777244567871,0.7229315638542175,-1.1515458822250366
1667267053128651500,1.642651611328125,9.885348320007324,0.7444669604301453,-1.2137593030929565
1667267053131049500,1.645049560546875,9.90688419342041,0.7396813035011292,-1.2329018115997314
1667267053133447200,1.647447265625,9.902098655700684,0.7396813035011292,-1.2544373273849487
1667267053135844900,1.649844970703125,9.9140625,0.7540382146835327,-1.2903295755386353
1667267053138242600,1.65224267578125,9.92841911315918,0.7707880139350891,-1.319043517112732
1667267053140640300,1.65464013671875,9.969097137451172,0.7612167000770569,-1.3381860256195068
1667267053143038200,1.6570380859375,10.028918266296387,0.7779664397239685,-1.3549357652664185
1667267053145436000,1.659435791015625,10.079167366027832,0.7731808423995972,-1.4174482822418213
1667267053147833600,1.66183349609375,10.127023696899414,0.7899305820465088,-1.4126626253128052
1667267053150231300,1.664231201171875,10.174880027770996,0.7851449251174927,-1.4054841995239258
1667267053152629000,1.66662890625,10.201201438903809,0.7947162389755249,-1.3716856241226196
1667267053155027000,1.66902685546875,10.210772514343262,0.8258228898048401,-1.3334003686904907
1667267053157424600,1.671424560546875,10.191629409790039,0.8377870321273804,-1.3094722032546997
1667267053159822300,1.673822265625,10.205986976623535,0.8306085467338562,-1.2640085220336914
1667267053162220000,1.676219970703125,10.210772514343262,0.8210372924804688,-1.2161520719528198
1667267053164617700,1.67861767578125,10.196415901184082,0.8042874932289124,-1.1754741668701172
1667267053167015700,1.681015625,10.16291618347168,0.7899305820465088,-1.1060823202133179
1667267053169413400,1.683413330078125,10.122238159179688,0.768395185470581,-1.048654556274414
1667267053171811000,1.68581103515625,10.06002426147461,0.7372884750366211,-1.0103694200515747
1667267053174208800,1.688208740234375,9.997811317443848,0.6894320249557495,-0.97926265001297
1667267053176606500,1.6906064453125,9.930811882019043,0.6607181429862976,-0.9505487680435181
1667267053179004400,1.69300439453125,9.851848602294922,0.6296114325523376,-0.9433703422546387
1667267053181402000,1.695402099609375,9.770194053649902,0.6152545213699341,-0.9361918568611145
1667267053183799800,1.6977998046875,9.698409080505371,0.6248258352279663,-0.9409775137901306
1667267053186197500,1.700197509765625,9.633803367614746,0.6320042610168457,-0.9577272534370422
1667267053188595200,1.70259521484375,9.578767776489258,0.646361231803894,-0.9840483069419861
1667267053190993200,1.7049931640625,9.50459098815918,0.6702894568443298,-1.0247262716293335
1667267053193390800,1.707390869140625,9.456734657287598,0.6966105103492737,-1.074975609779358
1667267053195788500,1.70978857421875,9.432806015014648,0.7253243923187256,-1.1060823202133179
1667267053198186200,1.712186279296875,9.396913528442383,0.734895646572113,-1.1539387702941895
1667267053200584000,1.714583984375,9.444769859313965,0.7372884750366211,-1.1802598237991333
1667267053202982000,1.71698193359375,9.499805450439453,0.7468597888946533,-1.201795220375061
1667267053205379600,1.719379638671875,9.547661781311035,0.7516453862190247,-1.2113664150238037
1667267053207777300,1.72177734375,9.585947036743164,0.7372884750366211,-1.2137593030929565
1667267053210175000,1.724175048828125,9.624231338500977,0.7157530784606934,-1.220937728881836
1667267053212572700,1.72657275390625,9.657731056213379,0.7037889361381531,-1.2329018115997314
1667267053214970600,1.728970703125,9.698409080505371,0.6870391964912415,-1.2137593030929565
1667267053217368300,1.731368408203125,9.7366943359375,0.6966105103492737,-1.2329018115997314
1667267053219766000,1.73376611328125,9.770194053649902,0.6918248534202576,-1.2759727239608765
1667267053222163700,1.736163818359375,9.794121742248535,0.6726822853088379,-1.3022937774658203
1667267053224561400,1.7385615234375,9.798908233642578,0.6559324860572815,-1.3597214221954346
1667267053226959400,1.74095947265625,9.770194053649902,0.6320042610168457,-1.3932210206985474
1667267053229357000,1.743357177734375,9.772586822509766,0.6224330067634583,-1.410269856452942
1667267053231754800,1.745754638671875,9.765408515930176,0.5937191247940063,-1.4126626253128052
1667267053234152400,1.74815234375,9.705587387084961,0.5626124143600464,-1.4174482822418213
1667267053236550100,1.750550048828125,9.650552749633789,0.5410770177841187,-1.3573286533355713
1667267053238948000,1.752947998046875,9.609874725341797,0.5075774788856506,-1.323829174041748
1667267053241345800,1.755345703125,9.557232856750488,0.45972105860710144,-1.2735798358917236
1667267053243743500,1.757743408203125,9.502198219299316,0.4262215197086334,-1.2161520719528198
1667267053246141200,1.76014111328125,9.451948165893555,0.3975076675415039,-1.1467602252960205
1667267053248539000,1.762538818359375,9.413662910461426,0.35922250151634216,-1.0965110063552856
1667267053250936800,1.764936767578125,9.382556915283203,0.33768710494041443,-1.074975609779358
1667267053253334500,1.76733447265625,9.37059211730957,0.3041875660419464,-1.0582258701324463
1667267053255732200,1.769732177734375,9.368199348449707,0.2826521694660187,-1.043868899345398
1667267053258130000,1.7721298828125,9.375378608703613,0.2584248483181,-1.079761266708374
1667267053260527900,1.77452783203125,9.396913528442383,0.24646073579788208,-1.1084750890731812
1667267053262925600,1.776925537109375,9.416056632995605,0.2679961323738098,-1.1491531133651733
1667267053265323300,1.7793232421875,9.425627708435059,0.2799602448940277,-1.201795220375061
1667267053267721000,1.781720947265625,9.432806015014648,0.29700911045074463,-1.256830096244812
1667267053270118700,1.78411865234375,9.442377090454102,0.33529427647590637,-1.292722463607788
1667267053272516400,1.786516357421875,9.432806015014648,0.37597227096557617,-1.2951152324676514
1667267053274914300,1.788914306640625,9.404091835021973,0.4094717800617218,-1.2975081205368042
1667267053277312000,1.79131201171875,9.344271659851074,0.4405784606933594,-1.2903295755386353
1667267053279709700,1.793709716796875,9.27727222442627,0.44775694608688354,-1.2664014101028442
1667267053282107400,1.796107421875,9.205188751220703,0.4860421121120453,-1.2496516704559326
1667267053284505000,1.798505126953125,9.109476089477539,0.5147559642791748,-1.1994023323059082
1667267053286903000,1.800903076171875,9.016156196594238,0.5315057039260864,-1.1539387702941895
1667267053289300700,1.80330078125,8.944371223449707,0.5315057039260864,-1.1491531133651733
1667267053291698400,1.805698486328125,8.858229637145996,0.5195416212081909,-1.1252248287200928
1667267053294096100,1.80809619140625,8.760123252868652,0.5650052428245544,-1.0390832424163818
1667267053296493800,1.810493896484375,8.673683166503906,0.6631109714508057,-0.9122636318206787
1667267053298891800,1.812891845703125,8.609076499938965,0.7253243923187256,-0.7827520966529846
1667267053301289500,1.81528955078125,8.582756042480469,0.8042874932289124,-0.6966105103492737
1667267053303687200,1.817687255859375,8.594719886779785,0.893121063709259,-0.610468864440918
1667267053306084900,1.8200849609375,8.707481384277344,0.9122636318206787,-0.646361231803894
1667267053308482800,1.82248291015625,8.827122688293457,0.9050851464271545,-0.7420741319656372
1667267053310880500,1.824880615234375,8.910871505737305,0.9505487680435181,-0.7995018362998962
1667267053313278200,1.8272783203125,9.006584167480469,0.9768698215484619,-0.8524430394172668
1667267053315676000,1.829676025390625,9.18843936920166,0.9672985672950745,-0.9361918568611145
1667267053318073600,1.832073486328125,9.37298583984375,0.9433703422546387,-1.0055837631225586
1667267053320471600,1.834471435546875,9.593125343322754,0.8883354067802429,-1.0917253494262695
1667267053322869200,1.836869140625,9.851848602294922,0.7803592681884766,-1.1108678579330444
1667267053325267000,1.839266845703125,10.028918266296387,0.6678966283798218,-1.1084750890731812
1667267053327664600,1.84166455078125,10.172487258911133,0.5410770177841187,-1.0941181182861328
1667267053330062300,1.844062255859375,10.282557487487793,0.40707895159721375,-1.1204391717910767
1667267053332460000,1.8464599609375,10.339984893798828,0.2512463629245758,-1.1228320598602295
1667267053334858000,1.84885791015625,10.388140678405762,0.10289137065410614,-1.079761266708374
1667267053337255700,1.851255615234375,10.44796085357666,-0.062213387340307236,-1.0247262716293335
1667267053339653400,1.8536533203125,10.510174751281738,-0.2105683982372284,-0.9744769930839539
1667267053342051000,1.856051025390625,10.577173233032227,-0.3520440459251404,-0.9266205430030823
1667267053344448800,1.85844873046875,10.632207870483398,-0.4668995141983032,-0.8787640929222107
1667267053346846700,1.8608466796875,10.742278099060059,-0.5578267574310303,-0.8258228898048401
1667267053349244400,1.863244384765625,10.91456127166748,-0.6487540602684021,-0.8138588070869446
1667267053351642000,1.86564208984375,11.213963508605957,-0.7229315638542175,-0.7636095285415649
1667267053354039800,1.868039794921875,11.589935302734375,-0.701396107673645,-0.646361231803894
1667267053356437800,1.870437744140625,12.051750183105469,-0.6631109714508057,-0.40229329466819763
1667267053358835500,1.87283544921875,12.544970512390137,-0.521934449672699,-0.059820566326379776
1667267053361233200,1.875233154296875,13.019048690795898,-0.33768710494041443,0.33529427647590637
1667267053363630800,1.877630859375,13.459627151489258,-0.16510476171970367,0.732502818107605
1667267053366028500,1.880028564453125,13.830814361572266,0.019142581149935722,1.0965110063552856
1667267053368426500,1.882426513671875,14.120345115661621,0.19621145725250244,1.4054841995239258
1667267053370824200,1.88482421875,14.302200317382812,0.33768710494041443,1.6328023672103882
1667267053373222000,1.887221923828125,14.431711196899414,0.4501497745513916,1.7715860605239868
1667267053375619600,1.88961962890625,14.44606876373291,0.5338985323905945,1.8290138244628906
1667267053378017300,1.892017333984375,14.393425941467285,0.5769693851470947,1.7715860605239868
1667267053380415000,1.8944150390625,14.302200317382812,0.5578267574310303,1.6136597394943237
1667267053382813000,1.89681298828125,14.156237602233887,0.5051847100257874,1.3405789136886597
1667267053385210600,1.899210693359375,13.995918273925781,0.4094717800617218,0.9864411354064941
1667267053387608300,1.9016083984375,13.799707412719727,0.3281157910823822,0.5817549824714661
1667267053390006000,1.904006103515625,13.548161506652832,0.24885354936122894,0.14117653667926788
1667267053392404000,1.906404052734375,13.25145149230957,0.16510476171970367,-0.26081767678260803
1667267053394801700,1.9088017578125,12.968799591064453,0.08614161610603333,-0.5985047817230225
1667267053397199400,1.911199462890625,12.662518501281738,0.02871387079358101,-0.8835497498512268
1667267053399597000,1.91359716796875,12.399008750915527,-0.038285162299871445,-1.1084750890731812
1667267053401994800,1.915994873046875,12.150155067443848,-0.05742774158716202,-1.3070793151855469
1667267053404392700,1.918392822265625,11.903395652770996,-0.03349951654672623,-1.4174482822418213
1667267053406790400,1.920790283203125,11.67846965789795,0,-1.5203397274017334
1667267053409188000,1.92318798828125,11.51815128326416,0.059820566326379776,-1.623231053352356
1667267053411585800,1.925585693359375,11.402996063232422,0.08135596662759781,-1.7165511846542358
1667267053413983500,1.9279833984375,11.312068939208984,0.10289137065410614,-1.7955143451690674
1667267053416381400,1.93038134765625,11.252248764038086,0.1459621787071228,-1.83619225025177
1667267053418779100,1.932779052734375,11.175678253173828,0.1698904037475586,-1.8266209363937378
1667267053421176800,1.9351767578125,11.094322204589844,0.19381862878799438,-1.776371717453003
1667267053423574500,1.937574462890625,11.044073104858398,0.20338992774486542,-1.7285152673721313
1667267053425972200,1.93997216796875,11.010573387145996,0.20817556977272034,-1.7021942138671875
1667267053428370000,1.942369873046875,10.98185920715332,0.20578274130821228,-1.709372639656067
1667267053430767900,1.944767822265625,10.977073669433594,0.1866401731967926,-1.7644076347351074
1667267053433165600,1.94716552734375,10.996216773986816,0.18424734473228455,-1.8098711967468262
1667267053435563300,1.949563232421875,10.993824005126953,0.15553347766399384,-1.86729896068573
1667267053437961000,1.9519609375,10.936097145080566,0.08614161610603333,-1.9414764642715454
1667267053440359000,1.95435888671875,10.9002046585083,0.014356935396790504,-2.001596212387085
1667267053442756600,1.956756591796875,10.890633583068848,-0.059820566326379776,-2.0542383193969727
1667267053445154300,1.959154296875,10.919346809387207,-0.15074782073497772,-2.0685951709747314
1667267053447552000,1.961552001953125,10.98185920715332,-0.23449662327766418,-2.0853450298309326
1667267053449949700,1.96394970703125,11.0775728225708,-0.3400799036026001,-2.0757737159729004
1667267053452347600,1.96634765625,11.146964073181152,-0.45254257321357727,-2.0470597743988037
1667267053454745300,1.968745361328125,11.228320121765137,-0.5697908997535706,-1.994417667388916
1667267053457143000,1.97114306640625,11.304890632629395,-0.6942176818847656,-1.9630118608474731
1667267053459540700,1.973540771484375,11.3718900680542,-0.8210372924804688,-1.9728822708129883
1667267053461938400,1.9759384765625,11.419746398925781,-0.9577272534370422,-1.9968105554580688
1667267053464336400,1.97833642578125,11.474781036376953,-1.0701899528503418,-1.958226203918457
1667267053466734000,1.980734130859375,11.51815128326416,-1.1802598237991333,-1.9175482988357544
1667267053469131800,1.9831318359375,11.589935302734375,-1.292722463607788,-1.843370795249939
1667267053471529500,1.985529541015625,11.647363662719727,-1.4126626253128052,-1.7691932916641235
1667267053473927200,1.98792724609375,11.692827224731445,-1.505982756614685,-1.6926229000091553
1667267053476324900,1.990324951171875,11.75743293762207,-1.6375880241394043,-1.6256239414215088
1667267053478722800,1.992722900390625,11.802896499633789,-1.776371717453003,-1.5705889463424683
1667267053481120500,1.99512060546875,11.814861297607422,-1.9079769849777222,-1.5514464378356934
1667267053483518200,1.997518310546875,11.829217910766602,-2.0446670055389404,-1.5227324962615967
1667267053485916000,1.999916015625,11.838788986206055,-2.1643080711364746,-1.4892330169677734
1667267053488313900,2.00231396484375,11.824432373046875,-2.2504496574401855,-1.4318052530288696
1667267053490711600,2.004711669921875,11.798110961914062,-2.348555326461792,-1.3525429964065552
1667267053493109200,2.007109130859375,11.7358980178833,-2.3916261196136475,-1.2903295755386353
1667267053495507000,2.0095068359375,11.688041687011719,-2.441875457763672,-1.2065808773040771
1667267053497904600,2.011904541015625,11.642578125,-2.482553482055664,-1.1395817995071411
1667267053500302600,2.014302490234375,11.63300609588623,-2.5016961097717285,-1.0630114078521729
1667267053502700300,2.0167001953125,11.642578125,-2.4993033409118652,-1.0223335027694702
1667267053505098000,2.019097900390625,11.676076889038086,-2.4873390197753906,-0.9984052777290344
1667267053507495700,2.02149560546875,11.75743293762207,-2.451446771621704,-0.9433703422546387
1667267053509893400,2.023893310546875,11.8890380859375,-2.3988046646118164,-0.8811569213867188
1667267053512291300,2.026291259765625,12.018250465393066,-2.33180570602417,-0.8114659786224365
1667267053514689000,2.02868896484375,12.171690940856934,-2.2169501781463623,-0.6774678826332092
1667267053517086700,2.031086669921875,12.32243824005127,-2.1020946502685547,-0.5434698462486267
1667267053519484400,2.033484375,12.492328643798828,-2.0039889812469482,-0.36640095710754395
1667267053521882000,2.035882080078125,12.69601821899414,-1.8577276468276978,-0.16749759018421173
1667267053524279800,2.03827978515625,12.899407386779785,-1.7476578950881958,0.05024927482008934
1667267053526677800,2.040677734375,13.129118919372559,-1.6328023672103882,0.21296121180057526
1667267053529075500,2.043075439453125,13.383056640625,-1.5418751239776611,0.36640095710754395
1667267053531473200,2.04547314453125,13.63908863067627,-1.470090389251709,0.4956133961677551
1667267053533870800,2.047870849609375,13.883456230163574,-1.40279221534729,0.5889334678649902
1667267053536268800,2.050268798828125,14.127524375915527,-1.3764712810516357,0.6631109714508057
1667267053538666500,2.05266650390625,14.364712715148926,-1.3357932567596436,0.7253243923187256
1667267053541064200,2.055064208984375,14.580066680908203,-1.3381860256195068,0.7588238716125488
1667267053543462000,2.0574619140625,14.773884773254395,-1.342971682548523,0.7636095285415649
1667267053545859600,2.059859619140625,14.936896324157715,-1.3573286533355713,0.7564310431480408
1667267053548257500,2.062257568359375,15.140286445617676,-1.3764712810516357,0.7133602499961853
1667267053550655200,2.0646552734375,15.362818717956543,-1.3956137895584106,0.6583253145217896
1667267053553053000,2.067052978515625,15.566507339477539,-1.415055513381958,0.5841478109359741
1667267053555450600,2.06945068359375,15.722041130065918,-1.438983678817749,0.48364928364753723
1667267053557848300,2.071848388671875,15.846467971801758,-1.470090389251709,0.37597227096557617
1667267053560246300,2.074246337890625,15.930216789245605,-1.4868401288986206,0.2874378263950348
1667267053562644000,2.07664404296875,15.970894813537598,-1.4796617031097412,0.22492532432079315
1667267053565041700,2.079041748046875,15.990036964416504,-1.4868401288986206,0.15553347766399384
1667267053567439400,2.081439453125,15.982858657836914,-1.4916257858276367,0.06699903309345245
1667267053569837000,2.083837158203125,15.932609558105469,-1.4724832773208618,-0.02153540402650833
1667267053572235000,2.086235107421875,15.858431816101074,-1.4485549926757812,-0.12921242415905
1667267053574632700,2.0886328125,15.731612205505371,-1.446162223815918,-0.2632105052471161
1667267053577030400,2.091030517578125,15.609578132629395,-1.3980066776275635,-0.41904306411743164
1667267053579428000,2.093427978515625,15.470794677734375,-1.3525429964065552,-0.5913262963294983
1667267053581825800,2.09582568359375,15.32931900024414,-1.2855439186096191,-0.7277171611785889
1667267053584223700,2.0982236328125,15.161821365356445,-1.2352946996688843,-0.8835497498512268
1667267053586621400,2.100621337890625,15.00150203704834,-1.2041879892349243,-1.0390832424163818
