time,seconds_elapsed,z,y,x
1667266569687152600,0.113152587890625,9.475876808166504,-0.8644071817398071,-2.4538395404815674
1667266569689550600,0.115550537109375,9.444769859313965,-0.8428717851638794,-2.482553482055664
1667266569691948300,0.1179482421875,9.447162628173828,-0.8210372924804688,-2.542673110961914
1667266569694346000,0.120345947265625,9.449555397033691,-0.7923234105110168,-2.5857439041137695
1667266569696744000,0.122743896484375,9.48784065246582,-0.7636095285415649,-2.6383860111236572
1667266569699141600,0.1251416015625,9.554840087890625,-0.7157530784606934,-2.7029922008514404
1667266569701539600,0.12753955078125,9.621838569641113,-0.6391827464103699,-2.786741018295288
1667266569703937300,0.129937255859375,9.700801849365234,-0.5865406394004822,-2.8465616703033447
1667266569706335200,0.132335205078125,9.75344467163086,-0.5410770177841187,-2.913560628890991
1667266569708733000,0.13473291015625,9.801301002502441,-0.47647079825401306,-2.95184588432312
1667266569711131000,0.137130859375,9.818050384521484,-0.41904306411743164,-2.999702215194702
1667266569713528600,0.139528564453125,9.832706451416016,-0.3640081584453583,-3.0188448429107666
1667266569715926500,0.141926513671875,9.830313682556152,-0.3233301639556885,-3.030808925628662
1667266569718324200,0.14432421875,9.815657615661621,-0.26560330390930176,-3.037987470626831
1667266569720722200,0.14672216796875,9.830313682556152,-0.20578274130821228,-2.999702215194702
1667266569723119900,0.149119873046875,9.835099220275879,-0.13160525262355804,-2.95184588432312
1667266569725517800,0.151517822265625,9.854242324829102,-0.05503492057323456,-2.8824539184570312
1667266569727915500,0.15391552734375,9.90688419342041,0.06699903309345245,-2.793919563293457
1667266569730313500,0.1563134765625,9.993025779724121,0.1579262912273407,-2.7029922008514404
1667266569732711200,0.158711181640625,10.107880592346191,0.27038896083831787,-2.6096723079681396
1667266569735108900,0.16110888671875,10.246665000915527,0.41904306411743164,-2.4945175647735596
1667266569737506800,0.1635068359375,10.414461135864258,0.5961119532585144,-2.348555326461792
1667266569739904500,0.165904541015625,10.598709106445312,0.7875377535820007,-2.2121646404266357
1667266569742302500,0.168302490234375,10.806884765625,1.0151549577713013,-2.0709879398345947
1667266569744700200,0.1707001953125,11.02014446258545,1.2281162738800049,-1.922333836555481
1667266569747098000,0.17309814453125,11.240283966064453,1.4653047323226929,-1.7787644863128662
1667266569749495800,0.175495849609375,11.44845962524414,1.6710875034332275,-1.6423736810684204
1667266569751893800,0.177893798828125,11.661720275878906,1.8744773864746094,-1.532303810119629
1667266569754291500,0.18029150390625,11.857932090759277,2.0374884605407715,-1.4629119634628296
1667266569756689400,0.182689453125,11.98475170135498,2.097309112548828,-1.4868401288986206
1667266569759087000,0.185087158203125,12.085549354553223,2.0709879398345947,-1.5634105205535889
1667266569761484800,0.18748486328125,12.209976196289062,2.1308085918426514,-1.568196177482605
1667266569763882800,0.1898828125,12.343974113464355,2.2169501781463623,-1.6016956567764282
1667266569766280400,0.192280517578125,12.463615417480469,2.2671995162963867,-1.6471593379974365
1667266569768678400,0.194678466796875,12.51865005493164,2.2887349128723145,-1.6088740825653076
1667266569771076000,0.197076171875,12.51865005493164,2.2360928058624268,-1.5825530290603638
1667266569773474000,0.19947412109375,12.44686508178711,2.11405873298645,-1.55623197555542
1667266569775871700,0.201871826171875,12.339188575744629,1.934298038482666,-1.55623197555542
1667266569778269700,0.204269775390625,12.174083709716797,1.6878372430801392,-1.6184453964233398
1667266569780667400,0.20666748046875,11.987144470214844,1.407876968383789,-1.6926229000091553
1667266569783065300,0.2090654296875,11.802896499633789,1.0893324613571167,-1.7907286882400513
1667266569785463000,0.211463134765625,11.606685638427734,0.7851449251174927,-1.89840567111969
1667266569787861000,0.213861083984375,11.405388832092285,0.46450668573379517,-2.011167526245117
1667266569790258700,0.2162587890625,11.235498428344727,0.15314064919948578,-2.1020946502685547
1667266569792656600,0.21865673828125,11.046465873718262,-0.12203395366668701,-2.1858434677124023
1667266569795054300,0.221054443359375,10.890633583068848,-0.4046861231327057,-2.204986095428467
1667266569797452000,0.2234521484375,10.70399284362793,-0.6224330067634583,-2.2097716331481934
1667266569799850000,0.22585009765625,10.531709671020508,-0.8330013751983643,-2.200200319290161
1667266569802247700,0.22824755859375,10.363913536071777,-1.0103694200515747,-2.14516544342041
1667266569804645600,0.230645751953125,10.189236640930176,-1.1371889114379883,-2.059023857116699
1667266569807043300,0.233043212890625,10.02413272857666,-1.2711870670318604,-1.9606190919876099
1667266569809441300,0.235441162109375,9.832706451416016,-1.3453645706176758,-1.831406593322754
1667266569811839000,0.2378388671875,9.626625061035156,-1.446162223815918,-1.695015788078308
1667266569814237000,0.24023681640625,9.428020477294922,-1.5203397274017334,-1.5705889463424683
1667266569816634600,0.242634521484375,9.18843936920166,-1.6256239414215088,-1.410269856452942
1667266569819032600,0.245032470703125,8.944371223449707,-1.7069798707962036,-1.3094722032546997
1667266569821430300,0.24743017578125,8.671290397644043,-1.8194425106048584,-1.2281162738800049
1667266569823828000,0.249827880859375,8.384151458740234,-1.9127626419067383,-1.1252248287200928
1667266569826226000,0.252225830078125,8.058428764343262,-1.9824535846710205,-1.0582258701324463
1667266569828624000,0.254623779296875,7.7353973388671875,-2.094916343688965,-1.0031908750534058
1667266569831021600,0.257021484375,7.416852951049805,-2.181057929992676,-0.9553344249725342
1667266569833419300,0.259419189453125,7.091429233551025,-2.2719850540161133,-0.9433703422546387
1667266569835817200,0.261817138671875,6.760920524597168,-2.3676979541778564,-0.9074779748916626
1667266569838215000,0.26421484375,6.471388816833496,-2.4227328300476074,-0.8715856671333313
1667266569840612900,0.26661279296875,6.2174506187438965,-2.4705893993377686,-0.8428717851638794
1667266569843010600,0.269010498046875,6.059524059295654,-2.480160713195801,-0.8234301209449768
1667266569845408500,0.271408447265625,6.009274959564209,-2.4466612339019775,-0.8476574420928955
1667266569847806200,0.27380615234375,6.061916828155518,-2.4131617546081543,-0.8401798605918884
1667266569850204200,0.2762041015625,6.179165363311768,-2.355733871459961,-0.8548358678817749
1667266569852601900,0.278601806640625,6.339484691619873,-2.3030917644500732,-0.8620143532752991
1667266569854999800,0.280999755859375,6.516852378845215,-2.262413740158081,-0.8668000102043152
1667266569857397500,0.2833974609375,6.7106709480285645,-2.214557409286499,-0.8401798605918884
1667266569859795200,0.285795166015625,6.928418159484863,-2.14516544342041,-0.8476574420928955
1667266569862193200,0.288193115234375,7.146463871002197,-2.104487419128418,-0.8691928386688232
1667266569864590800,0.2905908203125,7.340282440185547,-2.104487419128418,-0.9337990283966064
1667266569866988800,0.29298876953125,7.469494819641113,-2.1308085918426514,-1.0342975854873657
1667266569869386500,0.295386474609375,7.558029651641846,-2.1786649227142334,-1.1563315391540527
1667266569871784400,0.297784423828125,7.603792190551758,-2.2576282024383545,-1.2664014101028442
1667266569874182100,0.30018212890625,7.627720355987549,-2.3437697887420654,-1.4003994464874268
1667266569876580000,0.302580078125,7.591827869415283,-2.4299113750457764,-1.5777673721313477
1667266569878977800,0.304977783203125,7.5412797927856445,-2.5474588871002197,-1.7620147466659546
1667266569881375700,0.307375732421875,7.481459140777588,-2.6623141765594482,-1.9558334350585938
1667266569883773400,0.3097734375,7.402495861053467,-2.7675983905792236,-2.1332013607025146
1667266569886171400,0.31217138671875,7.297211647033691,-2.8824539184570312,-2.2959132194519043
1667266569888569000,0.314569091796875,7.1799635887146,-2.9805595874786377,-2.441875457763672
1667266569890967000,0.316967041015625,7.045965194702148,-3.0738797187805176,-2.5594229698181152
1667266569893364700,0.31936474609375,6.902096748352051,-3.13639235496521,-2.6024937629699707
1667266569895762700,0.3217626953125,6.7417778968811035,-3.160320520401001,-2.604886531829834
1667266569898160400,0.324160400390625,6.602993965148926,-3.1579277515411377,-2.5594229698181152
1667266569900558000,0.32655810546875,6.464210510253906,-3.119642496109009,-2.465803623199463
1667266569902956000,0.3289560546875,6.361020088195801,-3.0667014122009277,-2.338984251022339
1667266569905353700,0.331353759765625,6.258128643035889,-2.99013090133667,-2.1930220127105713
1667266569907751700,0.333751708984375,6.162415504455566,-2.913560628890991,-2.0685951709747314
1667266569910149400,0.3361494140625,6.097809314727783,-2.808276414871216,-1.8912272453308105
1667266569912547300,0.33854736328125,6.021239280700684,-2.7101707458496094,-1.7476578950881958
1667266569914945000,0.340945068359375,5.954239845275879,-2.643171787261963,-1.6304094791412354
1667266569917343000,0.343343017578125,5.925526142120361,-2.5689942836761475,-1.5155540704727173
1667266569919740700,0.34574072265625,5.911169052124023,-2.520838737487793,-1.4126626253128052
1667266569922138600,0.348138671875,5.961418628692627,-2.4777679443359375,-1.3334003686904907
1667266569924536300,0.350536376953125,6.0834527015686035,-2.4299113750457764,-1.2592228651046753
1667266569926934000,0.35293408203125,6.255735874176025,-2.379662036895752,-1.220937728881836
1667266569929332000,0.35533203125,6.471388816833496,-2.355733871459961,-1.2089736461639404
1667266569931729700,0.357729736328125,6.689135551452637,-2.355733871459961,-1.2376874685287476
1667266569934127600,0.360127685546875,6.909275531768799,-2.3676979541778564,-1.2783654928207397
1667266569936525300,0.362525390625,7.153642177581787,-2.4155545234680176,-1.319043517112732
1667266569938923300,0.36492333984375,7.380960464477539,-2.482553482055664,-1.3980066776275635
1667266569941321000,0.367321044921875,7.634898662567139,-2.5594229698181152,-1.5155540704727173
1667266569943719000,0.369718994140625,7.840681552886963,-2.645564556121826,-1.6471593379974365
1667266569946116600,0.37211669921875,8.046463966369629,-2.786741018295288,-1.7883358001708984
1667266569948514600,0.3745146484375,8.247760772705078,-2.8944180011749268,-1.9510477781295776
1667266569950912300,0.376912353515625,8.4200439453125,-3.030808925628662,-2.118844509124756
1667266569953310000,0.37931005859375,8.532505989074707,-3.1794631481170654,-2.26959228515625
1667266569955708000,0.3817080078125,8.604290962219238,-3.3062827587127686,-2.396411895751953
1667266569958105600,0.384105712890625,8.609076499938965,-3.4331023693084717,-2.5088746547698975
1667266569960503600,0.386503662109375,8.585148811340332,-3.5479576587677,-2.573779821395874
1667266569962901200,0.3889013671875,8.570791244506836,-3.6364922523498535,-2.6168506145477295
1667266569965299200,0.39129931640625,8.563612937927246,-3.73250412940979,-2.6790640354156494
1667266569967697000,0.39369677734375,8.568398475646973,-3.801896095275879,-2.7269206047058105
1667266569970094800,0.3960947265625,8.601898193359375,-3.8856449127197266,-2.769991397857666
1667266569972492500,0.398492431640625,8.654540061950684,-3.967000722885132,-2.848954439163208
1667266569974890500,0.400890380859375,8.717052459716797,-4.041178226470947,-2.8920252323150635
1667266569977288200,0.4032880859375,8.889336585998535,-4.091427803039551,-2.942274570465088
1667266569979686100,0.40568603515625,9.186046600341797,-4.089034557342529,-3.004487991333008
1667266569982083800,0.408083740234375,9.6433744430542,-4.057928085327148,-3.0667014122009277
1667266569984481800,0.410481689453125,10.136594772338867,-4.002892971038818,-3.1076784133911133
1667266569986879500,0.41287939453125,10.646565437316895,-3.9382870197296143,-3.1411778926849365
1667266569989277200,0.415277099609375,11.149356842041016,-3.8832521438598633,-3.1722846031188965
1667266569991675100,0.417675048828125,11.64975643157959,-3.8688950538635254,-3.1818559169769287
1667266569994072800,0.42007275390625,12.123833656311035,-3.828217029571533,-3.16749906539917
1667266569996470800,0.422470703125,12.561720848083496,-3.7995033264160156,-3.122035264968872
1667266569998868500,0.424868408203125,12.93529987335205,-3.7755749225616455,-3.090928554534912
1667266570001266400,0.427266357421875,13.28255844116211,-3.739682674407959,-3.054737091064453
1667266570003664100,0.4296640625,13.600804328918457,-3.7301113605499268,-3.037987470626831
1667266570006062000,0.43206201171875,13.840385437011719,-3.7444684505462646,-3.0403802394866943
1667266570008459800,0.434459716796875,14.05095386505127,-3.75643253326416,-3.054737091064453
1667266570010857700,0.436857666015625,14.199308395385742,-3.7731821537017822,-3.085843801498413
1667266570013255400,0.43925537109375,14.295022010803223,-3.8210387229919434,-3.145963668823242
1667266570015653000,0.441653076171875,14.324034690856934,-3.873680830001831,-3.215355396270752
1667266570018051000,0.444051025390625,14.302200317382812,-3.9382870197296143,-3.308675527572632
1667266570020448800,0.44644873046875,14.259129524230957,-4.014857292175293,-3.397209882736206
1667266570022846700,0.4488466796875,14.15863037109375,-4.115355968475342,-3.4857444763183594
1667266570025244400,0.451244384765625,14.022239685058594,-4.208974838256836,-3.583850145339966
1667266570027642400,0.453642333984375,13.864313125610352,-4.295116424560547,-3.660719633102417
1667266570030040000,0.4560400390625,13.694124221801758,-4.388436794281006,-3.739682674407959
1667266570032438000,0.45843798828125,13.519448280334473,-4.4650068283081055,-3.8138601779937744
1667266570034835700,0.460835693359375,13.356736183166504,-4.505684852600098,-3.873680830001831
1667266570037233700,0.463233642578125,13.145868301391602,-4.563112735748291,-3.9167516231536865
1667266570039631400,0.46563134765625,12.949657440185547,-4.589433670043945,-3.928715705871582
1667266570042029300,0.468029296875,12.736696243286133,-4.610969066619873,-3.890430450439453
1667266570044427000,0.470427001953125,12.523435592651367,-4.622933387756348,-3.8234314918518066
1667266570046825000,0.472824951171875,12.363116264343262,-4.603790760040283,-3.7301113605499268
1667266570049222700,0.47522265625,12.27697467803955,-4.572684288024902,-3.5886356830596924
1667266570051620600,0.47762060546875,12.272189140319824,-4.47697114944458,-3.4378879070281982
1667266570054018300,0.480018310546875,12.334402084350586,-4.371686935424805,-3.294318675994873
1667266570056416000,0.482416015625,12.391830444335938,-4.271188259124756,-3.1627132892608643
1667266570058814000,0.48481396484375,12.444472312927246,-4.158426761627197,-3.0571300983428955
1667266570061211600,0.487211669921875,12.501899719238281,-4.069892406463623,-2.9374887943267822
1667266570063609600,0.489609619140625,12.535399436950684,-3.9813578128814697,-2.841775894165039
1667266570066007300,0.49200732421875,12.57129192352295,-3.9239299297332764,-2.7915267944335938
1667266570068405200,0.4944052734375,12.592827796936035,-3.8760735988616943,-2.753241539001465
1667266570070803000,0.496802978515625,12.595220565795898,-3.8449668884277344,-2.7197420597076416
1667266570073201000,0.499200927734375,12.600006103515625,-3.78753924369812,-2.7340989112854004
1667266570075598600,0.5015986328125,12.561720848083496,-3.7851462364196777,-2.7412774562835693
1667266570077996500,0.50399658203125,12.516257286071777,-3.7755749225616455,-2.7795627117156982
1667266570080394200,0.506394287109375,12.444472312927246,-3.777967929840088,-2.8034908771514893
1667266570082792000,0.5087919921875,12.365509033203125,-3.78753924369812,-2.8680970668792725
1667266570085190000,0.51118994140625,12.236296653747559,-3.780360698699951,-2.913560628890991
1667266570087587600,0.513587646484375,12.097513198852539,-3.770789384841919,-2.9614171981811523
1667266570089985500,0.515985595703125,11.944073677062988,-3.780360698699951,-3.028416156768799
1667266570092383200,0.51838330078125,11.767004013061523,-3.76361083984375,-3.0667014122009277
1667266570094781200,0.52078125,11.592328071594238,-3.7612180709838867,-3.119642496109009
1667266570097179000,0.523178955078125,11.395817756652832,-3.7731821537017822,-3.169891834259033
1667266570099576800,0.525576904296875,11.20917797088623,-3.7755749225616455,-3.2057840824127197
1667266570101974500,0.527974609375,11.027322769165039,-3.7540395259857178,-3.248854875564575
1667266570104372500,0.53037255859375,10.847562789916992,-3.73250412940979,-3.277568817138672
1667266570106770200,0.532770263671875,10.641779899597168,-3.722932815551758,-3.2751760482788086
1667266570109167900,0.53516796875,10.44078254699707,-3.7205400466918945,-3.2967114448547363
1667266570111565800,0.53756591796875,10.258628845214844,-3.6822550296783447,-3.318246841430664
1667266570113963500,0.539963623046875,10.079167366027832,-3.6511483192443848,-3.332603693008423
1667266570116361500,0.542361572265625,9.89013385772705,-3.6340994834899902,-3.3517463207244873
1667266570118759200,0.54475927734375,9.724730491638184,-3.6197423934936523,-3.3541390895843506
1667266570121157000,0.5471572265625,9.578767776489258,-3.6053855419158936,-3.334996461868286
1667266570123554800,0.549554931640625,9.439984321594238,-3.57906436920166,-3.3469607830047607
1667266570125952800,0.551952880859375,9.296415328979492,-3.576671600341797,-3.3469607830047607
1667266570128350500,0.5543505859375,9.169296264648438,-3.569493293762207,-3.3278181552886963
1667266570130748400,0.55674853515625,9.049654960632324,-3.545564889907837,-3.325425386428833
1667266570133146000,0.55914599609375,8.944371223449707,-3.5431721210479736,-3.332603693008423
1667266570135544000,0.5615439453125,8.848658561706543,-3.5503506660461426,-3.3230323791503906
1667266570137941800,0.563941650390625,8.752944946289062,-3.5479576587677,-3.308675527572632
1667266570140339700,0.566339599609375,8.65932559967041,-3.5718860626220703,-3.3278181552886963
1667266570142737400,0.5687373046875,8.55882740020752,-3.593421459197998,-3.3541390895843506
1667266570145135000,0.571135009765625,8.484649658203125,-3.6221351623535156,-3.3589248657226562
1667266570147533000,0.573532958984375,8.4200439453125,-3.6559338569641113,-3.334996461868286
1667266570149930800,0.5759306640625,8.3267240524292,-3.6966118812561035,-3.3589248657226562
1667266570152328700,0.57832861328125,8.242975234985352,-3.7253258228302,-3.3469607830047607
1667266570154726400,0.580726318359375,8.152048110961914,-3.746861219406128,-3.342175006866455
1667266570157124400,0.583124267578125,8.079963684082031,-3.7851462364196777,-3.3302109241485596
1667266570159522000,0.58552197265625,8.01057243347168,-3.8138601779937744,-3.294318675994873
1667266570161920000,0.587919921875,7.934001445770264,-3.833002805709839,-3.2895328998565674
1667266570164317700,0.590317626953125,7.8454670906066895,-3.8617167472839355,-3.2512478828430176
1667266570166715600,0.592715576171875,7.728219032287598,-3.904787540435791,-3.232105255126953
1667266570169113300,0.59511328125,7.618149280548096,-3.9143588542938232,-3.2368907928466797
1667266570171511000,0.597510986328125,7.536494255065918,-3.928715705871582,-3.2273194789886475
1667266570173909000,0.599908935546875,7.45992374420166,-3.9550366401672363,-3.239283561706543
1667266570176306700,0.602306640625,7.3761749267578125,-3.974179267883301,-3.248854875564575
1667266570178704600,0.60470458984375,7.2589263916015625,-4.014857292175293,-3.2656047344207764
1667266570181102300,0.607102294921875,7.156035423278809,-4.048357009887695,-3.256033420562744
1667266570183500300,0.609500244140625,7.067500591278076,-4.077070713043213,-3.2919256687164307
1667266570185898000,0.61189794921875,6.973881721496582,-4.108177185058594,-3.3062827587127686
1667266570188296000,0.6142958984375,6.909275531768799,-4.127319812774658,-3.3302109241485596
1667266570190693600,0.616693603515625,6.847062110900879,-4.165605068206787,-3.3517463207244873
1667266570193091600,0.619091552734375,6.780063152313232,-4.201497554779053,-3.339782238006592
1667266570195489300,0.6214892578125,6.708278179168701,-4.242474555969238,-3.349353551864624
1667266570197887000,0.623886962890625,6.6149582862854,-4.280759811401367,-3.3613176345825195
1667266570200285000,0.626284912109375,6.547959327697754,-4.297509670257568,-3.3517463207244873
1667266570202682600,0.6286826171875,6.480959892272949,-4.328616142272949,-3.334996461868286
1667266570205080600,0.63108056640625,6.423233509063721,-4.347758769989014,-3.3302109241485596
1667266570207478300,0.633478271484375,6.377769470214844,-4.347758769989014,-3.287140130996704
1667266570209876200,0.635876220703125,6.337091445922852,-4.34536600112915,-3.2656047344207764
1667266570212274000,0.63827392578125,6.315556049346924,-4.374079704284668,-3.277568817138672
1667266570214672000,0.640671875,6.253343105316162,-4.359723091125488,-3.2584261894226074
1667266570217069600,0.643069580078125,6.215057849884033,-4.338187217712402,-3.263211965560913
1667266570219467500,0.645467529296875,6.200700759887695,-4.311866283416748,-3.263211965560913
1667266570221865200,0.647865234375,6.188736438751221,-4.280759811401367,-3.2584261894226074
1667266570224263200,0.65026318359375,6.188736438751221,-4.237689018249512,-3.277568817138672
1667266570226660900,0.652660888671875,6.207879066467285,-4.216153621673584,-3.318246841430664
1667266570229058800,0.655058837890625,6.238986015319824,-4.179962158203125,-3.3613176345825195
1667266570231456500,0.65745654296875,6.294020652770996,-4.153641223907471,-3.380460262298584
1667266570233854500,0.6598544921875,6.3514485359191895,-4.144069671630859,-3.4498519897460938
1667266570236252200,0.662252197265625,6.416054725646973,-4.134498596191406,-3.531208038330078
1667266570238649900,0.66464990234375,6.468996047973633,-4.132105827331543,-3.576671600341797
1667266570241047800,0.6670478515625,6.538387775421143,-4.110570430755615,-3.617349624633789
1667266570243445500,0.669445556640625,6.612565517425537,-4.089034557342529,-3.660719633102417
1667266570245843500,0.671843505859375,6.708278179168701,-4.072285175323486,-3.6942191123962402
1667266570248241200,0.6742412109375,6.837490558624268,-4.084249019622803,-3.739682674407959
1667266570250639000,0.67663916015625,6.971488952636719,-4.072285175323486,-3.809074640274048
1667266570253036800,0.679036865234375,7.127321243286133,-4.045963764190674,-3.866502285003662
1667266570255434800,0.681434814453125,7.287640571594238,-4.026821613311768,-3.9167516231536865
1667266570257832400,0.68383251953125,7.402495861053467,-4.017250061035156,-3.976572036743164
1667266570260230400,0.68623046875,7.526922702789307,-4.010071754455566,-3.9957146644592285
1667266570262628000,0.688628173828125,7.639684677124023,-3.998107433319092,-4.024428367614746
1667266570265025800,0.69102587890625,7.747361660003662,-3.998107433319092,-4.077070713043213
1667266570267423700,0.693423828125,7.8382887840271,-4.026821613311768,-4.108177185058594
1667266570269821400,0.695821533203125,7.926823139190674,-4.036392688751221,-4.122534275054932
1667266570272219400,0.698219482421875,8.029714584350586,-4.062713623046875,-4.132105827331543
1667266570274617000,0.7006171875,8.11824893951416,-4.077070713043213,-4.117748737335205
1667266570277015000,0.70301513671875,8.211868286132812,-4.07467794418335,-4.091427803039551
1667266570279412700,0.705412841796875,8.324331283569336,-4.084249019622803,-4.060320854187012
1667266570281810700,0.707810791015625,8.451150894165039,-4.093820571899414,-4.045963764190674
1667266570284208400,0.71020849609375,8.599505424499512,-4.069892406463623,-4.002892971038818
1667266570286606300,0.7126064453125,8.71226692199707,-4.048357009887695,-3.9574296474456787
1667266570289004000,0.715004150390625,8.841479301452637,-4.029214382171631,-3.921537160873413
1667266570291402000,0.717402099609375,8.93958568572998,-3.998107433319092,-3.8712878227233887
1667266570293799700,0.719799560546875,9.020941734313965,-3.967000722885132,-3.8377883434295654
1667266570296197600,0.72219775390625,9.08554744720459,-3.9335012435913086,-3.79471755027771
1667266570298595300,0.72459521484375,9.154939651489258,-3.9071803092956543,-3.777967929840088
1667266570300993000,0.726992919921875,9.20997428894043,-3.8928234577178955,-3.7540395259857178
1667266570303391000,0.729390869140625,9.255437850952148,-3.873680830001831,-3.7540395259857178
1667266570305788700,0.73178857421875,9.296415328979492,-3.85693097114563,-3.7683966159820557
1667266570308186600,0.7341865234375,9.322735786437988,-3.833002805709839,-3.7731821537017822
1667266570310584300,0.736584228515625,9.332307815551758,-3.8377883434295654,-3.811467409133911
1667266570312982300,0.738982177734375,9.317950248718262,-3.840181350708008,-3.8234314918518066
1667266570315380000,0.7413798828125,9.305986404418945,-3.840181350708008,-3.8377883434295654
1667266570317778000,0.74377783203125,9.27727222442627,-3.8617167472839355,-3.890430450439453
1667266570320175600,0.746175537109375,9.260522842407227,-3.85693097114563,-3.9502511024475098
1667266570322573600,0.748573486328125,9.20279598236084,-3.85693097114563,-3.9957146644592285
1667266570324971300,0.75097119140625,9.126225471496582,-3.864109516143799,-4.048357009887695
1667266570327369000,0.753368896484375,9.040083885192871,-3.880859136581421,-4.093820571899414
1667266570329767000,0.755766845703125,8.96829891204834,-3.88803768157959,-4.156033992767334
1667266570332164600,0.75816455078125,8.874979019165039,-3.890430450439453,-4.1991047859191895
1667266570334562600,0.7605625,8.779266357421875,-3.9239299297332764,-4.249652862548828
1667266570336960300,0.762960205078125,8.678468704223633,-3.9335012435913086,-4.292723655700684
1667266570339358200,0.765358154296875,8.580363273620605,-3.959822416305542,-4.342973232269287
1667266570341756000,0.767755859375,8.463114738464355,-3.9813578128814697,-4.374079704284668
1667266570344153900,0.77015380859375,8.365009307861328,-3.998107433319092,-4.395615100860596
1667266570346551600,0.772551513671875,8.266902923583984,-4.024428367614746,-4.395615100860596
1667266570348949500,0.774949462890625,8.144868850708008,-4.033999919891357,-4.386044025421143
1667266570351347200,0.77734716796875,8.039285659790039,-4.033999919891357,-4.374079704284668
1667266570353745200,0.7797451171875,7.9316086769104,-4.057928085327148,-4.371686935424805
1667266570356142800,0.782142822265625,7.807182312011719,-4.033999919891357,-4.34536600112915
1667266570358540800,0.784540771484375,7.6875410079956055,-4.024428367614746,-4.316651821136475
1667266570360938500,0.7869384765625,7.574779033660889,-4.038785457611084,-4.278367042541504
1667266570363336200,0.789336181640625,7.45992374420166,-4.036392688751221,-4.216153621673584
1667266570365734100,0.791734130859375,7.359425067901611,-4.026821613311768,-4.146462440490723
1667266570368131800,0.7941318359375,7.2421770095825195,-3.9861433506011963,-4.1129631996154785
1667266570370529800,0.79652978515625,7.136892795562744,-3.9646079540252686,-4.057928085327148
1667266570372927500,0.798927490234375,7.048357963562012,-3.959822416305542,-4.00528621673584
1667266570375325400,0.801325439453125,6.945167541503906,-3.952643871307373,-3.9574296474456787
1667266570377723100,0.80372314453125,6.87816858291626,-3.967000722885132,-3.9023945331573486
1667266570380121000,0.80612109375,6.825526714324951,-3.952643871307373,-3.840181350708008
1667266570382518800,0.808518798828125,6.7896342277526855,-3.9550366401672363,-3.7899320125579834
1667266570384916700,0.810916748046875,6.73938512802124,-3.9789650440216064,-3.7301113605499268
1667266570387314400,0.813314453125,6.727420806884766,-3.9861433506011963,-3.667897939682007
1667266570389712100,0.815712158203125,6.701099872589111,-3.9789650440216064,-3.631706476211548
1667266570392110000,0.818110107421875,6.703492641448975,-3.9933218955993652,-3.583850145339966
1667266570394507800,0.8205078125,6.729813575744629,-4.026821613311768,-3.5479576587677
1667266570396905700,0.82290576171875,6.780063152313232,-4.038785457611084,-3.507279872894287
1667266570399303400,0.825303466796875,6.844669342041016,-4.048357009887695,-3.445066452026367
1667266570401701400,0.827701416015625,6.916453838348389,-4.038785457611084,-3.3708889484405518
1667266570404099000,0.83009912109375,7.0025954246521,-4.031607151031494,-3.315854072570801
1667266570406497000,0.8324970703125,7.103393077850342,-4.045963764190674,-3.263211965560913
1667266570408894700,0.834894775390625,7.201498985290527,-4.041178226470947,-3.200998544692993
1667266570411292700,0.837292724609375,7.292426109313965,-4.038785457611084,-3.1411778926849365
1667266570413690400,0.8396904296875,7.366603374481201,-4.033999919891357,-3.10528564453125
1667266570416088300,0.84208837890625,7.450352191925049,-4.041178226470947,-3.061915636062622
1667266570418486000,0.844486083984375,7.526922702789307,-4.055535316467285,-3.045166015625
1667266570420884000,0.846884033203125,7.632505893707275,-4.067499160766602,-3.01405930519104
1667266570423281700,0.84928173828125,7.71386194229126,-4.069892406463623,-3.006880760192871
1667266570425679600,0.8516796875,7.785646915435791,-4.069892406463623,-2.9853453636169434
1667266570428077300,0.854077392578125,7.874181270599365,-4.072285175323486,-2.9805595874786377
1667266570430475000,0.85647509765625,7.960322856903076,-4.084249019622803,-2.9542386531829834
1667266570432873000,0.858873046875,8.036892890930176,-4.093820571899414,-2.942274570465088
1667266570435270700,0.861270751953125,8.12542724609375,-4.139284133911133,-2.95184588432312
1667266570437668600,0.863668701171875,8.226224899291992,-4.172783374786377,-2.9470601081848145
1667266570440066300,0.86606640625,8.293224334716797,-4.206283092498779,-2.9638099670410156
1667266570442464300,0.86846435546875,8.343473434448242,-4.203890323638916,-2.9470601081848145
1667266570444862000,0.870862060546875,8.384151458740234,-4.177569389343262,-2.9087750911712646
1667266570447260000,0.873260009765625,8.391329765319824,-4.191926002502441,-2.8992037773132324
1667266570449657600,0.87565771484375,8.341080665588379,-4.191926002502441,-2.911167860031128
1667266570452055600,0.8780556640625,8.29561710357666,-4.218546390533447,-2.911167860031128
1667266570454453200,0.880453369140625,8.28126049041748,-4.230510234832764,-2.9063823223114014
1667266570456851000,0.882850830078125,8.233403205871582,-4.266402721405029,-2.9063823223114014
1667266570459249000,0.885248779296875,8.19272518157959,-4.309473514556885,-2.918346405029297
1667266570461646600,0.887646484375,8.16401195526123,-4.366901397705078,-2.9374887943267822
1667266570464044500,0.89004443359375,8.147261619567871,-4.405186653137207,-2.95184588432312
1667266570466442200,0.892442138671875,8.130212783813477,-4.4650068283081055,-2.9614171981811523
1667266570468840200,0.894840087890625,8.108677864074707,-4.534399032592773,-2.973381280899048
1667266570471238000,0.89723779296875,8.089534759521484,-4.575077056884766,-2.9853453636169434
1667266570473635800,0.8996357421875,8.070392608642578,-4.634897232055664,-2.98295259475708
1667266570476033500,0.902033447265625,8.03210735321045,-4.687539577484131,-2.9853453636169434
1667266570478431500,0.904431396484375,7.979465484619141,-4.730610370635986,-2.944667339324951
1667266570480829200,0.9068291015625,7.907680511474609,-4.759324073791504,-2.911167860031128
1667266570483227100,0.90922705078125,7.859824180603027,-4.771587371826172,-2.8824539184570312
1667266570485624800,0.911624755859375,7.7832536697387695,-4.802694320678711,-2.8441689014434814
1667266570488022800,0.914022705078125,7.685148239135742,-4.824229717254639,-2.793919563293457
1667266570490420500,0.91642041015625,7.591827869415283,-4.824229717254639,-2.7508487701416016
1667266570492818200,0.918818115234375,7.514958381652832,-4.833800792694092,-2.691028118133545
1667266570495216000,0.921216064453125,7.412067413330078,-4.833800792694092,-2.6383860111236572
1667266570497613800,0.92361376953125,7.311568737030029,-4.795515537261963,-2.5761725902557373
1667266570500011800,0.92601171875,7.213462829589844,-4.781158924102783,-2.5232315063476562
1667266570502409500,0.928409423828125,7.098607540130615,-4.766502857208252,-2.4849462509155273
1667266570504807400,0.930807373046875,7.004988193511963,-4.754538536071777,-2.458625316619873
1667266570507205000,0.933205078125,6.918846607208252,-4.72582483291626,-2.420340061187744
1667266570509603000,0.93560302734375,6.866204738616943,-4.675575256347656,-2.420340061187744
1667266570512000800,0.938000732421875,6.8279194831848145,-4.622933387756348,-2.4059832096099854
1667266570514398700,0.940398681640625,6.787241458892822,-4.60857629776001,-2.417947292327881
1667266570516796400,0.94279638671875,6.748956203460693,-4.599005222320557,-2.444268226623535
1667266570519194000,0.945194091796875,6.73938512802124,-4.596612453460693,-2.4610180854797363
1667266570521592000,0.947592041015625,6.74656343460083,-4.620540618896484,-2.4610180854797363
1667266570523990000,0.949989990234375,6.748956203460693,-4.625326156616211,-2.451446771621704
1667266570526387700,0.9523876953125,6.7896342277526855,-4.6372904777526855,-2.4370899200439453
1667266570528785400,0.954785400390625,6.882954120635986,-4.625326156616211,-2.42512583732605
1667266570531183400,0.957183349609375,7.0025954246521,-4.620540618896484,-2.4227328300476074
1667266570533581000,0.9595810546875,7.146463871002197,-4.639683246612549,-2.434697151184082
1667266570535979000,0.96197900390625,7.3043904304504395,-4.656432628631592,-2.4370899200439453
1667266570538376700,0.964376708984375,7.416852951049805,-4.644468784332275,-2.458625316619873
1667266570540774700,0.966774658203125,7.500601768493652,-4.6540398597717285,-2.4849462509155273
1667266570543172400,0.96917236328125,7.584649562835693,-4.625326156616211,-2.4849462509155273
1667266570545570300,0.9715703125,7.673183917999268,-4.60857629776001,-2.480160713195801
1667266570547968000,0.973968017578125,7.754539966583252,-4.563112735748291,-2.513660192489624
1667266570550366000,0.976365966796875,7.816753387451172,-4.541577339172363,-2.5522444248199463
1667266570552763600,0.978763671875,7.859824180603027,-4.48414945602417,-2.588136672973633
1667266570555161300,0.981161376953125,7.890930652618408,-4.455435752868652,-2.6503500938415527
1667266570557559300,0.983559326171875,7.914859294891357,-4.453042984008789,-2.707777976989746
1667266570559957000,0.98595703125,7.945965766906738,-4.450650215148926,-2.7580273151397705
1667266570562355000,0.98835498046875,7.99382209777832,-4.426722049713135,-2.8465616703033447
1667266570564752600,0.990752685546875,8.005785942077637,-4.402793884277344,-2.9015965461730957
1667266570567150600,0.993150634765625,8.029714584350586,-4.402793884277344,-2.9853453636169434
1667266570569548300,0.99554833984375,8.022536277770996,-4.381258487701416,-3.054737091064453
1667266570571946200,0.9979462890625,8.034500122070312,-4.333401679992676,-3.1148569583892822
1667266570574344000,1.000343994140625,8.039285659790039,-4.297509670257568,-3.2033913135528564
1667266570576742000,1.002741943359375,8.029714584350586,-4.2831525802612305,-3.2991042137145996
1667266570579139600,1.0051396484375,7.996214866638184,-4.273581027984619,-3.4019956588745117
1667266570581537500,1.00753759765625,7.960322856903076,-4.268795490264893,-3.468994617462158
1667266570583935200,1.009935302734375,7.910073280334473,-4.275974273681641,-3.5407793521881104
1667266570586333200,1.012333251953125,7.843074321746826,-4.316651821136475,-3.6293137073516846
1667266570588731000,1.01473095703125,7.761718273162842,-4.34536600112915,-3.699004650115967
1667266570591128800,1.01712890625,7.682755470275879,-4.369294166564941,-3.7181472778320312
1667266570593526500,1.019526611328125,7.5774712562561035,-4.390829563140869,-3.7516467571258545
1667266570595924200,1.02192431640625,7.505387306213379,-4.419543266296387,-3.7660038471221924
1667266570598322200,1.024322265625,7.464709281921387,-4.393222332000732,-3.7755749225616455
1667266570600720000,1.026719970703125,7.462316513061523,-4.342973232269287,-3.746861219406128
1667266570603117800,1.029117919921875,7.502994537353516,-4.280759811401367,-3.7301113605499268
1667266570605515500,1.031515625,7.5652079582214355,-4.218546390533447,-3.7037904262542725
1667266570607913500,1.03391357421875,7.630113124847412,-4.163212299346924,-3.684647798538208
1667266570610311200,1.036311279296875,7.709076404571533,-4.096213340759277,-3.675076484680176
1667266570612709000,1.038709228515625,7.8287177085876465,-4.014857292175293,-3.670290946960449
1667266570615106800,1.04110693359375,7.941180229187012,-3.945465326309204,-3.6655051708221436
1667266570617504800,1.0435048828125,8.065607070922852,-3.890430450439453,-3.684647798538208
1667266570619902500,1.04590234375,8.190332412719727,-3.8760735988616943,-3.70139741897583
1667266570622300400,1.048300537109375,8.300402641296387,-3.8473596572875977,-3.739682674407959
1667266570624698000,1.050697998046875,8.410472869873047,-3.82582426071167,-3.809074640274048
1667266570627096000,1.053095947265625,8.54447078704834,-3.82582426071167,-3.895216226577759
1667266570629493800,1.05549365234375,8.68325424194336,-3.8162529468536377,-3.9622151851654053
1667266570631891500,1.057891357421875,8.784051895141602,-3.82582426071167,-4.017250061035156
1667266570634289400,1.060289306640625,8.884550094604492,-3.859323740005493,-4.0818562507629395
1667266570636687000,1.06268701171875,8.970691680908203,-3.9071803092956543,-4.151247978210449
1667266570639085000,1.0650849609375,9.008976936340332,-3.9622151851654053,-4.208974838256836
1667266570641482800,1.067482666015625,9.068798065185547,-4.024428367614746,-4.29033088684082
1667266570643880700,1.069880615234375,9.078369140625,-4.096213340759277,-4.35254430770874
1667266570646278400,1.0722783203125,9.087940216064453,-4.170390605926514,-4.41475772857666
1667266570648676400,1.07467626953125,9.109476089477539,-4.240081787109375,-4.488935470581055
1667266570651074000,1.077073974609375,9.154939651489258,-4.316651821136475,-4.563112735748291
1667266570653472000,1.079471923828125,9.183652877807617,-4.386044025421143,-4.599005222320557
1667266570655869700,1.08186962890625,9.214759826660156,-4.4482574462890625,-4.603790760040283
1667266570658267600,1.084267578125,9.245866775512695,-4.4721856117248535,-4.570291042327881
1667266570660665300,1.086665283203125,9.27727222442627,-4.474578380584717,-4.517649173736572
1667266570663063300,1.089063232421875,9.317950248718262,-4.455435752868652,-4.445864677429199
1667266570665461000,1.0914609375,9.353842735290527,-4.460221290588379,-4.369294166564941
1667266570667858700,1.093858642578125,9.358628273010254,-4.42193603515625,-4.275974273681641
1667266570670256600,1.096256591796875,9.377771377563477,-4.388436794281006,-4.175176620483398
1667266570672654300,1.098654296875,9.365806579589844,-4.366901397705078,-4.103391647338867
1667266570675052300,1.10105224609375,9.365806579589844,-4.321437835693359,-4.041178226470947
1667266570677450000,1.103449951171875,9.38734245300293,-4.302295207977295,-3.945465326309204
1667266570679848000,1.105847900390625,9.406484603881836,-4.266402721405029,-3.840181350708008
1667266570682245600,1.10824560546875,9.454340934753418,-4.218546390533447,-3.7444684505462646
1667266570684643600,1.1106435546875,9.51176929473877,-4.146462440490723,-3.653541088104248
1667266570687041300,1.113041259765625,9.595518112182617,-4.091427803039551,-3.5814573764801025
1667266570689439200,1.115439208984375,9.650552749633789,-4.065106391906738,-3.4785659313201904
1667266570691837000,1.1178369140625,9.703194618225098,-4.029214382171631,-3.3780672550201416
1667266570694235000,1.12023486328125,9.74387264251709,-3.990929126739502,-3.315854072570801
1667266570696632600,1.122632568359375,9.779765129089355,-3.9813578128814697,-3.263211965560913
1667266570699030500,1.125030517578125,9.808479309082031,-3.9574296474456787,-3.2344980239868164
1667266570701428200,1.12742822265625,9.8207426071167,-3.904787540435791,-3.169891834259033
1667266570703826200,1.129826171875,9.839884757995605,-3.864109516143799,-3.098107099533081
1667266570706223900,1.132223876953125,9.866206169128418,-3.804288864135742,-3.0714869499206543
1667266570708621600,1.13462158203125,9.897313117980957,-3.7851462364196777,-3.0499515533447266
1667266570711019500,1.13701953125,9.918848037719727,-3.7516467571258545,-3.054737091064453
1667266570713417200,1.139417236328125,9.947562217712402,-3.7540395259857178,-3.0475587844848633
1667266570715815200,1.141815185546875,9.997811317443848,-3.7827534675598145,-3.045166015625
1667266570718212900,1.144212890625,10.055238723754883,-3.809074640274048,-3.0571300983428955
1667266570720610800,1.14661083984375,10.107880592346191,-3.828217029571533,-3.0786654949188232
1667266570723008500,1.149008544921875,10.160523414611816,-3.842574119567871,-3.0957143306732178
1667266570725406500,1.151406494140625,10.217950820922852,-3.8377883434295654,-3.1339993476867676
1667266570727804200,1.15380419921875,10.253843307495117,-3.8473596572875977,-3.1746773719787598
1667266570730202000,1.1562021484375,10.268199920654297,-3.840181350708008,-3.193819999694824
1667266570732599800,1.158599853515625,10.268199920654297,-3.8210387229919434,-3.222533941268921
1667266570734997800,1.160997802734375,10.275378227233887,-3.7971103191375732,-3.248854875564575
1667266570737395500,1.1633955078125,10.268199920654297,-3.811467409133911,-3.284747362136841
1667266570739793400,1.16579345703125,10.258628845214844,-3.804288864135742,-3.311068296432495
1667266570742191000,1.168191162109375,10.244272232055664,-3.8066816329956055,-3.3373894691467285
1667266570744588800,1.1705888671875,10.217950820922852,-3.8138601779937744,-3.3541390895843506
1667266570746986800,1.17298681640625,10.17727279663086,-3.8473596572875977,-3.3613176345825195
1667266570749384400,1.175384521484375,10.15573787689209,-3.9000017642974854,-3.356531858444214
1667266570751782400,1.177782470703125,10.122238159179688,-3.967000722885132,-3.339782238006592
1667266570754180000,1.18018017578125,10.107880592346191,-4.038785457611084,-3.3206396102905273
1667266570756578000,1.182578125,10.083952903747559,-4.1129631996154785,-3.3278181552886963
1667266570758975700,1.184975830078125,10.055238723754883,-4.158426761627197,-3.287140130996704
1667266570761373700,1.187373779296875,10.03131103515625,-4.232903480529785,-3.2584261894226074
1667266570763771400,1.189771484375,10.01456069946289,-4.254438877105713,-3.2201411724090576
1667266570766169300,1.19216943359375,10.01456069946289,-4.2592244148254395,-3.153141975402832
1667266570768567000,1.194567138671875,10.019346237182617,-4.254438877105713,-3.0643084049224854
1667266570770965000,1.196965087890625,10.026525497436523,-4.247260093688965,-2.9853453636169434
1667266570773362700,1.19936279296875,10.026525497436523,-4.230510234832764,-2.9327032566070557
1667266570775760600,1.2017607421875,10.06002426147461,-4.218546390533447,-2.8537402153015137
1667266570778158300,1.204158447265625,10.103095054626465,-4.196712017059326,-2.7580273151397705
1667266570780556000,1.20655615234375,10.14616584777832,-4.177569389343262,-2.676671266555786
1667266570782954000,1.2089541015625,10.179665565490723,-4.165605068206787,-2.604886531829834
1667266570785351700,1.2113515625,10.25623607635498,-4.117748737335205,-2.549851655960083
1667266570787749600,1.21374951171875,10.339984893798828,-4.072285175323486,-2.4921247959136963
1667266570790147300,1.216147216796875,10.443175315856934,-4.033999919891357,-2.449054002761841
1667266570792545300,1.218545166015625,10.555638313293457,-3.969393730163574,-2.4155545234680176
1667266570794943000,1.22094287109375,10.670493125915527,-3.904787540435791,-2.4011974334716797
1667266570797341000,1.2233408203125,10.79013442993164,-3.833002805709839,-2.386840581893921
1667266570799738600,1.225738525390625,10.9002046585083,-3.780360698699951,-2.396411895751953
1667266570802136600,1.228136474609375,11.029715538024902,-3.7109687328338623,-2.4394826889038086
1667266570804534300,1.2305341796875,11.13021469116211,-3.6583266258239746,-2.4705893993377686
1667266570806932200,1.23293212890625,11.221141815185547,-3.6340994834899902,-2.506481647491455
1667266570809330000,1.235329833984375,11.319247245788574,-3.6340994834899902,-2.564208507537842
1667266570811728000,1.237727783203125,11.417353630065918,-3.624528169631958,-2.6024937629699707
1667266570814125600,1.24012548828125,11.506186485290527,-3.5982069969177246,-2.6575286388397217
1667266570816523500,1.2425234375,11.573185920715332,-3.57906436920166,-2.714956283569336
1667266570818921200,1.244921142578125,11.644970893859863,-3.57906436920166,-2.7580273151397705
1667266570821319000,1.24731884765625,11.709576606750488,-3.5742788314819336,-2.793919563293457
1667266570823716900,1.249716796875,11.726326942443848,-3.5575289726257324,-2.8274190425872803
1667266570826114600,1.252114501953125,11.76461124420166,-3.528815269470215,-2.8369903564453125
1667266570828512500,1.254512451171875,11.783754348754883,-3.4953157901763916,-2.865704298019409
1667266570830910200,1.25691015625,11.817254066467285,-3.4642090797424316,-2.8680970668792725
1667266570833308200,1.25930810546875,11.841181755065918,-3.4331023693084717,-2.8824539184570312
1667266570835705900,1.261705810546875,11.903395652770996,-3.3852458000183105,-2.9015965461730957
1667266570838103800,1.264103759765625,11.979965209960938,-3.3708889484405518,-2.9159533977508545
1667266570840501500,1.26650146484375,12.068799018859863,-3.387638568878174,-2.9327032566070557
1667266570842899500,1.2688994140625,12.162118911743164,-3.4235310554504395,-2.9303104877471924
1667266570845297200,1.271297119140625,12.28415298461914,-3.4642090797424316,-2.8992037773132324
1667266570847695000,1.273695068359375,12.413365364074707,-3.5407793521881104,-2.834597587585449
1667266570850092800,1.2760927734375,12.566506385803223,-3.6125640869140625,-2.7987051010131836
1667266570852490800,1.27849072265625,12.719945907592773,-3.722932815551758,-2.753241539001465
1667266570854888400,1.280888427734375,12.83480167388916,-3.7923247814178467,-2.700599431991577
1667266570857286100,1.2832861328125,12.906586647033691,-3.8545382022857666,-2.628814697265625
1667266570859684000,1.28568408203125,12.975977897644043,-3.9095730781555176,-2.573779821395874
1667266570862082000,1.28808203125,13.023834228515625,-3.9813578128814697,-2.5112674236297607
1667266570864479700,1.290479736328125,13.023834228515625,-4.057928085327148,-2.4538395404815674
1667266570866877400,1.29287744140625,13.009477615356445,-4.132105827331543,-2.434697151184082
1667266570869275400,1.295275390625,13.026226997375488,-4.153641223907471,-2.3772692680358887
1667266570871673000,1.297673095703125,13.071690559387207,-4.163212299346924,-2.283949136734009
1667266570874071000,1.300071044921875,13.100404739379883,-4.191926002502441,-2.2121646404266357
1667266570876468700,1.30246875,13.153046607971191,-4.211368083953857,-2.1475582122802734
1667266570878866700,1.30486669921875,13.194024085998535,-4.2281174659729,-2.1164517402648926
1667266570881264400,1.307264404296875,13.234702110290527,-4.254438877105713,-2.090130567550659
1667266570883662300,1.309662353515625,13.256237030029297,-4.271188259124756,-2.0685951709747314
1667266570886060000,1.31206005859375,13.249058723449707,-4.299902439117432,-2.087737798690796
1667266570888458000,1.3144580078125,13.225131034851074,-4.335794448852539,-2.0853450298309326
1667266570890855700,1.316855712890625,13.18415355682373,-4.366901397705078,-2.1236300468444824
1667266570893253600,1.319253662109375,13.136297225952148,-4.409972190856934,-2.190629243850708
1667266570895651300,1.3216513671875,13.054941177368164,-4.481756687164307,-2.2576282024383545
1667266570898049300,1.32404931640625,12.94247817993164,-4.572684288024902,-2.3700907230377197
1667266570900447000,1.326447021484375,12.844372749328613,-4.687539577484131,-2.465803623199463
1667266570902845000,1.328844970703125,12.74866008758545,-4.809872627258301,-2.5713870525360107
1667266570905242600,1.33124267578125,12.629018783569336,-4.931906700134277,-2.6958138942718506
1667266570907640300,1.333640380859375,12.530613899230957,-5.056333541870117,-2.8034908771514893
1667266570910038300,1.336038330078125,12.442079544067383,-5.180759906768799,-2.865704298019409
1667266570912436000,1.33843603515625,12.384652137756348,-5.2956156730651855,-2.9087750911712646
1667266570914834000,1.340833984375,12.29372501373291,-5.396413326263428,-2.944667339324951
1667266570917231600,1.343231689453125,12.231511116027832,-5.494519233703613,-2.9566314220428467
1667266570919629600,1.345629638671875,12.178869247436523,-5.563910961151123,-2.935096025466919
1667266570922027300,1.34802734375,12.126227378845215,-5.6309099197387695,-2.903989315032959
1667266570924425200,1.35042529296875,12.092727661132812,-5.669195175170898,-2.8704898357391357
1667266570926823000,1.352822998046875,12.071191787719727,-5.726622581481934,-2.839383125305176
1667266570929220900,1.355220947265625,12.071191787719727,-5.748157978057861,-2.8226335048675537
1667266570931618600,1.35761865234375,12.061321258544922,-5.784050464630127,-2.7819554805755615
1667266570934016500,1.3600166015625,12.061321258544922,-5.84865665435791,-2.7508487701416016
1667266570936414200,1.362414306640625,12.07358455657959,-5.913562297821045,-2.755634307861328
1667266570938812200,1.364812255859375,12.09033489227295,-6.0140604972839355,-2.762812852859497
1667266570941209900,1.3672099609375,12.121440887451172,-6.126523494720459,-2.784348249435425
1667266570943607600,1.369607666015625,12.150155067443848,-6.22702169418335,-2.810669183731079
1667266570946005500,1.372005615234375,12.162118911743164,-6.3442702293396,-2.8369903564453125
1667266570948403500,1.374403564453125,12.18365478515625,-6.432804584503174,-2.8752756118774414
1667266570950801200,1.37680126953125,12.217154502868652,-6.516852378845215,-2.8920252323150635
1667266570953198800,1.37919873046875,12.236296653747559,-6.610172748565674,-2.8752756118774414
1667266570955596800,1.3815966796875,12.257832527160645,-6.68435001373291,-2.839383125305176
1667266570957994500,1.383994384765625,12.279367446899414,-6.75374174118042,-2.7963123321533203
1667266570960392400,1.386392333984375,12.365509033203125,-6.844669342041016,-2.7412774562835693
1667266570962790100,1.3887900390625,12.475579261779785,-6.9690961837768555,-2.667099952697754
1667266570965188000,1.39118798828125,12.597613334655762,-7.110571384429932,-2.5785655975341797
1667266570967585800,1.393585693359375,12.751052856445312,-7.270890712738037,-2.4466612339019775
1667266570969983700,1.395983642578125,12.947264671325684,-7.402495861053467,-2.334198474884033
1667266570972381400,1.39838134765625,13.174582481384277,-7.524529933929443,-2.231307029724121
1667266570974779400,1.400779296875,13.464412689208984,-7.608577728271484,-2.097309112548828
1667266570977177000,1.403177001953125,13.77099323272705,-7.632505893707275,-1.970489501953125
1667266570979575000,1.405574951171875,14.089239120483398,-7.670791149139404,-1.83619225025177
1667266570981972700,1.40797265625,14.414961814880371,-7.689933776855469,-1.7237296104431152
1667266570984370700,1.41037060546875,14.752349853515625,-7.728219032287598,-1.6184453964233398
1667266570986768400,1.412768310546875,15.058930397033691,-7.747361660003662,-1.5394822359085083
1667266570989166300,1.415166259765625,15.312569618225098,-7.76889705657959,-1.477268934249878
1667266570991564000,1.41756396484375,15.556936264038086,-7.809575080871582,-1.450947880744934
1667266570993961700,1.419961669921875,15.77707576751709,-7.850253105163574,-1.4676976203918457
1667266570996359700,1.422359619140625,15.990036964416504,-7.895716667175293,-1.5083755254745483
1667266570998757400,1.42475732421875,16.208084106445312,-7.965108394622803,-1.596909999847412
1667266571001155300,1.4271552734375,16.394723892211914,-8.034500122070312,-1.7715860605239868
1667266571003553000,1.429552978515625,16.519149780273438,-8.115856170654297,-1.9824535846710205
1667266571005951000,1.431950927734375,16.57687759399414,-8.173583030700684,-2.1714866161346436
1667266571008348700,1.4343486328125,16.584054946899414,-8.223832130432129,-2.36291241645813
1667266571010746600,1.43674658203125,16.526329040527344,-8.274081230163574,-2.5594229698181152
1667266571013144300,1.439144287109375,16.387544631958008,-8.290831565856934,-2.7675983905792236
1667266571015542300,1.441542236328125,16.200904846191406,-8.314759254455566,-2.9614171981811523
1667266571017940000,1.44393994140625,15.978073120117188,-8.29561710357666,-3.129213809967041
1667266571020338000,1.446337890625,15.712470054626465,-8.254939079284668,-3.2823543548583984
1667266571022735600,1.448735595703125,15.43490219116211,-8.19511890411377,-3.428316593170166
1667266571025133600,1.451133544921875,15.147464752197266,-8.12542724609375,-3.5336008071899414
1667266571027531300,1.45353125,14.831313133239746,-8.060821533203125,-3.6436707973480225
1667266571029929000,1.455928955078125,14.515460014343262,-7.9866437911987305,-3.739682674407959
1667266571032327000,1.458326904296875,14.194522857666016,-7.886145114898682,-3.8449668884277344
1667266571034724900,1.460724853515625,13.873885154724121,-7.790432453155518,-3.9239299297332764
1667266571037122600,1.46312255859375,13.569697380065918,-7.716254711151123,-3.9861433506011963
1667266571039520300,1.465520263671875,13.26102352142334,-7.63729190826416,-4.067499160766602
1667266571041918200,1.467918212890625,12.97358512878418,-7.574779033660889,-4.120141506195068
1667266571044316000,1.47031591796875,12.719945907592773,-7.5341010093688965,-4.144069671630859
1667266571046713900,1.4727138671875,12.52582836151123,-7.474280834197998,-4.165605068206787
1667266571049111600,1.475111572265625,12.353545188903809,-7.440781116485596,-4.189533233642578
1667266571051509500,1.477509521484375,12.19801139831543,-7.385746002197266,-4.206283092498779
1667266571053907200,1.4799072265625,12.102298736572266,-7.313961505889893,-4.206283092498779
1667266571056305200,1.48230517578125,12.039786338806152,-7.239784240722656,-4.208974838256836
1667266571058702800,1.484702880859375,12.011072158813477,-7.160820960998535,-4.218546390533447
1667266571061100800,1.487100830078125,11.963215827941895,-7.081857681274414,-4.237689018249512
1667266571063498500,1.48949853515625,11.922537803649902,-7.0292158126831055,-4.292723655700684
1667266571065896400,1.491896484375,11.89861011505127,-6.9930243492126465,-4.35254430770874
1667266571068294100,1.494294189453125,11.8890380859375,-6.954739093780518,-4.462614059448242
1667266571070692000,1.496692138671875,11.838788986206055,-6.966702938079834,-4.570291042327881
1667266571073089800,1.49908984375,11.78853988647461,-6.997809886932373,-4.66361141204834
1667266571075487700,1.50148779296875,11.726326942443848,-7.057929515838623,-4.78594446182251
1667266571077885400,1.503885498046875,11.63300609588623,-7.103393077850342,-4.893621444702148
1667266571080283100,1.506283203125,11.51815128326416,-7.177570819854736,-4.977370262145996
1667266571082681000,1.50868115234375,11.398210525512695,-7.246962547302246,-5.087440013885498
1667266571085079000,1.5110791015625,11.280961990356445,-7.292426109313965,-5.168796062469482
1667266571087476700,1.513476806640625,11.132607460021973,-7.359425067901611,-5.223830699920654
1667266571089874400,1.51587451171875,11.001002311706543,-7.340282440185547,-5.221437931060791
1667266571092272400,1.5182724609375,10.852348327636719,-7.354639530181885,-5.173581600189209
1667266571094670000,1.520670166015625,10.675278663635254,-7.380960464477539,-5.142475128173828
1667266571097068000,1.523068115234375,10.546066284179688,-7.426424026489258,-5.113760948181152
1667266571099465700,1.5254658203125,10.443175315856934,-7.4240312576293945,-5.070690155029297
1667266571101863700,1.52786376953125,10.361519813537598,-7.409674644470215,-4.977370262145996
1667266571104261400,1.530261474609375,10.246665000915527,-7.414460182189941,-4.876871585845947
1667266571106659300,1.532659423828125,10.14616584777832,-7.407281398773193,-4.788337230682373
1667266571109057000,1.53505712890625,10.040882110595703,-7.412067413330078,-4.6995038986206055
1667266571111455000,1.537455078125,9.923633575439453,-7.383353233337402,-4.565505504608154
1667266571113852700,1.539852783203125,9.777372360229492,-7.371389389038086,-4.42193603515625
1667266571116250600,1.542250732421875,9.652945518493652,-7.306783199310303,-4.232903480529785
1667266571118648300,1.5446484375,9.523733139038086,-7.282855033874512,-4.017250061035156
1667266571121046300,1.54704638671875,9.418449401855469,-7.223034381866455,-3.809074640274048
1667266571123444000,1.54944384765625,9.339486122131348,-7.167999267578125,-3.6221351623535156
1667266571125841700,1.551841552734375,9.274879455566406,-7.11775016784668,-3.468994617462158
1667266571128239600,1.554239501953125,9.26291561126709,-7.06271505355835,-3.3469607830047607
1667266571130637300,1.55663720703125,9.28445053100586,-6.94038200378418,-3.253640651702881
1667266571133035300,1.55903515625,9.358628273010254,-6.849454879760742,-3.169891834259033
1667266571135433000,1.561432861328125,9.416056632995605,-6.763313293457031,-3.1339993476867676
1667266571137831000,1.563830810546875,9.48066234588623,-6.679564476013184,-3.129213809967041
1667266571140228600,1.566228515625,9.559625625610352,-6.62213659286499,-3.1579277515411377
1667266571142626600,1.56862646484375,9.638588905334473,-6.571887493133545,-3.224926710128784
1667266571145024300,1.571024169921875,9.72233772277832,-6.512066841125488,-3.3134610652923584
1667266571147422200,1.573422119140625,9.791728973388672,-6.447161674499512,-3.4331023693084717
1667266571149820000,1.57581982421875,9.854242324829102,-6.428019046783447,-3.5336008071899414
1667266571152217900,1.5782177734375,9.902098655700684,-6.394519329071045,-3.6870405673980713
1667266571154615600,1.580615478515625,9.993025779724121,-6.363412857055664,-3.801896095275879
1667266571157013500,1.583013427734375,10.093523979187012,-6.317949295043945,-3.9071803092956543
1667266571159411200,1.5854111328125,10.246665000915527,-6.267699718475342,-4.002892971038818
1667266571161809000,1.587808837890625,10.397711753845215,-6.200700759887695,-4.108177185058594
1667266571164206800,1.590206787109375,10.55803108215332,-6.114559173583984,-4.201497554779053
1667266571166604800,1.592604736328125,10.71834945678711,-6.054738521575928,-4.292723655700684
1667266571169002500,1.59500244140625,10.847562789916992,-6.011667728424072,-4.3549370765686035
1667266571171400400,1.597400390625,10.953145980834961,-5.951847076416016,-4.426722049713135
1667266571173798100,1.599798095703125,11.034502029418945,-5.889334678649902,-4.488935470581055
1667266571176195800,1.60219580078125,11.094322204589844,-5.807978630065918,-4.515256404876709
1667266571178593800,1.60459375,11.132607460021973,-5.743372440338135,-4.522434711456299
1667266571180991500,1.606991455078125,11.175678253173828,-5.6931233406066895,-4.508078098297119
1667266571183389400,1.609389404296875,11.197213172912598,-5.618945598602295,-4.486542224884033
1667266571185787100,1.611787109375,11.197213172912598,-5.544768333435059,-4.481756687164307
1667266571188185000,1.61418505859375,11.192427635192871,-5.528018474578857,-4.460221290588379
1667266571190582800,1.616582763671875,11.168499946594238,-5.470590591430664,-4.438685894012451
1667266571192980700,1.618980712890625,11.094322204589844,-5.415555953979492,-4.409972190856934
1667266571195378400,1.62137841796875,11.015358924865723,-5.372485160827637,-4.386044025421143
1667266571197776400,1.6237763671875,10.936097145080566,-5.338985443115234,-4.34536600112915
1667266571200174000,1.626174072265625,10.83559799194336,-5.312365531921387,-4.304687976837158
1667266571202572000,1.628572021484375,10.742278099060059,-5.266901969909668,-4.252045631408691
1667266571204969700,1.6309697265625,10.622636795043945,-5.223830699920654,-4.179962158203125
1667266571207367700,1.63336767578125,10.474282264709473,-5.171188831329346,-4.100998878479004
1667266571209765400,1.635765380859375,10.325628280639648,-5.1305108070373535,-4.007678985595703
1667266571212163300,1.638163330078125,10.160523414611816,-5.070690155029297,-3.9095730781555176
1667266571214561000,1.64056103515625,9.993025779724121,-5.020441055297852,-3.8066816329956055
1667266571216959000,1.642958984375,9.813264846801758,-4.9725847244262695,-3.6631124019622803
1667266571219356700,1.645356689453125,9.652945518493652,-4.919942378997803,-3.5336008071899414
1667266571221754400,1.64775439453125,9.499805450439453,-4.826622486114502,-3.4163525104522705
1667266571224152300,1.65015234375,9.341878890991211,-4.73300313949585,-3.2991042137145996
1667266571226550000,1.652550048828125,9.18843936920166,-4.646861553192139,-3.1411778926849365
1667266571228948000,1.654947998046875,9.035298347473145,-4.5822553634643555,-2.99013090133667
1667266571231345700,1.657345703125,8.891729354858398,-4.48414945602417,-2.841775894165039
1667266571233743600,1.65974365234375,8.791230201721191,-4.400400638580322,-2.722134828567505
1667266571236141300,1.662141357421875,8.72901725769043,-4.319045066833496,-2.614457845687866
1667266571238539300,1.664539306640625,8.695218086242676,-4.264009952545166,-2.5016961097717285
1667266571240937000,1.66693701171875,8.671290397644043,-4.196712017059326,-2.4370899200439453
1667266571243335000,1.6693349609375,8.66889762878418,-4.144069671630859,-2.341377019882202
1667266571245732600,1.671732666015625,8.697610855102539,-4.077070713043213,-2.2432711124420166
1667266571248130600,1.674130615234375,8.72901725769043,-4.024428367614746,-2.152343988418579
1667266571250528300,1.6765283203125,8.772088050842285,-3.9406797885894775,-2.0685951709747314
1667266571252926200,1.67892626953125,8.851051330566406,-3.85693097114563,-1.970489501953125
1667266571255324000,1.681323974609375,8.96112060546875,-3.7660038471221924,-1.9127626419067383
1667266571257721900,1.683721923828125,9.09272575378418,-3.675076484680176,-1.831406593322754
1667266571260119600,1.68611962890625,9.279664993286133,-3.5718860626220703,-1.7548363208770752
1667266571262517200,1.688517333984375,9.485447883605957,-3.466601848602295,-1.690230131149292
1667266571264915200,1.690915283203125,9.703194618225098,-3.3708889484405518,-1.6471593379974365
1667266571267313200,1.693313232421875,9.93559741973877,-3.2991042137145996,-1.6208382844924927
1667266571269710800,1.6957109375,10.201201438903809,-3.2129626274108887,-1.6136597394943237
1667266571272108500,1.698108642578125,10.45513916015625,-3.1339993476867676,-1.6088740825653076
1667266571274506500,1.700506591796875,10.739885330200195,-3.0427730083465576,-1.6064813137054443
1667266571276904200,1.702904296875,11.034502029418945,-2.975774049758911,-1.659123420715332
1667266571279302100,1.70530224609375,11.288141250610352,-2.927917718887329,-1.6926229000091553
1667266571281699800,1.707699951171875,11.520544052124023,-2.8824539184570312,-1.776371717453003
1667266571284097800,1.710097900390625,11.711969375610352,-2.856132984161377,-1.8888343572616577
1667266571286495500,1.71249560546875,11.857932090759277,-2.841775894165039,-2.0063817501068115
1667266571288893400,1.7148935546875,11.946466445922852,-2.8537402153015137,-2.1403799057006836
1667266571291291100,1.717291015625,11.960823059082031,-2.913560628890991,-2.2959132194519043
1667266571293689000,1.719689208984375,11.951251983642578,-2.973381280899048,-2.4634108543395996
1667266571296086800,1.722086669921875,11.862717628479004,-3.0260233879089355,-2.643171787261963
1667266571298484700,1.724484619140625,11.740683555603027,-3.085843801498413,-2.817847728729248
1667266571300882400,1.72688232421875,11.616256713867188,-3.1316065788269043,-2.9853453636169434
1667266571303280400,1.7292802734375,11.47956657409668,-3.177070379257202,-3.1555347442626953
1667266571305678000,1.731677978515625,11.326425552368164,-3.2033913135528564,-3.308675527572632
1667266571308075800,1.73407568359375,11.175678253173828,-3.200998544692993,-3.4378879070281982
1667266571310473700,1.7364736328125,11.003395080566406,-3.1962127685546875,-3.5359935760498047
1667266571312871400,1.738871337890625,10.830812454223633,-3.184248685836792,-3.638885021209717
1667266571315269400,1.741269287109375,10.634601593017578,-3.1555347442626953,-3.7348971366882324
1667266571317667300,1.743667236328125,10.44078254699707,-3.1387851238250732,-3.8066816329956055
1667266571320065000,1.74606494140625,10.244272232055664,-3.1100711822509766,-3.8928234577178955
1667266571322462700,1.748462646484375,10.033703804016113,-3.1100711822509766,-3.9311084747314453
1667266571324860700,1.750860595703125,9.803693771362305,-3.028416156768799,-3.91914439201355
1667266571327258400,1.75325830078125,9.530911445617676,-2.98295259475708,-3.8928234577178955
1667266571329656300,1.75565625,9.260522842407227,-2.9781668186187744,-3.921537160873413
1667266571332054000,1.758053955078125,9.032905578613281,-3.0020952224731445,-3.9646079540252686
1667266571334452000,1.760451904296875,8.841479301452637,-2.999702215194702,-4.0196428298950195
1667266571336849700,1.762849609375,8.678468704223633,-3.028416156768799,-4.024428367614746
1667266571339247600,1.76524755859375,8.52772045135498,-3.0571300983428955,-3.9717864990234375
1667266571341645300,1.767645263671875,8.357830047607422,-3.0714869499206543,-3.895216226577759
1667266571344043300,1.770043212890625,8.214261054992676,-3.11246395111084,-3.7995033264160156
1667266571346441000,1.77244091796875,8.084749221801758,-3.0957143306732178,-3.7301113605499268
1667266571348839000,1.7748388671875,7.977072715759277,-3.085843801498413,-3.6364922523498535
1667266571351236600,1.777236572265625,7.910073280334473,-3.061915636062622,-3.5024940967559814
1667266571353634600,1.779634521484375,7.871788501739502,-2.999702215194702,-3.3373894691467285
1667266571356032300,1.7820322265625,7.8454670906066895,-2.913560628890991,-3.184248685836792
1667266571358430000,1.784429931640625,7.835896015167236,-2.8537402153015137,-3.0332016944885254
1667266571360828000,1.786827880859375,7.833503246307373,-2.7484560012817383,-2.848954439163208
1667266571363225600,1.7892255859375,7.833503246307373,-2.669492721557617,-2.674278497695923
1667266571365623600,1.79162353515625,7.8382887840271,-2.564208507537842,-2.504088878631592
1667266571368021200,1.794021240234375,7.833503246307373,-2.489732027053833,-2.3605196475982666
1667266571370419200,1.796419189453125,7.816753387451172,-2.4131617546081543,-2.204986095428467
1667266571372817000,1.79881689453125,7.797610759735107,-2.3437697887420654,-2.121237277984619
1667266571375214800,1.80121484375,7.742575645446777,-2.3365912437438965,-2.056631088256836
1667266571377612500,1.803612548828125,7.682755470275879,-2.3150558471679688,-1.9848463535308838
1667266571380010500,1.806010498046875,7.6253275871276855,-2.317448616027832,-1.9558334350585938
1667266571382408200,1.808408203125,7.5652079582214355,-2.3294129371643066,-1.9486548900604248
1667266571384806100,1.81080615234375,7.491030216217041,-2.3509483337402344,-1.9680966138839722
1667266571387203800,1.813203857421875,7.39053201675415,-2.358126640319824,-1.9824535846710205
1667266571389601800,1.815601806640625,7.282855033874512,-2.372483730316162,-1.9848463535308838
1667266571391999500,1.81799951171875,7.160820960998535,-2.39401912689209,-1.9728822708129883
1667266571394397400,1.8203974609375,7.031608581542969,-2.3676979541778564,-1.9824535846710205
1667266571396795100,1.822795166015625,6.887740135192871,-2.33180570602417,-1.9776679277420044
1667266571399193000,1.825193115234375,6.744170665740967,-2.3198416233062744,-1.970489501953125
1667266571401590800,1.8275908203125,6.617351055145264,-2.2911276817321777,-1.9657038450241089
1667266571403988500,1.829988525390625,6.507281303405762,-2.2360928058624268,-1.9438693523406982
1667266571406386400,1.832386474609375,6.392126560211182,-2.1954147815704346,-1.934298038482666
1667266571408784100,1.8347841796875,6.303592205047607,-2.1068804264068604,-1.8792630434036255
1667266571411182000,1.83718212890625,6.207879066467285,-2.0303099155426025,-1.8266209363937378
1667266571413579800,1.839579833984375,6.1002020835876465,-2.0063817501068115,-1.8409779071807861
1667266571415977700,1.841977783203125,5.992525100708008,-1.9848463535308838,-1.903191328048706
1667266571418375400,1.84437548828125,5.913562297821045,-1.9438693523406982,-1.9151554107666016
1667266571420773400,1.8467734375,5.803193092346191,-1.922333836555481,-1.934298038482666
1667266571423171000,1.849171142578125,5.712265968322754,-1.8768702745437622,-1.9486548900604248
1667266571425569000,1.851569091796875,5.621338367462158,-1.83619225025177,-1.9657038450241089
1667266571427966700,1.853966796875,5.532804012298584,-1.80508553981781,-1.9872392416000366
1667266571430364700,1.85636474609375,5.456233978271484,-1.7715860605239868,-1.994417667388916
1667266571432762400,1.858762451171875,5.3940205574035645,-1.7548363208770752,-2.0398812294006348
1667266571435160300,1.861160400390625,5.338985443115234,-1.6974085569381714,-2.066202402114868
1667266571437558000,1.86355810546875,5.309972763061523,-1.6399807929992676,-2.111665964126587
1667266571439956000,1.8659560546875,5.269294738769531,-1.5753746032714844,-2.1571295261383057
1667266571442353700,1.868353759765625,5.231009483337402,-1.5107684135437012,-2.2025933265686035
1667266571444751600,1.870751708984375,5.233402252197266,-1.4437693357467651,-2.26959228515625
1667266571447149300,1.8731494140625,5.231009483337402,-1.3716856241226196,-2.3294129371643066
1667266571449547300,1.87554736328125,5.242973327636719,-1.2783654928207397,-2.389233350753784
1667266571451945000,1.877945068359375,5.25972318649292,-1.194616675376892,-2.465803623199463
1667266571454342700,1.8803427734375,5.24536657333374,-1.1419745683670044,-2.5474588871002197
1667266571456740600,1.88274072265625,5.2405805587768555,-1.1084750890731812,-2.5953152179718018
1667266571459138300,1.88513818359375,5.231009483337402,-1.0654042959213257,-2.6551358699798584
1667266571461536300,1.887536376953125,5.207081317901611,-1.0103694200515747,-2.6790640354156494
1667266571463934000,1.889933837890625,5.173581600189209,-0.9768698215484619,-2.714956283569336
1667266571466332000,1.892331787109375,5.13529634475708,-0.9553344249725342,-2.729313373565674
1667266571468729600,1.8947294921875,5.094618320465088,-0.9481559991836548,-2.753241539001465
1667266571471127600,1.89712744140625,5.056333541870117,-0.9672985672950745,-2.7580273151397705
1667266571473525200,1.899525146484375,5.027619361877441,-0.9457631707191467,-2.7364916801452637
1667266571475923200,1.901923095703125,5.027619361877441,-0.9194421172142029,-2.7173492908477783
1667266571478321000,1.90432080078125,5.041976451873779,-0.9098708033561707,-2.724527597427368
1667266571480718800,1.90671875,5.051547527313232,-0.9026923179626465,-2.729313373565674
1667266571483116500,1.909116455078125,5.044369220733643,-0.8955138921737671,-2.7364916801452637
1667266571485514500,1.911514404296875,5.027619361877441,-0.893121063709259,-2.731706142425537
1667266571487912200,1.913912109375,5.018048286437988,-0.9050851464271545,-2.7364916801452637
1667266571490310000,1.916309814453125,5.00369119644165,-0.9170492887496948,-2.705385208129883
1667266571492707800,1.918707763671875,4.974977493286133,-0.9170492887496948,-2.6790640354156494
1667266571495105500,1.92110546875,4.936692237854004,-0.9266205430030823,-2.676671266555786
1667266571497503500,1.92350341796875,4.915156841278076,-0.9098708033561707,-2.6623141765594482
1667266571499901400,1.9259013671875,4.891228675842285,-0.8787640929222107,-2.5833511352539062
1667266571502299100,1.928299072265625,4.838586330413818,-0.8715856671333313,-2.566601276397705
1667266571504696800,1.93069677734375,4.781158924102783,-0.8644071817398071,-2.5761725902557373
1667266571507094800,1.9330947265625,4.735395908355713,-0.7468597888946533,-2.4777679443359375
1667266571509492500,1.935492431640625,4.697110652923584,-0.6846463680267334,-2.4299113750457764
1667266571511890400,1.937890380859375,4.658825874328613,-0.6894320249557495,-2.3988046646118164
1667266571514288000,1.9402880859375,4.5822553634643555,-0.734895646572113,-2.3676979541778564
1667266571516686000,1.94268603515625,4.503292083740234,-0.8114659786224365,-2.3676979541778564
1667266571519083800,1.945083740234375,4.438685894012451,-0.8787640929222107,-2.372483730316162
1667266571521481700,1.947481689453125,4.3788652420043945,-0.9361918568611145,-2.39401912689209
1667266571523879400,1.94987939453125,4.335794448852539,-0.9888339638710022,-2.4323041439056396
1667266571526277400,1.95227734375,4.299902439117432,-1.0654042959213257,-2.5160529613494873
1667266571528675000,1.954675048828125,4.2831525802612305,-1.1539387702941895,-2.6096723079681396
1667266571531073000,1.957072998046875,4.292723655700684,-1.2041879892349243,-2.683849811553955
1667266571533470700,1.959470703125,4.295116424560547,-1.252044439315796,-2.698206663131714
1667266571535868700,1.96186865234375,4.3070807456970215,-1.2640085220336914,-2.7029922008514404
1667266571538266400,1.964266357421875,4.326223373413086,-1.2400803565979004,-2.676671266555786
1667266571540664000,1.9666640625,4.35254430770874,-1.197009563446045,-2.614457845687866
1667266571543062000,1.96906201171875,4.383651256561279,-1.1515458822250366,-2.513660192489624
1667266571545459700,1.971459716796875,4.426722049713135,-1.0295119285583496,-2.403590440750122
1667266571547857700,1.973857666015625,4.488935470581055,-0.9074779748916626,-2.2887349128723145
1667266571550255400,1.97625537109375,4.5583271980285645,-0.768395185470581,-2.166700839996338
1667266571552653300,1.9786533203125,4.661218643188477,-0.6200401782989502,-2.042274236679077
1667266571555051000,1.981051025390625,4.737788677215576,-0.4453641176223755,-1.9103697538375854
1667266571557449000,1.983448974609375,4.821836948394775,-0.25363919138908386,-1.7668004035949707
1667266571559846700,1.9858466796875,4.9175496101379395,-0.059820566326379776,-1.6351951360702515
1667266571562244600,1.98824462890625,5.030012130737305,0.1052841991186142,-1.5035899877548218
1667266571564642300,1.990642333984375,5.116153717041016,0.2679961323738098,-1.378864049911499
1667266571567040300,1.993040283203125,5.195116996765137,0.4262215197086334,-1.2376874685287476
1667266571569438000,1.99543798828125,5.250152111053467,0.5338985323905945,-1.1419745683670044
1667266571571836000,1.9978359375,5.324329376220703,0.6008976101875305,-1.0414760112762451
1667266571574233600,2.000233642578125,5.410770416259766,0.6966105103492737,-0.9361918568611145
1667266571576631300,2.00263134765625,5.504090309143066,0.732502818107605,-0.8428717851638794
1667266571579029200,2.005029296875,5.578267574310303,0.7851449251174927,-0.8090731501579285
1667266571581427200,2.00742724609375,5.62373161315918,0.7827520966529846,-0.8066803216934204
1667266571583825000,2.009824951171875,5.669195175170898,0.7803592681884766,-0.7923234105110168
1667266571586222800,2.012222900390625,5.729015827178955,0.7564310431480408,-0.8042874932289124
1667266571588620500,2.01462060546875,5.7409796714782715,0.7420741319656372,-0.8401798605918884
1667266571591018200,2.017018310546875,5.760122299194336,0.7277171611785889,-0.8763712644577026
1667266571593416200,2.019416259765625,5.762515068054199,0.7085745930671692,-0.924227774143219
1667266571595814000,2.02181396484375,5.760122299194336,0.6966105103492737,-1.0007981061935425
1667266571598211800,2.0242119140625,5.726622581481934,0.6583253145217896,-1.0654042959213257
1667266571600609500,2.026609619140625,5.681159019470215,0.6248258352279663,-1.134796142578125
1667266571603007500,2.029007568359375,5.638088226318359,0.5985047817230225,-1.2424731254577637
1667266571605405200,2.0314052734375,5.587839126586914,0.579362154006958,-1.2759727239608765
1667266571607803100,2.03380322265625,5.504090309143066,0.5506483316421509,-1.3142578601837158
1667266571610200800,2.036200927734375,5.420341491699219,0.5602195858955383,-1.3381860256195068
1667266571612598800,2.038598876953125,5.360520839691162,0.5482555031776428,-1.3381860256195068
1667266571614996500,2.04099658203125,5.298008441925049,0.5482555031776428,-1.347757339477539
1667266571617394400,2.04339453125,5.233402252197266,0.5673980712890625,-1.3381860256195068
1667266571619792100,2.045792236328125,5.1544389724731445,0.5626124143600464,-1.3214362859725952
1667266571622190000,2.048190185546875,5.089832782745361,0.5817549824714661,-1.3022937774658203
1667266571624587800,2.050587890625,5.030012130737305,0.6032904386520386,-1.2831511497497559
1667266571626985500,2.0529853515625,4.984548568725586,0.6535396575927734,-1.2448660135269165
1667266571629383400,2.055383544921875,4.958227634429932,0.6918248534202576,-1.1754741668701172
1667266571631781000,2.057781005859375,4.934299468994141,0.7755736112594604,-1.0893324613571167
1667266571634179000,2.060178955078125,4.907978534698486,0.8500502705574036,-1.036690354347229
1667266571636576800,2.06257666015625,4.891228675842285,0.9146564602851868,-0.9553344249725342
1667266571638974700,2.064974609375,4.876871585845947,0.981655478477478,-0.893121063709259
1667266571641372400,2.067372314453125,4.857728958129883,1.0630114078521729,-0.8306085467338562
1667266571643770400,2.069770263671875,4.845765113830566,1.1443674564361572,-0.7588238716125488
1667266571646168000,2.07216796875,4.838586330413818,1.2281162738800049,-0.7085745930671692
1667266571648566000,2.07456591796875,4.838586330413818,1.3286148309707642,-0.6607181429862976
1667266571650963700,2.076963623046875,4.845765113830566,1.450947880744934,-0.6080760359764099
1667266571653361700,2.079361572265625,4.84815788269043,1.5658032894134521,-0.5482555031776428
1667266571655759400,2.08175927734375,4.800301551818848,1.7045869827270508,-0.5075774788856506
1667266571658157300,2.0841572265625,4.761716842651367,1.8242281675338745,-0.4573282301425934
1667266571660555000,2.086554931640625,4.692325115203857,1.9414764642715454,-0.41186460852622986
1667266571662953000,2.088952880859375,4.651647090911865,2.066202402114868,-0.3448655605316162
1667266571665350700,2.0913505859375,4.603790760040283,2.173879384994507,-0.2994019389152527
1667266571667748600,2.09374853515625,4.5391845703125,2.2983062267303467,-0.23688943684101105
1667266571670146300,2.096146240234375,4.491328239440918,2.4155545234680176,-0.1579262912273407
1667266571672544000,2.0985439453125,4.436293125152588,2.5088746547698975,-0.09810572862625122
1667266571674942000,2.10094189453125,4.393222332000732,2.6001009941101074,-0.007178467698395252
1667266571677339600,2.103339599609375,4.366901397705078,2.700599431991577,0.05024927482008934
1667266571679737600,2.105737548828125,4.321437835693359,2.786741018295288,0.1052841991186142
1667266571682135300,2.10813525390625,4.304687976837158,2.8369903564453125,0.15553347766399384
1667266571684533200,2.110533203125,4.3070807456970215,2.8513472080230713,0.12921242415905
1667266571686931000,2.112930908203125,4.311866283416748,2.9015965461730957,0.13160525262355804
1667266571689329000,2.115328857421875,4.323830604553223,2.968595504760742,0.20817556977272034
1667266571691726600,2.1177265625,4.371686935424805,3.045166015625,0.2946162819862366
