time,seconds_elapsed,z,y,x
1667266569665042400,0.09104248046875,0.5345677137374878,0.2337254285812378,-0.5945834517478943
1667266569667440000,0.093440185546875,0.516242265701294,0.22639526426792145,-0.5854207277297974
1667266569669838000,0.095838134765625,0.49974942207336426,0.2202867865562439,-0.5725929737091064
1667266569672235800,0.09823583984375,0.4838673770427704,0.21295662224292755,-0.560375988483429
1667266569674633700,0.1006337890625,0.4685961902141571,0.2056264579296112,-0.5506024360656738
1667266569677031400,0.103031494140625,0.4582118093967438,0.19707459211349487,-0.5420506000518799
1667266569679429000,0.10542919921875,0.44599485397338867,0.18974442780017853,-0.5298336148262024
1667266569681827000,0.1078271484375,0.43805384635925293,0.1799708753824234,-0.5218926072120667
1667266569684224800,0.110224853515625,0.43499961495399475,0.1665322333574295,-0.5163949728012085
1667266569686622700,0.112622802734375,0.428891122341156,0.154926136136055,-0.5127299427986145
1667266569689020400,0.1150205078125,0.4276694357395172,0.14454172551631927,-0.5084539651870728
1667266569691418400,0.11741845703125,0.4264477491378784,0.13232478499412537,-0.5066214203834534
1667266569693816000,0.119816162109375,0.4258368909358978,0.11827529966831207,-0.504788875579834
1667266569696214000,0.122214111328125,0.4319453537464142,0.10850174725055695,-0.5060105919837952
1667266569698611700,0.12461181640625,0.43866467475891113,0.1023932695388794,-0.5060105919837952
1667266569701009700,0.127009765625,0.44904908537864685,0.09933903813362122,-0.5096756815910339
1667266569703407400,0.129407470703125,0.46126604080200195,0.09628479927778244,-0.5121190547943115
1667266569705805000,0.13180517578125,0.47531551122665405,0.09689565002918243,-0.5157841444015503
1667266569708203000,0.134203125,0.4924192428588867,0.09139802306890488,-0.5206709504127502
1667266569710600700,0.1366005859375,0.5125772356987,0.08406785130500793,-0.5267794132232666
1667266569712998700,0.13899853515625,0.5339568853378296,0.07246175408363342,-0.5353312492370605
1667266569715396400,0.141396240234375,0.5577799081802368,0.05841226875782013,-0.5444939732551575
1667266569717794300,0.143794189453125,0.5852680206298828,0.041919391602277756,-0.5536566972732544
1667266569720192000,0.14619189453125,0.6084802150726318,0.023593975231051445,-0.5689278841018677
1667266569722590000,0.14858984375,0.632914125919342,-0.00022906772210262716,-0.583588182926178
1667266569724987600,0.150987548828125,0.6561263203620911,-0.014278554357588291,-0.6019136309623718
1667266569727385600,0.153385498046875,0.6762842535972595,-0.027717193588614464,-0.6208499073982239
1667266569729783300,0.155783203125,0.6952205300331116,-0.039323292672634125,-0.6410078406333923
1667266569732181200,0.15818115234375,0.7092700004577637,-0.04543176665902138,-0.6629983186721802
1667266569734579000,0.160578857421875,0.7208760976791382,-0.04543176665902138,-0.685599684715271
1667266569736977000,0.162976806640625,0.7275954484939575,-0.040544986724853516,-0.7057576775550842
1667266569739374600,0.16537451171875,0.7288171648979187,-0.0295497365295887,-0.7271373271942139
1667266569741772300,0.167772216796875,0.7257629036903381,-0.0130568603053689,-0.7485169768333435
1667266569744170200,0.170170166015625,0.7172110676765442,0.01626380905508995,-0.768674910068512
1667266569746568000,0.17256787109375,0.7019398808479309,0.04558447748422623,-0.7870003581047058
1667266569748966000,0.1749658203125,0.6872795224189758,0.07734853774309158,-0.8016606569290161
1667266569751363600,0.177363525390625,0.6640673279762268,0.10789089649915695,-0.8126559257507324
1667266569753761500,0.179761474609375,0.6402443051338196,0.13904410600662231,-0.8205969333648682
1667266569756159200,0.1821591796875,0.6151995658874512,0.1689756214618683,-0.8248728513717651
1667266569758557200,0.18455712890625,0.5919873714447021,0.1927986592054367,-0.8267053961753845
1667266569760955000,0.186954833984375,0.5724402666091919,0.20073968172073364,-0.8248728513717651
1667266569763352800,0.189352783203125,0.5528931021690369,0.2050156146287918,-0.819375216960907
1667266569765750500,0.19175048828125,0.5345677137374878,0.20318306982517242,-0.8096016645431519
1667266569768148500,0.1941484375,0.5150206089019775,0.19707459211349487,-0.7979955673217773
1667266569770546200,0.196546142578125,0.4930301010608673,0.18180342018604279,-0.7839460968971252
1667266569772944100,0.198944091796875,0.47348299622535706,0.15859122574329376,-0.7723399996757507
1667266569775341800,0.201341796875,0.4551575779914856,0.1292705535888672,-0.7607339024543762
1667266569777739800,0.20373974609375,0.43744298815727234,0.0883437842130661,-0.7497386336326599
1667266569780137500,0.206137451171875,0.42461520433425903,0.03764346241950989,-0.7387434244155884
1667266569782535200,0.20853515625,0.4148416519165039,-0.02160872146487236,-0.7271373271942139
1667266569784933000,0.21093310546875,0.41056570410728455,-0.08635853230953217,-0.7161420583724976
1667266569787330800,0.213330810546875,0.40934401750564575,-0.15233004093170166,-0.7027034163475037
1667266569789728800,0.215728759765625,0.41117656230926514,-0.22013407945632935,-0.689875602722168
1667266569792126500,0.21812646484375,0.4148416519165039,-0.2891598343849182,-0.6807129383087158
1667266569794524400,0.2205244140625,0.42217180132865906,-0.35207709670066833,-0.6691068410873413
1667266569796922000,0.222922119140625,0.4319453537464142,-0.4119401276111603,-0.6617766618728638
1667266569799320000,0.225320068359375,0.43866467475891113,-0.46760356426239014,-0.653835654258728
1667266569801717800,0.2277177734375,0.44721654057502747,-0.5158604979515076,-0.6452837586402893
1667266569804115700,0.23011572265625,0.4533250331878662,-0.5567872524261475,-0.639175295829773
1667266569806513400,0.232513427734375,0.4576009511947632,-0.591605544090271,-0.6336776614189148
1667266569808911000,0.2349111328125,0.46065518260002136,-0.61970454454422,-0.6269583702087402
1667266569811309000,0.23730908203125,0.4582118093967438,-0.6453601121902466,-0.6159631013870239
1667266569813706800,0.239706787109375,0.4551575779914856,-0.6636855602264404,-0.6110763549804688
1667266569816104700,0.242104736328125,0.4435514807701111,-0.6716265678405762,-0.6043570041656494
1667266569818502400,0.24450244140625,0.428891122341156,-0.6673506498336792,-0.60252445936203
1667266569820900400,0.246900390625,0.41117656230926514,-0.6557445526123047,-0.60252445936203
1667266569823298000,0.249298095703125,0.38613182306289673,-0.6319214701652527,-0.60741126537323
1667266569825696000,0.251696044921875,0.35864371061325073,-0.6074876189231873,-0.6141305565834045
1667266569828093700,0.25409375,0.32993388175964355,-0.5745018720626831,-0.6226824522018433
1667266569830491600,0.25649169921875,0.2969481348991394,-0.5390726923942566,-0.6361210346221924
1667266569832889300,0.258889404296875,0.2615189850330353,-0.5036435723304749,-0.6526139378547668
1667266569835287300,0.261287353515625,0.22608983516693115,-0.46577104926109314,-0.6678851246833801
1667266569837685000,0.26368505859375,0.18638476729393005,-0.42904382944107056,-0.6880430579185486
1667266569840083000,0.2660830078125,0.14484715461730957,-0.39239302277565,-0.70881187915802
1667266569842480600,0.268480712890625,0.10330954194068909,-0.3569638729095459,-0.7314132452011108
1667266569844878300,0.27087841796875,0.06421531736850739,-0.3160370886325836,-0.755847156047821
1667266569847276300,0.2732763671875,0.025121092796325684,-0.27449947595596313,-0.7760050892829895
1667266569849674000,0.275674072265625,-0.012140588834881783,-0.23235101997852325,-0.7949413657188416
1667266569852072000,0.278072021484375,-0.044515494257211685,-0.18226155638694763,-0.8114342093467712
1667266569854469600,0.2804697265625,-0.07383616268634796,-0.12423106282949448,-0.8254837393760681
1667266569856867600,0.28286767578125,-0.09949174523353577,-0.05703786388039589,-0.8364789485931396
1667266569859265300,0.285265380859375,-0.120871402323246,0.018096350133419037,-0.8413657546043396
1667266569861663200,0.287663330078125,-0.13858596980571747,0.10117157548666,-0.8462525010108948
1667266569864061000,0.29006103515625,-0.14958122372627258,0.1915769726037979,-0.8499175906181335
1667266569866459000,0.292458984375,-0.15507884323596954,0.29236677289009094,-0.8517501354217529
1667266569868856600,0.294856689453125,-0.15691138803958893,0.3925457298755646,-0.8499175906181335
1667266569871254300,0.297254150390625,-0.15141376852989197,0.48722705245018005,-0.847474217414856
1667266569873652200,0.29965234375,-0.13797512650489807,0.5696914196014404,-0.8462525010108948
1667266569876050000,0.3020498046875,-0.11842801421880722,0.6454364657402039,-0.843198299407959
1667266569878447900,0.30444775390625,-0.09643751382827759,0.7046886682510376,-0.838311493396759
1667266569880845600,0.306845458984375,-0.0695602297782898,0.7492805123329163,-0.8334247469902039
1667266569883243500,0.309243408203125,-0.03718532621860504,0.7822662591934204,-0.8315922021865845
1667266569885641200,0.31164111328125,0.00007635590736754239,0.8073109984397888,-0.8315922021865845
1667266569888039200,0.3140390625,0.04100312292575836,0.8238039016723633,-0.8346464037895203
1667266569890436900,0.316436767578125,0.08254073560237885,0.8329665660858154,-0.8450308442115784
1667266569892834800,0.318834716796875,0.12407834827899933,0.8433510065078735,-0.8615236878395081
1667266569895232500,0.321232421875,0.15950748324394226,0.8500702977180481,-0.8871793150901794
1667266569897630500,0.32363037109375,0.19615831971168518,0.8561787605285645,-0.92138671875
1667266569900028200,0.326028076171875,0.22547899186611176,0.8604547381401062,-0.9604809880256653
1667266569902426000,0.328426025390625,0.25174543261528015,0.8628981113433838,-1.0081270933151245
1667266569904823800,0.33082373046875,0.271903395652771,0.8659523725509644,-1.0588274002075195
1667266569907221500,0.333221435546875,0.2853420376777649,0.8659523725509644,-1.116857886314392
1667266569909619500,0.335619384765625,0.28961795568466187,0.8604547381401062,-1.181607723236084
1667266569912017200,0.33801708984375,0.2877854108810425,0.8531245589256287,-1.2481900453567505
1667266569914415000,0.3404150390625,0.27923354506492615,0.8427401781082153,-1.3172158002853394
1667266569916812800,0.342812744140625,0.26579490303993225,0.831744909286499,-1.394182562828064
1667266569919210800,0.345210693359375,0.24746949970722198,0.8201388120651245,-1.4735926389694214
1667266569921608400,0.3476083984375,0.22242476046085358,0.804256796836853,-1.5530028343200684
1667266569924006400,0.35000634765625,0.1949366331100464,0.7889856100082397,-1.6336346864700317
1667266569926404000,0.352404052734375,0.16256172955036163,0.7749360799789429,-1.7142664194107056
1667266569928802000,0.354802001953125,0.1295759677886963,0.761497437953949,-1.7900115251541138
1667266569931199700,0.35719970703125,0.09353598952293396,0.7462263107299805,-1.8608697652816772
1667266569933597400,0.359597412109375,0.05566345527768135,0.7352310419082642,-1.931117296218872
1667266569935995400,0.361995361328125,0.015958385542035103,0.7266791462898254,-1.99472177028656
1667266569938393000,0.36439306640625,-0.02008160389959812,0.7169055938720703,-2.047865390777588
1667266569940791000,0.366791015625,-0.0555107444524765,0.7089645862579346,-2.0991766452789307
1667266569943188700,0.369188720703125,-0.08727480471134186,0.7059103846549988,-2.1419358253479004
1667266569945586700,0.371586669921875,-0.11720632016658783,0.7034669518470764,-2.1804192066192627
1667266569947984400,0.373984375,-0.1459161341190338,0.7046886682510376,-2.2121832370758057
1667266569950382300,0.37638232421875,-0.16912832856178284,0.7101863026618958,-2.239671468734741
1667266569952780000,0.378780029296875,-0.19172967970371246,0.7388961315155029,-2.2702138423919678
1667266569955178000,0.381177978515625,-0.2131093442440033,0.780433714389801,-2.3044211864471436
1667266569957575700,0.38357568359375,-0.23143476247787476,0.8262472748756409,-2.3380179405212402
1667266569959973400,0.385973388671875,-0.24914932250976562,0.8665632009506226,-2.3648951053619385
1667266569962371300,0.388371337890625,-0.2644205093383789,0.8977164030075073,-2.3936049938201904
1667266569964769300,0.390769287109375,-0.278469979763031,0.9227611422538757,-2.414984703063965
1667266569967167000,0.3931669921875,-0.29618456959724426,0.9447516202926636,-2.435753345489502
1667266569969565000,0.39556494140625,-0.3127537965774536,0.9691855311393738,-2.4516353607177734
1667266569971962600,0.397962646484375,-0.3274141252040863,0.9954519867897034,-2.4626307487487793
1667266569974360300,0.4003603515625,-0.3439069986343384,1.025383472442627,-2.4717934131622314
1667266569976758300,0.40275830078125,-0.3555130958557129,1.0540932416915894,-2.476069450378418
1667266569979156000,0.405156005859375,-0.3665083646774292,1.0870790481567383,-2.478512763977051
1667266569981554000,0.407553955078125,-0.37689274549484253,1.1255624294281006,-2.4742367267608643
1667266569983951600,0.40995166015625,-0.3830012381076813,1.164045810699463,-2.4626307487487793
1667266569986349600,0.412349609375,-0.38727715611457825,1.2031400203704834,-2.4430835247039795
1667266569988747300,0.414747314453125,-0.3897205591201782,1.244066834449768,-2.4168171882629395
1667266569991145200,0.417145263671875,-0.38910970091819763,1.2868261337280273,-2.378333806991577
1667266569993543000,0.41954296875,-0.38544461131095886,1.3301962614059448,-2.3331310749053955
1667266569995940900,0.42194091796875,-0.3817795515060425,1.3699012994766235,-2.276933193206787
1667266569998338600,0.424338623046875,-0.37506023049354553,1.404719591140747,-2.2140159606933594
1667266570000736300,0.426736328125,-0.3701734244823456,1.437705397605896,-2.143157720565796
1667266570003134200,0.42913427734375,-0.36223241686820984,1.4639718532562256,-2.064969062805176
1667266570005532000,0.431531982421875,-0.3536805510520935,1.4853514432907104,-1.980061411857605
1667266570007929900,0.433929931640625,-0.3439069986343384,1.5036768913269043,-1.8914121389389038
1667266570010327600,0.43632763671875,-0.3304683566093445,1.5146721601486206,-1.7955092191696167
1667266570012725500,0.4387255859375,-0.314586341381073,1.5152829885482788,-1.6971627473831177
1667266570015123200,0.441123291015625,-0.29923880100250244,1.5091744661331177,-1.5957621335983276
1667266570017521200,0.443521240234375,-0.2815242409706116,1.492681622505188,-1.4919180870056152
1667266570019918800,0.4459189453125,-0.2613662779331207,1.4658043384552002,-1.3905174732208252
1667266570022316800,0.44831689453125,-0.2399866133928299,1.4297643899917603,-1.2891167402267456
1667266570024714500,0.450714599609375,-0.2149418741464615,1.387005090713501,-1.184661865234375
1667266570027112200,0.4531123046875,-0.1874537467956543,1.3350830078125,-1.0857046842575073
1667266570029510100,0.45551025390625,-0.1617981642484665,1.2794959545135498,-0.9873582124710083
1667266570031907800,0.457907958984375,-0.1355317384004593,1.2171895503997803,-0.8963419795036316
1667266570034305800,0.460305908203125,-0.10621106624603271,1.1573264598846436,-0.8077691197395325
1667266570036703500,0.462703369140625,-0.0811663269996643,1.107847809791565,-0.7283589839935303
1667266570039101400,0.465101318359375,-0.05795413255691528,1.0602017641067505,-0.653224766254425
1667266570041499100,0.4674990234375,-0.03779617324471474,1.0156099796295166,-0.5915291905403137
1667266570043897000,0.46989697265625,-0.01763821393251419,0.9765157103538513,-0.5371637940406799
1667266570046294800,0.472294677734375,-0.004199574701488018,0.9392540454864502,-0.4901285767555237
1667266570048692700,0.474692626953125,0.00129805039614439,0.8989381194114685,-0.449812650680542
1667266570051090400,0.47709033203125,0.0025197449140250683,0.8574004769325256,-0.4125509560108185
1667266570053488400,0.47948828125,-0.0035887276753783226,0.817084550857544,-0.37834352254867554
1667266570055886000,0.481885986328125,-0.013362283818423748,0.7724927067756653,-0.343525230884552
1667266570058284000,0.484283935546875,-0.027411770075559616,0.725457489490509,-0.30931776762008667
1667266570060681700,0.486681640625,-0.04879142343997955,0.6625401973724365,-0.27083441615104675
1667266570063079400,0.489079345703125,-0.07078192383050919,0.5922927856445312,-0.22868594527244568
1667266570065477400,0.491477294921875,-0.0946049690246582,0.521434485912323,-0.1865374743938446
1667266570067875000,0.493875,-0.1214822456240654,0.44874367117881775,-0.14377817511558533
1667266570070273000,0.49627294921875,-0.1477486789226532,0.3772745430469513,-0.10162971168756485
1667266570072670700,0.498670654296875,-0.1740151196718216,0.3076379597187042,-0.060092099010944366
1667266570075068700,0.501068603515625,-0.19783815741539001,0.24288813769817352,-0.01916533336043358
1667266570077466400,0.50346630859375,-0.22043950855731964,0.18669019639492035,0.018096350133419037
1667266570079864300,0.5058642578125,-0.2399866133928299,0.1292705535888672,0.05474718660116196
1667266570082262000,0.508261962890625,-0.25770118832588196,0.08040276914834976,0.09078717231750488
1667266570084660000,0.510659912109375,-0.27297237515449524,0.0358109213411808,0.12377292662858963
1667266570087057700,0.5130576171875,-0.28518930077552795,-0.0051158457063138485,0.153704434633255
1667266570089455400,0.515455322265625,-0.29618456959724426,-0.0423775278031826,0.18180342018604279
1667266570091853300,0.517853271484375,-0.3029802441596985,-0.08025006204843521,0.21173493564128876
1667266570094251000,0.5202509765625,-0.30725616216659546,-0.11445750296115875,0.23983390629291534
1667266570096649000,0.52264892578125,-0.3133646547794342,-0.14011308550834656,0.2606027126312256
1667266570099046700,0.525046630859375,-0.3127537965774536,-0.16393613815307617,0.2825932204723358
1667266570101444600,0.527444580078125,-0.312142938375473,-0.1859266310930252,0.30702710151672363
1667266570103842300,0.52984228515625,-0.30908870697021484,-0.20180866122245789,0.3247416615486145
1667266570106240300,0.532240234375,-0.3042019307613373,-0.212803915143013,0.3394020199775696
1667266570108638000,0.534637939453125,-0.29984965920448303,-0.22135578095912933,0.3503972589969635
1667266570111036000,0.537035888671875,-0.2937411665916443,-0.22318831086158752,0.36017081141471863
1667266570113433600,0.53943359375,-0.28641101717948914,-0.22318831086158752,0.36811181902885437
1667266570115831300,0.541831298828125,-0.2754157483577728,-0.22135578095912933,0.3754419982433319
1667266570118229200,0.544229248046875,-0.2686964273452759,-0.21707984805107117,0.3791070878505707
1667266570120627000,0.546626953125,-0.25770118832588196,-0.20913882553577423,0.3803287744522095
1667266570123025000,0.54902490234375,-0.24731677770614624,-0.1999761164188385,0.38399386405944824
1667266570125422600,0.551422607421875,-0.23448899388313293,-0.18959172070026398,0.38521555066108704
1667266570127820500,0.553820556640625,-0.2253262847661972,-0.1743205338716507,0.3858264088630676
1667266570130218200,0.55621826171875,-0.2137201875448227,-0.1590493619441986,0.3888806402683258
1667266570132616200,0.5586162109375,-0.20211409032344818,-0.14255647361278534,0.3882697820663452
1667266570135014000,0.561013916015625,-0.18867544829845428,-0.12423106282949448,0.3870480954647064
1667266570137411800,0.563411865234375,-0.17890189588069916,-0.09918632358312607,0.3858264088630676
1667266570139809500,0.5658095703125,-0.16607409715652466,-0.07475243508815765,0.38643723726272583
1667266570142207500,0.56820751953125,-0.15385715663433075,-0.04787515476346016,0.3858264088630676
1667266570144605200,0.570605224609375,-0.14286190271377563,-0.016721943393349648,0.38399386405944824
1667266570147003100,0.573003173828125,-0.13064496219158173,0.010766183026134968,0.38155046105384827
1667266570149400800,0.57540087890625,-0.11964970827102661,0.041919391602277756,0.3791070878505707
1667266570151798800,0.577798828125,-0.10926530510187149,0.0749051421880722,0.3754419982433319
1667266570154196500,0.580196533203125,-0.10193513333797455,0.10666920244693756,0.3742203116416931
1667266570156594200,0.58259423828125,-0.09277242422103882,0.13782241940498352,0.37055522203445435
1667266570158992100,0.5849921875,-0.08788564801216125,0.1653105467557907,0.36811181902885437
1667266570161389800,0.587389892578125,-0.08422056585550308,0.18913358449935913,0.362003356218338
1667266570163787800,0.589787841796875,-0.07994463294744492,0.21112407743930817,0.3528406620025635
1667266570166185500,0.592185546875,-0.07872293889522552,0.23494713008403778,0.3473430275917053
1667266570168583400,0.59458349609375,-0.0811663269996643,0.25449424982070923,0.34123456478118896
1667266570170981000,0.596981201171875,-0.0823880210518837,0.2728196680545807,0.33023929595947266
1667266570173379000,0.599379150390625,-0.08605311065912247,0.2874799966812134,0.3216874301433563
1667266570175776800,0.60177685546875,-0.08727480471134186,0.3009186387062073,0.3082487881183624
1667266570178174700,0.6041748046875,-0.08910734206438065,0.3113030195236206,0.2966426908969879
1667266570180572400,0.606572509765625,-0.09216158092021942,0.3222982883453369,0.2838149070739746
1667266570182970000,0.60897021484375,-0.0958266630768776,0.3271850645542145,0.2703762650489807
1667266570185368000,0.6113681640625,-0.09765920788049698,0.33329352736473083,0.25449424982070923
1667266570187765800,0.613765869140625,-0.10132429003715515,0.334515243768692,0.23800136148929596
1667266570190163700,0.616163818359375,-0.10437852889299393,0.3375694751739502,0.2184542566537857
1667266570192561400,0.6185615234375,-0.10926530510187149,0.3400128483772278,0.20012883841991425
1667266570194959400,0.62095947265625,-0.11476293206214905,0.3381803035736084,0.179360032081604
1667266570197357000,0.623357177734375,-0.1220930963754654,0.33329352736473083,0.15920206904411316
1667266570199755000,0.625755126953125,-0.12820157408714294,0.32901760935783386,0.13537901639938354
1667266570202152700,0.628152587890625,-0.13858596980571747,0.31863319873809814,0.11277767270803452
1667266570204550700,0.630550537109375,-0.1477486789226532,0.3100813329219818,0.0877329409122467
1667266570206948400,0.6329482421875,-0.15752223134040833,0.2978644073009491,0.060244809836149216
1667266570209346000,0.635345947265625,-0.16729579865932465,0.2825932204723358,0.03092414326965809
1667266570211744000,0.637743896484375,-0.17645850777626038,0.26732203364372253,0.0016034740256145597
1667266570214142000,0.640141845703125,-0.1862320601940155,0.25082916021347046,-0.02710634656250477
1667266570216539600,0.64253955078125,-0.19783815741539001,0.23922306299209595,-0.0558161698281765
1667266570218937300,0.644937255859375,-0.20883341133594513,0.22273017466068268,-0.08941277116537094
1667266570221335300,0.647335205078125,-0.21799612045288086,0.2044047713279724,-0.11995512992143631
1667266570223733000,0.64973291015625,-0.227769672870636,0.18730103969573975,-0.15416257083415985
1667266570226131000,0.652130859375,-0.23693238198757172,0.16469968855381012,-0.1847049444913864
1667266570228528600,0.654528564453125,-0.24426254630088806,0.1408766508102417,-0.21524730324745178
1667266570230926600,0.656926513671875,-0.250981867313385,0.11644276231527328,-0.24640052020549774
1667266570233324300,0.65932421875,-0.25770118832588196,0.09139802306890488,-0.2781645655632019
1667266570235722200,0.66172216796875,-0.26014456152915955,0.06513158977031708,-0.3044309914112091
1667266570238120000,0.664119873046875,-0.26075541973114014,0.040697697550058365,-0.3343625068664551
1667266570240518000,0.666517822265625,-0.26014456152915955,0.019318044185638428,-0.36123979091644287
1667266570242915600,0.66891552734375,-0.25831204652786255,-0.0014507622690871358,-0.38811707496643066
1667266570245313300,0.671313232421875,-0.25647950172424316,-0.02283041551709175,-0.4119401276111603
1667266570247711200,0.673711181640625,-0.250981867313385,-0.03871244564652443,-0.4357631504535675
1667266570250109000,0.67610888671875,-0.24426254630088806,-0.05154023692011833,-0.45592111349105835
1667266570252507000,0.6785068359375,-0.23693238198757172,-0.06070294603705406,-0.4760790765285492
1667266570254904600,0.680904541015625,-0.23021306097507477,-0.0686439573764801,-0.49196112155914307
1667266570257302500,0.683302490234375,-0.22043950855731964,-0.07108735293149948,-0.5029563903808594
1667266570259700200,0.6857001953125,-0.20944425463676453,-0.07291989028453827,-0.5121190547943115
1667266570262098200,0.68809814453125,-0.2008923888206482,-0.07536327838897705,-0.5182275176048279
1667266570264495900,0.690495849609375,-0.18989713490009308,-0.07230904698371887,-0.524336040019989
1667266570266893800,0.692893798828125,-0.17706935107707977,-0.07291989028453827,-0.5231143236160278
1667266570269291500,0.69529150390625,-0.16668494045734406,-0.07047650218009949,-0.5194492340087891
1667266570271689200,0.697689208984375,-0.15630054473876953,-0.06986565887928009,-0.5176166892051697
1667266570274087200,0.700087158203125,-0.14469444751739502,-0.0686439573764801,-0.5121190547943115
1667266570276484900,0.70248486328125,-0.1355317384004593,-0.0686439573764801,-0.505399763584137
1667266570278882800,0.7048828125,-0.12514732778072357,-0.06620056927204132,-0.49623703956604004
1667266570281280500,0.707280517578125,-0.11903885751962662,-0.06131379306316376,-0.4852418005466461
1667266570283678500,0.709678466796875,-0.11354123055934906,-0.05459447205066681,-0.4718031585216522
1667266570286076200,0.712076171875,-0.1080436110496521,-0.04421006888151169,-0.45775365829467773
1667266570288474000,0.71447412109375,-0.10621106624603271,-0.03077143058180809,-0.4394282400608063
1667266570290871800,0.716871826171875,-0.10560022294521332,-0.015500249341130257,-0.4186594486236572
1667266570293269800,0.719269775390625,-0.10682191699743271,0.0022143214009702206,-0.3991123139858246
1667266570295667500,0.72166748046875,-0.1086544543504715,0.021150587126612663,-0.37712183594703674
1667266570298065400,0.7240654296875,-0.11231953650712967,0.04008685052394867,-0.3545204699039459
1667266570300463000,0.726463134765625,-0.11659546941518784,0.06329904496669769,-0.3294757306575775
1667266570302861000,0.728861083984375,-0.11903885751962662,0.08712209016084671,-0.3068743944168091
1667266570305258800,0.7312587890625,-0.12270393967628479,0.11033428460359573,-0.2812187969684601
1667266570307656400,0.733656494140625,-0.12575818598270416,0.13354648649692535,-0.2561740577220917
1667266570310054400,0.736054443359375,-0.12820157408714294,0.16103461384773254,-0.23296187818050385
1667266570312452000,0.7384521484375,-0.13003410398960114,0.18546849489212036,-0.20974968373775482
1667266570314850000,0.74085009765625,-0.13003410398960114,0.21112407743930817,-0.18409408628940582
1667266570317247700,0.743247802734375,-0.12942326068878174,0.23677967488765717,-0.1614927500486374
1667266570319645700,0.745645751953125,-0.12697987258434296,0.2606027126312256,-0.14072394371032715
1667266570322043400,0.74804345703125,-0.12453648447990417,0.2825932204723358,-0.1217876747250557
1667266570324441300,0.75044140625,-0.11781716346740723,0.30519455671310425,-0.10407309979200363
1667266570326839000,0.752839111328125,-0.10926530510187149,0.3241308331489563,-0.08696937561035156
1667266570329237000,0.755237060546875,-0.10071343928575516,0.34428879618644714,-0.07414158433675766
1667266570331634700,0.757634765625,-0.08849649876356125,0.36017081141471863,-0.06192464008927345
1667266570334032600,0.76003271484375,-0.07383616268634796,0.37238776683807373,-0.05459447205066681
1667266570336430300,0.762430419921875,-0.059175826609134674,0.38277217745780945,-0.04421006888151169
1667266570338828000,0.764828125,-0.04390464723110199,0.3901023268699646,-0.039323292672634125
1667266570341226000,0.76722607421875,-0.026190076023340225,0.39559996128082275,-0.03993413969874382
1667266570343623700,0.769623779296875,-0.005421269219368696,0.39498910307884216,-0.03871244564652443
1667266570346021600,0.772021728515625,0.012293301522731781,0.3925457298755646,-0.040544986724853516
1667266570348419300,0.77441943359375,0.03306210786104202,0.38643723726272583,-0.0429883748292923
1667266570350817300,0.7768173828125,0.05322006717324257,0.3748311400413513,-0.048486001789569855
1667266570353215000,0.779215087890625,0.07337802648544312,0.3632250428199768,-0.057648710906505585
1667266570355613000,0.781613037109375,0.09170344471931458,0.34612134099006653,-0.0680331140756607
1667266570358010600,0.7840107421875,0.11063970625400543,0.32901760935783386,-0.08025006204843521
1667266570360408600,0.78640869140625,0.13079766929149628,0.3094705045223236,-0.09613208472728729
1667266570362806300,0.78880615234375,0.14667969942092896,0.29236677289009094,-0.11445750296115875
1667266570365204200,0.791204345703125,0.15889663994312286,0.2740413546562195,-0.1340046226978302
1667266570367602000,0.793601806640625,0.17538951337337494,0.25327253341674805,-0.15477342903614044
1667266570370000000,0.795999755859375,0.18638476729393005,0.23555797338485718,-0.17798562347888947
1667266570372397600,0.7983974609375,0.19676917791366577,0.2190650999546051,-0.20303036272525787
1667266570374795300,0.800795166015625,0.2059318870306015,0.20257222652435303,-0.23051849007606506
1667266570377193200,0.803193115234375,0.21326205134391785,0.18424680829048157,-0.25800660252571106
1667266570379591000,0.8055908203125,0.2199813723564148,0.16408884525299072,-0.28427302837371826
1667266570381988900,0.80798876953125,0.22364644706249237,0.14698512852191925,-0.3154262602329254
1667266570384386600,0.810386474609375,0.22608983516693115,0.12377292662858963,-0.3423035442829132
1667266570386784500,0.812784423828125,0.22914408147335052,0.09689565002918243,-0.371013343334198
1667266570389182200,0.81518212890625,0.22975492477416992,0.06390989571809769,-0.40155571699142456
1667266570391580200,0.817580078125,0.2315874695777893,0.03336753323674202,-0.42782214283943176
1667266570393977900,0.819977783203125,0.2334200143814087,0.0009926267666742206,-0.4595862030982971
1667266570396375800,0.822375732421875,0.23036576807498932,-0.031382277607917786,-0.4870743453502655
1667266570398773500,0.8247734375,0.22853323817253113,-0.06131379306316376,-0.5145624876022339
1667266570401171200,0.827171142578125,0.22486814856529236,-0.08819106966257095,-0.5389963388442993
1667266570403569200,0.829569091796875,0.2193705290555954,-0.11506835371255875,-0.5640410780906677
1667266570405966800,0.831966796875,0.21448373794555664,-0.1358371526002884,-0.5866424441337585
1667266570408364800,0.83436474609375,0.20898611843585968,-0.1590493619441986,-0.6055787205696106
1667266570410762500,0.836762451171875,0.20409934222698212,-0.17859646677970886,-0.6208499073982239
1667266570413160400,0.839160400390625,0.19615831971168518,-0.1981435865163803,-0.6367319226264954
1667266570415558100,0.84155810546875,0.18882815539836884,-0.21463645994663239,-0.6440621018409729
1667266570417956000,0.8439560546875,0.1796654462814331,-0.22868594527244568,-0.6507813930511475
1667266570420353800,0.846353759765625,0.17233528196811676,-0.24212458729743958,-0.6544464826583862
1667266570422751700,0.848751708984375,0.16500511765480042,-0.2537306845188141,-0.653224766254425
1667266570425149400,0.8511494140625,0.15767495334148407,-0.26106083393096924,-0.653835654258728
1667266570427547400,0.85354736328125,0.14973393082618713,-0.26167169213294983,-0.6440621018409729
1667266570429945000,0.855945068359375,0.14362546801567078,-0.25861746072769165,-0.6355102062225342
1667266570432343000,0.858343017578125,0.13507360219955444,-0.2531198263168335,-0.6226824522018433
1667266570434740700,0.86074072265625,0.1277434378862381,-0.24578966200351715,-0.6043570041656494
1667266570437138400,0.863138427734375,0.12163496017456055,-0.23235101997852325,-0.584199070930481
1667266570439536400,0.865536376953125,0.11552648991346359,-0.2140256017446518,-0.5640410780906677
1667266570441934000,0.86793408203125,0.10880716890096664,-0.1865374743938446,-0.5402180552482605
1667266570444332000,0.87033203125,0.09903360903263092,-0.1492757946252823,-0.5188384056091309
1667266570446729700,0.872729736328125,0.08620581775903702,-0.1077381819486618,-0.49684789776802063
1667266570449127700,0.875127685546875,0.0752105712890625,-0.0686439573764801,-0.4736357033252716
1667266570451525400,0.877525390625,0.06482616811990738,-0.03626905754208565,-0.4479801058769226
1667266570453923300,0.87992333984375,0.055052608251571655,-0.01122431829571724,-0.4217136800289154
1667266570456321000,0.882321044921875,0.045889899134635925,0.009544488042593002,-0.3948363959789276
1667266570458719000,0.884718994140625,0.03733803704380989,0.026037365198135376,-0.3679591119289398
1667266570461116700,0.88711669921875,0.031229566782712936,0.03764346241950989,-0.33924928307533264
1667266570463514400,0.889514404296875,0.023899398744106293,0.048638712614774704,-0.31176117062568665
1667266570465912300,0.891912353515625,0.018401773646473885,0.05963396281003952,-0.28427302837371826
1667266570468310300,0.894310302734375,0.01046075951308012,0.07185091078281403,-0.25922831892967224
1667266570470708000,0.8967080078125,0.0019088976550847292,0.07979192584753036,-0.23357272148132324
1667266570473105700,0.899105712890625,-0.004199574701488018,0.08956547826528549,-0.20974968373775482
1667266570475503600,0.901503662109375,-0.010308047756552696,0.1023932695388794,-0.1871483325958252
1667266570477901300,0.9039013671875,-0.019470756873488426,0.11033428460359573,-0.16699036955833435
1667266570480299300,0.90629931640625,-0.030466007068753242,0.11766445636749268,-0.1468324065208435
1667266570482697000,0.908697021484375,-0.04085041210055351,0.11888615041971207,-0.12972868978977203
1667266570485095000,0.911094970703125,-0.05673243850469589,0.12194038182497025,-0.11445750296115875
1667266570487492600,0.91349267578125,-0.0695602297782898,0.12438376992940903,-0.09979717433452606
1667266570489890600,0.915890625,-0.08910734206438065,0.1280488520860672,-0.08758022636175156
1667266570492288300,0.918288330078125,-0.10987614840269089,0.1286597102880478,-0.07780666649341583
1667266570494686200,0.920686279296875,-0.13003410398960114,0.1286597102880478,-0.06986565887928009
1667266570497084000,0.923083984375,-0.15263545513153076,0.1268271654844284,-0.06375718116760254
1667266570499481900,0.92548193359375,-0.17584764957427979,0.1274380087852478,-0.05948125198483467
1667266570501879600,0.927879638671875,-0.1990598440170288,0.13049224019050598,-0.05703786388039589
1667266570504277200,0.93027734375,-0.22410458326339722,0.13415732979774475,-0.05703786388039589
1667266570506675200,0.93267529296875,-0.24792763590812683,0.1420983374118805,-0.060092099010944366
1667266570509073000,0.935072998046875,-0.2748049199581146,0.1524827480316162,-0.06253548711538315
1667266570511470800,0.937470947265625,-0.29923880100250244,0.1659213900566101,-0.0686439573764801
1667266570513868500,0.93986865234375,-0.32130566239356995,0.1799708753824234,-0.07536327838897705
1667266570516266500,0.9422666015625,-0.3439069986343384,0.19585290551185608,-0.08513683825731277
1667266570518664200,0.944664306640625,-0.36223241686820984,0.21112407743930817,-0.09368869662284851
1667266570521062100,0.947062255859375,-0.3811686933040619,0.22456271946430206,-0.10468395054340363
1667266570523459800,0.9494599609375,-0.40071579813957214,0.23739051818847656,-0.11445750296115875
1667266570525857800,0.95185791015625,-0.4172086715698242,0.24899661540985107,-0.12423106282949448
1667266570528255500,0.95425537109375,-0.4330907166004181,0.2587701678276062,-0.13644801080226898
1667266570530653400,0.9566533203125,-0.45141613483428955,0.2715979516506195,-0.1456107199192047
1667266570533051100,0.959051025390625,-0.4691306948661804,0.28076067566871643,-0.15416257083415985
1667266570535449000,0.961448974609375,-0.4862344264984131,0.2966426908969879,-0.1621035933494568
1667266570537846800,0.9638466796875,-0.5027272701263428,0.3082487881183624,-0.16454698145389557
1667266570540244500,0.966244384765625,-0.5204418897628784,0.3149681091308594,-0.16760121285915375
1667266570542642400,0.968642333984375,-0.5375455617904663,0.31802234053611755,-0.16637952625751495
1667266570545040100,0.9710400390625,-0.5522059202194214,0.31435728073120117,-0.16393613815307617
1667266570547438000,0.97343798828125,-0.5686988234519958,0.3100813329219818,-0.1590493619441986
1667266570549835800,0.975835693359375,-0.5839699506759644,0.29481014609336853,-0.15538427233695984
1667266570552233700,0.978233642578125,-0.5955760478973389,0.27831727266311646,-0.1468324065208435
1667266570554631400,0.98063134765625,-0.6065713167190552,0.2593810260295868,-0.13828055560588837
1667266570557029400,0.983029296875,-0.6157340407371521,0.24105559289455414,-0.1327829211950302
1667266570559427000,0.985427001953125,-0.6212316751480103,0.22578442096710205,-0.12545275688171387
1667266570561825000,0.987824951171875,-0.6267293095588684,0.20929154753684998,-0.11567919701337814
1667266570564222700,0.99022265625,-0.6285618543624878,0.19524206221103668,-0.10957072675228119
1667266570566620400,0.992620361328125,-0.6297835111618042,0.18485765159130096,-0.1077381819486618
1667266570569018400,0.995018310546875,-0.6285618543624878,0.17691664397716522,-0.10285140573978424
1667266570571416300,0.997416259765625,-0.6273401379585266,0.1671430766582489,-0.10040801763534546
1667266570573814000,0.99981396484375,-0.6218425035476685,0.16042375564575195,-0.10162971168756485
1667266570576211700,1.002211669921875,-0.6163448691368103,0.14759597182273865,-0.10224056243896484
1667266570578609700,1.004609619140625,-0.6053496599197388,0.13782241940498352,-0.10346225649118423
1667266570581007400,1.00700732421875,-0.5943543910980225,0.1280488520860672,-0.10468395054340363
1667266570583405300,1.0094052734375,-0.5803049206733704,0.11644276231527328,-0.10895988345146179
1667266570585803000,1.011802978515625,-0.569309651851654,0.10666920244693756,-0.11506835371255875
1667266570588201000,1.014200927734375,-0.5522059202194214,0.09689565002918243,-0.12300936877727509
1667266570590598700,1.0165986328125,-0.5375455617904663,0.08712209016084671,-0.1340046226978302
1667266570592996600,1.01899658203125,-0.5241069197654724,0.07918107509613037,-0.1468324065208435
1667266570595394300,1.021394287109375,-0.5100574493408203,0.07001836597919464,-0.16393613815307617
1667266570597792300,1.023792236328125,-0.4960079789161682,0.0620773509144783,-0.18348324298858643
1667266570600190000,1.02618994140625,-0.4837910234928131,0.05291464552283287,-0.20180866122245789
1667266570602587600,1.028587646484375,-0.4727957844734192,0.044362783432006836,-0.21891239285469055
1667266570604985600,1.030985595703125,-0.4605788290500641,0.03703261539340019,-0.23601610958576202
1667266570607383300,1.03338330078125,-0.45202696323394775,0.033978380262851715,-0.2531198263168335
1667266570609781200,1.03578125,-0.44103172421455383,0.031534988433122635,-0.2683910131454468
1667266570612179000,1.038178955078125,-0.4312581717967987,0.035200074315071106,-0.28305134177207947
1667266570614577000,1.040576904296875,-0.4196520745754242,0.039476003497838974,-0.29832252860069275
1667266570616974600,1.042974609375,-0.4068242609500885,0.04253023862838745,-0.30931776762008667
1667266570619372500,1.04537255859375,-0.3958290219306946,0.04680617153644562,-0.32275640964508057
1667266570621770200,1.047770263671875,-0.3793361485004425,0.048638712614774704,-0.33497336506843567
1667266570624168200,1.050168212890625,-0.36039987206459045,0.049860406666994095,-0.3447469174861908
1667266570626566000,1.05256591796875,-0.3414636254310608,0.051082100719213486,-0.3569638729095459
1667266570628963800,1.0549638671875,-0.32008397579193115,0.05413633957505226,-0.36307233572006226
1667266570631361500,1.057361572265625,-0.29496288299560547,0.05535803362727165,-0.3722350597381592
1667266570633759500,1.059759521484375,-0.27052897214889526,0.05596888065338135,-0.37773266434669495
1667266570636157200,1.0621572265625,-0.24548424780368805,0.05719057470560074,-0.3820086121559143
1667266570638555100,1.06455517578125,-0.21799612045288086,0.05596888065338135,-0.3862845301628113
1667266570640952800,1.066952880859375,-0.1874537467956543,0.05413633957505226,-0.38933876156806946
1667266570643350500,1.0693505859375,-0.15630054473876953,0.04497363045811653,-0.3862845301628113
1667266570645748500,1.07174853515625,-0.12636902928352356,0.032756682485342026,-0.3875062167644501
1667266570648146200,1.074146240234375,-0.0958266630768776,0.015042114071547985,-0.3875062167644501
1667266570650544000,1.076544189453125,-0.06100837141275406,-0.006337540224194527,-0.3844519853591919
1667266570652941800,1.07894189453125,-0.031076854094862938,-0.030160583555698395,-0.3832302987575531
1667266570655339800,1.08133984375,0.00007635590736754239,-0.06497887521982193,-0.37956520915031433
1667266570657737500,1.083737548828125,0.030007870867848396,-0.09796462953090668,-0.37528929114341736
1667266570660135400,1.086135498046875,0.057496000081300735,-0.13217207789421082,-0.3722350597381592
1667266570662533000,1.088533203125,0.08315158635377884,-0.16821207106113434,-0.3691807985305786
1667266570664931000,1.09093115234375,0.10636378079652786,-0.20364120602607727,-0.36612656712532043
1667266570667328800,1.093328857421875,0.13018682599067688,-0.2378486543893814,-0.36368319392204285
1667266570669726700,1.095726806640625,0.14912308752536774,-0.267169326543808,-0.36062896251678467
1667266570672124400,1.09812451171875,0.17050273716449738,-0.2916032075881958,-0.3594072461128235
1667266570674522400,1.1005224609375,0.18821731209754944,-0.3142045736312866,-0.36123979091644287
1667266570676920000,1.102920166015625,0.20409934222698212,-0.3343625068664551,-0.36123979091644287
1667266570679317800,1.10531787109375,0.2181488275527954,-0.34841200709342957,-0.36246147751808167
1667266570681715700,1.1077158203125,0.23036576807498932,-0.3569638729095459,-0.36368319392204285
1667266570684113400,1.110113525390625,0.24319356679916382,-0.36123979091644287,-0.36185064911842346
1667266570686511400,1.112511474609375,0.25418880581855774,-0.36123979091644287,-0.36062896251678467
1667266570688909000,1.114908935546875,0.26212984323501587,-0.35329878330230713,-0.3569638729095459
1667266570691307000,1.11730712890625,0.2725142240524292,-0.3459686040878296,-0.35024455189704895
1667266570693704700,1.11970458984375,0.2816769480705261,-0.3337516784667969,-0.3423035442829132
1667266570696102700,1.1221025390625,0.2890070974826813,-0.3215347230434418,-0.33497336506843567
1667266570698500400,1.124500244140625,0.2969481348991394,-0.3080960810184479,-0.32275640964508057
1667266570700898300,1.126898193359375,0.30427828431129456,-0.2916032075881958,-0.31053948402404785
1667266570703296000,1.1292958984375,0.3128301501274109,-0.27205610275268555,-0.29771167039871216
1667266570705694000,1.13169384765625,0.31954947113990784,-0.2537306845188141,-0.2812187969684601
1667266570708091600,1.134091552734375,0.32932302355766296,-0.23174017667770386,-0.2653367817401886
1667266570710489600,1.136489501953125,0.3378748893737793,-0.20547375082969666,-0.24823305010795593
1667266570712887300,1.13888720703125,0.3476484417915344,-0.18042901158332825,-0.23296187818050385
1667266570715285000,1.141284912109375,0.3598653972148895,-0.15538427233695984,-0.2140256017446518
1667266570717683000,1.143682861328125,0.37147149443626404,-0.12606360018253326,-0.19386765360832214
1667266570720080600,1.14608056640625,0.38307759165763855,-0.10040801763534546,-0.17554223537445068
1667266570722478600,1.148478515625,0.39773792028427124,-0.07169819623231888,-0.15233004093170166
1667266570724876300,1.150876220703125,0.41056570410728455,-0.047264307737350464,-0.13156123459339142
1667266570727274200,1.153274169921875,0.42217180132865906,-0.03077143058180809,-0.11018157750368118
1667266570729672000,1.155671875,0.43561044335365295,-0.0130568603053689,-0.08758022636175156
1667266570732070000,1.15806982421875,0.44965994358062744,0.0022143214009702206,-0.06375718116760254
1667266570734467600,1.160467529296875,0.46432027220726013,0.013209572061896324,-0.038101598620414734
1667266570736865500,1.162865478515625,0.4795914590358734,0.018096350133419037,-0.014889402315020561
1667266570739263200,1.16526318359375,0.4942517876625061,0.02298312820494175,0.005879404954612255
1667266570741661200,1.1676611328125,0.5131880640983582,0.02664821222424507,0.028480753302574158
1667266570744059000,1.170058837890625,0.5302917957305908,0.027259059250354767,0.044362783432006836
1667266570746456800,1.172456787109375,0.5486171841621399,0.027259059250354767,0.059023115783929825
1667266570748854500,1.1748544921875,0.5669426321983337,0.023593975231051445,0.07062921673059464
1667266570751252500,1.17725244140625,0.5846571922302246,0.015652960166335106,0.07918107509613037
1667266570753650200,1.179650146484375,0.6011500358581543,0.005268557462841272,0.08406785130500793
1667266570756048000,1.1820478515625,0.6170321106910706,-0.009391776286065578,0.0883437842130661
1667266570758445800,1.18444580078125,0.6323032975196838,-0.025884652510285378,0.09200886636972427
1667266570760843800,1.18684375,0.6445202231407166,-0.04543176665902138,0.08956547826528549
1667266570763241500,1.189241455078125,0.6524612307548523,-0.07047650218009949,0.0883437842130661
1667266570765639200,1.19163916015625,0.6610130667686462,-0.09613208472728729,0.08528954535722733
1667266570768037000,1.194037109375,0.6628456115722656,-0.12362021207809448,0.08223531395196915
1667266570770434800,1.196434814453125,0.6628456115722656,-0.15049749612808228,0.07673768699169159
1667266570772832800,1.198832763671875,0.6567371487617493,-0.18042901158332825,0.06818582862615585
1667266570775230500,1.20123046875,0.6494069695472717,-0.212803915143013,0.06574243307113647
1667266570777628400,1.20362841796875,0.6384117603302002,-0.24640052020549774,0.06085565686225891
1667266570780026000,1.206026123046875,0.6213080286979675,-0.2818296551704407,0.05657972767949104
1667266570782424000,1.208424072265625,0.6029825806617737,-0.32336726784706116,0.05474718660116196
1667266570784821800,1.21082177734375,0.5809921026229858,-0.366737425327301,0.05169294774532318
1667266570787219700,1.2132197265625,0.5565581917762756,-0.4113292694091797,0.0492495596408844
1667266570789617400,1.215617431640625,0.5321243405342102,-0.4572191834449768,0.0492495596408844
1667266570792015000,1.21801513671875,0.5070796012878418,-0.5036435723304749,0.051082100719213486
1667266570794413000,1.2204130859375,0.4832565486431122,-0.5488462448120117,0.05657972767949104
1667266570796811000,1.22281103515625,0.4551575779914856,-0.5867187976837158,0.06513158977031708
1667266570799208700,1.225208740234375,0.4282802939414978,-0.6209262609481812,0.0761268362402916
1667266570801606400,1.2276064453125,0.4032355546951294,-0.6533011198043823,0.0889546349644661
1667266570804004400,1.23000439453125,0.3806341886520386,-0.6789567470550537,0.10422581434249878
1667266570806402000,1.232402099609375,0.36047622561454773,-0.6997255086898804,0.12132953852415085
1667266570808800000,1.234800048828125,0.34215080738067627,-0.7149966955184937,0.1414874941110611
1667266570811197700,1.23719775390625,0.3262687921524048,-0.7229377031326294,0.16286714375019073
1667266570813595600,1.239595703125,0.3128301501274109,-0.7272136807441711,0.18669019639492035
1667266570815993300,1.241993408203125,0.3006131947040558,-0.7241594195365906,0.21295662224292755
1667266570818391300,1.244391357421875,0.29206135869026184,-0.716829240322113,0.24105559289455414
1667266570820789000,1.2467890625,0.2841203212738037,-0.7046123147010803,0.26732203364372253
1667266570823187000,1.24918701171875,0.27862271666526794,-0.6856760382652283,0.29481014609336853
1667266570825584600,1.251584716796875,0.27617931365966797,-0.6587987542152405,0.3235199749469757
1667266570827982600,1.253982666015625,0.2743467688560486,-0.6252021789550781,0.3534514904022217
1667266570830380300,1.25638037109375,0.2712925374507904,-0.5836645364761353,0.38338300585746765
1667266570832778200,1.2587783203125,0.271903395652771,-0.5347967743873596,0.40964943170547485
1667266570835176000,1.261176025390625,0.2725142240524292,-0.47554460167884827,0.4389701187610626
1667266570837574000,1.263573974609375,0.2755684554576874,-0.4088858962059021,0.4652365446090698
1667266570839971600,1.2659716796875,0.27801185846328735,-0.3313082754611969,0.49028128385543823
1667266570842369300,1.268369384765625,0.2841203212738037,-0.24884390830993652,0.5159368515014648
1667266570844767200,1.270767333984375,0.2859528660774231,-0.16699036955833435,0.5385382175445557
1667266570847165000,1.2731650390625,0.28961795568466187,-0.08452598750591278,0.5629721283912659
1667266570849563000,1.27556298828125,0.29389387369155884,-0.005726693198084831,0.5867951512336731
1667266570851960600,1.277960693359375,0.29328304529190063,0.07001836597919464,0.6136724352836609
1667266570854358500,1.280358642578125,0.28839626908302307,0.13721156120300293,0.6405497193336487
1667266570856756200,1.282756103515625,0.2816769480705261,0.1946312040090561,0.6692595481872559
1667266570859154200,1.285154296875,0.2737359404563904,0.2434989959001541,0.6967476606369019
1667266570861551900,1.2875517578125,0.26212984323501587,0.2825932204723358,0.7291225790977478
1667266570863949800,1.28994970703125,0.2456369549036026,0.3137464225292206,0.7585195899009705
1667266570866347500,1.292347412109375,0.22914408147335052,0.3375694751739502,0.788451075553894
1667266570868745500,1.294745361328125,0.20959696173667908,0.3546731770038605,0.8159392476081848
1667266570871143200,1.29714306640625,0.18699561059474945,0.37177690863609314,0.8434273600578308
1667266570873541000,1.299541015625,0.16317257285118103,0.3882697820663452,0.8733588457107544
1667266570875938800,1.301938720703125,0.13507360219955444,0.4010975956916809,0.9002361297607422
1667266570878336500,1.30433642578125,0.10514208674430847,0.415147066116333,0.927724301815033
1667266570880734500,1.306734375,0.07765395939350128,0.4279748499393463,0.954601526260376
1667266570883132200,1.309132080078125,0.04772244393825531,0.43652671575546265,0.9790354371070862
1667266570885530000,1.311530029296875,0.018401773646473885,0.44568943977355957,1.00224769115448
1667266570887927800,1.313927734375,-0.010918894782662392,0.4548521339893341,1.025459885597229
1667266570890325800,1.31632568359375,-0.03596363216638565,0.46462568640708923,1.048672080039978
1667266570892723500,1.318723388671875,-0.061619218438863754,0.4701233208179474,1.0688300132751465
1667266570895121400,1.321121337890625,-0.0811663269996643,0.47378841042518616,1.084712028503418
1667266570897519000,1.32351904296875,-0.09643751382827759,0.47501009702682495,1.1018157005310059
1667266570899917000,1.3259169921875,-0.10926530510187149,0.4713450074195862,1.1146435737609863
1667266570902314800,1.328314697265625,-0.11903885751962662,0.4658474028110504,1.1213628053665161
1667266570904712700,1.330712646484375,-0.12636902928352356,0.46034976840019226,1.1244170665740967
1667266570907110400,1.3331103515625,-0.1336991935968399,0.44935452938079834,1.1238062381744385
1667266570909508400,1.33550830078125,-0.13980767130851746,0.4389701187610626,1.118308663368225
1667266570911906000,1.337906005859375,-0.14286190271377563,0.4291965663433075,1.107924222946167
1667266570914303700,1.3403037109375,-0.1465269923210144,0.4139253795146942,1.093263864517212
1667266570916701700,1.34270166015625,-0.15263545513153076,0.39865419268608093,1.0755493640899658
1667266570919099600,1.345099609375,-0.1599656194448471,0.38216131925582886,1.0535588264465332
1667266570921497300,1.347497314453125,-0.17157171666622162,0.3650575876235962,1.0315682888031006
1667266570923895300,1.349895263671875,-0.18012358248233795,0.34367793798446655,1.0071344375610352
1667266570926293000,1.35229296875,-0.19478392601013184,0.3259633779525757,0.978424608707428
1667266570928690700,1.354690673828125,-0.20883341133594513,0.3119138777256012,0.9515473246574402
1667266570931088600,1.357088623046875,-0.2259371280670166,0.2978644073009491,0.9216157793998718
1667266570933486300,1.359486328125,-0.24243000149726868,0.2868691384792328,0.8935168385505676
1667266570935884300,1.36188427734375,-0.2613662779331207,0.28076067566871643,0.8629744648933411
1667266570938282000,1.364281982421875,-0.2821350693702698,0.27770644426345825,0.8336538076400757
1667266570940680000,1.366679931640625,-0.29801711440086365,0.2819823622703552,0.8049439787864685
1667266570943077600,1.36907763671875,-0.32008397579193115,0.29175591468811035,0.7786775231361389
1667266570945475600,1.3714755859375,-0.3390202224254608,0.30641624331474304,0.7499676942825317
1667266570947873300,1.373873291015625,-0.3567348122596741,0.33146098256111145,0.724846601486206
1667266570950271200,1.376271240234375,-0.37444937229156494,0.36017081141471863,0.6991910338401794
1667266570952669000,1.3786689453125,-0.393385648727417,0.39621078968048096,0.6759788393974304
1667266570955067000,1.38106689453125,-0.41476529836654663,0.4401918053627014,0.6527666449546814
1667266570957464600,1.383464599609375,-0.43736663460731506,0.4908921420574188,0.6313869953155518
1667266570959862500,1.385862548828125,-0.4605788290500641,0.5477009415626526,0.6124507188796997
1667266570962260200,1.38826025390625,-0.4850127100944519,0.6124507188796997,0.5977904200553894
1667266570964658000,1.390657958984375,-0.5173876285552979,0.679033100605011,0.5855734348297119
1667266570967056000,1.393055908203125,-0.5522059202194214,0.7450045943260193,0.5745782256126404
1667266570969453600,1.39545361328125,-0.5900784730911255,0.8054784536361694,0.5654155015945435
1667266570971851500,1.3978515625,-0.6365028619766235,0.8647306561470032,0.5648046731948853
1667266570974249200,1.400249267578125,-0.6835380792617798,0.9239828586578369,0.5672480463981628
1667266570976647200,1.402647216796875,-0.7324058413505554,0.9746831655502319,0.572134792804718
1667266570979044900,1.405044921875,-0.7879929542541504,1.0204967260360718,0.5843517780303955
1667266570981442800,1.40744287109375,-0.8478559851646423,1.0595909357070923,0.5996229648590088
1667266570983840500,1.409840576171875,-0.9077190160751343,1.090744137763977,0.6228351593017578
1667266570986238500,1.412238525390625,-0.9688037633895874,1.1127346754074097,0.650934100151062
1667266570988636200,1.41463623046875,-1.0286667346954346,1.123729944229126,0.6845307350158691
1667266570991034000,1.4170341796875,-1.090362310409546,1.1194539070129395,0.7224032282829285
1667266570993431800,1.419431884765625,-1.1502254009246826,1.1011285781860352,0.7646280527114868
1667266570995829800,1.421829833984375,-1.2100883722305298,1.0693644285202026,0.8116632699966431
1667266570998227500,1.4242275390625,-1.2620104551315308,1.0247726440429688,0.8641961812973022
1667266571000625200,1.426625244140625,-1.3145432472229004,0.970407247543335,0.918561577796936
1667266571003023000,1.429023193359375,-1.3609676361083984,0.9056574106216431,0.9759812355041504
1667266571005421000,1.431421142578125,-1.3982293605804443,0.8335774540901184,1.0388984680175781
1667266571007818800,1.43381884765625,-1.4373235702514648,0.7535564303398132,1.1018157005310059
1667266571010216400,1.436216552734375,-1.4703093767166138,0.6662052869796753,1.1641221046447754
1667266571012614400,1.438614501953125,-1.4959648847579956,0.5757998824119568,1.2245960235595703
1667266571015012000,1.44101220703125,-1.5203988552093506,0.4823402762413025,1.2820156812667847
1667266571017410000,1.44341015625,-1.5381133556365967,0.391934871673584,1.3382136821746826
1667266571019807700,1.445807861328125,-1.5570496320724487,0.30275118350982666,1.3870813846588135
1667266571022205700,1.448205810546875,-1.5692665576934814,0.22150848805904388,1.4298406839370728
1667266571024603400,1.450603271484375,-1.580872654914856,0.14515258371829987,1.4671024084091187
1667266571027001300,1.45300146484375,-1.591257095336914,0.07734853774309158,1.5000882148742676
1667266571029399000,1.45539892578125,-1.5991981029510498,0.018096350133419037,1.5269653797149658
1667266571031797000,1.457796875,-1.6083608865737915,-0.030160583555698395,1.5471234321594238
1667266571034194700,1.460194580078125,-1.6150801181793213,-0.0692548081278801,1.5636162757873535
1667266571036592600,1.462592529296875,-1.6205778121948242,-0.10101886838674545,1.5733897686004639
1667266571038990300,1.464990234375,-1.6260753870010376,-0.1217876747250557,1.5819417238235474
1667266571041388300,1.46738818359375,-1.627297043800354,-0.13217207789421082,1.5849958658218384
1667266571043786000,1.469785888671875,-1.6303513050079346,-0.13095037639141083,1.5843850374221802
1667266571046184000,1.472183837890625,-1.6334055662155151,-0.11995512992143631,1.5813308954238892
1667266571048581600,1.47458154296875,-1.6364598274230957,-0.09979717433452606,1.5764440298080444
1667266571050979300,1.476979248046875,-1.637681484222412,-0.07475243508815765,1.5715572834014893
1667266571053377300,1.479377197265625,-1.6395140886306763,-0.0423775278031826,1.5660597085952759
1667266571055775000,1.48177490234375,-1.637681484222412,-0.007559234742075205,1.5611728429794312
1667266571058173000,1.4841728515625,-1.6358489990234375,0.03214583545923233,1.5581187009811401
1667266571060570600,1.486570556640625,-1.6340163946151733,0.07062921673059464,1.5550644397735596
1667266571062968600,1.488968505859375,-1.62851881980896,0.11033428460359573,1.5556752681732178
1667266571065366300,1.4913662109375,-1.619966983795166,0.14759597182273865,1.5538426637649536
1667266571067764200,1.49376416015625,-1.605306625366211,0.18180342018604279,1.5568969249725342
1667266571070162000,1.496161865234375,-1.5906462669372559,0.21234577894210815,1.5581187009811401
1667266571072559900,1.498559814453125,-1.572320818901062,0.23983390629291534,1.5599511861801147
1667266571074957600,1.50095751953125,-1.544832706451416,0.2563267946243286,1.5617836713790894
1667266571077355500,1.50335546875,-1.513068675994873,0.26426780223846436,1.56483793258667
1667266571079753200,1.505753173828125,-1.479472041130066,0.26426780223846436,1.562394618988037
1667266571082151200,1.508151123046875,-1.4440429210662842,0.2575484812259674,1.5611728429794312
1667266571084548900,1.510548828125,-1.4049487113952637,0.24105559289455414,1.556286096572876
1667266571086946800,1.51294677734375,-1.364021897315979,0.21478916704654694,1.5465126037597656
1667266571089344500,1.515344482421875,-1.321873426437378,0.18363595008850098,1.5367389917373657
1667266571091742500,1.517742431640625,-1.2809467315673828,0.14881765842437744,1.524522066116333
1667266571094140200,1.52014013671875,-1.2430741786956787,0.10422581434249878,1.5068074464797974
1667266571096537900,1.522537841796875,-1.206423282623291,0.059023115783929825,1.4860386848449707
1667266571098935800,1.524935791015625,-1.1716049909591675,0.005268557462841272,1.4628264904022217
1667266571101333500,1.52733349609375,-1.136786699295044,-0.04604261368513107,1.440835952758789
1667266571103731500,1.5297314453125,-1.1068552732467651,-0.09918632358312607,1.4151804447174072
1667266571106129200,1.532129150390625,-1.0811996459960938,-0.1486649513244629,1.3864705562591553
1667266571108527000,1.534527099609375,-1.0567657947540283,-0.19447849690914154,1.3547065258026123
1667266571110924800,1.5369248046875,-1.037218689918518,-0.23662695288658142,1.3186665773391724
1667266571113322800,1.53932275390625,-1.0207257270812988,-0.2769428789615631,1.278961420059204
1667266571115720400,1.541720458984375,-1.0109522342681885,-0.31115031242370605,1.2386455535888672
1667266571118118400,1.544118408203125,-1.0048437118530273,-0.3453577756881714,1.1989405155181885
1667266571120516000,1.54651611328125,-1.0048437118530273,-0.3728458881378174,1.1574028730392456
1667266571122914000,1.5489140625,-1.0103414058685303,-0.40094485878944397,1.118308663368225
1667266571125311700,1.551311767578125,-1.0176715850830078,-0.4217136800289154,1.0786035060882568
1667266571127709700,1.553709716796875,-1.0323318243026733,-0.44072631001472473,1.0443960428237915
1667266571130107400,1.556107421875,-1.0494356155395508,-0.45233240723609924,1.0083560943603516
1667266571132505300,1.55850537109375,-1.068982720375061,-0.46393850445747375,0.9759812355041504
1667266571134903000,1.560903076171875,-1.0854755640029907,-0.46760356426239014,0.9491039514541626
1667266571137301000,1.563301025390625,-1.106244444847107,-0.4718795120716095,0.9216157793998718
1667266571139698700,1.56569873046875,-1.1257915496826172,-0.47554460167884827,0.8990144729614258
1667266571142096600,1.5680966796875,-1.1416735649108887,-0.4743228852748871,0.8770239353179932
1667266571144494300,1.570494384765625,-1.155722975730896,-0.4700469672679901,0.8593093752861023
1667266571146892000,1.57289208984375,-1.1636639833450317,-0.46332764625549316,0.8409839868545532
1667266571149290000,1.5752900390625,-1.170383334159851,-0.457830011844635,0.8287670016288757
1667266571151687700,1.577687744140625,-1.1734375953674316,-0.45416492223739624,0.8141067028045654
1667266571154085600,1.580085693359375,-1.1728267669677734,-0.4474456310272217,0.8055548071861267
1667266571156483300,1.5824833984375,-1.1709941625595093,-0.4450022280216217,0.797613799571991
1667266571158881300,1.58488134765625,-1.1648857593536377,-0.44011545181274414,0.793337881565094
1667266571161279000,1.587279052734375,-1.1587772369384766,-0.4352286756038666,0.7945595979690552
1667266571163677000,1.589677001953125,-1.152668833732605,-0.42843300104141235,0.8006680607795715
1667266571166074600,1.59207470703125,-1.1435060501098633,-0.422324538230896,0.8141067028045654
1667266571168472600,1.59447265625,-1.133732557296753,-0.41743773221969604,0.8275453448295593
1667266571170870300,1.596870361328125,-1.1202938556671143,-0.41927027702331543,0.8464815616607666
1667266571173268200,1.599268310546875,-1.109298586845398,-0.41927027702331543,0.8709154725074768
1667266571175666000,1.601666015625,-1.0995250940322876,-0.4259895980358124,0.8984035849571228
1667266571178064000,1.60406396484375,-1.0873081684112549,-0.43828290700912476,0.9246700406074524
1667266571180461600,1.606461669921875,-1.0781453847885132,-0.45172154903411865,0.9558232426643372
1667266571182859300,1.608859375,-1.0653176307678223,-0.4627167880535126,0.9869764447212219
1667266571185257200,1.61125732421875,-1.054322361946106,-0.47615543007850647,1.0205730199813843
1667266571187655200,1.6136552734375,-1.0408837795257568,-0.48959407210350037,1.0547804832458496
1667266571190052900,1.616052978515625,-1.0292776823043823,-0.5018110275268555,1.0883771181106567
1667266571192450800,1.618450927734375,-1.0188932418823242,-0.5140279531478882,1.120751976966858
1667266571194848500,1.6208486328125,-1.0072871446609497,-0.5238015055656433,1.1549594402313232
1667266571197246200,1.62324609375,-0.9950701594352722,-0.5347967743873596,1.1885560750961304
1667266571199644200,1.62564404296875,-0.9865183234214783,-0.5439594984054565,1.2221527099609375
1667266571202041900,1.628041748046875,-0.9779664874076843,-0.5525113344192505,1.251473307609558
1667266571204439800,1.630439697265625,-0.9694145917892456,-0.5610632300376892,1.283237338066101
1667266571206837500,1.63283740234375,-0.9645278453826904,-0.5677825212478638,1.3088929653167725
1667266571209235500,1.6352353515625,-0.9602518677711487,-0.5775560736656189,1.3327159881591797
1667266571211633200,1.637633056640625,-0.9584193229675293,-0.583053708076477,1.358371615409851
1667266571214031000,1.640031005859375,-0.9571976661682129,-0.591605544090271,1.3785295486450195
1667266571216428800,1.6424287109375,-0.9571976661682129,-0.5995466113090515,1.394411563873291
1667266571218826800,1.64482666015625,-0.962695300579071,-0.6050441861152649,1.4060176610946655
1667266571221224400,1.647224365234375,-0.9675820469856262,-0.6068767309188843,1.4139586687088013
1667266571223622400,1.649622314453125,-0.9779664874076843,-0.6050441861152649,1.4188454151153564
1667266571226020000,1.65202001953125,-0.9840749502182007,-0.6001574397087097,1.41762375831604
1667266571228418000,1.65441796875,-0.9956810474395752,-0.5861079692840576,1.413347840309143
1667266571230815700,1.656815673828125,-1.0072871446609497,-0.5659499764442444,1.4023525714874268
1667266571233213400,1.65921337890625,-1.0213366746902466,-0.545181155204773,1.3852488994598389
1667266571235611400,1.661611328125,-1.0341644287109375,-0.5189147591590881,1.366923451423645
1667266571238009300,1.66400927734375,-1.0506572723388672,-0.4883723855018616,1.3467655181884766
1667266571240407000,1.666406982421875,-1.0659284591674805,-0.4559974670410156,1.3229424953460693
1667266571242804700,1.6688046875,-1.0811996459960938,-0.422324538230896,1.2985085248947144
1667266571245202700,1.67120263671875,-1.0995250940322876,-0.39117130637168884,1.2734638452529907
1667266571247600400,1.673600341796875,-1.1160179376602173,-0.36429402232170105,1.251473307609558
1667266571249998300,1.675998291015625,-1.132510781288147,-0.33924928307533264,1.2300937175750732
1667266571252396000,1.67839599609375,-1.1477819681167603,-0.3154262602329254,1.2099356651306152
1667266571254794000,1.6807939453125,-1.1636639833450317,-0.29954421520233154,1.1952754259109497
1667266571257191700,1.683191650390625,-1.1777135133743286,-0.28244051337242126,1.1806150674819946
1667266571259589600,1.685589599609375,-1.1911520957946777,-0.2641150951385498,1.171452283859253
1667266571261987300,1.6879873046875,-1.2027583122253418,-0.24395711719989777,1.1659547090530396
1667266571264385300,1.69038525390625,-1.2155860662460327,-0.22257746756076813,1.1641221046447754
1667266571266783000,1.692782958984375,-1.2235270738601685,-0.1981435865163803,1.167176365852356
1667266571269181000,1.695180908203125,-1.2320789098739624,-0.16699036955833435,1.1745065450668335
1667266571271578600,1.69757861328125,-1.2381874322891235,-0.1340046226978302,1.1855018138885498
1667266571273976600,1.6999765625,-1.243685007095337,-0.09674293547868729,1.200773000717163
1667266571276374300,1.702374267578125,-1.2461284399032593,-0.0552053228020668,1.223985195159912
1667266571278772200,1.704772216796875,-1.2479609251022339,-0.0130568603053689,1.2508624792099
1667266571281170000,1.707169921875,-1.2473500967025757,0.030313294380903244,1.2826265096664429
1667266571283567600,1.709567626953125,-1.2449066638946533,0.07307260483503342,1.3192774057388306
1667266571285965600,1.711965576171875,-1.2369656562805176,0.10850174725055695,1.3602041006088257
1667266571288363300,1.71436328125,-1.2278029918670654,0.13843326270580292,1.4047960042953491
1667266571290761200,1.71676123046875,-1.2168077230453491,0.15798036754131317,1.450609564781189
1667266571293159000,1.719158935546875,-1.2039799690246582,0.1665322333574295,1.5019207000732422
1667266571295556900,1.721556884765625,-1.1862653493881226,0.1659213900566101,1.5538426637649536
1667266571297954600,1.72395458984375,-1.1685508489608765,0.15675868093967438,1.6051539182662964
1667266571300352500,1.7263525390625,-1.1477819681167603,0.13843326270580292,1.6582975387573242
1667266571302750200,1.728750244140625,-1.1251806020736694,0.1139993667602539,1.708387017250061
1667266571305148200,1.731148193359375,-1.100746750831604,0.08590039610862732,1.756033182144165
1667266571307545900,1.7335458984375,-1.0750911235809326,0.05413633957505226,1.8030683994293213
1667266571309943800,1.73594384765625,-1.0488247871398926,0.019318044185638428,1.843995213508606
1667266571312341500,1.738341552734375,-1.0195040702819824,-0.012446013279259205,1.8794243335723877
1667266571314739500,1.740739501953125,-0.990183413028717,-0.04543176665902138,1.9111883640289307
1667266571317137200,1.74313720703125,-0.9614735841751099,-0.082082599401474,1.9392873048782349
1667266571319535000,1.74553515625,-0.9315420985221863,-0.11873343586921692,1.9624994993209839
1667266571321932800,1.747932861328125,-0.8997780084609985,-0.15843850374221802,1.9838792085647583
1667266571324330800,1.750330810546875,-0.8686248064041138,-0.2011978179216385,1.9967069625854492
1667266571326728400,1.752728515625,-0.8393041491508484,-0.2537306845188141,2.0070912837982178
1667266571329126100,1.755126220703125,-0.8087617754936218,-0.317869633436203,2.010756492614746
1667266571331524000,1.757524169921875,-0.7800519466400146,-0.3862845301628113,2.0083131790161133
1667266571333921800,1.759921875,-0.7495095729827881,-0.4584408700466156,2.0028154850006104
1667266571336319700,1.76231982421875,-0.7189671993255615,-0.531742513179779,1.9936527013778687
1667266571338717400,1.764717529296875,-0.6902574300765991,-0.6056550741195679,1.9844900369644165
1667266571341115400,1.767115478515625,-0.660936713218689,-0.6856760382652283,1.9759382009506226
1667266571343513000,1.76951318359375,-0.6365028619766235,-0.7632536292076111,1.963110327720642
1667266571345911000,1.7719111328125,-0.6151232123374939,-0.8402203917503357,1.9490609169006348
1667266571348308700,1.774308837890625,-0.5955760478973389,-0.9123004078865051,1.935622215270996
1667266571350706700,1.776706787109375,-0.578472375869751,-0.9794935584068298,1.9234052896499634
1667266571353104400,1.7791044921875,-0.5632011890411377,-1.03996741771698,1.9099667072296143
1667266571355502300,1.78150244140625,-0.550373375415802,-1.0979979038238525,1.897749662399292
1667266571357900000,1.783900146484375,-0.5424323678016663,-1.1480873823165894,1.889197826385498
1667266571360298000,1.786298095703125,-0.5363239049911499,-1.1939009428024292,1.880035161972046
1667266571362695700,1.78869580078125,-0.5308262705802917,-1.2329951524734497,1.8739266395568848
1667266571365093400,1.79109326171875,-0.527161180973053,-1.2696460485458374,1.8708724975585938
1667266571367491300,1.7934912109375,-0.5265503525733948,-1.3007992506027222,1.871483325958252
1667266571369889300,1.79588916015625,-0.5308262705802917,-1.323400616645813,1.8727049827575684
1667266571372287000,1.798286865234375,-0.53143709897995,-1.3435585498809814,1.874537467956543
1667266571374685000,1.800684814453125,-0.5357130169868469,-1.359440565109253,1.8751484155654907
1667266571377082600,1.80308251953125,-0.5393781065940857,-1.3716574907302856,1.880645990371704
1667266571379480300,1.805480224609375,-0.5424323678016663,-1.3820419311523438,1.8855327367782593
1667266571381878300,1.807878173828125,-0.546097457408905,-1.3844853639602661,1.890419602394104
1667266571384276000,1.81027587890625,-0.5491516590118408,-1.3832635879516602,1.8959171772003174
1667266571386674000,1.812673828125,-0.5509842038154602,-1.3734900951385498,1.8940846920013428
1667266571389071600,1.815071533203125,-0.5522059202194214,-1.3582189083099365,1.8898086547851562
1667266571391469600,1.817469482421875,-0.5534276366233826,-1.3429477214813232,1.8867545127868652
1667266571393867300,1.8198671875,-0.5522059202194214,-1.3301198482513428,1.8824785947799683
1667266571396265200,1.82226513671875,-0.5497625470161438,-1.3203463554382324,1.8794243335723877
1667266571398663000,1.824662841796875,-0.5485408306121826,-1.3154596090316772,1.8739266395568848
1667266571401060900,1.827060791015625,-0.5454866290092468,-1.3124053478240967,1.867207407951355
1667266571403458600,1.82945849609375,-0.5442649126052856,-1.3124053478240967,1.8604880571365356
1667266571405856500,1.8318564453125,-0.5430431962013245,-1.3117945194244385,1.851325273513794
1667266571408254200,1.834254150390625,-0.5405998229980469,-1.3105727434158325,1.8452168703079224
1667266571410652200,1.836652099609375,-0.5412106513977051,-1.3111836910247803,1.8372758626937866
1667266571413049900,1.8390498046875,-0.5405998229980469,-1.3124053478240967,1.828113079071045
1667266571415447600,1.841447509765625,-0.5436540842056274,-1.308740258216858,1.8201720714569092
1667266571417845500,1.843845458984375,-0.5412106513977051,-1.3007992506027222,1.8085659742355347
1667266571420243500,1.846243408203125,-0.5418215394020081,-1.2922474145889282,1.7994033098220825
1667266571422641200,1.84864111328125,-0.5442649126052856,-1.2788087129592896,1.7871863842010498
1667266571425038800,1.851038818359375,-0.5442649126052856,-1.2610942125320435,1.7761911153793335
1667266571427436800,1.853436767578125,-0.5436540842056274,-1.2421579360961914,1.7590874433517456
1667266571429834500,1.85583447265625,-0.546097457408905,-1.2189457416534424,1.7444270849227905
1667266571432232400,1.858232421875,-0.5473191738128662,-1.1951227188110352,1.7322101593017578
1667266571434630100,1.860630126953125,-0.5454866290092468,-1.1664128303527832,1.7157171964645386
1667266571437028000,1.863028076171875,-0.5454866290092468,-1.1358704566955566,1.699835181236267
1667266571439425800,1.86542578125,-0.5454866290092468,-1.100441336631775,1.6833423376083374
1667266571441823700,1.86782373046875,-0.5412106513977051,-1.068677306175232,1.6662386655807495
1667266571444221400,1.870221435546875,-0.5381564497947693,-1.0326372385025024,1.6479132175445557
1667266571446619400,1.872619384765625,-0.5344913601875305,-0.9917105436325073,1.6295877695083618
1667266571449017000,1.87501708984375,-0.5283828973770142,-0.9520054459571838,1.6143165826797485
1667266571451415000,1.8774150390625,-0.5234960913658142,-0.9104678630828857,1.5978237390518188
1667266571453812700,1.879812744140625,-0.517998456954956,-0.8695410490036011,1.5801091194152832
1667266571456210700,1.882210693359375,-0.5106683373451233,-0.8298360109329224,1.5672813653945923
1667266571458608400,1.8846083984375,-0.5021164417266846,-0.7895200848579407,1.5544536113739014
1667266571461006300,1.88700634765625,-0.4947862923145294,-0.7565343379974365,1.5410149097442627
1667266571463404000,1.889404052734375,-0.4844018816947937,-0.7235485911369324,1.5306304693222046
1667266571465801700,1.8918017578125,-0.4746283292770386,-0.694227933883667,1.5196353197097778
1667266571468199700,1.89419970703125,-0.46363306045532227,-0.6667397618293762,1.5123051404953003
1667266571470597400,1.896597412109375,-0.45324867963790894,-0.6441384553909302,1.5049749612808228
1667266571472995300,1.898995361328125,-0.4367557764053345,-0.6258130073547363,1.5000882148742676
1667266571475393000,1.90139306640625,-0.4227063059806824,-0.6068767309188843,1.4945905208587646
1667266571477791000,1.903791015625,-0.4086568057537079,-0.591605544090271,1.4921470880508423
1667266571480188700,1.906188720703125,-0.3939964771270752,-0.5781669020652771,1.4939796924591064
1667266571482586600,1.908586669921875,-0.3787252902984619,-0.5635066032409668,1.497033953666687
1667266571484984300,1.910984375,-0.36162158846855164,-0.5512896776199341,1.501309871673584
1667266571487382300,1.91338232421875,-0.34635040163993835,-0.5415160655975342,1.5061966180801392
1667266571489780000,1.915780029296875,-0.3268032968044281,-0.531742513179779,1.514748454093933
1667266571492178000,1.918177978515625,-0.30664533376693726,-0.5299099683761597,1.5239112377166748
1667266571494575600,1.92057568359375,-0.28518930077552795,-0.5292991399765015,1.5312414169311523
1667266571496973600,1.9229736328125,-0.2631988227367401,-0.5372401475906372,1.541625738143921
1667266571499371300,1.925371337890625,-0.2405974566936493,-0.545181155204773,1.5532318353652954
1667266571501769200,1.927769287109375,-0.21616357564926147,-0.559841513633728,1.56483793258667
1667266571504167000,1.9301669921875,-0.19600561261177063,-0.5775560736656189,1.5782766342163086
1667266571506564900,1.93256494140625,-0.1740151196718216,-0.6007682681083679,1.5917152166366577
1667266571508962600,1.934962646484375,-0.15630054473876953,-0.6239804625511169,1.6051539182662964
1667266571511360300,1.9373603515625,-0.13675342500209808,-0.6545228362083435,1.6185925006866455
1667266571513758200,1.93975830078125,-0.11781716346740723,-0.6844543814659119,1.6289769411087036
1667266571516156000,1.942156005859375,-0.10010259598493576,-0.7149966955184937,1.6381396055221558
1667266571518553900,1.944553955078125,-0.07689040154218674,-0.7479824423789978,1.6466914415359497
1667266571520951600,1.94695166015625,-0.054899897426366806,-0.7834116220474243,1.6509674787521362
1667266571523349500,1.949349609375,-0.028633465990424156,-0.8157865405082703,1.6527999639511108
1667266571525747200,1.951747314453125,-0.0005344913806766272,-0.8426637649536133,1.6497457027435303
1667266571528145200,1.954145263671875,0.031229566782712936,-0.8640434741973877,1.6466914415359497
1667266571530542800,1.95654296875,0.06421531736850739,-0.8768712282180786,1.6411938667297363
1667266571532940800,1.95894091796875,0.09720107167959213,-0.882979691028595,1.6320312023162842
1667266571535338500,1.96133837890625,0.13079766929149628,-0.8823688626289368,1.6204251050949097
1667266571537736400,1.963736328125,0.16439427435398102,-0.8732061386108398,1.6106514930725098
1667266571540134100,1.966134033203125,0.19554747641086578,-0.855491578578949,1.5972129106521606
1667266571542532000,1.968531982421875,0.22181391716003418,-0.8341119289398193,1.5825525522232056
1667266571544929800,1.9709296875,0.2468586415052414,-0.8072346448898315,1.5660597085952759
1667266571547327700,1.97332763671875,0.2682383060455322,-0.7760814428329468,1.5507885217666626
1667266571549725400,1.975725341796875,0.2835094928741455,-0.740652322769165,1.5349065065383911
1667266571552123400,1.978123291015625,0.2963372766971588,-0.7040014863014221,1.5233004093170166
1667266571554521000,1.98052099609375,0.30672168731689453,-0.6642963886260986,1.509861707687378
1667266571556919000,1.9829189453125,0.3097759187221527,-0.6245913505554199,1.4964231252670288
1667266571559316700,1.985316650390625,0.3140518367290497,-0.5818319916725159,1.4878711700439453
1667266571561714400,1.98771435546875,0.3103867769241333,-0.5433486104011536,1.4799301624298096
1667266571564112400,1.9901123046875,0.3012240529060364,-0.4981459379196167,1.473821759223938
1667266571566510000,1.992510009765625,0.29328304529190063,-0.4566083252429962,1.4701566696166992
1667266571568908000,1.994907958984375,0.28045526146888733,-0.41438350081443787,1.4707674980163574
1667266571571305700,1.9973056640625,0.26457321643829346,-0.3704025149345398,1.469545841217041
1667266571573703700,1.99970361328125,0.246247798204422,-0.3270323574542999,1.4732109308242798
1667266571576101400,2.002101318359375,0.22731153666973114,-0.28305134177207947,1.4799301624298096
1667266571578499300,2.004499267578125,0.20837527513504028,-0.237237811088562,1.488482117652893
1667266571580897000,2.00689697265625,0.19066070020198822,-0.19508934020996094,1.4964231252670288
1667266571583295000,2.009294921875,0.17294612526893616,-0.15049749612808228,1.5074182748794556
1667266571585692700,2.011692626953125,0.1552315652370453,-0.10895988345146179,1.5196353197097778
1667266571588090600,2.014090576171875,0.13873867690563202,-0.07108735293149948,1.533073902130127
1667266571590488300,2.01648828125,0.12407834827899933,-0.03993413969874382,1.5489559173583984
1667266571592886300,2.01888623046875,0.11002886295318604,-0.01122431829571724,1.56483793258667
1667266571595284000,2.021283935546875,0.09964445978403091,0.011987877078354359,1.583774209022522
1667266571597681700,2.023681640625,0.0880383625626564,0.02420482225716114,1.6014888286590576
1667266571600079600,2.02607958984375,0.07948649674654007,0.028480753302574158,1.6185925006866455
1667266571602477300,2.028477294921875,0.07154548168182373,0.026037365198135376,1.6363071203231812
1667266571604875300,2.030875244140625,0.06726955622434616,0.011377030052244663,1.654632568359375
1667266571607273000,2.03327294921875,0.061771929264068604,-0.010002624243497849,1.6754013299942017
1667266571609671000,2.0356708984375,0.061771929264068604,-0.04359922185540199,1.6925050020217896
1667266571612068600,2.038068603515625,0.06116108223795891,-0.08513683825731277,1.708387017250061
1667266571614466600,2.040466552734375,0.06116108223795891,-0.13217207789421082,1.7248799800872803
1667266571616864300,2.0428642578125,0.06482616811990738,-0.1871483325958252,1.74137282371521
1667266571619262200,2.04526220703125,0.07032378762960434,-0.24884390830993652,1.7566440105438232
1667266571621660000,2.047659912109375,0.0745997205376625,-0.3142045736312866,1.7713043689727783
1667266571624057900,2.050057861328125,0.08315158635377884,-0.37834352254867554,1.7810778617858887
1667266571626455600,2.05245556640625,0.09048175066709518,-0.4431696832180023,1.7884080410003662
1667266571628853500,2.054853515625,0.09842276573181152,-0.5018110275268555,1.7914623022079468
1667266571631251200,2.057251220703125,0.10697462409734726,-0.5586197972297668,1.7926839590072632
1667266571633649200,2.059649169921875,0.1143047958612442,-0.6074876189231873,1.7902406454086304
1667266571636046800,2.062046875,0.12041326612234116,-0.6484143733978271,1.7829104661941528
1667266571638444800,2.06444482421875,0.1271325796842575,-0.6777350306510925,1.768860936164856
1667266571640842500,2.066842529296875,0.13507360219955444,-0.6972821354866028,1.7511464357376099
1667266571643240400,2.069240478515625,0.1424037665128708,-0.7107207775115967,1.7297667264938354
1667266571645638100,2.07163818359375,0.15034478902816772,-0.7143858671188354,1.7016677856445312
1667266571648035800,2.074035888671875,0.1540098637342453,-0.7107207775115967,1.6705145835876465
1667266571650433800,2.076433837890625,0.16072918474674225,-0.6948387622833252,1.634474515914917
1667266571652831500,2.07883154296875,0.1668376624584198,-0.6795675754547119,1.5947694778442383
1667266571655229400,2.0812294921875,0.17355698347091675,-0.6581879258155823,1.5507885217666626
1667266571657627100,2.083627197265625,0.1821088343858719,-0.6361974477767944,1.5019207000732422
1667266571660025000,2.086025146484375,0.18760646879673004,-0.6160394549369812,1.4518312215805054
1667266571662422800,2.0884228515625,0.19127154350280762,-0.596492350101471,1.3974658250808716
1667266571664820700,2.09082080078125,0.19615831971168518,-0.5751127004623413,1.3431004285812378
1667266571667218400,2.093218505859375,0.19799086451530457,-0.5586197972297668,1.2838482856750488
1667266571669616400,2.095616455078125,0.19860170781612396,-0.5402944087982178,1.2258176803588867
