time,seconds_elapsed,z,y,x
1667266569679429000,0.10542919921875,0.4556920528411865,0.19241689145565033,-0.5412106513977051
1667266569681827000,0.1078271484375,0.4477510452270508,0.182643324136734,-0.5332696437835693
1667266569684224800,0.110224853515625,0.4446968138217926,0.1692046970129013,-0.5277720093727112
1667266569686622700,0.112622802734375,0.43858832120895386,0.1575985997915268,-0.5241069197654724
1667266569689020400,0.1150205078125,0.43736663460731506,0.14721418917179108,-0.5198310017585754
1667266569691418400,0.11741845703125,0.43614494800567627,0.13499724864959717,-0.517998456954956
1667266569693816000,0.119816162109375,0.4355340898036957,0.12094775587320328,-0.5161659121513367
1667266569696214000,0.122214111328125,0.4416425824165344,0.11117420345544815,-0.5173876285552979
1667266569698611700,0.12461181640625,0.448361873626709,0.1050657257437706,-0.5173876285552979
1667266569701009700,0.127009765625,0.4587462842464447,0.10201149433851242,-0.5210527181625366
1667266569703407400,0.129407470703125,0.4709632396697998,0.09895725548267365,-0.5234960913658142
1667266569705805000,0.13180517578125,0.4850127100944519,0.09956810623407364,-0.527161180973053
1667266569708203000,0.134203125,0.5021164417266846,0.09407047927379608,-0.5320479869842529
1667266569710600700,0.1366005859375,0.5222744345664978,0.08674030750989914,-0.5381564497947693
1667266569712998700,0.13899853515625,0.5436540842056274,0.07513421028852463,-0.5467082858085632
1667266569715396400,0.141396240234375,0.5674771070480347,0.061084724962711334,-0.5558710098266602
1667266569717794300,0.143794189453125,0.5949652194976807,0.04459185153245926,-0.5650337338447571
1667266569720192000,0.14619189453125,0.6181774139404297,0.02626643143594265,-0.5803049206733704
1667266569722590000,0.14858984375,0.6426113247871399,0.0024433890357613564,-0.5949652194976807
1667266569724987600,0.150987548828125,0.6658235192298889,-0.011606098152697086,-0.6132906675338745
1667266569727385600,0.153385498046875,0.6859814524650574,-0.02504473738372326,-0.6322268843650818
1667266569729783300,0.155783203125,0.7049177289009094,-0.03665083646774292,-0.652384877204895
1667266569732181200,0.15818115234375,0.7189671993255615,-0.042759306728839874,-0.6743753552436829
1667266569734579000,0.160578857421875,0.730573296546936,-0.042759306728839874,-0.6969767212867737
1667266569736977000,0.162976806640625,0.7372926473617554,-0.03787253051996231,-0.7171346545219421
1667266569739374600,0.16537451171875,0.7385143637657166,-0.026877280324697495,-0.7385143637657166
1667266569741772300,0.167772216796875,0.735460102558136,-0.01038440316915512,-0.7598940134048462
1667266569744170200,0.170170166015625,0.726908266544342,0.018936265259981155,-0.7800519466400146
1667266569746568000,0.17256787109375,0.7116370797157288,0.04825693368911743,-0.7983773946762085
1667266569748966000,0.1749658203125,0.6969767212867737,0.08002099394798279,-0.8130376935005188
1667266569751363600,0.177363525390625,0.6737645268440247,0.11056335270404816,-0.8240329623222351
1667266569753761500,0.179761474609375,0.6499415040016174,0.14171656966209412,-0.8319739699363708
1667266569756159200,0.1821591796875,0.624896764755249,0.1716480851173401,-0.8362498879432678
1667266569758557200,0.18455712890625,0.6016845703125,0.1954711228609085,-0.8380824327468872
1667266569760955000,0.186954833984375,0.5821374654769897,0.20341213047504425,-0.8362498879432678
1667266569763352800,0.189352783203125,0.5625903010368347,0.20768806338310242,-0.8307522535324097
1667266569765750500,0.19175048828125,0.5442649126052856,0.20585553348064423,-0.8209787011146545
1667266569768148500,0.1941484375,0.5247178077697754,0.19974705576896667,-0.80937260389328
1667266569770546200,0.196546142578125,0.5027272701263428,0.1844758689403534,-0.7953231334686279
1667266569772944100,0.198944091796875,0.4831801950931549,0.16126367449760437,-0.7837170362472534
1667266569775341800,0.201341796875,0.46485477685928345,0.1319430023431778,-0.7721109390258789
1667266569777739800,0.20373974609375,0.4471401870250702,0.0910162404179573,-0.7611156702041626
1667266569780137500,0.206137451171875,0.4343124032020569,0.04031591862440109,-0.7501204609870911
1667266569782535200,0.20853515625,0.42453885078430176,-0.018936265259981155,-0.7385143637657166
1667266569784933000,0.21093310546875,0.4202629029750824,-0.08368607610464096,-0.7275190949440002
1667266569787330800,0.213330810546875,0.4190412163734436,-0.14965757727622986,-0.7140804529190063
1667266569789728800,0.215728759765625,0.420873761177063,-0.21746163070201874,-0.7012526392936707
1667266569792126500,0.21812646484375,0.42453885078430176,-0.2864873707294464,-0.6920899152755737
1667266569794524400,0.2205244140625,0.4318690001964569,-0.34940463304519653,-0.6804838180541992
1667266569796922000,0.222922119140625,0.4416425824165344,-0.4092676639556885,-0.6731536984443665
1667266569799320000,0.225320068359375,0.448361873626709,-0.46485477685928345,-0.6652126908302307
1667266569801717800,0.2277177734375,0.4569137394428253,-0.5131117105484009,-0.656660795211792
1667266569804115700,0.23011572265625,0.46302223205566406,-0.5540384650230408,-0.6505523324012756
1667266569806513400,0.232513427734375,0.46729815006256104,-0.5888567566871643,-0.6450546979904175
1667266569808911000,0.2349111328125,0.4703523814678192,-0.6169557571411133,-0.6383354067802429
1667266569811309000,0.23730908203125,0.4679090082645416,-0.6426113247871399,-0.6273401379585266
1667266569813706800,0.239706787109375,0.46485477685928345,-0.660936713218689,-0.6224533319473267
1667266569816104700,0.242104736328125,0.45324867963790894,-0.6688777208328247,-0.6157340407371521
1667266569818502400,0.24450244140625,0.43858832120895386,-0.6646018028259277,-0.6139014959335327
1667266569820900400,0.246900390625,0.420873761177063,-0.6529957056045532,-0.6139014959335327
1667266569823298000,0.249298095703125,0.3958290219306946,-0.629172682762146,-0.6187883019447327
1667266569825696000,0.251696044921875,0.3683409094810486,-0.6047387719154358,-0.6255075931549072
1667266569828093700,0.25409375,0.3396310806274414,-0.5717530250549316,-0.6340594291687012
1667266569830491600,0.25649169921875,0.30664533376693726,-0.5363239049911499,-0.6474980711936951
1667266569832889300,0.258889404296875,0.27121618390083313,-0.5008947253227234,-0.6639909744262695
1667266569835287300,0.261287353515625,0.2357870489358902,-0.46302223205566406,-0.6792621612548828
1667266569837685000,0.26368505859375,0.1960819661617279,-0.42637139558792114,-0.6994200944900513
1667266569840083000,0.2660830078125,0.15454435348510742,-0.3897205591201782,-0.7201889157295227
1667266569842480600,0.268480712890625,0.11300674080848694,-0.3542914092540741,-0.7427902817726135
1667266569844878300,0.27087841796875,0.07391251623630524,-0.3133646547794342,-0.767224133014679
1667266569847276300,0.2732763671875,0.034818295389413834,-0.2718270421028137,-0.7873821258544922
1667266569849674000,0.275674072265625,-0.0024433890357613564,-0.22967857122421265,-0.8063184022903442
1667266569852072000,0.278072021484375,-0.034818295389413834,-0.17958909273147583,-0.8228112459182739
1667266569854469600,0.2804697265625,-0.06413896381855011,-0.12155860662460327,-0.836860716342926
1667266569856867600,0.28286767578125,-0.08979454636573792,-0.054365407675504684,-0.8478559851646423
1667266569859265300,0.285265380859375,-0.11117420345544815,0.02076880633831024,-0.8527427911758423
1667266569861663200,0.287663330078125,-0.12888877093791962,0.10384403169155121,-0.8576295375823975
1667266569864061000,0.29006103515625,-0.13988402485847473,0.19424942135810852,-0.8612946271896362
1667266569866459000,0.292458984375,-0.1453816443681717,0.29503923654556274,-0.8631271719932556
1667266569868856600,0.294856689453125,-0.14721418917179108,0.395218163728714,-0.8612946271896362
1667266569871254300,0.297254150390625,-0.14171656966209412,0.48989951610565186,-0.8588512539863586
1667266569873652200,0.29965234375,-0.12827792763710022,0.5723638534545898,-0.8576295375823975
1667266569876050000,0.3020498046875,-0.10873081535100937,0.648108959197998,-0.8545753359794617
1667266569878447900,0.30444775390625,-0.08674030750989914,0.707361102104187,-0.8496885299682617
1667266569880845600,0.306845458984375,-0.05986303091049194,0.7519529461860657,-0.8448017835617065
1667266569883243500,0.309243408203125,-0.02748812735080719,0.7849387526512146,-0.8429692387580872
1667266569885641200,0.31164111328125,0.009773556143045425,0.809983491897583,-0.8429692387580872
1667266569888039200,0.3140390625,0.05070032179355621,0.8264763355255127,-0.846023440361023
1667266569890436900,0.316436767578125,0.0922379344701767,0.8356390595436096,-0.856407880783081
1667266569892834800,0.318834716796875,0.13377554714679718,0.846023440361023,-0.8729007244110107
1667266569895232500,0.321232421875,0.1692046970129013,0.8527427911758423,-0.8985562920570374
1667266569897630500,0.32363037109375,0.20585553348064423,0.8588512539863586,-0.9327637553215027
1667266569900028200,0.326028076171875,0.2351761907339096,0.8631271719932556,-0.9718579649925232
1667266569902426000,0.328426025390625,0.261442631483078,0.8655705451965332,-1.0195040702819824
1667266569904823800,0.33082373046875,0.28160059452056885,0.8686248064041138,-1.0702043771743774
1667266569907221500,0.333221435546875,0.29503923654556274,0.8686248064041138,-1.12823486328125
1667266569909619500,0.335619384765625,0.2993151545524597,0.8631271719932556,-1.192984700202942
1667266569912017200,0.33801708984375,0.29748260974884033,0.8557969927787781,-1.2595670223236084
1667266569914415000,0.3404150390625,0.288930743932724,0.8454126119613647,-1.3285927772521973
1667266569916812800,0.342812744140625,0.2754921019077301,0.8344173431396484,-1.405635952949524
1667266569919210800,0.345210693359375,0.25716668367385864,0.8228112459182739,-1.4850460290908813
1667266569921608400,0.3476083984375,0.23212195932865143,0.8069292306900024,-1.5644562244415283
1667266569924006400,0.35000634765625,0.20463383197784424,0.7916580438613892,-1.6450880765914917
1667266569926404000,0.352404052734375,0.17225892841815948,0.7776085734367371,-1.7257198095321655
1667266569928802000,0.354802001953125,0.13927318155765533,0.7641699314117432,-1.8014649152755737
1667266569931199700,0.35719970703125,0.10323318839073181,0.7488987445831299,-1.8723231554031372
1667266569933597400,0.359597412109375,0.0653606578707695,0.7379034757614136,-1.942570686340332
1667266569935995400,0.361995361328125,0.025655584409832954,0.7293516397476196,-2.006098747253418
1667266569938393000,0.36439306640625,-0.01038440316915512,0.7195780873298645,-2.0592424869537354
1667266569940791000,0.366791015625,-0.04581354558467865,0.7116370797157288,-2.110553741455078
1667266569943188700,0.369188720703125,-0.07757759839296341,0.7085828185081482,-2.153312921524048
1667266569945586700,0.371586669921875,-0.10750912129878998,0.7061394453048706,-2.19179630279541
1667266569947984400,0.373984375,-0.13621893525123596,0.707361102104187,-2.223560333251953
1667266569950382300,0.37638232421875,-0.15943112969398499,0.7128587365150452,-2.2510485649108887
1667266569952780000,0.378780029296875,-0.1820324808359146,0.7415685653686523,-2.2815909385681152
1667266569955178000,0.381177978515625,-0.20341213047504425,0.7831062078475952,-2.315798282623291
1667266569957575700,0.38357568359375,-0.2217375487089157,0.8289197087287903,-2.3493947982788086
1667266569959973400,0.385973388671875,-0.23945212364196777,0.869235634803772,-2.376272201538086
1667266569962371300,0.388371337890625,-0.25472331047058105,0.9003888368606567,-2.404982089996338
1667266569964769300,0.390769287109375,-0.26877278089523315,0.9254335761070251,-2.426361560821533
1667266569967167000,0.3931669921875,-0.2864873707294464,0.9474241137504578,-2.4471304416656494
1667266569969565000,0.39556494140625,-0.3029802441596985,0.9718579649925232,-2.463012456893921
1667266569971962600,0.397962646484375,-0.3176405727863312,0.9981244206428528,-2.4740078449249268
1667266569974360300,0.4003603515625,-0.33413344621658325,1.0280559062957764,-2.483170509338379
1667266569976758300,0.40275830078125,-0.34573954343795776,1.0567657947540283,-2.4874463081359863
1667266569979156000,0.405156005859375,-0.3567348122596741,1.0897514820098877,-2.4898898601531982
1667266569981554000,0.407553955078125,-0.3671191930770874,1.12823486328125,-2.4856138229370117
1667266569983951600,0.40995166015625,-0.37322768568992615,1.1667182445526123,-2.4740078449249268
1667266569986349600,0.412349609375,-0.3775036036968231,1.2058124542236328,-2.454460620880127
1667266569988747300,0.414747314453125,-0.3799470067024231,1.2467392683029175,-2.428194284439087
1667266569991145200,0.417145263671875,-0.3793361485004425,1.2894985675811768,-2.3897109031677246
1667266569993543000,0.41954296875,-0.37567105889320374,1.3328686952590942,-2.344508171081543
1667266569995940900,0.42194091796875,-0.37200596928596497,1.372650146484375,-2.2883102893829346
1667266569998338600,0.424338623046875,-0.365286648273468,1.4074684381484985,-2.2253928184509277
1667266570000736300,0.426736328125,-0.36039987206459045,1.4404542446136475,-2.1545345783233643
1667266570003134200,0.42913427734375,-0.3524588644504547,1.4667205810546875,-2.0763461589813232
1667266570005532000,0.431531982421875,-0.3439069986343384,1.488100290298462,-1.991438388824463
1667266570007929900,0.433929931640625,-0.33413344621658325,1.5064257383346558,-1.9028655290603638
1667266570010327600,0.43632763671875,-0.32069480419158936,1.5174208879470825,-1.806962490081787
1667266570012725500,0.4387255859375,-0.30481278896331787,1.5180318355560303,-1.7086161375045776
1667266570015123200,0.441123291015625,-0.2895416021347046,1.5119233131408691,-1.6072155237197876
1667266570017521200,0.443521240234375,-0.2718270421028137,1.4954304695129395,-1.5033714771270752
1667266570019918800,0.4459189453125,-0.2516690790653229,1.4685531854629517,-1.4019708633422852
1667266570022316800,0.44831689453125,-0.23028941452503204,1.4325132369995117,-1.300493836402893
1667266570024714500,0.450714599609375,-0.20524467527866364,1.389753818511963,-1.1960389614105225
1667266570027112200,0.4531123046875,-0.17775654792785645,1.3378318548202515,-1.0970816612243652
1667266570029510100,0.45551025390625,-0.15210096538066864,1.2821683883666992,-0.998735249042511
1667266570031907800,0.457907958984375,-0.12583453953266144,1.2198619842529297,-0.9077190160751343
1667266570034305800,0.460305908203125,-0.09651386737823486,1.159998893737793,-0.8191461563110352
1667266570036703500,0.462703369140625,-0.07146912813186646,1.110520362854004,-0.739736020565033
1667266570039101400,0.465101318359375,-0.04825693368911743,1.0628741979599,-0.6646018028259277
1667266570041499100,0.4674990234375,-0.028098974376916885,1.018282413482666,-0.6029062271118164
1667266570043897000,0.46989697265625,-0.007941014133393764,0.9791881442070007,-0.5485408306121826
1667266570046294800,0.472294677734375,0.005497625097632408,0.9419264793395996,-0.5015056133270264
1667266570048692700,0.474692626953125,0.010995250195264816,0.9016105532646179,-0.4611896872520447
1667266570051090400,0.47709033203125,0.012216945178806782,0.8600729703903198,-0.42392799258232117
1667266570053488400,0.47948828125,0.006108472589403391,0.8197570443153381,-0.3897205591201782
1667266570055886000,0.481885986328125,-0.0036650835536420345,0.7751652002334595,-0.3549022674560547
1667266570058284000,0.484283935546875,-0.017714571207761765,0.7281299233436584,-0.32069480419158936
1667266570060681700,0.486681640625,-0.0390942245721817,0.6652126908302307,-0.28221142292022705
1667266570063079400,0.489079345703125,-0.061084724962711334,0.5949652194976807,-0.24006296694278717
1667266570065477400,0.491477294921875,-0.08490777015686035,0.5241069197654724,-0.1979145109653473
1667266570067875000,0.493875,-0.11178504675626755,0.45141613483428955,-0.15515519678592682
1667266570070273000,0.49627294921875,-0.13805148005485535,0.3799470067024231,-0.11300674080848694
1667266570072670700,0.498670654296875,-0.16431790590286255,0.31031039357185364,-0.07146912813186646
1667266570075068700,0.501068603515625,-0.18814095854759216,0.24556060135364532,-0.030542362481355667
1667266570077466400,0.50346630859375,-0.2107423096895218,0.18936264514923096,0.006719320081174374
1667266570079864300,0.5058642578125,-0.23028941452503204,0.1319430023431778,0.04337015375494957
1667266570082262000,0.508261962890625,-0.2480039894580841,0.08307522535324097,0.0794101431965828
1667266570084660000,0.510659912109375,-0.2632751762866974,0.038483377546072006,0.11239589750766754
1667266570087057700,0.5130576171875,-0.2754921019077301,-0.0024433890357613564,0.1423274129629135
1667266570089455400,0.515455322265625,-0.2864873707294464,-0.0397050715982914,0.1704263836145401
1667266570091853300,0.517853271484375,-0.29320669174194336,-0.07757759839296341,0.20035789906978607
1667266570094251000,0.5202509765625,-0.29748260974884033,-0.11178504675626755,0.22845686972141266
1667266570096649000,0.52264892578125,-0.3035911023616791,-0.13744063675403595,0.2492256760597229
1667266570099046700,0.525046630859375,-0.3029802441596985,-0.16126367449760437,0.27121618390083313
1667266570101444600,0.527444580078125,-0.3023693859577179,-0.1832541823387146,0.29565006494522095
1667266570103842300,0.52984228515625,-0.2993151545524597,-0.19913621246814728,0.3133646547794342
1667266570106240300,0.532240234375,-0.29442837834358215,-0.2101314514875412,0.3280249834060669
1667266570108638000,0.534637939453125,-0.2901524603366852,-0.21868331730365753,0.3390202224254608
1667266570111036000,0.537035888671875,-0.28404396772384644,-0.22051586210727692,0.34879377484321594
1667266570113433600,0.53943359375,-0.2767138183116913,-0.22051586210727692,0.3567348122596741
1667266570115831300,0.541831298828125,-0.265718549489975,-0.21868331730365753,0.3640649616718292
1667266570118229200,0.544229248046875,-0.258999228477478,-0.21440738439559937,0.367730051279068
1667266570120627000,0.546626953125,-0.2480039894580841,-0.20646637678146362,0.3689517378807068
1667266570123025000,0.54902490234375,-0.2376195788383484,-0.1973036676645279,0.37261682748794556
1667266570125422600,0.551422607421875,-0.22479179501533508,-0.18691925704479218,0.37383851408958435
1667266570127820500,0.553820556640625,-0.21562908589839935,-0.1716480851173401,0.37444937229156494
1667266570130218200,0.55621826171875,-0.20402298867702484,-0.1563768982887268,0.3775036036968231
1667266570132616200,0.5586162109375,-0.19241689145565033,-0.13988402485847473,0.37689274549484253
1667266570135014000,0.561013916015625,-0.17897824943065643,-0.12155860662460327,0.37567105889320374
1667266570137411800,0.563411865234375,-0.1692046970129013,-0.09651386737823486,0.37444937229156494
1667266570139809500,0.5658095703125,-0.1563768982887268,-0.07207997888326645,0.37506023049354553
1667266570142207500,0.56820751953125,-0.1441599577665329,-0.045202698558568954,0.37444937229156494
1667266570144605200,0.570605224609375,-0.13316470384597778,-0.014049487188458443,0.37261682748794556
1667266570147003100,0.573003173828125,-0.12094775587320328,0.013438640162348747,0.3701734244823456
1667266570149400800,0.57540087890625,-0.10995250940322876,0.04459185153245926,0.367730051279068
1667266570151798800,0.577798828125,-0.09956810623407364,0.07757759839296341,0.3640649616718292
1667266570154196500,0.580196533203125,-0.0922379344701767,0.10934165865182877,0.36284327507019043
1667266570156594200,0.58259423828125,-0.08307522535324097,0.14049486815929413,0.35917818546295166
1667266570158992100,0.5849921875,-0.0781884491443634,0.16798299551010132,0.3567348122596741
1667266570161389800,0.587389892578125,-0.07452336698770523,0.19180603325366974,0.3506263196468353
1667266570163787800,0.589787841796875,-0.07024743407964706,0.21379654109477997,0.3414636254310608
1667266570166185500,0.592185546875,-0.06902574002742767,0.2376195788383484,0.33596599102020264
1667266570168583400,0.59458349609375,-0.07146912813186646,0.25716668367385864,0.3298575282096863
1667266570170981000,0.596981201171875,-0.07269082218408585,0.2754921019077301,0.31886225938796997
1667266570173379000,0.599379150390625,-0.07635590434074402,0.2901524603366852,0.31031039357185364
1667266570175776800,0.60177685546875,-0.07757759839296341,0.3035911023616791,0.29687178134918213
1667266570178174700,0.6041748046875,-0.0794101431965828,0.3139754831790924,0.2852656841278076
1667266570180572400,0.606572509765625,-0.08246438205242157,0.3249707520008087,0.2724378705024719
1667266570182970000,0.60897021484375,-0.08612946420907974,0.3298575282096863,0.258999228477478
1667266570185368000,0.6113681640625,-0.08796200156211853,0.33596599102020264,0.24311721324920654
1667266570187765800,0.613765869140625,-0.0916270911693573,0.33718767762184143,0.22662433981895447
1667266570190163700,0.616163818359375,-0.09468132257461548,0.3402419090270996,0.20707722008228302
1667266570192561400,0.6185615234375,-0.09956810623407364,0.3426853120326996,0.18875180184841156
1667266570194959400,0.62095947265625,-0.1050657257437706,0.3408527672290802,0.16798299551010132
1667266570197357000,0.623357177734375,-0.11239589750766754,0.33596599102020264,0.14782503247261047
1667266570199755000,0.625755126953125,-0.1185043677687645,0.33169007301330566,0.12400199472904205
1667266570202152700,0.628152587890625,-0.12888877093791962,0.32130566239356995,0.10140064358711243
1667266570204550700,0.630550537109375,-0.13805148005485535,0.3127537965774536,0.07635590434074402
1667266570206948400,0.6329482421875,-0.14782503247261047,0.3005368411540985,0.04886778071522713
1667266570209346000,0.635345947265625,-0.1575985997915268,0.2852656841278076,0.01954711228609085
1667266570211744000,0.637743896484375,-0.16676130890846252,0.26999449729919434,-0.009773556143045425
1667266570214142000,0.640141845703125,-0.17653486132621765,0.25350162386894226,-0.038483377546072006
1667266570216539600,0.64253955078125,-0.18814095854759216,0.24189551174640656,-0.06719319522380829
1667266570218937300,0.644937255859375,-0.19913621246814728,0.22540263831615448,-0.10078980028629303
1667266570221335300,0.647335205078125,-0.208298921585083,0.20707722008228302,-0.1313321590423584
1667266570223733000,0.64973291015625,-0.21807247400283813,0.18997350335121155,-0.16553960740566254
1667266570226131000,0.652130859375,-0.22723518311977386,0.16737215220928192,-0.1960819661617279
1667266570228528600,0.654528564453125,-0.2345653474330902,0.1435490995645523,-0.22662433981895447
1667266570230926600,0.656926513671875,-0.24128466844558716,0.11911521852016449,-0.25777754187583923
1667266570233324300,0.65932421875,-0.2480039894580841,0.09407047927379608,-0.2895416021347046
1667266570235722200,0.66172216796875,-0.2504473626613617,0.06780404597520828,-0.3158080279827118
1667266570238120000,0.664119873046875,-0.2510582208633423,0.04337015375494957,-0.34573954343795776
1667266570240518000,0.666517822265625,-0.2504473626613617,0.021990500390529633,-0.37261682748794556
1667266570242915600,0.66891552734375,-0.2486148327589035,0.0012216945178806782,-0.39949411153793335
1667266570245313300,0.671313232421875,-0.24678228795528412,-0.020157959312200546,-0.42331716418266296
1667266570247711200,0.673711181640625,-0.24128466844558716,-0.036039989441633224,-0.4471401870250702
1667266570250109000,0.67610888671875,-0.2345653474330902,-0.04886778071522713,-0.46729815006256104
1667266570252507000,0.6785068359375,-0.22723518311977386,-0.05803048983216286,-0.4874561131000519
1667266570254904600,0.680904541015625,-0.22051586210727692,-0.0659715011715889,-0.5033381581306458
1667266570257302500,0.683302490234375,-0.2107423096895218,-0.06841489672660828,-0.5143333673477173
1667266570259700200,0.6857001953125,-0.19974705576896667,-0.07024743407964706,-0.5234960913658142
1667266570262098200,0.68809814453125,-0.19119518995285034,-0.07269082218408585,-0.5296045541763306
1667266570264495900,0.690495849609375,-0.18019993603229523,-0.06963659077882767,-0.5357130169868469
1667266570266893800,0.692893798828125,-0.16737215220928192,-0.07024743407964706,-0.5344913601875305
1667266570269291500,0.69529150390625,-0.1569877415895462,-0.06780404597520828,-0.5308262705802917
1667266570271689200,0.697689208984375,-0.14660334587097168,-0.06719319522380829,-0.5289937257766724
1667266570274087200,0.700087158203125,-0.13499724864959717,-0.0659715011715889,-0.5234960913658142
1667266570276484900,0.70248486328125,-0.12583453953266144,-0.0659715011715889,-0.5167768001556396
1667266570278882800,0.7048828125,-0.11545012891292572,-0.06352811306715012,-0.5076140761375427
1667266570281280500,0.707280517578125,-0.10934165865182877,-0.05864133685827255,-0.4966188073158264
1667266570283678500,0.709678466796875,-0.10384403169155121,-0.051922015845775604,-0.4831801950931549
1667266570286076200,0.712076171875,-0.09834641218185425,-0.04153761267662048,-0.4691306948661804
1667266570288474000,0.71447412109375,-0.09651386737823486,-0.028098974376916885,-0.45080527663230896
1667266570290871800,0.716871826171875,-0.09590301662683487,-0.012827792204916477,-0.4300364851951599
1667266570293269800,0.719269775390625,-0.09712471067905426,0.004886778071522713,-0.41048935055732727
1667266570295667500,0.72166748046875,-0.09895725548267365,0.023823043331503868,-0.38849884271621704
1667266570298065400,0.7240654296875,-0.10262233763933182,0.042759306728839874,-0.3658975064754486
1667266570300463000,0.726463134765625,-0.10689827054738998,0.0659715011715889,-0.3408527672290802
1667266570302861000,0.728861083984375,-0.10934165865182877,0.08979454636573792,-0.31825143098831177
1667266570305258800,0.7312587890625,-0.11300674080848694,0.11300674080848694,-0.29259583353996277
1667266570307656400,0.733656494140625,-0.11606097966432571,0.13621893525123596,-0.26755109429359436
1667266570310054400,0.736054443359375,-0.1185043677687645,0.16370706260204315,-0.24433889985084534
1667266570312452000,0.7384521484375,-0.12033691257238388,0.18814095854759216,-0.2211267054080963
1667266570314850000,0.74085009765625,-0.12033691257238388,0.21379654109477997,-0.1954711228609085
1667266570317247700,0.743247802734375,-0.11972606182098389,0.23945212364196777,-0.17286977171897888
1667266570319645700,0.745645751953125,-0.1172826737165451,0.2632751762866974,-0.15210096538066864
1667266570322043400,0.74804345703125,-0.11483928561210632,0.2852656841278076,-0.13316470384597778
1667266570324441300,0.75044140625,-0.10811996459960938,0.30786702036857605,-0.11545012891292572
1667266570326839000,0.752839111328125,-0.09956810623407364,0.3268032968044281,-0.09834641218185425
1667266570329237000,0.755237060546875,-0.0910162404179573,0.34696123003959656,-0.08551861345767975
1667266570331634700,0.757634765625,-0.0787992998957634,0.36284327507019043,-0.07330167293548584
1667266570334032600,0.76003271484375,-0.06413896381855011,0.37506023049354553,-0.0659715011715889
1667266570336430300,0.762430419921875,-0.04947862774133682,0.38544461131095886,-0.055587101727724075
1667266570338828000,0.764828125,-0.03420744836330414,0.3927747905254364,-0.05070032179355621
1667266570341226000,0.76722607421875,-0.016492875292897224,0.39827242493629456,-0.05131116881966591
1667266570343623700,0.769623779296875,0.004275931045413017,0.39766156673431396,-0.05008947476744652
1667266570346021600,0.772021728515625,0.021990500390529633,0.395218163728714,-0.051922015845775604
1667266570348419300,0.77441943359375,0.042759306728839874,0.38910970091819763,-0.054365407675504684
1667266570350817300,0.7768173828125,0.06291726976633072,0.3775036036968231,-0.05986303091049194
1667266570353215000,0.779215087890625,0.08307522535324097,0.3658975064754486,-0.06902574002742767
1667266570355613000,0.781613037109375,0.10140064358711243,0.34879377484321594,-0.0794101431965828
1667266570358010600,0.7840107421875,0.12033691257238388,0.33169007301330566,-0.0916270911693573
1667266570360408600,0.78640869140625,0.14049486815929413,0.312142938375473,-0.10750912129878998
1667266570362806300,0.78880615234375,0.1563768982887268,0.29503923654556274,-0.12583453953266144
1667266570365204200,0.791204345703125,0.16859383881092072,0.2767138183116913,-0.1453816443681717
1667266570367602000,0.793601806640625,0.1850867122411728,0.25594499707221985,-0.16615045070648193
1667266570370000000,0.795999755859375,0.1960819661617279,0.23823043704032898,-0.18936264514923096
1667266570372397600,0.7983974609375,0.20646637678146362,0.2217375487089157,-0.21440738439559937
1667266570374795300,0.800795166015625,0.21562908589839935,0.20524467527866364,-0.24189551174640656
1667266570377193200,0.803193115234375,0.2229592502117157,0.18691925704479218,-0.26938363909721375
1667266570379591000,0.8055908203125,0.22967857122421265,0.16676130890846252,-0.29565006494522095
1667266570381988900,0.80798876953125,0.23334364593029022,0.14965757727622986,-0.3268032968044281
1667266570384386600,0.810386474609375,0.2357870489358902,0.12644538283348083,-0.3536805510520935
1667266570386784500,0.812784423828125,0.23884128034114838,0.09956810623407364,-0.3823903799057007
1667266570389182200,0.81518212890625,0.23945212364196777,0.06658235192298889,-0.41293275356292725
1667266570391580200,0.817580078125,0.24128466844558716,0.036039989441633224,-0.43919917941093445
1667266570393977900,0.819977783203125,0.24311721324920654,0.0036650835536420345,-0.4709632396697998
1667266570396375800,0.822375732421875,0.24006296694278717,-0.02870982140302658,-0.4984513521194458
1667266570398773500,0.8247734375,0.23823043704032898,-0.05864133685827255,-0.5259394645690918
1667266570401171200,0.827171142578125,0.2345653474330902,-0.08551861345767975,-0.550373375415802
1667266570403569200,0.829569091796875,0.22906772792339325,-0.11239589750766754,-0.5754181146621704
1667266570405966800,0.831966796875,0.2241809368133545,-0.13316470384597778,-0.5980194807052612
1667266570408364800,0.83436474609375,0.21868331730365753,-0.1563768982887268,-0.6169557571411133
1667266570410762500,0.836762451171875,0.21379654109477997,-0.17592400312423706,-0.6322268843650818
1667266570413160400,0.839160400390625,0.20585553348064423,-0.1954711228609085,-0.648108959197998
1667266570415558100,0.84155810546875,0.1985253542661667,-0.21196399629116058,-0.6554391384124756
1667266570417956000,0.8439560546875,0.18936264514923096,-0.22601348161697388,-0.6621584296226501
1667266570420353800,0.846353759765625,0.1820324808359146,-0.23945212364196777,-0.6658235192298889
1667266570422751700,0.848751708984375,0.17470231652259827,-0.2510582208633423,-0.6646018028259277
1667266570425149400,0.8511494140625,0.16737215220928192,-0.2583884000778198,-0.6652126908302307
1667266570427547400,0.85354736328125,0.15943112969398499,-0.258999228477478,-0.6554391384124756
1667266570429945000,0.855945068359375,0.15332266688346863,-0.25594499707221985,-0.6468872427940369
1667266570432343000,0.858343017578125,0.1447708010673523,-0.2504473626613617,-0.6340594291687012
1667266570434740700,0.86074072265625,0.13744063675403595,-0.24311721324920654,-0.6157340407371521
1667266570437138400,0.863138427734375,0.1313321590423584,-0.22967857122421265,-0.5955760478973389
1667266570439536400,0.865536376953125,0.12522368133068085,-0.2113531529903412,-0.5754181146621704
1667266570441934000,0.86793408203125,0.1185043677687645,-0.183865025639534,-0.5515950918197632
1667266570444332000,0.87033203125,0.10873081535100937,-0.14660334587097168,-0.5302154421806335
1667266570446729700,0.872729736328125,0.09590301662683487,-0.1050657257437706,-0.5082249045372009
1667266570449127700,0.875127685546875,0.08490777015686035,-0.0659715011715889,-0.4850127100944519
1667266570451525400,0.877525390625,0.07452336698770523,-0.033596597611904144,-0.4593571424484253
1667266570453923300,0.87992333984375,0.0647498071193695,-0.008551862090826035,-0.4330907166004181
1667266570456321000,0.882321044921875,0.055587101727724075,0.012216945178806782,-0.4062134325504303
1667266570458719000,0.884718994140625,0.04703523963689804,0.02870982140302658,-0.3793361485004425
1667266570461116700,0.88711669921875,0.04092676565051079,0.04031591862440109,-0.3506263196468353
1667266570463514400,0.889514404296875,0.033596597611904144,0.05131116881966591,-0.32313820719718933
1667266570465912300,0.891912353515625,0.028098974376916885,0.062306419014930725,-0.29565006494522095
1667266570468310300,0.894310302734375,0.020157959312200546,0.07452336698770523,-0.27060532569885254
1667266570470708000,0.8967080078125,0.011606098152697086,0.08246438205242157,-0.24494975805282593
1667266570473105700,0.899105712890625,0.005497625097632408,0.0922379344701767,-0.2211267054080963
1667266570475503600,0.901503662109375,-0.0006108472589403391,0.1050657257437706,-0.1985253542661667
1667266570477901300,0.9039013671875,-0.009773556143045425,0.11300674080848694,-0.17836740612983704
1667266570480299300,0.90629931640625,-0.02076880633831024,0.12033691257238388,-0.1582094430923462
1667266570482697000,0.908697021484375,-0.031153209507465363,0.12155860662460327,-0.14110571146011353
1667266570485095000,0.911094970703125,-0.04703523963689804,0.12461283802986145,-0.12583453953266144
1667266570487492600,0.91349267578125,-0.05986303091049194,0.12705622613430023,-0.11117420345544815
1667266570489890600,0.915890625,-0.0794101431965828,0.130721315741539,-0.09895725548267365
1667266570492288300,0.918288330078125,-0.10017894953489304,0.1313321590423584,-0.08918370306491852
1667266570494686200,0.920686279296875,-0.12033691257238388,0.1313321590423584,-0.08124268800020218
1667266570497084000,0.923083984375,-0.1429382562637329,0.129499614238739,-0.07513421028852463
1667266570499481900,0.92548193359375,-0.16615045070648193,0.1301104724407196,-0.07085828483104706
1667266570501879600,0.927879638671875,-0.18936264514923096,0.13316470384597778,-0.06841489672660828
1667266570504277200,0.93027734375,-0.21440738439559937,0.13682979345321655,-0.06841489672660828
1667266570506675200,0.93267529296875,-0.23823043704032898,0.1447708010673523,-0.07146912813186646
1667266570509073000,0.935072998046875,-0.2651077210903168,0.15515519678592682,-0.07391251623630524
1667266570511470800,0.937470947265625,-0.2895416021347046,0.16859383881092072,-0.08002099394798279
1667266570513868500,0.93986865234375,-0.3115321099758148,0.182643324136734,-0.08674030750989914
1667266570516266500,0.9422666015625,-0.33413344621658325,0.1985253542661667,-0.09651386737823486
1667266570518664200,0.944664306640625,-0.3524588644504547,0.21379654109477997,-0.1050657257437706
1667266570521062100,0.947062255859375,-0.37139514088630676,0.22723518311977386,-0.11606097966432571
1667266570523459800,0.9494599609375,-0.390942245721817,0.24006296694278717,-0.12583453953266144
1667266570525857800,0.95185791015625,-0.4074351191520691,0.2516690790653229,-0.13560809195041656
1667266570528255500,0.95425537109375,-0.42331716418266296,0.261442631483078,-0.14782503247261047
1667266570530653400,0.9566533203125,-0.4416425824165344,0.2742704153060913,-0.1569877415895462
1667266570533051100,0.959051025390625,-0.4593571424484253,0.28343313932418823,-0.16553960740566254
1667266570535449000,0.961448974609375,-0.47646087408065796,0.2993151545524597,-0.17348061501979828
1667266570537846800,0.9638466796875,-0.49295374751091003,0.31092125177383423,-0.17592400312423706
1667266570540244500,0.966244384765625,-0.5106683373451233,0.3176405727863312,-0.17897824943065643
1667266570542642400,0.968642333984375,-0.5277720093727112,0.32069480419158936,-0.17775654792785645
1667266570545040100,0.9710400390625,-0.5424323678016663,0.3170297145843506,-0.17531315982341766
1667266570547438000,0.97343798828125,-0.5589252710342407,0.3127537965774536,-0.1704263836145401
1667266570549835800,0.975835693359375,-0.5741963982582092,0.29748260974884033,-0.16676130890846252
1667266570552233700,0.978233642578125,-0.5858024954795837,0.28098973631858826,-0.1582094430923462
1667266570554631400,0.98063134765625,-0.5967977643013,0.2620534598827362,-0.14965757727622986
1667266570557029400,0.983029296875,-0.605960488319397,0.24372805655002594,-0.1441599577665329
1667266570559427000,0.985427001953125,-0.6114581227302551,0.22845686972141266,-0.13682979345321655
1667266570561825000,0.987824951171875,-0.6169557571411133,0.21196399629116058,-0.12705622613430023
1667266570564222700,0.99022265625,-0.6187883019447327,0.1979145109653473,-0.12094775587320328
1667266570566620400,0.992620361328125,-0.6200099587440491,0.18753011524677277,-0.11911521852016449
1667266570569018400,0.995018310546875,-0.6187883019447327,0.17958909273147583,-0.11422843486070633
1667266570571416300,0.997416259765625,-0.6175665855407715,0.1698155403137207,-0.11178504675626755
1667266570573814000,0.99981396484375,-0.6120689511299133,0.16309621930122375,-0.11300674080848694
1667266570576211700,1.002211669921875,-0.6065713167190552,0.15026842057704926,-0.11361759155988693
1667266570578609700,1.004609619140625,-0.5955760478973389,0.14049486815929413,-0.11483928561210632
1667266570581007400,1.00700732421875,-0.5845808386802673,0.130721315741539,-0.11606097966432571
1667266570583405300,1.0094052734375,-0.5705313682556152,0.11911521852016449,-0.12033691257238388
1667266570585803000,1.011802978515625,-0.5595360994338989,0.10934165865182877,-0.12644538283348083
1667266570588201000,1.014200927734375,-0.5424323678016663,0.09956810623407364,-0.13438639044761658
1667266570590598700,1.0165986328125,-0.5277720093727112,0.08979454636573792,-0.1453816443681717
1667266570592996600,1.01899658203125,-0.5143333673477173,0.08185353130102158,-0.1582094430923462
1667266570595394300,1.021394287109375,-0.5002838969230652,0.07269082218408585,-0.17531315982341766
1667266570597792300,1.023792236328125,-0.4862344264984131,0.0647498071193695,-0.1948602795600891
1667266570600190000,1.02618994140625,-0.474017471075058,0.055587101727724075,-0.21318569779396057
1667266570602587600,1.028587646484375,-0.46302223205566406,0.04703523963689804,-0.23028941452503204
1667266570604985600,1.030985595703125,-0.45080527663230896,0.0397050715982914,-0.2473931461572647
1667266570607383300,1.03338330078125,-0.4422534108161926,0.03665083646774292,-0.2644968628883362
1667266570609781200,1.03578125,-0.4312581717967987,0.03420744836330414,-0.27976804971694946
1667266570612179000,1.038178955078125,-0.4214846193790436,0.03787253051996231,-0.29442837834358215
1667266570614577000,1.040576904296875,-0.40987852215766907,0.04214845970273018,-0.30969956517219543
1667266570616974600,1.042974609375,-0.3970507085323334,0.045202698558568954,-0.32069480419158936
1667266570619372500,1.04537255859375,-0.38605546951293945,0.04947862774133682,-0.33413344621658325
1667266570621770200,1.047770263671875,-0.3695625960826874,0.05131116881966591,-0.34635040163993835
1667266570624168200,1.050168212890625,-0.3506263196468353,0.0525328628718853,-0.3561239540576935
1667266570626566000,1.05256591796875,-0.33169007301330566,0.05375456064939499,-0.3683409094810486
1667266570628963800,1.0549638671875,-0.31031039357185364,0.056808795779943466,-0.37444937229156494
1667266570631361500,1.057361572265625,-0.2852656841278076,0.05803048983216286,-0.3836120665073395
1667266570633759500,1.059759521484375,-0.2608317732810974,0.05864133685827255,-0.38910970091819763
1667266570636157200,1.0621572265625,-0.2357870489358902,0.05986303091049194,-0.393385648727417
1667266570638555100,1.06455517578125,-0.208298921585083,0.05864133685827255,-0.39766156673431396
1667266570640952800,1.066952880859375,-0.17775654792785645,0.056808795779943466,-0.40071579813957214
1667266570643350500,1.0693505859375,-0.14660334587097168,0.047646086663007736,-0.39766156673431396
1667266570645748500,1.07174853515625,-0.11667182296514511,0.03542914241552353,-0.39888325333595276
1667266570648146200,1.074146240234375,-0.08612946420907974,0.017714571207761765,-0.39888325333595276
1667266570650544000,1.076544189453125,-0.05131116881966591,-0.0036650835536420345,-0.3958290219306946
1667266570652941800,1.07894189453125,-0.021379653364419937,-0.02748812735080719,-0.3946073353290558
1667266570655339800,1.08133984375,0.009773556143045425,-0.062306419014930725,-0.390942245721817
1667266570657737500,1.083737548828125,0.0397050715982914,-0.09529217332601547,-0.38666632771492004
1667266570660135400,1.086135498046875,0.06719319522380829,-0.129499614238739,-0.3836120665073395
1667266570662533000,1.088533203125,0.09284878522157669,-0.16553960740566254,-0.3805578351020813
1667266570664931000,1.09093115234375,0.11606097966432571,-0.20096874237060547,-0.3775036036968231
1667266570667328800,1.093328857421875,0.13988402485847473,-0.2351761907339096,-0.37506023049354553
1667266570669726700,1.095726806640625,0.1588202863931656,-0.2644968628883362,-0.37200596928596497
1667266570672124400,1.09812451171875,0.18019993603229523,-0.288930743932724,-0.37078428268432617
1667266570674522400,1.1005224609375,0.1979145109653473,-0.3115321099758148,-0.37261682748794556
1667266570676920000,1.102920166015625,0.21379654109477997,-0.33169007301330566,-0.37261682748794556
1667266570679317800,1.10531787109375,0.22784602642059326,-0.34573954343795776,-0.37383851408958435
1667266570681715700,1.1077158203125,0.24006296694278717,-0.3542914092540741,-0.37506023049354553
1667266570684113400,1.110113525390625,0.25289076566696167,-0.35856732726097107,-0.37322768568992615
1667266570686511400,1.112511474609375,0.2638860046863556,-0.35856732726097107,-0.37200596928596497
1667266570688909000,1.114908935546875,0.2718270421028137,-0.3506263196468353,-0.3683409094810486
1667266570691307000,1.11730712890625,0.28221142292022705,-0.3432961702346802,-0.36162158846855164
1667266570693704700,1.11970458984375,0.291374146938324,-0.3310792148113251,-0.3536805510520935
1667266570696102700,1.1221025390625,0.2987042963504791,-0.31886225938796997,-0.34635040163993835
1667266570698500400,1.124500244140625,0.30664533376693726,-0.3054236173629761,-0.33413344621658325
1667266570700898300,1.126898193359375,0.3139754831790924,-0.288930743932724,-0.32191649079322815
1667266570703296000,1.1292958984375,0.32252734899520874,-0.26938363909721375,-0.30908870697021484
1667266570705694000,1.13169384765625,0.3292466700077057,-0.2510582208633423,-0.29259583353996277
1667266570708091600,1.134091552734375,0.3390202224254608,-0.22906772792339325,-0.2767138183116913
1667266570710489600,1.136489501953125,0.34757208824157715,-0.20280128717422485,-0.2596100866794586
1667266570712887300,1.13888720703125,0.3573456406593323,-0.17775654792785645,-0.24433889985084534
1667266570715285000,1.141284912109375,0.3695625960826874,-0.15271180868148804,-0.22540263831615448
1667266570717683000,1.143682861328125,0.3811686933040619,-0.12339114397764206,-0.20524467527866364
1667266570720080600,1.14608056640625,0.3927747905254364,-0.09773556143045425,-0.18691925704479218
1667266570722478600,1.148478515625,0.4074351191520691,-0.06902574002742767,-0.16370706260204315
1667266570724876300,1.150876220703125,0.4202629029750824,-0.04459185153245926,-0.1429382562637329
1667266570727274200,1.153274169921875,0.4318690001964569,-0.028098974376916885,-0.12155860662460327
1667266570729672000,1.155671875,0.4453076422214508,-0.01038440316915512,-0.09895725548267365
1667266570732070000,1.15806982421875,0.4593571424484253,0.004886778071522713,-0.07513421028852463
1667266570734467600,1.160467529296875,0.474017471075058,0.01588202826678753,-0.04947862774133682
1667266570736865500,1.162865478515625,0.48928865790367126,0.02076880633831024,-0.02626643143594265
1667266570739263200,1.16526318359375,0.503948986530304,0.025655584409832954,-0.005497625097632408
1667266570741661200,1.1676611328125,0.522885262966156,0.029320668429136276,0.01710372418165207
1667266570744059000,1.170058837890625,0.5399889945983887,0.02993151545524597,0.03298575058579445
1667266570746456800,1.172456787109375,0.5583143830299377,0.02993151545524597,0.047646086663007736
1667266570748854500,1.1748544921875,0.5766398310661316,0.02626643143594265,0.05925218388438225
1667266570751252500,1.17725244140625,0.5943543910980225,0.01832541823387146,0.06780404597520828
1667266570753650200,1.179650146484375,0.6108472347259521,0.007941014133393764,0.07269082218408585
1667266570756048000,1.1820478515625,0.6267293095588684,-0.006719320081174374,0.07696675509214401
1667266570758445800,1.18444580078125,0.6420004963874817,-0.023212196305394173,0.08063183724880219
1667266570760843800,1.18684375,0.6542174220085144,-0.042759306728839874,0.0781884491443634
1667266570763241500,1.189241455078125,0.6621584296226501,-0.06780404597520828,0.07696675509214401
1667266570765639200,1.19163916015625,0.6707102656364441,-0.09345962852239609,0.07391251623630524
1667266570768037000,1.194037109375,0.6725428104400635,-0.12094775587320328,0.07085828483104706
1667266570770434800,1.196434814453125,0.6725428104400635,-0.14782503247261047,0.0653606578707695
1667266570772832800,1.198832763671875,0.6664343476295471,-0.17775654792785645,0.056808795779943466
1667266570775230500,1.20123046875,0.6591041684150696,-0.2101314514875412,0.054365407675504684
1667266570777628400,1.20362841796875,0.648108959197998,-0.24372805655002594,0.04947862774133682
1667266570780026000,1.206026123046875,0.6310052275657654,-0.27915719151496887,0.045202698558568954
1667266570782424000,1.208424072265625,0.6126797795295715,-0.32069480419158936,0.04337015375494957
1667266570784821800,1.21082177734375,0.5906893014907837,-0.3640649616718292,0.04031591862440109
1667266570787219700,1.2132197265625,0.5662553906440735,-0.4086568057537079,0.03787253051996231
1667266570789617400,1.215617431640625,0.5418215394020081,-0.45447036623954773,0.03787253051996231
1667266570792015000,1.21801513671875,0.5167768001556396,-0.5008947253227234,0.0397050715982914
1667266570794413000,1.2204130859375,0.49295374751091003,-0.546097457408905,0.045202698558568954
1667266570796811000,1.22281103515625,0.46485477685928345,-0.5839699506759644,0.05375456064939499
1667266570799208700,1.225208740234375,0.43797749280929565,-0.6181774139404297,0.0647498071193695
1667266570801606400,1.2276064453125,0.41293275356292725,-0.6505523324012756,0.07757759839296341
1667266570804004400,1.23000439453125,0.3903313875198364,-0.6762079000473022,0.09284878522157669
1667266570806402000,1.232402099609375,0.3701734244823456,-0.6969767212867737,0.10995250940322876
1667266570808800000,1.234800048828125,0.3518480062484741,-0.712247908115387,0.1301104724407196
1667266570811197700,1.23719775390625,0.33596599102020264,-0.7201889157295227,0.15149012207984924
1667266570813595600,1.239595703125,0.32252734899520874,-0.7244648337364197,0.17531315982341766
1667266570815993300,1.241993408203125,0.31031039357185364,-0.7214106321334839,0.20157960057258606
1667266570818391300,1.244391357421875,0.3017585575580597,-0.7140804529190063,0.22967857122421265
1667266570820789000,1.2467890625,0.29381752014160156,-0.7018635272979736,0.25594499707221985
1667266570823187000,1.24918701171875,0.2883199155330658,-0.6829272508621216,0.28343313932418823
1667266570825584600,1.251584716796875,0.2858765125274658,-0.6560499668121338,0.312142938375473
1667266570827982600,1.253982666015625,0.28404396772384644,-0.6224533319473267,0.342074453830719
1667266570830380300,1.25638037109375,0.28098973631858826,-0.5809157490730286,0.37200596928596497
1667266570832778200,1.2587783203125,0.28160059452056885,-0.5320479869842529,0.39827242493629456
1667266570835176000,1.261176025390625,0.28221142292022705,-0.4727957844734192,0.42759308218955994
1667266570837574000,1.263573974609375,0.2852656841278076,-0.4062134325504303,0.45385950803756714
1667266570839971600,1.2659716796875,0.2877090573310852,-0.3286358118057251,0.47890424728393555
1667266570842369300,1.268369384765625,0.29381752014160156,-0.24617144465446472,0.5045598149299622
1667266570844767200,1.270767333984375,0.29565006494522095,-0.16431790590286255,0.527161180973053
1667266570847165000,1.2731650390625,0.2993151545524597,-0.08185353130102158,0.5515950918197632
1667266570849563000,1.27556298828125,0.3035911023616791,-0.0030542362947016954,0.5754181146621704
1667266570851960600,1.277960693359375,0.3029802441596985,0.07269082218408585,0.6022953987121582
1667266570854358500,1.280358642578125,0.2980934679508209,0.13988402485847473,0.629172682762146
1667266570856756200,1.282756103515625,0.291374146938324,0.1973036676645279,0.6578825116157532
1667266570859154200,1.285154296875,0.28343313932418823,0.24617144465446472,0.6853706240653992
1667266570861551900,1.2875517578125,0.2718270421028137,0.2852656841278076,0.7177455425262451
1667266570863949800,1.28994970703125,0.25533416867256165,0.3164188861846924,0.7470661997795105
1667266570866347500,1.292347412109375,0.23884128034114838,0.3402419090270996,0.7769976854324341
1667266570868745500,1.294745361328125,0.21929416060447693,0.3573456406593323,0.8044858574867249
1667266570871143200,1.29714306640625,0.1966928243637085,0.37444937229156494,0.8319739699363708
1667266570873541000,1.299541015625,0.17286977171897888,0.390942245721817,0.8619054555892944
1667266570875938800,1.301938720703125,0.1447708010673523,0.4037700295448303,0.8887827396392822
1667266570878336500,1.30433642578125,0.11483928561210632,0.4178195297718048,0.916270911693573
1667266570880734500,1.306734375,0.08735115826129913,0.4306473135948181,0.9431481957435608
1667266570883132200,1.309132080078125,0.05741964280605316,0.43919917941093445,0.9675820469856262
1667266570885530000,1.311530029296875,0.028098974376916885,0.448361873626709,0.9907942414283752
1667266570887927800,1.313927734375,-0.0012216945178806782,0.4575245976448059,1.014006495475769
1667266570890325800,1.31632568359375,-0.02626643143594265,0.46729815006256104,1.037218689918518
1667266570892723500,1.318723388671875,-0.051922015845775604,0.4727957844734192,1.0573766231536865
1667266570895121400,1.321121337890625,-0.07146912813186646,0.47646087408065796,1.073258638381958
1667266570897519000,1.32351904296875,-0.08674030750989914,0.47768256068229675,1.090362310409546
1667266570899917000,1.3259169921875,-0.09956810623407364,0.474017471075058,1.1031901836395264
1667266570902314800,1.328314697265625,-0.10934165865182877,0.46851983666419983,1.1099094152450562
1667266570904712700,1.330712646484375,-0.11667182296514511,0.46302223205566406,1.1129636764526367
1667266570907110400,1.3331103515625,-0.12400199472904205,0.45202696323394775,1.1123528480529785
1667266570909508400,1.33550830078125,-0.1301104724407196,0.4416425824165344,1.1068552732467651
1667266570911906000,1.337906005859375,-0.13316470384597778,0.4318690001964569,1.096470832824707
1667266570914303700,1.3403037109375,-0.13682979345321655,0.416597843170166,1.081810474395752
1667266570916701700,1.34270166015625,-0.1429382562637329,0.40132665634155273,1.0640959739685059
1667266570919099600,1.345099609375,-0.15026842057704926,0.38483378291130066,1.0421054363250732
1667266570921497300,1.347497314453125,-0.16187451779842377,0.367730051279068,1.0201148986816406
1667266570923895300,1.349895263671875,-0.1704263836145401,0.34635040163993835,0.9956810474395752
1667266570926293000,1.35229296875,-0.1850867122411728,0.3286358118057251,0.966971218585968
1667266570928690700,1.354690673828125,-0.19913621246814728,0.314586341381073,0.9400939345359802
1667266570931088600,1.357088623046875,-0.21623992919921875,0.3005368411540985,0.9101623892784119
1667266570933486300,1.359486328125,-0.23273280262947083,0.2895416021347046,0.8820634484291077
1667266570935884300,1.36188427734375,-0.2516690790653229,0.28343313932418823,0.8515210747718811
1667266570938282000,1.364281982421875,-0.2724378705024719,0.28037887811660767,0.8222004175186157
1667266570940680000,1.366679931640625,-0.2883199155330658,0.284654825925827,0.7934905886650085
1667266570943077600,1.36907763671875,-0.31031039357185364,0.29442837834358215,0.767224133014679
1667266570945475600,1.3714755859375,-0.3292466700077057,0.30908870697021484,0.7385143637657166
1667266570947873300,1.373873291015625,-0.34696123003959656,0.33413344621658325,0.7134696245193481
1667266570950271200,1.376271240234375,-0.3646758198738098,0.36284327507019043,0.6878139972686768
1667266570952669000,1.3786689453125,-0.3836120665073395,0.39888325333595276,0.6646018028259277
1667266570955067000,1.38106689453125,-0.4049917459487915,0.4428642690181732,0.6413896083831787
1667266570957464600,1.383464599609375,-0.42759308218955994,0.49356457591056824,0.6200099587440491
1667266570959862500,1.385862548828125,-0.45080527663230896,0.550373375415802,0.601073682308197
1667266570962260200,1.38826025390625,-0.4752391576766968,0.6151232123374939,0.5864133834838867
1667266570964658000,1.390657958984375,-0.5076140761375427,0.6817055344581604,0.5741963982582092
1667266570967056000,1.393055908203125,-0.5424323678016663,0.7476770281791687,0.5632011890411377
1667266570969453600,1.39545361328125,-0.5803049206733704,0.8081509470939636,0.5540384650230408
1667266570971851500,1.3978515625,-0.6267293095588684,0.8674030900001526,0.5534276366233826
1667266570974249200,1.400249267578125,-0.6737645268440247,0.9266552925109863,0.5558710098266602
1667266570976647200,1.402647216796875,-0.7226322889328003,0.9773555994033813,0.5607577562332153
1667266570979044900,1.405044921875,-0.7782194018363953,1.0231691598892212,0.5729747414588928
1667266570981442800,1.40744287109375,-0.8380824327468872,1.0622633695602417,0.5882459282875061
1667266570983840500,1.409840576171875,-0.8979454636573792,1.0934165716171265,0.6114581227302551
1667266570986238500,1.412238525390625,-0.9590302109718323,1.115407109260559,0.6395570635795593
1667266570988636200,1.41463623046875,-1.0188932418823242,1.1264023780822754,0.6731536984443665
1667266570991034000,1.4170341796875,-1.0805888175964355,1.1221264600753784,0.7110261917114258
1667266570993431800,1.419431884765625,-1.1404517889022827,1.1038010120391846,0.7531746625900269
1667266570995829800,1.421829833984375,-1.2003148794174194,1.0720369815826416,0.8002098798751831
1667266570998227500,1.4242275390625,-1.2522368431091309,1.0274450778961182,0.8527427911758423
1667266571000625200,1.426625244140625,-1.30476975440979,0.9730796813964844,0.9071081876754761
1667266571003023000,1.429023193359375,-1.3512704372406006,0.9083298444747925,0.9645278453826904
1667266571005421000,1.431421142578125,-1.3885321617126465,0.8362498879432678,1.0274450778961182
1667266571007818800,1.43381884765625,-1.427626371383667,0.7562289237976074,1.090362310409546
1667266571010216400,1.436216552734375,-1.460612177848816,0.6688777208328247,1.152668833732605
1667266571012614400,1.438614501953125,-1.4862676858901978,0.578472375869751,1.2131426334381104
1667266571015012000,1.44101220703125,-1.5107016563415527,0.4850127100944519,1.2705622911453247
1667266571017410000,1.44341015625,-1.5284161567687988,0.3946073353290558,1.3267602920532227
1667266571019807700,1.445807861328125,-1.5473524332046509,0.3054236173629761,1.3757044076919556
1667266571022205700,1.448205810546875,-1.5595693588256836,0.2241809368133545,1.4184637069702148
1667266571024603400,1.450603271484375,-1.571175456047058,0.14782503247261047,1.4557254314422607
1667266571027001300,1.45300146484375,-1.5815598964691162,0.08002099394798279,1.4887111186981201
1667266571029399000,1.45539892578125,-1.589500904083252,0.02076880633831024,1.515588402748108
1667266571031797000,1.457796875,-1.5986636877059937,-0.02748812735080719,1.5357463359832764
1667266571034194700,1.460194580078125,-1.6053829193115234,-0.06658235192298889,1.5522392988204956
1667266571036592600,1.462592529296875,-1.6108806133270264,-0.09834641218185425,1.562012791633606
1667266571038990300,1.464990234375,-1.6163781881332397,-0.11911521852016449,1.5705646276474
1667266571041388300,1.46738818359375,-1.6175998449325562,-0.129499614238739,1.5736188888549805
1667266571043786000,1.469785888671875,-1.6206541061401367,-0.12827792763710022,1.5730080604553223
1667266571046184000,1.472183837890625,-1.6237083673477173,-0.1172826737165451,1.5699537992477417
1667266571048581600,1.47458154296875,-1.6267626285552979,-0.09712471067905426,1.5650670528411865
1667266571050979300,1.476979248046875,-1.6279842853546143,-0.07207997888326645,1.5601803064346313
1667266571053377300,1.479377197265625,-1.6298168897628784,-0.0397050715982914,1.5546826124191284
1667266571055775000,1.48177490234375,-1.6279842853546143,-0.004886778071522713,1.5497958660125732
1667266571058173000,1.4841728515625,-1.6261518001556396,0.034818295389413834,1.5467416048049927
1667266571060570600,1.486570556640625,-1.6243191957473755,0.07330167293548584,1.543687343597412
1667266571062968600,1.488968505859375,-1.618821620941162,0.11300674080848694,1.5442981719970703
1667266571065366300,1.4913662109375,-1.6102697849273682,0.15026842057704926,1.5424656867980957
1667266571067764200,1.49376416015625,-1.595609426498413,0.1844758689403534,1.5455199480056763
1667266571070162000,1.496161865234375,-1.580949068069458,0.21501824259757996,1.5467416048049927
1667266571072559900,1.498559814453125,-1.5626236200332642,0.24250635504722595,1.5485742092132568
1667266571074957600,1.50095751953125,-1.5351355075836182,0.258999228477478,1.5504066944122314
1667266571077355500,1.50335546875,-1.5033714771270752,0.26694026589393616,1.553460955619812
1667266571079753200,1.505753173828125,-1.469774842262268,0.26694026589393616,1.5510175228118896
1667266571082151200,1.508151123046875,-1.4343457221984863,0.2602209448814392,1.5497958660125732
1667266571084548900,1.510548828125,-1.3952515125274658,0.24372805655002594,1.544909119606018
1667266571086946800,1.51294677734375,-1.3543246984481812,0.21746163070201874,1.5351355075836182
1667266571089344500,1.515344482421875,-1.3120999336242676,0.18630841374397278,1.5253620147705078
1667266571091742500,1.517742431640625,-1.271173119544983,0.15149012207984924,1.5131449699401855
1667266571094140200,1.52014013671875,-1.2333005666732788,0.10689827054738998,1.4954304695129395
1667266571096537900,1.522537841796875,-1.1966497898101807,0.06169557198882103,1.4746615886688232
1667266571098935800,1.524935791015625,-1.1618314981460571,0.007941014133393764,1.4514493942260742
1667266571101333500,1.52733349609375,-1.1270132064819336,-0.04337015375494957,1.4294589757919312
1667266571103731500,1.5297314453125,-1.0970816612243652,-0.09651386737823486,1.4038033485412598
1667266571106129200,1.532129150390625,-1.0714260339736938,-0.1459924876689911,1.3750935792922974
1667266571108527000,1.534527099609375,-1.0469921827316284,-0.19180603325366974,1.3433294296264648
1667266571110924800,1.5369248046875,-1.0274450778961182,-0.2339545041322708,1.3072131872177124
1667266571113322800,1.53932275390625,-1.0109522342681885,-0.2742704153060913,1.2675080299377441
1667266571115720400,1.541720458984375,-1.0011786222457886,-0.30847787857055664,1.2271921634674072
1667266571118118400,1.544118408203125,-0.9950701594352722,-0.3426853120326996,1.1874871253967285
1667266571120516000,1.54651611328125,-0.9950701594352722,-0.3701734244823456,1.1459494829177856
1667266571122914000,1.5489140625,-1.0005677938461304,-0.39827242493629456,1.1068552732467651
1667266571125311700,1.551311767578125,-1.007897973060608,-0.4190412163734436,1.0671501159667969
1667266571127709700,1.553709716796875,-1.022558331489563,-0.43797749280929565,1.032942771911621
1667266571130107400,1.556107421875,-1.0396620035171509,-0.44958359003067017,0.9969027042388916
1667266571132505300,1.55850537109375,-1.0592091083526611,-0.4611896872520447,0.9645278453826904
1667266571134903000,1.560903076171875,-1.0757020711898804,-0.46485477685928345,0.9376505613327026
1667266571137301000,1.563301025390625,-1.096470832824707,-0.4691306948661804,0.9101623892784119
1667266571139698700,1.56569873046875,-1.1160179376602173,-0.4727957844734192,0.8875610828399658
1667266571142096600,1.5680966796875,-1.1318999528884888,-0.4715740978717804,0.8655705451965332
1667266571144494300,1.570494384765625,-1.1459494829177856,-0.46729815006256104,0.8478559851646423
1667266571146892000,1.57289208984375,-1.1538904905319214,-0.4605788290500641,0.8295305967330933
1667266571149290000,1.5752900390625,-1.1606098413467407,-0.45508119463920593,0.8173136115074158
1667266571151687700,1.577687744140625,-1.1636639833450317,-0.45141613483428955,0.8026533126831055
1667266571154085600,1.580085693359375,-1.1630531549453735,-0.4446968138217926,0.7941014170646667
1667266571156483300,1.5824833984375,-1.161220669746399,-0.4422534108161926,0.786160409450531
1667266571158881300,1.58488134765625,-1.1551121473312378,-0.43736663460731506,0.781884491443634
1667266571161279000,1.587279052734375,-1.1490037441253662,-0.4324798583984375,0.7831062078475952
1667266571163677000,1.589677001953125,-1.142895221710205,-0.42576053738594055,0.7892146706581116
1667266571166074600,1.59207470703125,-1.133732557296753,-0.4196520745754242,0.8026533126831055
1667266571168472600,1.59447265625,-1.123958945274353,-0.41476529836654663,0.8160919547080994
1667266571170870300,1.596870361328125,-1.110520362854004,-0.416597843170166,0.8350282311439514
1667266571173268200,1.599268310546875,-1.0995250940322876,-0.416597843170166,0.8594620823860168
1667266571175666000,1.601666015625,-1.0897514820098877,-0.42331716418266296,0.8869501948356628
1667266571178064000,1.60406396484375,-1.077534556388855,-0.4355340898036957,0.9132166504859924
1667266571180461600,1.606461669921875,-1.0683718919754028,-0.4489727318286896,0.9443698525428772
1667266571182859300,1.608859375,-1.0555440187454224,-0.4599680006504059,0.975523054599762
1667266571185257200,1.61125732421875,-1.0445488691329956,-0.4734066128730774,1.0091196298599243
1667266571187655200,1.6136552734375,-1.031110167503357,-0.4868452548980713,1.0433270931243896
1667266571190052900,1.616052978515625,-1.0195040702819824,-0.4990622103214264,1.0769237279891968
1667266571192450800,1.618450927734375,-1.0091196298599243,-0.5112791657447815,1.109298586845398
1667266571194848500,1.6208486328125,-0.9975135922431946,-0.5210527181625366,1.1435060501098633
1667266571197246200,1.62324609375,-0.9852966070175171,-0.5320479869842529,1.1771026849746704
1667266571199644200,1.62564404296875,-0.9767447710037231,-0.5412106513977051,1.2106993198394775
1667266571202041900,1.628041748046875,-0.9681929349899292,-0.5497625470161438,1.2400199174880981
1667266571204439800,1.630439697265625,-0.9596410393714905,-0.5583143830299377,1.2717839479446411
1667266571206837500,1.63283740234375,-0.9547542929649353,-0.5650337338447571,1.2974395751953125
1667266571209235500,1.6352353515625,-0.9504783153533936,-0.5748072862625122,1.3212625980377197
1667266571211633200,1.637633056640625,-0.9486457705497742,-0.5803049206733704,1.3469945192337036
1667266571214031000,1.640031005859375,-0.9474241137504578,-0.5888567566871643,1.3671525716781616
1667266571216428800,1.6424287109375,-0.9474241137504578,-0.5967977643013,1.383034586906433
1667266571218826800,1.64482666015625,-0.9529217481613159,-0.6022953987121582,1.3946406841278076
1667266571221224400,1.647224365234375,-0.9578084945678711,-0.6041279435157776,1.4025816917419434
1667266571223622400,1.649622314453125,-0.9681929349899292,-0.6022953987121582,1.4074684381484985
1667266571226020000,1.65202001953125,-0.9743013978004456,-0.5974085927009583,1.4062467813491821
1667266571228418000,1.65441796875,-0.9859074950218201,-0.5833591222763062,1.4019708633422852
1667266571230815700,1.656815673828125,-0.9975135922431946,-0.5632011890411377,1.3909755945205688
1667266571233213400,1.65921337890625,-1.0115630626678467,-0.5424323678016663,1.3738718032836914
1667266571235611400,1.661611328125,-1.0243908166885376,-0.5161659121513367,1.355546474456787
1667266571238009300,1.66400927734375,-1.0408837795257568,-0.4856235682964325,1.3353121280670166
1667266571240407000,1.666406982421875,-1.0561549663543701,-0.45324867963790894,1.3114891052246094
1667266571242804700,1.6688046875,-1.0714260339736938,-0.4196520745754242,1.2870551347732544
1667266571245202700,1.67120263671875,-1.0897514820098877,-0.38849884271621704,1.2620104551315308
1667266571247600400,1.673600341796875,-1.106244444847107,-0.36162158846855164,1.2400199174880981
1667266571249998300,1.675998291015625,-1.1227372884750366,-0.3365768492221832,1.2186403274536133
1667266571252396000,1.67839599609375,-1.13800847530365,-0.3127537965774536,1.1984822750091553
1667266571254794000,1.6807939453125,-1.1538904905319214,-0.29687178134918213,1.1838220357894897
1667266571257191700,1.683191650390625,-1.1679399013519287,-0.27976804971694946,1.1691616773605347
1667266571259589600,1.685589599609375,-1.1813786029815674,-0.261442631483078,1.159998893737793
1667266571261987300,1.6879873046875,-1.192984700202942,-0.24128466844558716,1.1545013189315796
1667266571264385300,1.69038525390625,-1.2058124542236328,-0.21990501880645752,1.152668833732605
1667266571266783000,1.692782958984375,-1.2137534618377686,-0.1954711228609085,1.155722975730896
1667266571269181000,1.695180908203125,-1.222305417060852,-0.16431790590286255,1.1630531549453735
1667266571271578600,1.69757861328125,-1.2284138202667236,-0.1313321590423584,1.1740484237670898
1667266571273976600,1.6999765625,-1.2339115142822266,-0.09407047927379608,1.1893196105957031
1667266571276374300,1.702374267578125,-1.2363548278808594,-0.0525328628718853,1.2125318050384521
1667266571278772200,1.704772216796875,-1.2381874322891235,-0.01038440316915512,1.23940908908844
1667266571281170000,1.707169921875,-1.2375766038894653,0.03298575058579445,1.271173119544983
1667266571283567600,1.709567626953125,-1.235133171081543,0.07574506103992462,1.3078240156173706
1667266571285965600,1.711965576171875,-1.2271921634674072,0.11117420345544815,1.3488271236419678
1667266571288363300,1.71436328125,-1.2180293798446655,0.14110571146011353,1.3934189081192017
1667266571290761200,1.71676123046875,-1.2070342302322388,0.16065283119678497,1.4392324686050415
1667266571293159000,1.719158935546875,-1.1942063570022583,0.1692046970129013,1.4905437231063843
1667266571295556900,1.721556884765625,-1.1764918565750122,0.16859383881092072,1.5424656867980957
1667266571297954600,1.72395458984375,-1.1587772369384766,0.15943112969398499,1.593776822090149
1667266571300352500,1.7263525390625,-1.13800847530365,0.14110571146011353,1.6469205617904663
1667266571302750200,1.728750244140625,-1.115407109260559,0.11667182296514511,1.6970100402832031
1667266571305148200,1.731148193359375,-1.0909732580184937,0.08857285231351852,1.7446560859680176
1667266571307545900,1.7335458984375,-1.0653176307678223,0.056808795779943466,1.7916914224624634
1667266571309943800,1.73594384765625,-1.0390511751174927,0.021990500390529633,1.8326181173324585
1667266571312341500,1.738341552734375,-1.009730577468872,-0.009773556143045425,1.8680472373962402
1667266571314739500,1.740739501953125,-0.9804098606109619,-0.042759306728839874,1.8998113870620728
1667266571317137200,1.74313720703125,-0.9517000317573547,-0.0794101431965828,1.927910327911377
1667266571319535000,1.74553515625,-0.9217684864997864,-0.11606097966432571,1.951122522354126
1667266571321932800,1.747932861328125,-0.8900044560432434,-0.1557660549879074,1.9725021123886108
1667266571324330800,1.750330810546875,-0.8588512539863586,-0.1985253542661667,1.9853299856185913
1667266571326728400,1.752728515625,-0.8295305967330933,-0.2510582208633423,1.9957143068313599
1667266571329126100,1.755126220703125,-0.7989882230758667,-0.3151971995830536,1.9993793964385986
1667266571331524000,1.757524169921875,-0.7702783942222595,-0.3836120665073395,1.9969360828399658
1667266571333921800,1.759921875,-0.739736020565033,-0.4556920528411865,1.991438388824463
1667266571336319700,1.76231982421875,-0.7091936469078064,-0.5289937257766724,1.9822757244110107
1667266571338717400,1.764717529296875,-0.6804838180541992,-0.6029062271118164,1.9731130599975586
1667266571341115400,1.767115478515625,-0.6511631608009338,-0.6829272508621216,1.964561104774475
1667266571343513000,1.76951318359375,-0.6267293095588684,-0.7605048418045044,1.9517333507537842
1667266571345911000,1.7719111328125,-0.6053496599197388,-0.837471604347229,1.9376838207244873
1667266571348308700,1.774308837890625,-0.5858024954795837,-0.9095515608787537,1.9242452383041382
1667266571350706700,1.776706787109375,-0.5686988234519958,-0.9767447710037231,1.9120283126831055
1667266571353104400,1.7791044921875,-0.5534276366233826,-1.037218689918518,1.8985896110534668
1667266571355502300,1.78150244140625,-0.5405998229980469,-1.0952491760253906,1.886372685432434
1667266571357900000,1.783900146484375,-0.5326588153839111,-1.1453386545181274,1.8778208494186401
1667266571360298000,1.786298095703125,-0.5265503525733948,-1.1911520957946777,1.8686580657958984
1667266571362695700,1.78869580078125,-0.5210527181625366,-1.2302464246749878,1.8625496625900269
1667266571365093400,1.79109326171875,-0.5173876285552979,-1.266897201538086,1.8594954013824463
1667266571367491300,1.7934912109375,-0.5167768001556396,-1.2980504035949707,1.8601062297821045
1667266571369889300,1.79588916015625,-0.5210527181625366,-1.3206517696380615,1.8613280057907104
1667266571372287000,1.798286865234375,-0.5216635465621948,-1.340886116027832,1.863160490989685
1667266571374685000,1.800684814453125,-0.5259394645690918,-1.3567681312561035,1.8637713193893433
1667266571377082600,1.80308251953125,-0.5296045541763306,-1.3689850568771362,1.8692690134048462
1667266571379480300,1.805480224609375,-0.5326588153839111,-1.3793694972991943,1.8741557598114014
1667266571381878300,1.807878173828125,-0.5363239049911499,-1.3818128108978271,1.8790425062179565
1667266571384276000,1.81027587890625,-0.5393781065940857,-1.3805911540985107,1.8845402002334595
1667266571386674000,1.812673828125,-0.5412106513977051,-1.3708176612854004,1.8827075958251953
1667266571389071600,1.815071533203125,-0.5424323678016663,-1.355546474456787,1.8784316778182983
1667266571391469600,1.817469482421875,-0.5436540842056274,-1.3402752876281738,1.8753774166107178
1667266571393867300,1.8198671875,-0.5424323678016663,-1.3273711204528809,1.8711014986038208
1667266571396265200,1.82226513671875,-0.5399889945983887,-1.317597508430481,1.8680472373962402
1667266571398663000,1.824662841796875,-0.5387672781944275,-1.3127107620239258,1.8625496625900269
1667266571401060900,1.827060791015625,-0.5357130169868469,-1.3096565008163452,1.8558303117752075
1667266571403458600,1.82945849609375,-0.5344913601875305,-1.3096565008163452,1.8491109609603882
1667266571405856500,1.8318564453125,-0.5332696437835693,-1.309045672416687,1.839948296546936
1667266571408254200,1.834254150390625,-0.5308262705802917,-1.3078240156173706,1.833839774131775
1667266571410652200,1.836652099609375,-0.53143709897995,-1.3084348440170288,1.8258987665176392
1667266571413049900,1.8390498046875,-0.5308262705802917,-1.3096565008163452,1.816736102104187
1667266571415447600,1.841447509765625,-0.5338805317878723,-1.3059914112091064,1.8087950944900513
1667266571417845500,1.843845458984375,-0.53143709897995,-1.2980504035949707,1.7971889972686768
1667266571420243500,1.846243408203125,-0.5320479869842529,-1.2894985675811768,1.7880263328552246
1667266571422641200,1.84864111328125,-0.5344913601875305,-1.276059865951538,1.7758092880249023
1667266571425038800,1.851038818359375,-0.5344913601875305,-1.258345365524292,1.7648141384124756
1667266571427436800,1.853436767578125,-0.5338805317878723,-1.23940908908844,1.7477103471755981
1667266571429834500,1.85583447265625,-0.5363239049911499,-1.216196894645691,1.733049988746643
1667266571432232400,1.858232421875,-0.5375455617904663,-1.1923738718032837,1.7208330631256104
1667266571434630100,1.860630126953125,-0.5357130169868469,-1.1636639833450317,1.7043402194976807
1667266571437028000,1.863028076171875,-0.5357130169868469,-1.1331216096878052,1.6884582042694092
1667266571439425800,1.86542578125,-0.5357130169868469,-1.0976924896240234,1.6719653606414795
1667266571441823700,1.86782373046875,-0.53143709897995,-1.0659284591674805,1.654861569404602
1667266571444221400,1.870221435546875,-0.5283828973770142,-1.0298885107040405,1.6365361213684082
1667266571446619400,1.872619384765625,-0.5247178077697754,-0.9889616966247559,1.618210792541504
1667266571449017000,1.87501708984375,-0.518609344959259,-0.9492566585540771,1.6029396057128906
1667266571451415000,1.8774150390625,-0.5137225389480591,-0.9077190160751343,1.5864466428756714
1667266571453812700,1.879812744140625,-0.5082249045372009,-0.8667922616004944,1.5687321424484253
1667266571456210700,1.882210693359375,-0.5008947253227234,-0.8270871639251709,1.5559042692184448
1667266571458608400,1.8846083984375,-0.49234288930892944,-0.786771297454834,1.543076515197754
1667266571461006300,1.88700634765625,-0.4850127100944519,-0.7537854909896851,1.5296379327774048
1667266571463404000,1.889404052734375,-0.4746283292770386,-0.7207997441291809,1.5192534923553467
1667266571465801700,1.8918017578125,-0.46485477685928345,-0.6914790868759155,1.5082582235336304
1667266571468199700,1.89419970703125,-0.45385950803756714,-0.6639909744262695,1.5009280443191528
1667266571470597400,1.896597412109375,-0.4434750974178314,-0.6413896083831787,1.4935978651046753
1667266571472995300,1.898995361328125,-0.42698222398757935,-0.6230642199516296,1.4887111186981201
1667266571475393000,1.90139306640625,-0.41293275356292725,-0.6041279435157776,1.4832135438919067
1667266571477791000,1.903791015625,-0.39888325333595276,-0.5888567566871643,1.4807701110839844
1667266571480188700,1.906188720703125,-0.38422292470932007,-0.5754181146621704,1.482602596282959
1667266571482586600,1.908586669921875,-0.3689517378807068,-0.5607577562332153,1.4856568574905396
1667266571484984300,1.910984375,-0.3518480062484741,-0.5485408306121826,1.4899327754974365
1667266571487382300,1.91338232421875,-0.3365768492221832,-0.5387672781944275,1.4948196411132812
1667266571489780000,1.915780029296875,-0.3170297145843506,-0.5289937257766724,1.5033714771270752
1667266571492178000,1.918177978515625,-0.29687178134918213,-0.527161180973053,1.5125341415405273
1667266571494575600,1.92057568359375,-0.2754921019077301,-0.5265503525733948,1.5198643207550049
1667266571496973600,1.9229736328125,-0.25350162386894226,-0.5344913601875305,1.530248761177063
1667266571499371300,1.925371337890625,-0.23090025782585144,-0.5424323678016663,1.5418548583984375
1667266571501769200,1.927769287109375,-0.20646637678146362,-0.5570927262306213,1.553460955619812
1667266571504167000,1.9301669921875,-0.18630841374397278,-0.5748072862625122,1.5668995380401611
1667266571506564900,1.93256494140625,-0.16431790590286255,-0.5980194807052612,1.5803382396697998
1667266571508962600,1.934962646484375,-0.14660334587097168,-0.6212316751480103,1.593776822090149
1667266571511360300,1.9373603515625,-0.12705622613430023,-0.6517740488052368,1.6072155237197876
1667266571513758200,1.93975830078125,-0.10811996459960938,-0.6817055344581604,1.6175998449325562
1667266571516156000,1.942156005859375,-0.09040539711713791,-0.712247908115387,1.6267626285552979
1667266571518553900,1.944553955078125,-0.06719319522380829,-0.7452336549758911,1.6353144645690918
1667266571520951600,1.94695166015625,-0.045202698558568954,-0.7806627750396729,1.6395903825759888
1667266571523349500,1.949349609375,-0.018936265259981155,-0.8130376935005188,1.641422986984253
1667266571525747200,1.951747314453125,0.00916270911693573,-0.8399149775505066,1.6383687257766724
1667266571528145200,1.954145263671875,0.04092676565051079,-0.8612946271896362,1.6353144645690918
1667266571530542800,1.95654296875,0.07391251623630524,-0.8741224408149719,1.6298168897628784
1667266571532940800,1.95894091796875,0.10689827054738998,-0.8802309036254883,1.6206541061401367
1667266571535338500,1.96133837890625,0.14049486815929413,-0.8796200752258301,1.6090480089187622
1667266571537736400,1.963736328125,0.17409147322177887,-0.8704573512077332,1.5992745161056519
1667266571540134100,1.966134033203125,0.20524467527866364,-0.8527427911758423,1.5858358144760132
1667266571542532000,1.968531982421875,0.23151111602783203,-0.8313631415367126,1.571175456047058
1667266571544929800,1.9709296875,0.25655585527420044,-0.8044858574867249,1.5546826124191284
1667266571547327700,1.97332763671875,0.2779355049133301,-0.7733326554298401,1.5394114255905151
1667266571549725400,1.975725341796875,0.29320669174194336,-0.7379034757614136,1.5235294103622437
1667266571552123400,1.978123291015625,0.30603447556495667,-0.7012526392936707,1.5119233131408691
1667266571554521000,1.98052099609375,0.3164188861846924,-0.6615476012229919,1.49848473072052
1667266571556919000,1.9829189453125,0.31947311758995056,-0.6218425035476685,1.4850460290908813
1667266571559316700,1.985316650390625,0.32374903559684753,-0.5790832042694092,1.4764941930770874
1667266571561714400,1.98771435546875,0.32008397579193115,-0.5405998229980469,1.4685531854629517
1667266571564112400,1.9901123046875,0.31092125177383423,-0.4953971207141876,1.4624446630477905
1667266571566510000,1.992510009765625,0.3029802441596985,-0.45385950803756714,1.4587795734405518
1667266571568908000,1.994907958984375,0.2901524603366852,-0.41171106696128845,1.45939040184021
1667266571571305700,1.9973056640625,0.2742704153060913,-0.367730051279068,1.4581687450408936
1667266571573703700,1.99970361328125,0.25594499707221985,-0.3243598937988281,1.4618338346481323
1667266571576101400,2.002101318359375,0.237008735537529,-0.28037887811660767,1.4685531854629517
1667266571578499300,2.004499267578125,0.21807247400283813,-0.2345653474330902,1.4771050214767456
1667266571580897000,2.00689697265625,0.20035789906978607,-0.19241689145565033,1.4850460290908813
1667266571583295000,2.009294921875,0.182643324136734,-0.14782503247261047,1.4960412979125977
1667266571585692700,2.011692626953125,0.16492876410484314,-0.10628741979598999,1.5082582235336304
1667266571588090600,2.014090576171875,0.14843589067459106,-0.06841489672660828,1.521696925163269
1667266571590488300,2.01648828125,0.13377554714679718,-0.037261683493852615,1.5375789403915405
1667266571592886300,2.01888623046875,0.11972606182098389,-0.008551862090826035,1.553460955619812
1667266571595284000,2.021283935546875,0.10934165865182877,0.014660334214568138,1.572397232055664
1667266571597681700,2.023681640625,0.09773556143045425,0.026877280324697495,1.5901117324829102
1667266571600079600,2.02607958984375,0.08918370306491852,0.031153209507465363,1.6072155237197876
1667266571602477300,2.028477294921875,0.08124268800020218,0.02870982140302658,1.6249300241470337
1667266571604875300,2.030875244140625,0.07696675509214401,0.014049487188458443,1.6432554721832275
1667266571607273000,2.03327294921875,0.07146912813186646,-0.007330167107284069,1.6640242338180542
1667266571609671000,2.0356708984375,0.07146912813186646,-0.04092676565051079,1.6811280250549316
1667266571612068600,2.038068603515625,0.07085828483104706,-0.08246438205242157,1.6970100402832031
1667266571614466600,2.040466552734375,0.07085828483104706,-0.129499614238739,1.7135028839111328
1667266571616864300,2.0428642578125,0.07452336698770523,-0.1844758689403534,1.729995846748352
1667266571619262200,2.04526220703125,0.08002099394798279,-0.24617144465446472,1.7452670335769653
1667266571621660000,2.047659912109375,0.08429691940546036,-0.3115321099758148,1.7599272727966309
1667266571624057900,2.050057861328125,0.09284878522157669,-0.37567105889320374,1.7697008848190308
1667266571626455600,2.05245556640625,0.10017894953489304,-0.44042086601257324,1.7770310640335083
1667266571628853500,2.054853515625,0.10811996459960938,-0.4990622103214264,1.7800853252410889
1667266571631251200,2.057251220703125,0.11667182296514511,-0.5558710098266602,1.7813069820404053
1667266571633649200,2.059649169921875,0.12400199472904205,-0.6047387719154358,1.778863549232483
1667266571636046800,2.062046875,0.1301104724407196,-0.6456655263900757,1.7715333700180054
1667266571638444800,2.06444482421875,0.13682979345321655,-0.6749862432479858,1.757483959197998
1667266571640842500,2.066842529296875,0.1447708010673523,-0.6945333480834961,1.7397693395614624
1667266571643240400,2.069240478515625,0.15210096538066864,-0.70797199010849,1.7183897495269775
1667266571645638100,2.07163818359375,0.16004198789596558,-0.7116370797157288,1.6902906894683838
1667266571648035800,2.074035888671875,0.16370706260204315,-0.70797199010849,1.659137487411499
1667266571650433800,2.076433837890625,0.1704263836145401,-0.6920899152755737,1.623097538948059
1667266571652831500,2.07883154296875,0.17653486132621765,-0.6768187880516052,1.5833925008773804
1667266571655229400,2.0812294921875,0.1832541823387146,-0.6554391384124756,1.5394114255905151
1667266571657627100,2.083627197265625,0.19180603325366974,-0.633448600769043,1.4905437231063843
1667266571660025000,2.086025146484375,0.1973036676645279,-0.6132906675338745,1.4404542446136475
1667266571662422800,2.0884228515625,0.20096874237060547,-0.5937435626983643,1.3860887289047241
1667266571664820700,2.09082080078125,0.20585553348064423,-0.5723638534545898,1.3316470384597778
1667266571667218400,2.093218505859375,0.20768806338310242,-0.5558710098266602,1.2723948955535889
1667266571669616400,2.095616455078125,0.208298921585083,-0.5375455617904663,1.2143644094467163
1667266571672014000,2.09801416015625,0.208298921585083,-0.5247178077697754,1.1545013189315796
1667266571674412000,2.100412109375,0.20585553348064423,-0.5125008225440979,1.0952491760253906
1667266571676809700,2.102809814453125,0.20219044387340546,-0.5021164417266846,1.0335536003112793
1667266571679207700,2.105207763671875,0.1960819661617279,-0.49356457591056824,0.9724688529968262
1667266571681605400,2.10760546875,0.18997350335121155,-0.4850127100944519,0.9101623892784119
1667266571684003000,2.110003173828125,0.18569757044315338,-0.4734066128730774,0.8521319031715393
