time,seconds_elapsed,z,y,x
1667825321265367300,0.0073671875,-0.968292236328125,-0.362213134765625,0.0479583740234375
1667825321275375400,0.017375244140625,-0.9652557373046875,-0.370758056640625,0.0542755126953125
1667825321285382100,0.027382080078125,-0.9609527587890625,-0.37091064453125,0.054595947265625
1667825321295390500,0.037390380859375,-0.95745849609375,-0.36334228515625,0.0471343994140625
1667825321305397200,0.047397216796875,-0.945648193359375,-0.3504791259765625,0.0359954833984375
1667825321315405300,0.0574052734375,-0.9370574951171875,-0.3350830078125,0.0283966064453125
1667825321325412400,0.067412353515625,-0.9385986328125,-0.31927490234375,0.01824951171875
1667825321335420400,0.07742041015625,-0.9373779296875,-0.30426025390625,0.002685546875
1667825321345427200,0.08742724609375,-0.9167327880859375,-0.2933349609375,-0.0088653564453125
1667825321355435300,0.097435302734375,-0.8952178955078125,-0.2884979248046875,-0.018798828125
1667825321365442300,0.1074423828125,-0.8818206787109375,-0.289764404296875,-0.0297393798828125
1667825321375450400,0.117450439453125,-0.8624267578125,-0.295074462890625,-0.0395355224609375
1667825321385457200,0.12745703125,-0.840728759765625,-0.301361083984375,-0.0420989990234375
1667825321395465500,0.137465576171875,-0.81884765625,-0.3067779541015625,-0.0449371337890625
1667825321405472300,0.14747216796875,-0.805206298828125,-0.31304931640625,-0.052154541015625
1667825321415480300,0.157480224609375,-0.79656982421875,-0.3152313232421875,-0.060089111328125
1667825321425487400,0.1674873046875,-0.781646728515625,-0.3023681640625,-0.07769775390625
1667825321435495400,0.177495361328125,-0.76171875,-0.2951507568359375,-0.0986175537109375
1667825321445502200,0.187502197265625,-0.7596893310546875,-0.3137664794921875,-0.122589111328125
1667825321455510300,0.19751025390625,-0.761627197265625,-0.3208770751953125,-0.1108856201171875
1667825321465517300,0.207517333984375,-0.798828125,-0.330474853515625,-0.069793701171875
1667825321475525400,0.217525390625,-0.845458984375,-0.34503173828125,-0.0567626953125
1667825321485532200,0.2275322265625,-0.8526458740234375,-0.3480682373046875,-0.08795166015625
1667825321495540500,0.23754052734375,-0.853118896484375,-0.3448944091796875,-0.15203857421875
1667825321505547300,0.24754736328125,-0.8775787353515625,-0.3320770263671875,-0.22589111328125
1667825321515555300,0.257555419921875,-0.9040985107421875,-0.308929443359375,-0.2742919921875
1667825321525562400,0.267562255859375,-0.915283203125,-0.297760009765625,-0.28662109375
1667825321535570400,0.2775703125,-0.92962646484375,-0.3146820068359375,-0.27667236328125
1667825321545577200,0.2875771484375,-0.93280029296875,-0.3441314697265625,-0.2530059814453125
1667825321555585300,0.297585205078125,-0.922515869140625,-0.3885040283203125,-0.2082977294921875
1667825321565592300,0.30759228515625,-0.909698486328125,-0.4423370361328125,-0.1402740478515625
1667825321575605500,0.31760546875,-0.897918701171875,-0.507354736328125,-0.0806884765625
1667825321585612500,0.327612548828125,-0.8714141845703125,-0.5303802490234375,-0.0143890380859375
1667825321595620600,0.33762060546875,-0.8113250732421875,-0.5388336181640625,0.0257110595703125
1667825321605627600,0.347627685546875,-0.770538330078125,-0.5459136962890625,0.055450439453125
1667825321615635700,0.3576357421875,-0.744659423828125,-0.5382537841796875,0.0847015380859375
1667825321625642500,0.367642578125,-0.70867919921875,-0.5154571533203125,0.12408447265625
1667825321635650600,0.377650634765625,-0.6342315673828125,-0.47784423828125,0.114471435546875
1667825321645657600,0.38765771484375,-0.5782928466796875,-0.44671630859375,0.099090576171875
1667825321655665700,0.397665771484375,-0.5860748291015625,-0.4237823486328125,0.122467041015625
1667825321665672400,0.40767236328125,-0.596588134765625,-0.4056549072265625,0.14996337890625
1667825321675680500,0.417680419921875,-0.581787109375,-0.381591796875,0.165191650390625
1667825321685687600,0.4276875,-0.549530029296875,-0.3556365966796875,0.1750030517578125
1667825321695695600,0.437695556640625,-0.5367584228515625,-0.321929931640625,0.18182373046875
1667825321705702700,0.44770263671875,-0.5204925537109375,-0.27569580078125,0.19366455078125
1667825321715710700,0.457710693359375,-0.5187835693359375,-0.220458984375,0.201812744140625
1667825321725717500,0.467717529296875,-0.534271240234375,-0.1673431396484375,0.2081756591796875
1667825321735725600,0.4777255859375,-0.566558837890625,-0.1205291748046875,0.1980133056640625
1667825321745732600,0.487732666015625,-0.602142333984375,-0.084381103515625,0.1525726318359375
1667825321755740700,0.49774072265625,-0.6292266845703125,-0.0323638916015625,0.0726470947265625
1667825321765747500,0.50774755859375,-0.644287109375,0.0560760498046875,-0.0210113525390625
1667825321775755500,0.517755615234375,-0.6596221923828125,0.1762542724609375,-0.1290130615234375
1667825321785762600,0.527762451171875,-0.6859283447265625,0.3153228759765625,-0.2299957275390625
1667825321795770600,0.5377705078125,-0.7296905517578125,0.4462127685546875,-0.33544921875
1667825321805778700,0.54777880859375,-0.8318328857421875,0.5478973388671875,-0.457733154296875
1667825321815785700,0.55778564453125,-0.981658935546875,0.607208251953125,-0.5915374755859375
1667825321825793800,0.567793701171875,-1.0325469970703125,0.603851318359375,-0.7190093994140625
1667825321835800600,0.577800537109375,-1.0048980712890625,0.6412811279296875,-0.7764129638671875
1667825321845807600,0.5878076171875,-0.930877685546875,0.8337554931640625,-0.6574859619140625
1667825321855815700,0.597815673828125,-0.9691162109375,1.11480712890625,-0.512451171875
1667825321865823700,0.60782373046875,-1.0806121826171875,1.266143798828125,-0.46051025390625
1667825321875830500,0.61783056640625,-1.11474609375,1.155242919921875,-0.5318450927734375
1667825321885838800,0.6278388671875,-1.1110992431640625,0.9873809814453125,-0.58203125
1667825321895845600,0.637845703125,-1.0802154541015625,0.9381561279296875,-0.56903076171875
1667825321905853700,0.647853759765625,-0.993408203125,0.962738037109375,-0.5594482421875
1667825321915860700,0.65786083984375,-0.890777587890625,0.96484375,-0.537567138671875
1667825321925868800,0.667868896484375,-0.8299407958984375,0.954315185546875,-0.4784088134765625
1667825321935875600,0.67787548828125,-0.7893218994140625,0.938323974609375,-0.4074249267578125
1667825321945883400,0.68788330078125,-0.7867889404296875,0.909332275390625,-0.369659423828125
1667825321955890700,0.697890625,-0.813262939453125,0.862274169921875,-0.3885650634765625
1667825321965898500,0.7078984375,-0.8358154296875,0.80877685546875,-0.4105377197265625
1667825321975905500,0.717905517578125,-0.8403167724609375,0.7658843994140625,-0.433746337890625
1667825321985913600,0.72791357421875,-0.841033935546875,0.73870849609375,-0.4669036865234375
1667825321995920600,0.737920654296875,-0.8443145751953125,0.714874267578125,-0.47979736328125
1667825322005928400,0.747928466796875,-0.8335418701171875,0.689697265625,-0.480010986328125
1667825322015935700,0.757935791015625,-0.799896240234375,0.6662139892578125,-0.485565185546875
1667825322025943600,0.767943603515625,-0.7658538818359375,0.648406982421875,-0.50567626953125
1667825322035950600,0.77795068359375,-0.7534027099609375,0.633636474609375,-0.521087646484375
1667825322045958400,0.78795849609375,-0.75238037109375,0.612823486328125,-0.5242156982421875
1667825322055965700,0.797965576171875,-0.7441558837890625,0.5836181640625,-0.5252532958984375
1667825322065973500,0.807973388671875,-0.72711181640625,0.5554351806640625,-0.5245819091796875
1667825322075980500,0.81798046875,-0.7085113525390625,0.539276123046875,-0.5334930419921875
1667825322085988600,0.827988525390625,-0.6948699951171875,0.5302276611328125,-0.5187530517578125
1667825322095995600,0.83799560546875,-0.6797332763671875,0.5033416748046875,-0.4904022216796875
1667825322106003500,0.84800341796875,-0.673797607421875,0.4666290283203125,-0.46466064453125
1667825322116010800,0.8580107421875,-0.6629791259765625,0.4386749267578125,-0.443817138671875
1667825322126018600,0.8680185546875,-0.6381378173828125,0.4196014404296875,-0.4288482666015625
1667825322136025600,0.878025634765625,-0.6092681884765625,0.406280517578125,-0.4132080078125
1667825322146033400,0.888033447265625,-0.584197998046875,0.3950042724609375,-0.39776611328125
1667825322156040700,0.898040771484375,-0.56439208984375,0.38153076171875,-0.3725128173828125
1667825322166048500,0.908048583984375,-0.5480804443359375,0.3590240478515625,-0.3484039306640625
1667825322176055600,0.9180556640625,-0.5391082763671875,0.3341064453125,-0.33416748046875
1667825322186063600,0.928063720703125,-0.53436279296875,0.3134918212890625,-0.326904296875
1667825322196070700,0.938070556640625,-0.5285797119140625,0.294677734375,-0.3206024169921875
1667825322206078500,0.948078369140625,-0.5261077880859375,0.2705078125,-0.308502197265625
1667825322216085800,0.958085693359375,-0.530914306640625,0.2421417236328125,-0.3003387451171875
1667825322226093600,0.968093505859375,-0.5424957275390625,0.2194671630859375,-0.2911376953125
1667825322236100600,0.9781005859375,-0.5561370849609375,0.20123291015625,-0.2843475341796875
1667825322246108400,0.9881083984375,-0.5680389404296875,0.189697265625,-0.27960205078125
1667825322256115700,0.99811572265625,-0.5767669677734375,0.1866607666015625,-0.280975341796875
1667825322266123500,1.00812353515625,-0.585174560546875,0.19146728515625,-0.2950897216796875
1667825322276130600,1.018130615234375,-0.5870819091796875,0.2128753662109375,-0.3269500732421875
1667825322286138600,1.028138671875,-0.5887908935546875,0.257293701171875,-0.362213134765625
1667825322296145700,1.038145751953125,-0.6024322509765625,0.3028411865234375,-0.3624267578125
1667825322306153500,1.048153564453125,-0.6161346435546875,0.316619873046875,-0.3492889404296875
1667825322316160800,1.058160888671875,-0.6353302001953125,0.3073272705078125,-0.352203369140625
1667825322326168600,1.06816845703125,-0.6532135009765625,0.3139801025390625,-0.3640899658203125
1667825322336175600,1.078175537109375,-0.6636810302734375,0.3404388427734375,-0.384552001953125
1667825322346183400,1.088183349609375,-0.675201416015625,0.3774566650390625,-0.4066925048828125
1667825322356190700,1.098190673828125,-0.685302734375,0.4127197265625,-0.4188079833984375
1667825322366198500,1.108198486328125,-0.6959686279296875,0.42852783203125,-0.4181060791015625
1667825322376205600,1.11820556640625,-0.709442138671875,0.42254638671875,-0.406402587890625
1667825322386213600,1.128213623046875,-0.7204742431640625,0.40771484375,-0.3952178955078125
1667825322396220700,1.138220703125,-0.7282867431640625,0.396331787109375,-0.3880767822265625
1667825322406228500,1.148228515625,-0.7381591796875,0.4002532958984375,-0.3897247314453125
1667825322416235800,1.15823583984375,-0.748138427734375,0.4258575439453125,-0.405792236328125
1667825322426243600,1.16824365234375,-0.7529449462890625,0.4696197509765625,-0.4322509765625
1667825322436250600,1.178250732421875,-0.7623138427734375,0.5183868408203125,-0.4605560302734375
1667825322446258400,1.188258544921875,-0.779266357421875,0.5536956787109375,-0.4787139892578125
1667825322456265700,1.198265625,-0.792022705078125,0.563720703125,-0.487884521484375
1667825322466273500,1.2082734375,-0.7998809814453125,0.5525054931640625,-0.485809326171875
1667825322476280600,1.218280517578125,-0.8050689697265625,0.53515625,-0.478179931640625
1667825322486288600,1.22828857421875,-0.814239501953125,0.525360107421875,-0.4693603515625
1667825322496295700,1.238295654296875,-0.826416015625,0.5337066650390625,-0.4736785888671875
1667825322506303500,1.248303466796875,-0.8387908935546875,0.5736083984375,-0.5042724609375
1667825322516310800,1.258310791015625,-0.8484344482421875,0.640380859375,-0.5589752197265625
1667825322526318600,1.268318603515625,-0.8534393310546875,0.7152099609375,-0.63262939453125
1667825322536325600,1.27832568359375,-0.8626556396484375,0.778594970703125,-0.6979827880859375
1667825322546333400,1.28833349609375,-0.8810272216796875,0.809295654296875,-0.7227325439453125
1667825322556341800,1.298341796875,-0.8988800048828125,0.8056640625,-0.7215423583984375
1667825322566348500,1.3083486328125,-0.911956787109375,0.7845458984375,-0.7089996337890625
1667825322576351500,1.3183515625,-0.918365478515625,0.7615203857421875,-0.6886444091796875
1667825322586358500,1.328358642578125,-0.9131317138671875,0.7340545654296875,-0.6677703857421875
1667825322596366300,1.338366455078125,-0.8874969482421875,0.7040557861328125,-0.6483917236328125
1667825322606373600,1.34837353515625,-0.83343505859375,0.674896240234375,-0.6329803466796875
1667825322616381400,1.35838134765625,-0.7972564697265625,0.65338134765625,-0.624267578125
1667825322626388500,1.368388427734375,-0.7848968505859375,0.63690185546875,-0.6222076416015625
1667825322636396300,1.378396240234375,-0.777984619140625,0.6132965087890625,-0.6275177001953125
1667825322646403600,1.388403564453125,-0.76922607421875,0.5809326171875,-0.6202850341796875
1667825322656411400,1.398411376953125,-0.7626495361328125,0.539642333984375,-0.599761962890625
1667825322666418400,1.40841845703125,-0.7556610107421875,0.491424560546875,-0.5762939453125
1667825322676426500,1.418426513671875,-0.7454376220703125,0.44561767578125,-0.5539703369140625
1667825322686433500,1.42843359375,-0.7320556640625,0.4146270751953125,-0.5292510986328125
1667825322696441300,1.43844140625,-0.7181243896484375,0.398590087890625,-0.5216522216796875
1667825322706448600,1.44844873046875,-0.7161712646484375,0.396820068359375,-0.5169677734375
1667825322716456400,1.45845654296875,-0.7262725830078125,0.4061279296875,-0.50537109375
1667825322726463500,1.46846337890625,-0.72698974609375,0.4127044677734375,-0.493377685546875
1667825322736471300,1.47847119140625,-0.7184906005859375,0.4064483642578125,-0.484100341796875
1667825322746478600,1.488478515625,-0.7042694091796875,0.3835601806640625,-0.4736480712890625
1667825322756486400,1.498486328125,-0.6970977783203125,0.3536834716796875,-0.45745849609375
1667825322766493400,1.508493408203125,-0.68792724609375,0.320037841796875,-0.4341583251953125
1667825322776501500,1.51850146484375,-0.6700897216796875,0.289215087890625,-0.4152374267578125
1667825322786508500,1.528508544921875,-0.6539459228515625,0.267486572265625,-0.3946533203125
1667825322796516400,1.538516357421875,-0.6445159912109375,0.24896240234375,-0.3807830810546875
1667825322806523600,1.548523681640625,-0.641815185546875,0.2414398193359375,-0.376251220703125
1667825322816531500,1.558531494140625,-0.64398193359375,0.2418975830078125,-0.37847900390625
1667825322826538500,1.56853857421875,-0.6437225341796875,0.241851806640625,-0.3857574462890625
1667825322836546300,1.57854638671875,-0.6404571533203125,0.2425537109375,-0.399932861328125
1667825322846553600,1.5885537109375,-0.6368865966796875,0.2418365478515625,-0.4046478271484375
1667825322856561400,1.5985615234375,-0.6327667236328125,0.2285919189453125,-0.397918701171875
1667825322866568400,1.608568359375,-0.6334991455078125,0.20538330078125,-0.390106201171875
1667825322876576500,1.618576416015625,-0.6381988525390625,0.1845245361328125,-0.37591552734375
1667825322886583600,1.62858349609375,-0.6470947265625,0.1749725341796875,-0.363311767578125
1667825322896591400,1.63859130859375,-0.6596221923828125,0.1844329833984375,-0.3781585693359375
1667825322906598700,1.6485986328125,-0.683135986328125,0.2359161376953125,-0.43780517578125
1667825322916606500,1.6586064453125,-0.7255096435546875,0.34295654296875,-0.52301025390625
1667825322926613500,1.668613525390625,-0.770233154296875,0.4704437255859375,-0.5977020263671875
1667825322936621300,1.678621337890625,-0.79400634765625,0.5778045654296875,-0.6573944091796875
1667825322946628600,1.688628662109375,-0.7885894775390625,0.6524658203125,-0.684173583984375
1667825322956636400,1.698636474609375,-0.782257080078125,0.688507080078125,-0.6996002197265625
1667825322966643500,1.7086435546875,-0.78173828125,0.6918487548828125,-0.6785430908203125
1667825322976651500,1.718651611328125,-0.7762451171875,0.6541748046875,-0.6361083984375
1667825322986658600,1.728658447265625,-0.7823333740234375,0.6134185791015625,-0.6086578369140625
1667825322996666400,1.738666259765625,-0.7878875732421875,0.6068878173828125,-0.599273681640625
1667825323006673700,1.748673583984375,-0.785675048828125,0.64410400390625,-0.608367919921875
1667825323016681500,1.758681396484375,-0.7904815673828125,0.7131500244140625,-0.647125244140625
1667825323026688500,1.7686884765625,-0.80218505859375,0.7788238525390625,-0.6792144775390625
1667825323036696300,1.7786962890625,-0.8047637939453125,0.8050537109375,-0.687530517578125
1667825323046703600,1.78870361328125,-0.802032470703125,0.78778076171875,-0.6706390380859375
1667825323056711400,1.79871142578125,-0.7962493896484375,0.745941162109375,-0.636566162109375
1667825323066718500,1.808718505859375,-0.78515625,0.7015838623046875,-0.6210784912109375
1667825323076726500,1.8187265625,-0.7665252685546875,0.671295166015625,-0.608734130859375
1667825323086733600,1.828733642578125,-0.7431488037109375,0.659393310546875,-0.5900726318359375
1667825323096741400,1.838741455078125,-0.7224884033203125,0.655364990234375,-0.5830078125
1667825323106748700,1.848748779296875,-0.7158203125,0.6551361083984375,-0.5828704833984375
1667825323116756500,1.858756591796875,-0.709625244140625,0.651885986328125,-0.5655975341796875
1667825323126763500,1.868763427734375,-0.7015228271484375,0.633392333984375,-0.539306640625
1667825323136771300,1.878771240234375,-0.6934814453125,0.595367431640625,-0.499725341796875
1667825323146778600,1.888778564453125,-0.67633056640625,0.5382843017578125,-0.45599365234375
1667825323156786400,1.898786376953125,-0.65887451171875,0.478546142578125,-0.4191741943359375
1667825323166793500,1.90879345703125,-0.646209716796875,0.4319915771484375,-0.3916015625
1667825323176801500,1.918801513671875,-0.630584716796875,0.4023284912109375,-0.370361328125
1667825323186808600,1.92880859375,-0.610809326171875,0.3844451904296875,-0.35296630859375
1667825323196816400,1.93881640625,-0.595794677734375,0.37481689453125,-0.3451080322265625
1667825323206823700,1.94882373046875,-0.59100341796875,0.372039794921875,-0.3399505615234375
1667825323216831500,1.95883154296875,-0.5914306640625,0.3701934814453125,-0.3359527587890625
1667825323226839600,1.968839599609375,-0.6013946533203125,0.3615570068359375,-0.3365631103515625
1667825323236846300,1.978846435546875,-0.6165618896484375,0.3479461669921875,-0.3392791748046875
1667825323246854700,1.988854736328125,-0.62640380859375,0.3323822021484375,-0.34320068359375
1667825323256861400,1.998861328125,-0.6404266357421875,0.3185272216796875,-0.34832763671875
1667825323266869500,2.008869384765625,-0.6562347412109375,0.3100433349609375,-0.361541748046875
1667825323276876500,2.01887646484375,-0.6705780029296875,0.3109588623046875,-0.379150390625
1667825323286884600,2.028884521484375,-0.694183349609375,0.327484130859375,-0.3967132568359375
1667825323296891400,2.038891357421875,-0.71917724609375,0.350494384765625,-0.4129638671875
1667825323306899500,2.0488994140625,-0.730926513671875,0.3621673583984375,-0.428131103515625
1667825323316906500,2.058906494140625,-0.742919921875,0.3635101318359375,-0.43878173828125
1667825323326914600,2.06891455078125,-0.7595672607421875,0.3672027587890625,-0.4640655517578125
1667825323336921300,2.07892138671875,-0.772705078125,0.3822174072265625,-0.4894561767578125
1667825323346929700,2.0889296875,-0.7834930419921875,0.4016265869140625,-0.501312255859375
1667825323356936400,2.0989365234375,-0.7965850830078125,0.40936279296875,-0.4936676025390625
1667825323366944500,2.108944580078125,-0.80023193359375,0.404052734375,-0.4743499755859375
1667825323376951600,2.11895166015625,-0.7906341552734375,0.39520263671875,-0.458221435546875
1667825323386959600,2.128959716796875,-0.7811126708984375,0.3860626220703125,-0.435211181640625
1667825323396966400,2.13896630859375,-0.770172119140625,0.37518310546875,-0.4130401611328125
1667825323406974500,2.148974365234375,-0.755767822265625,0.367889404296875,-0.3912353515625
1667825323416981500,2.1589814453125,-0.7431640625,0.368316650390625,-0.3745880126953125
1667825323426989600,2.168989501953125,-0.736968994140625,0.3745880126953125,-0.36737060546875
1667825323436996400,2.178996337890625,-0.7363128662109375,0.3885955810546875,-0.374603271484375
1667825323447004700,2.189004638671875,-0.73626708984375,0.400848388671875,-0.379058837890625
1667825323457011500,2.199011474609375,-0.7338714599609375,0.393524169921875,-0.3679351806640625
1667825323467019500,2.20901953125,-0.7404632568359375,0.3727874755859375,-0.3617095947265625
1667825323477026600,2.219026611328125,-0.7550811767578125,0.3568572998046875,-0.36199951171875
1667825323487034600,2.22903466796875,-0.7667236328125,0.3579559326171875,-0.369354248046875
1667825323497041400,2.23904150390625,-0.779022216796875,0.3771514892578125,-0.3883209228515625
1667825323507049500,2.249049560546875,-0.7882232666015625,0.4038543701171875,-0.4122161865234375
1667825323517056500,2.259056396484375,-0.8007354736328125,0.4282073974609375,-0.4342193603515625
1667825323527064600,2.269064697265625,-0.8180389404296875,0.4454193115234375,-0.4571685791015625
1667825323537071400,2.2790712890625,-0.8382568359375,0.4683380126953125,-0.483917236328125
1667825323547079700,2.28907958984375,-0.855621337890625,0.5070953369140625,-0.51373291015625
1667825323557086500,2.29908642578125,-0.866455078125,0.5518646240234375,-0.5417938232421875
1667825323567094500,2.309094482421875,-0.86480712890625,0.586578369140625,-0.560638427734375
1667825323577101300,2.319101318359375,-0.855072021484375,0.5994873046875,-0.557159423828125
1667825323587109000,2.329109130859375,-0.8488311767578125,0.589630126953125,-0.5295562744140625
1667825323597116200,2.3391162109375,-0.8363189697265625,0.563201904296875,-0.4889373779296875
1667825323607124000,2.3491240234375,-0.82476806640625,0.5415191650390625,-0.4474029541015625
1667825323617131300,2.35913134765625,-0.8258056640625,0.5465240478515625,-0.417449951171875
1667825323627139000,2.36913916015625,-0.82806396484375,0.591217041015625,-0.4241943359375
1667825323637146000,2.37914599609375,-0.8255157470703125,0.665618896484375,-0.4844207763671875
1667825323647154200,2.389154296875,-0.8248748779296875,0.74102783203125,-0.5494842529296875
1667825323657161200,2.3991611328125,-0.82318115234375,0.7813568115234375,-0.5836639404296875
1667825323667169000,2.4091689453125,-0.830322265625,0.779510498046875,-0.5915069580078125
1667825323677176300,2.41917626953125,-0.8446197509765625,0.7520751953125,-0.5754547119140625
1667825323687184100,2.42918408203125,-0.8572845458984375,0.7125396728515625,-0.5594482421875
1667825323697191200,2.439191162109375,-0.8432159423828125,0.6721649169921875,-0.549652099609375
1667825323707199000,2.449198974609375,-0.8070526123046875,0.6339111328125,-0.54644775390625
1667825323717206300,2.459206298828125,-0.7679443359375,0.587066650390625,-0.54937744140625
1667825323727214000,2.469214111328125,-0.73699951171875,0.5448455810546875,-0.544952392578125
1667825323737221000,2.47922119140625,-0.7218017578125,0.522796630859375,-0.5527801513671875
1667825323747229200,2.489229248046875,-0.7186279296875,0.5141754150390625,-0.582916259765625
1667825323757236200,2.499236328125,-0.7281036376953125,0.505401611328125,-0.6215362548828125
1667825323767244000,2.509244140625,-0.7419891357421875,0.495513916015625,-0.649658203125
1667825323777251300,2.519251220703125,-0.75927734375,0.483428955078125,-0.6687164306640625
1667825323787259100,2.529259033203125,-0.7691802978515625,0.468658447265625,-0.6814727783203125
1667825323797266200,2.53926611328125,-0.761871337890625,0.4488983154296875,-0.67327880859375
1667825323807274000,2.54927392578125,-0.7530517578125,0.4250640869140625,-0.6291656494140625
1667825323817282300,2.5592822265625,-0.737884521484375,0.3885498046875,-0.5860595703125
1667825323827289000,2.5692890625,-0.7200927734375,0.3567657470703125,-0.5503692626953125
1667825323837296000,2.579296142578125,-0.7051239013671875,0.3346405029296875,-0.5201416015625
1667825323847304200,2.58930419921875,-0.70135498046875,0.3223114013671875,-0.501708984375
1667825323857312300,2.599312255859375,-0.697357177734375,0.3202667236328125,-0.49114990234375
1667825323867319000,2.609319091796875,-0.6856231689453125,0.3179931640625,-0.477447509765625
1667825323877327000,2.6193271484375,-0.67535400390625,0.30450439453125,-0.459075927734375
1667825323887334100,2.629334228515625,-0.6743316650390625,0.2819366455078125,-0.4415130615234375
1667825323897342200,2.63934228515625,-0.6688385009765625,0.259185791015625,-0.4204254150390625
1667825323907349000,2.649348876953125,-0.6588287353515625,0.2359466552734375,-0.4045562744140625
1667825323917357300,2.659357421875,-0.65167236328125,0.21832275390625,-0.4062957763671875
1667825323927364000,2.669364013671875,-0.6499481201171875,0.20989990234375,-0.411224365234375
1667825323937372200,2.6793720703125,-0.6535491943359375,0.2075958251953125,-0.413848876953125
1667825323947379200,2.689379150390625,-0.6616668701171875,0.2047882080078125,-0.421783447265625
1667825323957387300,2.69938720703125,-0.6725311279296875,0.2060546875,-0.4350738525390625
1667825323967394000,2.70939404296875,-0.6775360107421875,0.205352783203125,-0.4480133056640625
1667825323977402000,2.719402099609375,-0.67877197265625,0.2014923095703125,-0.4494781494140625
1667825323987409200,2.7294091796875,-0.6835479736328125,0.199188232421875,-0.45306396484375
1667825323997417200,2.739417236328125,-0.6938323974609375,0.2098388671875,-0.4594879150390625
1667825324007424000,2.749424072265625,-0.7032318115234375,0.2290496826171875,-0.46978759765625
1667825324017432300,2.759432373046875,-0.708526611328125,0.2494964599609375,-0.4661865234375
1667825324027439000,2.769439208984375,-0.7147216796875,0.25860595703125,-0.4591522216796875
1667825324037447200,2.779447265625,-0.7204437255859375,0.2640533447265625,-0.4612579345703125
1667825324047454200,2.7894541015625,-0.722747802734375,0.2818756103515625,-0.4644927978515625
1667825324057462300,2.799462158203125,-0.732147216796875,0.314544677734375,-0.4692230224609375
1667825324067469000,2.809468994140625,-0.744049072265625,0.3486785888671875,-0.482086181640625
1667825324077477000,2.81947705078125,-0.756683349609375,0.3749847412109375,-0.506561279296875
1667825324087484200,2.829484130859375,-0.771514892578125,0.4066162109375,-0.5337066650390625
1667825324097492200,2.8394921875,-0.7865447998046875,0.449859619140625,-0.5713958740234375
1667825324107499000,2.8494990234375,-0.79937744140625,0.502532958984375,-0.6069183349609375
1667825324117507300,2.85950732421875,-0.8035736083984375,0.54644775390625,-0.634613037109375
1667825324127514000,2.86951416015625,-0.80035400390625,0.570465087890625,-0.656463623046875
1667825324137522200,2.879522216796875,-0.7943267822265625,0.5856475830078125,-0.6685028076171875
1667825324147529200,2.889529296875,-0.7790374755859375,0.5951385498046875,-0.660369873046875
1667825324157537300,2.899537353515625,-0.7491607666015625,0.583465576171875,-0.63580322265625
1667825324167544000,2.9095439453125,-0.711456298828125,0.54840087890625,-0.604522705078125
1667825324177552100,2.91955224609375,-0.678802490234375,0.50762939453125,-0.5718841552734375
1667825324187559200,2.92955908203125,-0.657501220703125,0.4829559326171875,-0.54876708984375
1667825324197567200,2.939567138671875,-0.6488494873046875,0.4828033447265625,-0.56231689453125
1667825324207574000,2.949573974609375,-0.650115966796875,0.505401611328125,-0.592193603515625
1667825324217582300,2.959582275390625,-0.662933349609375,0.531097412109375,-0.6136627197265625
1667825324227589000,2.969589111328125,-0.67864990234375,0.541839599609375,-0.6208343505859375
1667825324237597200,2.97959716796875,-0.698455810546875,0.5326385498046875,-0.619110107421875
1667825324247604200,2.989604248046875,-0.7154388427734375,0.5164794921875,-0.6231689453125
1667825324257612300,2.9996123046875,-0.72528076171875,0.50811767578125,-0.626922607421875
1667825324267619000,3.009619140625,-0.7329559326171875,0.5065460205078125,-0.6312103271484375
1667825324277627100,3.019627197265625,-0.7425537109375,0.50384521484375,-0.634002685546875
1667825324287634200,3.02963427734375,-0.749420166015625,0.4969635009765625,-0.62750244140625
1667825324297642200,3.039642333984375,-0.7564544677734375,0.4895477294921875,-0.618927001953125
1667825324307649000,3.04964892578125,-0.7687530517578125,0.4860382080078125,-0.5994720458984375
1667825324317657300,3.0596572265625,-0.7693634033203125,0.4761962890625,-0.5728912353515625
1667825324327664000,3.0696640625,-0.762664794921875,0.4582366943359375,-0.53826904296875
1667825324337672200,3.079672119140625,-0.7530517578125,0.433685302734375,-0.4982147216796875
1667825324347679200,3.08967919921875,-0.7442779541015625,0.4007568359375,-0.4565887451171875
1667825324357687300,3.099687255859375,-0.7338409423828125,0.362579345703125,-0.4128265380859375
1667825324367694000,3.109694091796875,-0.7214813232421875,0.332183837890625,-0.3799591064453125
1667825324377702100,3.1197021484375,-0.7187347412109375,0.317840576171875,-0.370819091796875
1667825324387709200,3.129709228515625,-0.715911865234375,0.324188232421875,-0.3591461181640625
1667825324397717200,3.13971728515625,-0.71417236328125,0.333648681640625,-0.353790283203125
1667825324407725000,3.14972509765625,-0.719970703125,0.337890625,-0.3578643798828125
1667825324417732400,3.159732421875,-0.73052978515625,0.3423614501953125,-0.3676605224609375
1667825324427740200,3.169740234375,-0.743194580078125,0.3411712646484375,-0.3683319091796875
1667825324437747200,3.179747314453125,-0.756011962890625,0.3289642333984375,-0.3732147216796875
1667825324447755000,3.189755126953125,-0.7662506103515625,0.312896728515625,-0.3800506591796875
1667825324457762300,3.19976220703125,-0.773590087890625,0.3033294677734375,-0.377532958984375
1667825324467770000,3.20977001953125,-0.7794952392578125,0.3040313720703125,-0.3834381103515625
1667825324477777200,3.219777099609375,-0.782562255859375,0.3182373046875,-0.39715576171875
1667825324487785200,3.22978515625,-0.7840118408203125,0.3318328857421875,-0.40911865234375
1667825324497792300,3.239792236328125,-0.7891693115234375,0.34088134765625,-0.419464111328125
1667825324507800000,3.249800048828125,-0.7899932861328125,0.3465118408203125,-0.4207611083984375
1667825324517807400,3.259807373046875,-0.7815093994140625,0.3446044921875,-0.41790771484375
1667825324527815200,3.269815185546875,-0.780242919921875,0.3383331298828125,-0.411773681640625
1667825324537822200,3.279822265625,-0.7763214111328125,0.3301544189453125,-0.4114990234375
1667825324547830000,3.289830078125,-0.7671966552734375,0.324676513671875,-0.410980224609375
1667825324557837300,3.29983740234375,-0.758819580078125,0.32122802734375,-0.4113616943359375
1667825324567845000,3.30984521484375,-0.74810791015625,0.312164306640625,-0.4107666015625
1667825324577852700,3.319852783203125,-0.743682861328125,0.2990264892578125,-0.4131927490234375
1667825324587860700,3.32986083984375,-0.7434844970703125,0.2956390380859375,-0.4161224365234375
1667825324597867800,3.33986767578125,-0.7506561279296875,0.30377197265625,-0.4259796142578125
1667825324607875800,3.349875732421875,-0.758148193359375,0.31365966796875,-0.435211181640625
1667825324617882600,3.359882568359375,-0.7686767578125,0.3190765380859375,-0.4462890625
1667825324627891000,3.369890869140625,-0.785980224609375,0.3257904052734375,-0.4586334228515625
1667825324637897700,3.379897705078125,-0.80438232421875,0.34259033203125,-0.478973388671875
1667825324647905800,3.38990576171875,-0.8265533447265625,0.3746185302734375,-0.5076446533203125
1667825324657912800,3.399912841796875,-0.845428466796875,0.4285736083984375,-0.538787841796875
1667825324667921000,3.4099208984375,-0.859405517578125,0.489410400390625,-0.5692291259765625
1667825324677927700,3.419927734375,-0.8610992431640625,0.527252197265625,-0.589691162109375
1667825324687935700,3.429935791015625,-0.8549041748046875,0.52349853515625,-0.5786285400390625
1667825324697942800,3.43994287109375,-0.84149169921875,0.48760986328125,-0.5469818115234375
1667825324707950800,3.449950927734375,-0.822601318359375,0.44500732421875,-0.498199462890625
1667825324717957600,3.45995751953125,-0.8016357421875,0.4102020263671875,-0.4383697509765625
1667825324727966000,3.469966064453125,-0.7864227294921875,0.382354736328125,-0.3890838623046875
1667825324737972700,3.47997265625,-0.783416748046875,0.36962890625,-0.378082275390625
1667825324747980800,3.489980712890625,-0.7930450439453125,0.387298583984375,-0.3995513916015625
1667825324757987800,3.49998779296875,-0.8174591064453125,0.436431884765625,-0.4638671875
1667825324767996000,3.509995849609375,-0.843719482421875,0.4998321533203125,-0.54742431640625
1667825324778002700,3.520002685546875,-0.869384765625,0.5421905517578125,-0.6297149658203125
1667825324788010800,3.5300107421875,-0.9004058837890625,0.5498046875,-0.70086669921875
1667825324798017800,3.540017822265625,-0.9271240234375,0.5334320068359375,-0.7502288818359375
1667825324808025900,3.55002587890625,-0.9426422119140625,0.5128631591796875,-0.7480010986328125
1667825324818032600,3.56003271484375,-0.9191131591796875,0.48309326171875,-0.7296905517578125
1667825324828041000,3.570041015625,-0.8920745849609375,0.449981689453125,-0.73162841796875
1667825324838047700,3.5800478515625,-0.8626861572265625,0.4261322021484375,-0.7473907470703125
1667825324848055800,3.590055908203125,-0.83453369140625,0.4105072021484375,-0.7595367431640625
1667825324858062800,3.600062744140625,-0.8141326904296875,0.3878631591796875,-0.7624359130859375
1667825324868071000,3.61007080078125,-0.808837890625,0.3599090576171875,-0.775787353515625
1667825324878077700,3.62007763671875,-0.8148651123046875,0.342010498046875,-0.7808380126953125
1667825324888085800,3.630085693359375,-0.8196868896484375,0.3306121826171875,-0.773529052734375
1667825324898092800,3.6400927734375,-0.81634521484375,0.311981201171875,-0.7626495361328125
1667825324908100900,3.650100830078125,-0.813385009765625,0.2879486083984375,-0.749298095703125
1667825324918108700,3.660108642578125,-0.8092041015625,0.2749481201171875,-0.730377197265625
1667825324928116000,3.670115966796875,-0.79986572265625,0.2772674560546875,-0.6991729736328125
1667825324938123800,3.680123779296875,-0.785064697265625,0.2805328369140625,-0.6602020263671875
1667825324948130800,3.690130859375,-0.764007568359375,0.279541015625,-0.6215057373046875
1667825324958138600,3.700138671875,-0.7420654296875,0.268096923828125,-0.58306884765625
1667825324968146000,3.71014599609375,-0.7276763916015625,0.2493743896484375,-0.5492401123046875
1667825324978153700,3.72015380859375,-0.7209014892578125,0.23236083984375,-0.518707275390625
1667825324988160800,3.730160888671875,-0.71600341796875,0.2130279541015625,-0.48834228515625
1667825324998168800,3.7401689453125,-0.7129974365234375,0.1858978271484375,-0.473907470703125
1667825325008175900,3.75017578125,-0.7157135009765625,0.16778564453125,-0.48126220703125
1667825325018183700,3.76018359375,-0.714508056640625,0.1698760986328125,-0.498931884765625
1667825325028191000,3.77019091796875,-0.7068634033203125,0.180206298828125,-0.514739990234375
1667825325038198800,3.78019873046875,-0.7054901123046875,0.182769775390625,-0.5191802978515625
1667825325048205800,3.790205810546875,-0.71142578125,0.1733245849609375,-0.5236053466796875
1667825325058213600,3.800213623046875,-0.7138214111328125,0.1595916748046875,-0.5247802734375
1667825325068221000,3.810220947265625,-0.712005615234375,0.149932861328125,-0.5166168212890625
1667825325078228700,3.820228759765625,-0.713287353515625,0.147430419921875,-0.5009002685546875
1667825325088235800,3.83023583984375,-0.7129669189453125,0.1441802978515625,-0.4839630126953125
1667825325098243800,3.840243896484375,-0.7078857421875,0.1436920166015625,-0.4802398681640625
1667825325108251000,3.8502509765625,-0.7041778564453125,0.15643310546875,-0.4826202392578125
1667825325118258700,3.8602587890625,-0.7042388916015625,0.1709747314453125,-0.4821624755859375
1667825325128266000,3.870265869140625,-0.71142578125,0.182586669921875,-0.4783477783203125
1667825325138273800,3.880273681640625,-0.719757080078125,0.189178466796875,-0.4757080078125
1667825325148280800,3.89028076171875,-0.730682373046875,0.1952362060546875,-0.477935791015625
1667825325158288600,3.90028857421875,-0.7467193603515625,0.2112274169921875,-0.489166259765625
1667825325168296000,3.9102958984375,-0.768707275390625,0.24261474609375,-0.5164031982421875
1667825325178303700,3.9203037109375,-0.7917022705078125,0.2830963134765625,-0.5471343994140625
1667825325188310800,3.930310791015625,-0.8142242431640625,0.3193359375,-0.58270263671875
1667825325198318600,3.940318603515625,-0.8419342041015625,0.3563690185546875,-0.625762939453125
1667825325208326000,3.950325927734375,-0.8631591796875,0.398284912109375,-0.66302490234375
1667825325218333700,3.960333740234375,-0.8710479736328125,0.4326171875,-0.6805419921875
1667825325228341000,3.970341064453125,-0.8628387451171875,0.4448699951171875,-0.6793060302734375
1667825325238348800,3.980348876953125,-0.847442626953125,0.4347076416015625,-0.6635284423828125
1667825325248356900,3.99035693359375,-0.8176727294921875,0.414337158203125,-0.6319122314453125
1667825325258363600,4.00036376953125,-0.7779541015625,0.4006805419921875,-0.6031951904296875
1667825325268371700,4.010371826171875,-0.732635498046875,0.39794921875,-0.5740966796875
1667825325278378800,4.020378662109375,-0.687408447265625,0.38482666015625,-0.5601348876953125
1667825325288385800,4.0303857421875,-0.662750244140625,0.3576202392578125,-0.5597381591796875
1667825325298393600,4.0403935546875,-0.6683349609375,0.3351287841796875,-0.5585479736328125
1667825325308402000,4.05040185546875,-0.7015838623046875,0.337158203125,-0.5576019287109375
1667825325318408700,4.06040869140625,-0.7406005859375,0.3534088134765625,-0.5624542236328125
1667825325328416800,4.070416748046875,-0.771728515625,0.368377685546875,-0.5879364013671875
1667825325338423800,4.080423828125,-0.794403076171875,0.380157470703125,-0.6214599609375
1667825325348432000,4.090431884765625,-0.818634033203125,0.3912506103515625,-0.649322509765625
1667825325358438700,4.100438720703125,-0.8407745361328125,0.4068603515625,-0.6578369140625
1667825325368446700,4.11044677734375,-0.8529205322265625,0.415069580078125,-0.6623687744140625
1667825325378453800,4.120453857421875,-0.85345458984375,0.4081878662109375,-0.6637115478515625
1667825325388461800,4.1304619140625,-0.8542633056640625,0.3911590576171875,-0.6484527587890625
1667825325398468600,4.140468505859375,-0.856201171875,0.374176025390625,-0.6334228515625
1667825325408477000,4.150476806640625,-0.85113525390625,0.365447998046875,-0.617828369140625
1667825325418483700,4.160483642578125,-0.8390960693359375,0.36279296875,-0.5894775390625
1667825325428491800,4.17049169921875,-0.8264617919921875,0.3475189208984375,-0.54931640625
1667825325438498800,4.180498779296875,-0.81134033203125,0.3118133544921875,-0.5106658935546875
1667825325448507000,4.1905068359375,-0.800384521484375,0.271881103515625,-0.4766082763671875
1667825325458513700,4.200513671875,-0.7918243408203125,0.24090576171875,-0.4451904296875
1667825325468521700,4.210521728515625,-0.7783660888671875,0.2168426513671875,-0.4203033447265625
1667825325478528800,4.22052880859375,-0.761199951171875,0.1950225830078125,-0.404937744140625
1667825325488536800,4.230536865234375,-0.747039794921875,0.1770172119140625,-0.4015960693359375
1667825325498543600,4.240543701171875,-0.7379608154296875,0.1657562255859375,-0.4035186767578125
1667825325508552000,4.250552001953125,-0.7379150390625,0.1591796875,-0.3976287841796875
1667825325518558700,4.260558837890625,-0.74273681640625,0.146514892578125,-0.4050445556640625
1667825325528566800,4.27056689453125,-0.748321533203125,0.1324462890625,-0.414306640625
1667825325538573800,4.28057373046875,-0.7520751953125,0.1171722412109375,-0.419036865234375
1667825325548582000,4.290581787109375,-0.7574920654296875,0.1047515869140625,-0.428985595703125
1667825325558588700,4.300588623046875,-0.763397216796875,0.103118896484375,-0.44036865234375
1667825325568596700,4.3105966796875,-0.7693939208984375,0.1047515869140625,-0.449920654296875
1667825325578604000,4.32060400390625,-0.77581787109375,0.1039886474609375,-0.4619598388671875
1667825325588611800,4.33061181640625,-0.777801513671875,0.1011199951171875,-0.474853515625
1667825325598619000,4.340618896484375,-0.781280517578125,0.10211181640625,-0.4825286865234375
1667825325608627000,4.350626953125,-0.7816925048828125,0.1049346923828125,-0.483123779296875
1667825325618634000,4.360634033203125,-0.7817840576171875,0.1020355224609375,-0.489471435546875
1667825325628641800,4.370641845703125,-0.7822418212890625,0.0986175537109375,-0.494232177734375
1667825325638649000,4.380649169921875,-0.7871246337890625,0.1014862060546875,-0.49676513671875
1667825325648657000,4.390656982421875,-0.788604736328125,0.106353759765625,-0.5034637451171875
1667825325658664000,4.400663818359375,-0.791839599609375,0.1111602783203125,-0.5158843994140625
1667825325668671700,4.410671630859375,-0.7998809814453125,0.1153717041015625,-0.52685546875
1667825325678679000,4.420678955078125,-0.8067779541015625,0.1136627197265625,-0.5363922119140625
1667825325688686800,4.430686767578125,-0.80914306640625,0.1080780029296875,-0.5418853759765625
1667825325698694000,4.44069384765625,-0.809478759765625,0.0992431640625,-0.5417327880859375
1667825325708702000,4.450701904296875,-0.8021697998046875,0.0885009765625,-0.5379791259765625
1667825325718709000,4.460708984375,-0.79034423828125,0.0785980224609375,-0.5322418212890625
1667825325728716800,4.470716796875,-0.779022216796875,0.070770263671875,-0.5255126953125
1667825325738724000,4.48072412109375,-0.76556396484375,0.0636749267578125,-0.5218353271484375
1667825325748732000,4.49073193359375,-0.7636871337890625,0.0582122802734375,-0.52264404296875
1667825325758740000,4.500739990234375,-0.768310546875,0.0576934814453125,-0.5292816162109375
1667825325768746800,4.510746826171875,-0.776947021484375,0.059234619140625,-0.5363922119140625
1667825325778754000,4.520754150390625,-0.784423828125,0.0553131103515625,-0.5417633056640625
1667825325788761900,4.530761962890625,-0.794281005859375,0.0511932373046875,-0.54736328125
1667825325798769000,4.540768798828125,-0.80865478515625,0.0463714599609375,-0.5518646240234375
1667825325808777000,4.55077685546875,-0.8290863037109375,0.04754638671875,-0.5697784423828125
1667825325818785000,4.560784912109375,-0.856597900390625,0.069366455078125,-0.6098785400390625
1667825325828791800,4.570791748046875,-0.88922119140625,0.1157684326171875,-0.661407470703125
1667825325838800000,4.5807998046875,-0.919281005859375,0.1725006103515625,-0.7101898193359375
1667825325848807000,4.590806884765625,-0.9390869140625,0.218048095703125,-0.748565673828125
1667825325858815000,4.60081494140625,-0.9460601806640625,0.246246337890625,-0.770355224609375
1667825325868821800,4.61082177734375,-0.9409942626953125,0.2572479248046875,-0.77947998046875
1667825325878830000,4.620830078125,-0.932708740234375,0.258697509765625,-0.7696075439453125
1667825325888836900,4.6308369140625,-0.925262451171875,0.2584381103515625,-0.74658203125
1667825325898843600,4.64084375,-0.9123382568359375,0.2629241943359375,-0.7232208251953125
1667825325908852000,4.65085205078125,-0.8979644775390625,0.27386474609375,-0.7152252197265625
1667825325918858800,4.660858642578125,-0.886444091796875,0.2928924560546875,-0.72467041015625
1667825325928866800,4.67086669921875,-0.8734893798828125,0.310546875,-0.7477874755859375
1667825325938875000,4.680875,-0.8590545654296875,0.3162841796875,-0.7717437744140625
1667825325948882000,4.6908818359375,-0.8472442626953125,0.3105926513671875,-0.7894744873046875
1667825325958890000,4.700889892578125,-0.837799072265625,0.296783447265625,-0.80157470703125
1667825325968896800,4.710896728515625,-0.8235931396484375,0.279754638671875,-0.8174896240234375
1667825325978905000,4.720905029296875,-0.7930145263671875,0.2605133056640625,-0.8338623046875
1667825325988911900,4.730911865234375,-0.7534027099609375,0.2306976318359375,-0.8342437744140625
1667825325998920000,4.740919921875,-0.714019775390625,0.1845703125,-0.820159912109375
1667825326008927000,4.750927001953125,-0.6861572265625,0.130157470703125,-0.8047637939453125
1667825326018935000,4.76093505859375,-0.6638336181640625,0.0819244384765625,-0.7888946533203125
1667825326028941800,4.77094189453125,-0.642669677734375,0.042572021484375,-0.77520751953125
1667825326038950000,4.780949951171875,-0.627166748046875,0.009857177734375,-0.7656402587890625
1667825326048957000,4.79095703125,-0.61883544921875,-0.0186309814453125,-0.74993896484375
1667825326058965000,4.800965087890625,-0.614959716796875,-0.04327392578125,-0.7205963134765625
1667825326068971800,4.8109716796875,-0.6121978759765625,-0.0611419677734375,-0.690093994140625
1667825326078980000,4.82097998046875,-0.6078948974609375,-0.068145751953125,-0.6601715087890625
1667825326088987000,4.83098681640625,-0.6023712158203125,-0.06951904296875,-0.626220703125
1667825326098995000,4.840994873046875,-0.6029815673828125,-0.07513427734375,-0.5941314697265625
1667825326109002000,4.851001953125,-0.6095733642578125,-0.0836029052734375,-0.567108154296875
1667825326119010000,4.861010009765625,-0.6178436279296875,-0.0924835205078125,-0.5458831787109375
1667825326129016800,4.871016845703125,-0.6196746826171875,-0.0977783203125,-0.52935791015625
1667825326139025000,4.88102490234375,-0.625152587890625,-0.09564208984375,-0.51275634765625
1667825326149032000,4.891031982421875,-0.6333465576171875,-0.0911712646484375,-0.495819091796875
1667825326159040000,4.9010400390625,-0.6404571533203125,-0.0863494873046875,-0.47760009765625
1667825326169046800,4.911046875,-0.6542205810546875,-0.08587646484375,-0.461578369140625
1667825326179054800,4.921054931640625,-0.6668701171875,-0.086944580078125,-0.445343017578125
1667825326189062000,4.931061767578125,-0.672821044921875,-0.091949462890625,-0.4278411865234375
1667825326199070000,4.941070068359375,-0.6827850341796875,-0.098541259765625,-0.415252685546875
1667825326209077000,4.951076904296875,-0.697357177734375,-0.1009521484375,-0.410308837890625
1667825326219085000,4.9610849609375,-0.701934814453125,-0.0936126708984375,-0.403656005859375
1667825326229091800,4.971091796875,-0.70135498046875,-0.0876007080078125,-0.40380859375
1667825326239100000,4.981099853515625,-0.7096405029296875,-0.08001708984375,-0.4114990234375
1667825326249107000,4.99110693359375,-0.7201995849609375,-0.064453125,-0.4195404052734375
1667825326259115000,5.001114990234375,-0.7260284423828125,-0.0539703369140625,-0.42596435546875
1667825326269121800,5.011121826171875,-0.736053466796875,-0.05078125,-0.4399871826171875
1667825326279129900,5.0211298828125,-0.7587127685546875,-0.044036865234375,-0.469482421875
1667825326289137000,5.031136962890625,-0.791351318359375,-0.0270233154296875,-0.5063934326171875
1667825326299145000,5.04114501953125,-0.8372344970703125,-0.001068115234375,-0.55059814453125
1667825326309152000,5.051152099609375,-0.8757781982421875,0.0369110107421875,-0.60650634765625
1667825326319160000,5.06116015625,-0.9003143310546875,0.084808349609375,-0.6710968017578125
1667825326329166800,5.071166748046875,-0.915374755859375,0.135009765625,-0.7243499755859375
1667825326339175000,5.0811748046875,-0.9244384765625,0.1813507080078125,-0.7674407958984375
1667825326349182000,5.091181884765625,-0.927642822265625,0.2220458984375,-0.80572509765625
1667825326359190000,5.10118994140625,-0.9172515869140625,0.262664794921875,-0.8371429443359375
1667825326369196800,5.11119677734375,-0.9100494384765625,0.3123931884765625,-0.8734283447265625
1667825326379204900,5.121204833984375,-0.8979339599609375,0.36529541015625,-0.88922119140625
1667825326389212000,5.1312119140625,-0.8625640869140625,0.388885498046875,-0.88519287109375
1667825326399220000,5.141219970703125,-0.8211212158203125,0.3770599365234375,-0.86505126953125
1667825326409227000,5.15122705078125,-0.7850341796875,0.344085693359375,-0.8346405029296875
1667825326419235000,5.161235107421875,-0.76568603515625,0.3131561279296875,-0.8165283203125
1667825326429241900,5.171241943359375,-0.75653076171875,0.302459716796875,-0.8188323974609375
1667825326439250000,5.18125,-0.7559051513671875,0.31219482421875,-0.838531494140625
1667825326449257000,5.191257080078125,-0.7512664794921875,0.3221893310546875,-0.8504638671875
1667825326459265000,5.20126513671875,-0.7431640625,0.319793701171875,-0.8516845703125
1667825326469271800,5.211271728515625,-0.734161376953125,0.3094635009765625,-0.8525543212890625
1667825326479279900,5.22127978515625,-0.7196807861328125,0.29803466796875,-0.8449249267578125
1667825326489287000,5.231286865234375,-0.7026214599609375,0.2878875732421875,-0.820465087890625
1667825326499295000,5.241294921875,-0.6822509765625,0.2718505859375,-0.788055419921875
1667825326509302800,5.251302734375,-0.6648712158203125,0.244140625,-0.7462615966796875
1667825326519310000,5.26131005859375,-0.651214599609375,0.203155517578125,-0.7054595947265625
1667825326529318000,5.27131787109375,-0.65179443359375,0.172454833984375,-0.673187255859375
1667825326539325000,5.281324951171875,-0.6531219482421875,0.158599853515625,-0.6357574462890625
1667825326549332700,5.291332763671875,-0.644073486328125,0.1443328857421875,-0.5986785888671875
1667825326559339800,5.30133984375,-0.63970947265625,0.1206207275390625,-0.565216064453125
1667825326569347800,5.311347900390625,-0.6408843994140625,0.0897369384765625,-0.5353851318359375
1667825326579354000,5.32135400390625,-0.640350341796875,0.0676727294921875,-0.5106353759765625
1667825326589362200,5.331362060546875,-0.6383056640625,0.05377197265625,-0.4940948486328125
1667825326599369000,5.341368896484375,-0.637725830078125,0.0431671142578125,-0.4819488525390625
1667825326609377000,5.351376953125,-0.6438751220703125,0.0344390869140625,-0.4731903076171875
1667825326619384000,5.361384033203125,-0.657989501953125,0.0258026123046875,-0.4632568359375
1667825326629392100,5.37139208984375,-0.67218017578125,0.01739501953125,-0.461212158203125
1667825326639399200,5.381399169921875,-0.693145751953125,0.013946533203125,-0.4703369140625
1667825326649407200,5.3914072265625,-0.708526611328125,0.01513671875,-0.47357177734375
1667825326659414000,5.4014140625,-0.7225494384765625,0.0155181884765625,-0.4848785400390625
1667825326669422000,5.411422119140625,-0.7411651611328125,0.0146484375,-0.506378173828125
1667825326679429000,5.42142919921875,-0.7581024169921875,0.015899658203125,-0.529510498046875
1667825326689437200,5.431437255859375,-0.7762451171875,0.0216522216796875,-0.5463714599609375
1667825326699444000,5.44144384765625,-0.7904052734375,0.025360107421875,-0.55804443359375
1667825326709452000,5.4514521484375,-0.79949951171875,0.0276641845703125,-0.565093994140625
1667825326719459000,5.461458984375,-0.800994873046875,0.0269622802734375,-0.5677337646484375
1667825326729467100,5.471467041015625,-0.7957305908203125,0.029022216796875,-0.5703887939453125
1667825326739474200,5.48147412109375,-0.7880096435546875,0.0329437255859375,-0.56683349609375
1667825326749482200,5.491482177734375,-0.7797393798828125,0.025726318359375,-0.553680419921875
1667825326759489000,5.501489013671875,-0.7710723876953125,0.0066375732421875,-0.5454254150390625
1667825326769497000,5.5114970703125,-0.7646331787109375,-0.0040435791015625,-0.5308074951171875
1667825326779504000,5.521504150390625,-0.753265380859375,-0.010498046875,-0.52813720703125
1667825326789512200,5.53151220703125,-0.7402496337890625,-0.0150604248046875,-0.529266357421875
1667825326799519000,5.54151904296875,-0.7310943603515625,-0.0203857421875,-0.531463623046875
1667825326809527000,5.551527099609375,-0.7307281494140625,-0.0296478271484375,-0.5369720458984375
1667825326819534000,5.5615341796875,-0.7397308349609375,-0.0396575927734375,-0.54522705078125
1667825326829542100,5.571542236328125,-0.753753662109375,-0.0482940673828125,-0.5559844970703125
1667825326839549200,5.581549072265625,-0.7701263427734375,-0.0535125732421875,-0.56890869140625
1667825326849557200,5.59155712890625,-0.7874603271484375,-0.0509796142578125,-0.586151123046875
1667825326859564000,5.60156396484375,-0.8146514892578125,-0.0392913818359375,-0.6107635498046875
1667825326869572000,5.611572021484375,-0.8478546142578125,-0.017730712890625,-0.638763427734375
1667825326879579100,5.6215791015625,-0.88665771484375,0.0133819580078125,-0.6738433837890625
1667825326889587200,5.631587158203125,-0.9289093017578125,0.0501861572265625,-0.7146453857421875
1667825326899594000,5.641593994140625,-0.9554443359375,0.095428466796875,-0.7588043212890625
1667825326909602000,5.65160205078125,-0.968048095703125,0.1443023681640625,-0.8000335693359375
1667825326919609000,5.661609130859375,-0.9648590087890625,0.1826019287109375,-0.81768798828125
1667825326929617200,5.6716171875,-0.953704833984375,0.1940155029296875,-0.813812255859375
1667825326939624200,5.681624267578125,-0.9455413818359375,0.183837890625,-0.7876739501953125
1667825326949632000,5.691632080078125,-0.9390716552734375,0.168182373046875,-0.755767822265625
1667825326959639000,5.70163916015625,-0.9373016357421875,0.167755126953125,-0.7376556396484375
1667825326969646800,5.711646728515625,-0.9357147216796875,0.1941986083984375,-0.7401580810546875
1667825326979654100,5.721654052734375,-0.928192138671875,0.24102783203125,-0.7819366455078125
1667825326989662000,5.731661865234375,-0.9234619140625,0.298919677734375,-0.84893798828125
1667825326999669000,5.7416689453125,-0.9137115478515625,0.338836669921875,-0.8920135498046875
1667825327009677000,5.751677001953125,-0.906890869140625,0.3402557373046875,-0.89447021484375
1667825327019684000,5.76168408203125,-0.9063262939453125,0.3111724853515625,-0.886322021484375
1667825327029692000,5.77169189453125,-0.8863983154296875,0.2794189453125,-0.8839111328125
1667825327039699200,5.78169921875,-0.8416290283203125,0.2596435546875,-0.8795623779296875
1667825327049707000,5.79170703125,-0.7809906005859375,0.2418975830078125,-0.8746490478515625
1667825327059715000,5.801715087890625,-0.7187652587890625,0.209075927734375,-0.8530731201171875
1667825327069721900,5.811721923828125,-0.66790771484375,0.1642608642578125,-0.8388671875
1667825327079730000,5.82172998046875,-0.6362762451171875,0.1245880126953125,-0.852325439453125
1667825327089737000,5.831737060546875,-0.6171417236328125,0.0958709716796875,-0.8603515625
1667825327099745000,5.8417451171875,-0.6182098388671875,0.0722503662109375,-0.86328125
1667825327109752000,5.851751953125,-0.6315460205078125,0.041351318359375,-0.8649749755859375
1667825327119760100,5.861760009765625,-0.6418914794921875,0.0091094970703125,-0.85369873046875
1667825327129767000,5.871766845703125,-0.6390380859375,-0.0180511474609375,-0.835601806640625
1667825327139775000,5.88177490234375,-0.62432861328125,-0.02435302734375,-0.79913330078125
1667825327149782000,5.891781982421875,-0.6141510009765625,-0.018280029296875,-0.74981689453125
1667825327159790000,5.9017900390625,-0.60980224609375,-0.017120361328125,-0.7079925537109375
1667825327169796900,5.911796875,-0.6056976318359375,-0.025787353515625,-0.6685943603515625
1667825327179805000,5.921804931640625,-0.61346435546875,-0.0384674072265625,-0.6385040283203125
1667825327189812000,5.93181201171875,-0.62591552734375,-0.0436859130859375,-0.609375
1667825327199820000,5.941820068359375,-0.627471923828125,-0.04425048828125,-0.5819854736328125
1667825327209827000,5.9518271484375,-0.633758544921875,-0.0487060546875,-0.5616607666015625
1667825327219835100,5.961835205078125,-0.64837646484375,-0.04901123046875,-0.5489349365234375
1667825327229842000,5.971842041015625,-0.6578216552734375,-0.0443878173828125,-0.532562255859375
1667825327239850000,5.98185009765625,-0.6627044677734375,-0.0419921875,-0.517181396484375
1667825327249857000,5.99185693359375,-0.6698760986328125,-0.039276123046875,-0.50750732421875
1667825327259865000,6.001864990234375,-0.67706298828125,-0.032745361328125,-0.495269775390625
1667825327269871900,6.011871826171875,-0.6856536865234375,-0.0248870849609375,-0.48516845703125
1667825327279880000,6.0218798828125,-0.69732666015625,-0.01751708984375,-0.4792633056640625
1667825327289887000,6.031886962890625,-0.7111663818359375,-0.0174407958984375,-0.472869873046875
1667825327299895000,6.04189501953125,-0.72906494140625,-0.0245819091796875,-0.4630584716796875
1667825327309902000,6.051902099609375,-0.7452392578125,-0.0320892333984375,-0.455718994140625
1667825327319910100,6.06191015625,-0.7608184814453125,-0.033050537109375,-0.457916259765625
1667825327329917000,6.0719169921875,-0.771575927734375,-0.0264434814453125,-0.4636993408203125
1667825327339925000,6.081925048828125,-0.7779693603515625,-0.01470947265625,-0.4687652587890625
1667825327349932000,6.09193212890625,-0.78277587890625,-0.004241943359375,-0.4741058349609375
1667825327359940000,6.101940185546875,-0.7884063720703125,0.006011962890625,-0.4850921630859375
1667825327369947000,6.11194677734375,-0.795867919921875,0.0188751220703125,-0.495452880859375
1667825327379955000,6.121954833984375,-0.80712890625,0.033203125,-0.5045166015625
1667825327389962000,6.1319619140625,-0.8220367431640625,0.046844482421875,-0.5194244384765625
1667825327399970000,6.141969970703125,-0.839385986328125,0.06488037109375,-0.5420989990234375
1667825327409976800,6.151976806640625,-0.8475189208984375,0.090545654296875,-0.5712738037109375
1667825327419985200,6.161985107421875,-0.8480377197265625,0.1203765869140625,-0.5973358154296875
1667825327429992000,6.171991943359375,-0.845703125,0.1408843994140625,-0.6110687255859375
1667825327440000000,6.182,-0.8483123779296875,0.142974853515625,-0.612884521484375
1667825327450007000,6.192007080078125,-0.8462371826171875,0.138397216796875,-0.6108245849609375
1667825327460015000,6.20201513671875,-0.8341217041015625,0.1391448974609375,-0.6154022216796875
1667825327470022000,6.21202197265625,-0.82232666015625,0.1538848876953125,-0.62799072265625
1667825327480030000,6.222030029296875,-0.816314697265625,0.1776123046875,-0.65069580078125
1667825327490037000,6.232037109375,-0.811614990234375,0.2021026611328125,-0.6776885986328125
1667825327500045000,6.242045166015625,-0.80084228515625,0.216644287109375,-0.6981353759765625
1667825327510051800,6.2520517578125,-0.79022216796875,0.222808837890625,-0.7110748291015625
1667825327520060200,6.26206005859375,-0.7737884521484375,0.228118896484375,-0.7152099609375
1667825327530067000,6.27206689453125,-0.74346923828125,0.2265472412109375,-0.71270751953125
1667825327540075000,6.282074951171875,-0.704620361328125,0.2217864990234375,-0.7013092041015625
1667825327550082000,6.29208203125,-0.6632080078125,0.21295166015625,-0.6862640380859375
1667825327560090000,6.302090087890625,-0.632537841796875,0.2041778564453125,-0.682342529296875
1667825327570097000,6.312096923828125,-0.6071624755859375,0.2027740478515625,-0.6851348876953125
1667825327580108800,6.32210888671875,-0.581817626953125,0.1939544677734375,-0.6769256591796875
1667825327590115800,6.33211572265625,-0.5671539306640625,0.1678009033203125,-0.666534423828125
1667825327600124000,6.3421240234375,-0.566497802734375,0.139251708984375,-0.6645965576171875
1667825327610130700,6.352130615234375,-0.579681396484375,0.128631591796875,-0.6776275634765625
1667825327620139000,6.362138916015625,-0.5994415283203125,0.13714599609375,-0.689208984375
1667825327630145800,6.372145751953125,-0.6177520751953125,0.150115966796875,-0.6964263916015625
1667825327640153900,6.38215380859375,-0.6291046142578125,0.1601715087890625,-0.7048492431640625
1667825327650161000,6.392160888671875,-0.632537841796875,0.169586181640625,-0.71099853515625
1667825327660169000,6.4021689453125,-0.6366729736328125,0.1799163818359375,-0.7146148681640625
1667825327670176800,6.4121767578125,-0.6375732421875,0.18731689453125,-0.7090911865234375
1667825327680183800,6.422183837890625,-0.6450042724609375,0.183624267578125,-0.6930389404296875
1667825327690192000,6.43219189453125,-0.6599273681640625,0.1659393310546875,-0.669525146484375
1667825327700199000,6.442198974609375,-0.67279052734375,0.147613525390625,-0.641204833984375
1667825327710206700,6.452206787109375,-0.6904754638671875,0.140167236328125,-0.61724853515625
1667825327720214000,6.462214111328125,-0.70635986328125,0.1374053955078125,-0.6035003662109375
1667825327730221800,6.472221923828125,-0.7161407470703125,0.131744384765625,-0.5936431884765625
1667825327740228900,6.482228759765625,-0.7329254150390625,0.12109375,-0.59051513671875
1667825327750236700,6.492236572265625,-0.756500244140625,0.1083526611328125,-0.5874176025390625
1667825327760244000,6.502243896484375,-0.771728515625,0.096282958984375,-0.5845794677734375
1667825327770251800,6.512251708984375,-0.785308837890625,0.0909423828125,-0.5841827392578125
1667825327780258800,6.5222587890625,-0.8012542724609375,0.092376708984375,-0.5858612060546875
1667825327790267000,6.532266845703125,-0.8187103271484375,0.097320556640625,-0.58685302734375
1667825327800274000,6.54227392578125,-0.8320159912109375,0.1033477783203125,-0.5853118896484375
1667825327810281700,6.55228173828125,-0.84588623046875,0.107269287109375,-0.5848236083984375
1667825327820289000,6.5622890625,-0.859100341796875,0.1086273193359375,-0.5851593017578125
1667825327830296800,6.572296875,-0.8721160888671875,0.1132354736328125,-0.58642578125
1667825327840303900,6.582303955078125,-0.885894775390625,0.1172943115234375,-0.5816192626953125
1667825327850311700,6.592311767578125,-0.8909759521484375,0.1119537353515625,-0.5756072998046875
1667825327860319000,6.602319091796875,-0.89447021484375,0.097259521484375,-0.5702667236328125
1667825327870326800,6.612326904296875,-0.8916778564453125,0.088104248046875,-0.5607452392578125
1667825327880333800,6.622333740234375,-0.8881988525390625,0.0828704833984375,-0.56304931640625
1667825327890341600,6.632341552734375,-0.87774658203125,0.0844879150390625,-0.5675201416015625
1667825327900349000,6.642348876953125,-0.8630218505859375,0.089691162109375,-0.56048583984375
1667825327910356700,6.652356689453125,-0.84771728515625,0.086273193359375,-0.5469207763671875
1667825327920363800,6.66236376953125,-0.83587646484375,0.06976318359375,-0.540618896484375
1667825327930371800,6.672371826171875,-0.8216400146484375,0.0524139404296875,-0.5324859619140625
1667825327940379000,6.68237890625,-0.803558349609375,0.0372772216796875,-0.5301055908203125
1667825327950386700,6.69238671875,-0.7880401611328125,0.0254974365234375,-0.5321044921875
1667825327960394000,6.70239404296875,-0.7738189697265625,0.01983642578125,-0.5358428955078125
1667825327970401800,6.71240185546875,-0.760894775390625,0.008941650390625,-0.5465240478515625
1667825327980408800,6.722408935546875,-0.752655029296875,-0.002655029296875,-0.55364990234375
1667825327990416600,6.732416748046875,-0.7474822998046875,-0.01263427734375,-0.5489501953125
1667825328000424000,6.742423828125,-0.743316650390625,-0.0240020751953125,-0.5484161376953125
1667825328010431700,6.752431640625,-0.7490997314453125,-0.0345458984375,-0.549346923828125
1667825328020438800,6.762438720703125,-0.7574920654296875,-0.042694091796875,-0.552825927734375
1667825328030446800,6.77244677734375,-0.7728118896484375,-0.043548583984375,-0.5623626708984375
1667825328040454000,6.782453857421875,-0.7967376708984375,-0.0357666015625,-0.5748138427734375
1667825328050461700,6.792461669921875,-0.8236083984375,-0.022918701171875,-0.593841552734375
1667825328060469000,6.802468994140625,-0.866607666015625,-0.0009765625,-0.630706787109375
1667825328070476800,6.812476806640625,-0.921295166015625,0.0382080078125,-0.68939208984375
1667825328080483800,6.82248388671875,-0.974639892578125,0.1015777587890625,-0.762542724609375
1667825328090491600,6.83249169921875,-1.01568603515625,0.18212890625,-0.834686279296875
1667825328100499000,6.8424990234375,-1.037445068359375,0.25592041015625,-0.875885009765625
1667825328110506800,6.8525068359375,-1.0399932861328125,0.2940521240234375,-0.8832244873046875
1667825328120513800,6.862513671875,-1.030120849609375,0.2993011474609375,-0.86431884765625
1667825328130521900,6.87252197265625,-1.01348876953125,0.3023223876953125,-0.824676513671875
1667825328140528600,6.882528564453125,-0.9808807373046875,0.3093109130859375,-0.7758941650390625
1667825328150536700,6.89253662109375,-0.945526123046875,0.3131256103515625,-0.7235260009765625
1667825328160543700,6.902543701171875,-0.9183349609375,0.3114471435546875,-0.6930084228515625
1667825328170551800,6.9125517578125,-0.89599609375,0.309844970703125,-0.684783935546875
1667825328180558600,6.92255859375,-0.88134765625,0.3197479248046875,-0.6923370361328125
1667825328190566700,6.932566650390625,-0.8677825927734375,0.342041015625,-0.7125091552734375
1667825328200573700,6.94257373046875,-0.8573150634765625,0.3544921875,-0.732086181640625
1667825328210581800,6.952581787109375,-0.853118896484375,0.34088134765625,-0.73675537109375
1667825328220588800,6.9625888671875,-0.8541717529296875,0.3153076171875,-0.743194580078125
1667825328230596900,6.972596923828125,-0.843414306640625,0.3041534423828125,-0.76019287109375
1667825328240603600,6.982603759765625,-0.8168487548828125,0.31036376953125,-0.773651123046875
1667825328250611700,6.99261181640625,-0.77862548828125,0.3066253662109375,-0.7736663818359375
1667825328260618800,7.00261865234375,-0.74005126953125,0.277252197265625,-0.754547119140625
1667825328270626800,7.012626708984375,-0.709320068359375,0.2231292724609375,-0.734222412109375
1667825328280635000,7.022634765625,-0.686859130859375,0.1719970703125,-0.7209930419921875
1667825328290641700,7.0326416015625,-0.66644287109375,0.1339874267578125,-0.70294189453125
1667825328300648700,7.042648681640625,-0.6458587646484375,0.1024627685546875,-0.6846923828125
1667825328310656800,7.05265673828125,-0.6316070556640625,0.0775604248046875,-0.6652374267578125
1667825328320663800,7.062663818359375,-0.6207122802734375,0.0574493408203125,-0.63787841796875
1667825328330671900,7.072671875,-0.6067352294921875,0.040557861328125,-0.6125030517578125
1667825328340680000,7.082679931640625,-0.587738037109375,0.028778076171875,-0.5865325927734375
1667825328350686700,7.092686767578125,-0.57525634765625,0.0126495361328125,-0.557891845703125
1667825328360694800,7.10269482421875,-0.570404052734375,-0.0086669921875,-0.5254364013671875
1667825328370701800,7.112701904296875,-0.569732666015625,-0.0331268310546875,-0.497314453125
1667825328380710000,7.1227099609375,-0.57415771484375,-0.0517578125,-0.4853668212890625
1667825328390716700,7.132716552734375,-0.5828704833984375,-0.05950927734375,-0.4772186279296875
1667825328400725000,7.14272509765625,-0.5881195068359375,-0.0667266845703125,-0.466156005859375
1667825328410731800,7.152731689453125,-0.59564208984375,-0.0801544189453125,-0.4626007080078125
1667825328420739800,7.16273974609375,-0.6066131591796875,-0.0945281982421875,-0.4652557373046875
1667825328430747000,7.172746826171875,-0.61956787109375,-0.1008453369140625,-0.4709014892578125
1667825328440755000,7.1827548828125,-0.6361846923828125,-0.1007537841796875,-0.4825286865234375
1667825328450761700,7.19276171875,-0.65203857421875,-0.09307861328125,-0.491943359375
1667825328460769800,7.202769775390625,-0.664764404296875,-0.0860443115234375,-0.5005035400390625
1667825328470776800,7.21277685546875,-0.678802490234375,-0.0799713134765625,-0.5087738037109375
1667825328480785000,7.222784912109375,-0.6881103515625,-0.0717315673828125,-0.5121002197265625
1667825328490791700,7.232791748046875,-0.6940460205078125,-0.0610809326171875,-0.5094757080078125
1667825328500800000,7.242800048828125,-0.7032623291015625,-0.051910400390625,-0.5052642822265625
1667825328510806800,7.252806884765625,-0.716644287109375,-0.041748046875,-0.501190185546875
1667825328520814800,7.26281494140625,-0.7259979248046875,-0.0325775146484375,-0.51007080078125
1667825328530822000,7.27282177734375,-0.7355804443359375,-0.015625,-0.535186767578125
1667825328540830000,7.282829833984375,-0.7530059814453125,0.0035400390625,-0.5545654296875
1667825328550836700,7.292836669921875,-0.7722320556640625,0.0183868408203125,-0.572998046875
1667825328560844800,7.3028447265625,-0.790924072265625,0.0290069580078125,-0.5996246337890625
1667825328570851800,7.312851806640625,-0.8114013671875,0.0454254150390625,-0.6287078857421875
1667825328580856600,7.322856689453125,-0.831512451171875,0.0668792724609375,-0.65106201171875
1667825328590863600,7.332863525390625,-0.8467254638671875,0.08721923828125,-0.6807098388671875
1667825328600871700,7.34287158203125,-0.8635711669921875,0.1128997802734375,-0.71697998046875
1667825328610878700,7.352878662109375,-0.8727874755859375,0.139068603515625,-0.738677978515625
1667825328620886500,7.362886474609375,-0.8705291748046875,0.1585235595703125,-0.759368896484375
1667825328630893800,7.372893798828125,-0.8721923828125,0.1856536865234375,-0.7902069091796875
1667825328640901600,7.382901611328125,-0.879730224609375,0.23516845703125,-0.8292694091796875
1667825328650908700,7.39290869140625,-0.884307861328125,0.297271728515625,-0.853057861328125
1667825328660916500,7.40291650390625,-0.86956787109375,0.3377227783203125,-0.8596038818359375
1667825328670923800,7.412923828125,-0.850006103515625,0.3461456298828125,-0.8536224365234375
1667825328680931600,7.422931640625,-0.8239898681640625,0.331298828125,-0.828125
1667825328690938600,7.432938720703125,-0.7876129150390625,0.30743408203125,-0.7894134521484375
1667825328700946700,7.44294677734375,-0.7448883056640625,0.285797119140625,-0.753204345703125
1667825328710953700,7.45295361328125,-0.6985015869140625,0.272308349609375,-0.71441650390625
1667825328720961500,7.46296142578125,-0.6518707275390625,0.2542877197265625,-0.6762542724609375
1667825328730968800,7.47296875,-0.619781494140625,0.2234954833984375,-0.6495513916015625
1667825328740976600,7.4829765625,-0.60784912109375,0.1920623779296875,-0.6322784423828125
1667825328750983700,7.492983642578125,-0.6220855712890625,0.1709747314453125,-0.6315460205078125
1667825328760991500,7.502991455078125,-0.651947021484375,0.1700897216796875,-0.644134521484375
1667825328770998800,7.512998779296875,-0.6773529052734375,0.1800537109375,-0.6615142822265625
1667825328781006600,7.523006591796875,-0.6973419189453125,0.1880645751953125,-0.686798095703125
1667825328791013600,7.533013671875,-0.719696044921875,0.192474365234375,-0.7148590087890625
1667825328801021700,7.543021728515625,-0.744140625,0.20526123046875,-0.7330780029296875
1667825328811028700,7.55302880859375,-0.76824951171875,0.23529052734375,-0.749237060546875
1667825328821036500,7.56303662109375,-0.7744293212890625,0.2633209228515625,-0.7523651123046875
1667825328831043800,7.5730439453125,-0.7726593017578125,0.260101318359375,-0.7264556884765625
1667825328841051600,7.5830517578125,-0.787841796875,0.2408599853515625,-0.6954193115234375
1667825328851058700,7.59305859375,-0.7918701171875,0.2295074462890625,-0.6622314453125
1667825328861066500,7.60306640625,-0.7873382568359375,0.2235870361328125,-0.6233673095703125
1667825328871073800,7.61307373046875,-0.7768096923828125,0.209808349609375,-0.5765533447265625
1667825328881081600,7.62308154296875,-0.766448974609375,0.1838531494140625,-0.5343475341796875
1667825328891088600,7.633088623046875,-0.7584381103515625,0.154815673828125,-0.496002197265625
1667825328901096700,7.6430966796875,-0.752410888671875,0.1306915283203125,-0.4641571044921875
1667825328911103700,7.653103759765625,-0.7529754638671875,0.1144561767578125,-0.45123291015625
1667825328921111600,7.663111572265625,-0.7508544921875,0.1075897216796875,-0.4474945068359375
1667825328931118800,7.673118896484375,-0.7565460205078125,0.11016845703125,-0.44403076171875
1667825328941126700,7.683126708984375,-0.7597808837890625,0.1091156005859375,-0.4445953369140625
1667825328951133700,7.6931337890625,-0.76263427734375,0.0915679931640625,-0.4460296630859375
1667825328961141500,7.7031416015625,-0.7680816650390625,0.0694122314453125,-0.4420623779296875
1667825328971148800,7.713148681640625,-0.7817535400390625,0.0531463623046875,-0.4402923583984375
1667825328981156600,7.723156494140625,-0.78948974609375,0.04241943359375,-0.43817138671875
1667825328991163600,7.73316357421875,-0.794830322265625,0.0385284423828125,-0.446807861328125
1667825329001171700,7.743171630859375,-0.8043060302734375,0.040985107421875,-0.4635772705078125
1667825329011179800,7.7531796875,-0.809417724609375,0.0520172119140625,-0.48065185546875
1667825329021186600,7.7631865234375,-0.817535400390625,0.06524658203125,-0.4948883056640625
1667825329031194600,7.773194580078125,-0.82354736328125,0.0715484619140625,-0.503692626953125
1667825329041201700,7.78320166015625,-0.8264923095703125,0.071136474609375,-0.506378173828125
1667825329051209700,7.793209716796875,-0.8241119384765625,0.0636138916015625,-0.496063232421875
1667825329061216500,7.803216552734375,-0.814300537109375,0.0509796142578125,-0.48150634765625
1667825329071224600,7.813224609375,-0.8067169189453125,0.0406341552734375,-0.461578369140625
1667825329081231600,7.823231689453125,-0.7918548583984375,0.026519775390625,-0.4424896240234375
1667825329091239700,7.83323974609375,-0.7795562744140625,0.0149078369140625,-0.424041748046875
1667825329101246700,7.843246826171875,-0.7721099853515625,0.00946044921875,-0.415863037109375
1667825329111254800,7.8532548828125,-0.76788330078125,0.00274658203125,-0.413177490234375
1667825329121261600,7.863261474609375,-0.7686614990234375,-0.0047454833984375,-0.4153594970703125
1667825329131269600,7.87326953125,-0.7696533203125,-0.0107269287109375,-0.4252471923828125
1667825329141276700,7.883276611328125,-0.778289794921875,-0.0113983154296875,-0.441650390625
1667825329151284700,7.89328466796875,-0.787506103515625,-0.0147705078125,-0.4598541259765625
1667825329161291500,7.90329150390625,-0.803375244140625,-0.0179290771484375,-0.4801483154296875
1667825329171299600,7.913299560546875,-0.82244873046875,-0.009246826171875,-0.5095977783203125
1667825329181306600,7.923306640625,-0.844573974609375,0.0170440673828125,-0.54229736328125
1667825329191314700,7.933314697265625,-0.8668365478515625,0.049468994140625,-0.562530517578125
1667825329201321700,7.94332177734375,-0.8993072509765625,0.078857421875,-0.5830230712890625
1667825329211329800,7.953329833984375,-0.933013916015625,0.099578857421875,-0.60516357421875
1667825329221336600,7.963336669921875,-0.960784912109375,0.1185150146484375,-0.615631103515625
1667825329231344600,7.9733447265625,-0.987152099609375,0.14111328125,-0.6300811767578125
1667825329241351700,7.9833515625,-1.01092529296875,0.173553466796875,-0.6485443115234375
1667825329251359700,7.99335986328125,-1.0242919921875,0.212799072265625,-0.6627044677734375
1667825329261366500,8.003366455078124,-1.0288543701171875,0.2526092529296875,-0.6663970947265625
1667825329271374600,8.01337451171875,-1.0256195068359375,0.280975341796875,-0.66766357421875
1667825329281381600,8.023381591796875,-1.0157928466796875,0.3007965087890625,-0.66241455078125
1667825329291389700,8.0333896484375,-0.99285888671875,0.31768798828125,-0.6436004638671875
1667825329301396700,8.043396728515624,-0.95977783203125,0.32318115234375,-0.6178741455078125
1667825329311404800,8.05340478515625,-0.9263153076171875,0.3143157958984375,-0.584625244140625
1667825329321411600,8.06341162109375,-0.8948822021484375,0.2950592041015625,-0.5477142333984375
1667825329331419600,8.073419677734375,-0.87188720703125,0.2735595703125,-0.518768310546875
1667825329341426700,8.0834267578125,-0.861724853515625,0.26171875,-0.5159149169921875
1667825329351434800,8.093434814453126,-0.8601531982421875,0.2707061767578125,-0.5491180419921875
1667825329361441500,8.103441650390625,-0.8608856201171875,0.2889862060546875,-0.6023101806640625
1667825329371449600,8.11344970703125,-0.8640594482421875,0.3057098388671875,-0.6577606201171875
1667825329381456600,8.12345654296875,-0.87567138671875,0.316619873046875,-0.70831298828125
1667825329391464700,8.133464599609376,-0.8835601806640625,0.3233489990234375,-0.7626495361328125
1667825329401471500,8.143471435546875,-0.8857269287109375,0.3326873779296875,-0.8037261962890625
1667825329411479800,8.153479736328125,-0.878173828125,0.3404083251953125,-0.824859619140625
1667825329421486600,8.163486572265626,-0.8413543701171875,0.3345184326171875,-0.82147216796875
1667825329431494700,8.17349462890625,-0.7992706298828125,0.298828125,-0.8011627197265625
1667825329441501700,8.183501708984375,-0.769012451171875,0.2442169189453125,-0.76702880859375
1667825329451509800,8.193509765625,-0.7424163818359375,0.1910552978515625,-0.734375
1667825329461516500,8.2035166015625,-0.7137298583984375,0.1492462158203125,-0.71624755859375
1667825329471524600,8.213524658203125,-0.6873931884765625,0.1212158203125,-0.694854736328125
1667825329481531600,8.22353173828125,-0.6623077392578125,0.095458984375,-0.674713134765625
1667825329491539700,8.233539794921874,-0.644866943359375,0.069244384765625,-0.6612396240234375
1667825329501546500,8.24354638671875,-0.6376800537109375,0.04559326171875,-0.6465301513671875
1667825329511554800,8.253554931640625,-0.6317138671875,0.0254058837890625,-0.6193389892578125
1667825329521561600,8.2635615234375,-0.6280059814453125,0.004547119140625,-0.5969085693359375
1667825329531569700,8.273569580078124,-0.627899169921875,-0.0033721923828125,-0.5824127197265625
1667825329541577500,8.283577392578126,-0.6233367919921875,-0.0030670166015625,-0.5710601806640625
1667825329551584800,8.293584716796875,-0.619354248046875,-0.007598876953125,-0.5591278076171875
1667825329561591600,8.303591552734375,-0.62945556640625,-0.0249176025390625,-0.5557861328125
1667825329571599600,8.313599609375,-0.6476593017578125,-0.039886474609375,-0.5598602294921875
1667825329581608000,8.32360791015625,-0.6668853759765625,-0.0476531982421875,-0.5605316162109375
1667825329591614700,8.33361474609375,-0.687713623046875,-0.051177978515625,-0.56658935546875
1667825329601622800,8.343622802734375,-0.7035064697265625,-0.0466156005859375,-0.574859619140625
1667825329611629800,8.3536298828125,-0.71038818359375,-0.028900146484375,-0.5840911865234375
1667825329621638000,8.363637939453126,-0.7255706787109375,-0.006744384765625,-0.5924072265625
1667825329631644700,8.373644775390625,-0.73956298828125,0.011962890625,-0.595794677734375
1667825329641652700,8.38365283203125,-0.7486419677734375,0.0287933349609375,-0.5959625244140625
1667825329651659800,8.39365966796875,-0.758758544921875,0.0428314208984375,-0.5945281982421875
1667825329661667800,8.403667724609376,-0.76947021484375,0.0536651611328125,-0.5979156494140625
1667825329671674600,8.413674560546875,-0.7821807861328125,0.0615997314453125,-0.59613037109375
1667825329681683000,8.423682861328125,-0.7919769287109375,0.0680999755859375,-0.6018524169921875
1667825329691689700,8.433689697265624,-0.7979278564453125,0.07586669921875,-0.610443115234375
1667825329701697800,8.44369775390625,-0.8011474609375,0.08245849609375,-0.6198577880859375
1667825329711704800,8.453704833984375,-0.8048858642578125,0.08819580078125,-0.6320953369140625
1667825329721713000,8.463712890625,-0.8082122802734375,0.0970916748046875,-0.6479949951171875
1667825329731719700,8.4737197265625,-0.806640625,0.107452392578125,-0.6628875732421875
1667825329741727700,8.483727783203125,-0.8001556396484375,0.112213134765625,-0.66729736328125
1667825329751734800,8.49373486328125,-0.7918548583984375,0.1080322265625,-0.6669464111328125
1667825329761742800,8.503742919921875,-0.7888031005859375,0.1002044677734375,-0.668304443359375
1667825329771749600,8.51374951171875,-0.7856597900390625,0.09576416015625,-0.6671905517578125
1667825329781758000,8.523758056640625,-0.7837066650390625,0.1036834716796875,-0.6744537353515625
1667825329791764700,8.5337646484375,-0.7822113037109375,0.12469482421875,-0.6943206787109375
1667825329801772800,8.543772705078124,-0.7825164794921875,0.1486663818359375,-0.7208251953125
1667825329811779800,8.55377978515625,-0.7845611572265625,0.1689453125,-0.739044189453125
1667825329821788000,8.563787841796875,-0.7850341796875,0.180572509765625,-0.7514495849609375
1667825329831794700,8.573794677734375,-0.7742156982421875,0.19140625,-0.7612762451171875
1667825329841802800,8.583802734375,-0.755767822265625,0.21044921875,-0.7588653564453125
1667825329851809800,8.593809814453126,-0.7342376708984375,0.2299041748046875,-0.7406463623046875
1667825329861817900,8.60381787109375,-0.69989013671875,0.2310791015625,-0.7126312255859375
1667825329871824600,8.61382470703125,-0.6650848388671875,0.2155609130859375,-0.681640625
1667825329881833000,8.6238330078125,-0.6383056640625,0.2033538818359375,-0.64288330078125
1667825329891839700,8.63383984375,-0.6078338623046875,0.1969757080078125,-0.619171142578125
1667825329901847800,8.643847900390625,-0.5706787109375,0.1945953369140625,-0.6085205078125
1667825329911854800,8.653854736328125,-0.5403289794921875,0.1925048828125,-0.6044158935546875
1667825329921863000,8.66386279296875,-0.522918701171875,0.1820526123046875,-0.5972442626953125
1667825329931869700,8.67386962890625,-0.5255889892578125,0.1625823974609375,-0.591461181640625
1667825329941877800,8.683877685546875,-0.5438995361328125,0.1447906494140625,-0.5962371826171875
1667825329951884800,8.693884765625,-0.5735626220703125,0.1404876708984375,-0.6055145263671875
1667825329961892900,8.703892822265624,-0.6055755615234375,0.1490020751953125,-0.6258087158203125
1667825329971899600,8.713899658203125,-0.6368865966796875,0.1679534912109375,-0.6541290283203125
1667825329981908000,8.723907958984375,-0.66845703125,0.1927490234375,-0.6981353759765625
1667825329991914800,8.733914794921875,-0.7018585205078125,0.237060546875,-0.74383544921875
1667825330001922800,8.7439228515625,-0.7254638671875,0.2866973876953125,-0.7656707763671875
1667825330011929900,8.753929931640625,-0.74383544921875,0.3142547607421875,-0.764556884765625
1667825330021938000,8.76393798828125,-0.7619781494140625,0.3088836669921875,-0.7518310546875
1667825330031944700,8.77394482421875,-0.7702789306640625,0.2821197509765625,-0.728240966796875
1667825330041952800,8.783952880859376,-0.769989013671875,0.2621612548828125,-0.6970367431640625
1667825330051959800,8.793959716796875,-0.7629241943359375,0.2576141357421875,-0.661102294921875
1667825330061968000,8.8039677734375,-0.756805419921875,0.2500762939453125,-0.6207275390625
1667825330071974700,8.813974609375,-0.7472991943359375,0.22943115234375,-0.5835723876953125
1667825330081983000,8.82398291015625,-0.74090576171875,0.199310302734375,-0.5509033203125
1667825330091989800,8.83398974609375,-0.7374267578125,0.1699981689453125,-0.52227783203125
1667825330101997800,8.843997802734375,-0.7376556396484375,0.14874267578125,-0.5023040771484375
1667825330112004900,8.8540048828125,-0.7380218505859375,0.1379241943359375,-0.4862213134765625
1667825330122013000,8.864012939453126,-0.744354248046875,0.1344757080078125,-0.4841156005859375
1667825330132019700,8.874019775390625,-0.752593994140625,0.1262359619140625,-0.4820709228515625
1667825330142027800,8.88402783203125,-0.7591400146484375,0.1087646484375,-0.48046875
1667825330152034800,8.894034912109374,-0.76995849609375,0.0927734375,-0.4792938232421875
1667825330162043000,8.90404296875,-0.784088134765625,0.0818634033203125,-0.4812469482421875
1667825330172049700,8.914049560546875,-0.79736328125,0.0798797607421875,-0.4848785400390625
1667825330182058000,8.92405810546875,-0.8058624267578125,0.0831298828125,-0.487091064453125
1667825330192064800,8.934064697265624,-0.817596435546875,0.0877685546875,-0.491943359375
1667825330202072800,8.94407275390625,-0.8276214599609375,0.0920562744140625,-0.503021240234375
1667825330212079900,8.954079833984375,-0.8307647705078125,0.095611572265625,-0.50921630859375
1667825330222088000,8.964087890625,-0.8279266357421875,0.094024658203125,-0.50640869140625
1667825330232094700,8.9740947265625,-0.8213653564453125,0.0930023193359375,-0.50006103515625
1667825330242102800,8.984102783203125,-0.8115692138671875,0.08892822265625,-0.488677978515625
1667825330252109800,8.99410986328125,-0.7940216064453125,0.0788421630859375,-0.467010498046875
1667825330262118000,9.004117919921875,-0.7744598388671875,0.0652008056640625,-0.4424285888671875
1667825330272124700,9.014124755859376,-0.752044677734375,0.0500946044921875,-0.4246978759765625
1667825330282132700,9.0241328125,-0.73577880859375,0.0459136962890625,-0.4181671142578125
1667825330292139800,9.034139892578125,-0.724365234375,0.042938232421875,-0.418853759765625
1667825330302147800,9.04414794921875,-0.71893310546875,0.0278472900390625,-0.4162445068359375
1667825330312155000,9.05415478515625,-0.727996826171875,0.0072174072265625,-0.423431396484375
1667825330322163000,9.064162841796875,-0.74615478515625,-0.0037994384765625,-0.4373321533203125
1667825330332170800,9.074170654296875,-0.7677459716796875,-0.007354736328125,-0.454193115234375
1667825330342177800,9.084177734375,-0.7960205078125,-0.007080078125,-0.48931884765625
1667825330352184800,9.094184814453126,-0.832550048828125,0.0026092529296875,-0.5295867919921875
1667825330362193000,9.10419287109375,-0.873870849609375,0.0264129638671875,-0.572174072265625
1667825330372200700,9.11420068359375,-0.9154815673828125,0.06683349609375,-0.612274169921875
1667825330382207700,9.124207763671874,-0.9495391845703125,0.1160430908203125,-0.65814208984375
1667825330392215800,9.1342158203125,-0.97198486328125,0.17230224609375,-0.701385498046875
1667825330402222800,9.144222900390625,-0.975250244140625,0.2229156494140625,-0.71466064453125
1667825330412230700,9.154230712890625,-0.966094970703125,0.2435455322265625,-0.6974639892578125
1667825330422238000,9.164238037109374,-0.9697113037109375,0.237152099609375,-0.6703643798828125
1667825330432245800,9.174245849609376,-0.9730224609375,0.2388916015625,-0.6369476318359375
1667825330442252800,9.184252685546875,-0.9696197509765625,0.2497406005859375,-0.61279296875
1667825330452260600,9.194260498046875,-0.9772491455078125,0.2655029296875,-0.6045074462890625
1667825330462267600,9.204267578125,-0.994598388671875,0.2906646728515625,-0.6076507568359375
1667825330472275700,9.214275634765626,-1.0003204345703125,0.3196868896484375,-0.6275177001953125
1667825330482282800,9.22428271484375,-0.9993133544921875,0.3531494140625,-0.662628173828125
1667825330492290800,9.234290771484375,-0.9999847412109375,0.3894805908203125,-0.7008056640625
1667825330502297600,9.244297607421874,-0.996826171875,0.4212493896484375,-0.73345947265625
1667825330512305700,9.2543056640625,-0.983367919921875,0.4276123046875,-0.75537109375
1667825330522312700,9.264312744140625,-0.968536376953125,0.415496826171875,-0.7685699462890625
1667825330532320800,9.27432080078125,-0.9407958984375,0.3979339599609375,-0.779754638671875
1667825330542327600,9.28432763671875,-0.897186279296875,0.37811279296875,-0.78680419921875
1667825330552335600,9.294335693359375,-0.853057861328125,0.3559417724609375,-0.7917022705078125
1667825330562342700,9.3043427734375,-0.8221588134765625,0.328155517578125,-0.8044281005859375
1667825330572350700,9.314350830078125,-0.7983856201171875,0.2856597900390625,-0.840850830078125
1667825330582357500,9.324357421875,-0.7747039794921875,0.246673583984375,-0.8665771484375
1667825330592365300,9.334365234375,-0.7539520263671875,0.2187042236328125,-0.865570068359375
1667825330602372400,9.344372314453125,-0.73828125,0.1958770751953125,-0.859649658203125
1667825330612380200,9.354380126953124,-0.7201690673828125,0.17864990234375,-0.8462982177734375
1667825330622387500,9.364387451171876,-0.6888580322265625,0.1595306396484375,-0.8213043212890625
1667825330632395300,9.374395263671875,-0.6573486328125,0.1432952880859375,-0.7744598388671875
1667825330642402300,9.38440234375,-0.6375885009765625,0.12469482421875,-0.71466064453125
1667825330652410400,9.394410400390624,-0.6238861083984375,0.0995635986328125,-0.6455078125
1667825330662417400,9.40441748046875,-0.61505126953125,0.0667877197265625,-0.5906829833984375
1667825330672425200,9.41442529296875,-0.6201629638671875,0.0374908447265625,-0.5499725341796875
1667825330682432500,9.4244326171875,-0.6186370849609375,0.0252227783203125,-0.51171875
1667825330692440300,9.4344404296875,-0.616485595703125,0.01043701171875,-0.48114013671875
1667825330702447400,9.444447265625,-0.6265106201171875,0.000640869140625,-0.4567108154296875
1667825330712455200,9.454455078125,-0.6380767822265625,-0.008453369140625,-0.44451904296875
1667825330722462500,9.46446240234375,-0.6491851806640625,-0.0172119140625,-0.4469146728515625
1667825330732470300,9.47447021484375,-0.66656494140625,-0.0181884765625,-0.4586639404296875
1667825330742477300,9.484477294921875,-0.6815948486328125,-0.0126495361328125,-0.4610595703125
1667825330752485400,9.4944853515625,-0.6923065185546875,-0.0103607177734375,-0.4630279541015625
1667825330762492400,9.504492431640625,-0.703369140625,-0.01263427734375,-0.4720306396484375
1667825330772500200,9.514500244140624,-0.7123870849609375,-0.009613037109375,-0.4887847900390625
1667825330782507500,9.524507568359375,-0.71429443359375,0.0023956298828125,-0.5035400390625
1667825330792515300,9.534515380859375,-0.7183990478515625,0.0141143798828125,-0.524200439453125
1667825330802522400,9.5445224609375,-0.73260498046875,0.031585693359375,-0.5624542236328125
1667825330812530200,9.5545302734375,-0.7586822509765625,0.062469482421875,-0.605377197265625
1667825330822538500,9.56453857421875,-0.795013427734375,0.0976409912109375,-0.639862060546875
1667825330832545300,9.574545166015625,-0.8134002685546875,0.1239013671875,-0.665252685546875
1667825330842552300,9.58455224609375,-0.8227081298828125,0.1427001953125,-0.6794281005859375
1667825330852560400,9.594560302734376,-0.8349456787109375,0.153045654296875,-0.68792724609375
1667825330862568400,9.604568359375,-0.8378753662109375,0.1637725830078125,-0.693084716796875
1667825330872575200,9.6145751953125,-0.8305206298828125,0.1818084716796875,-0.6975250244140625
1667825330882583300,9.624583251953124,-0.820953369140625,0.207794189453125,-0.71063232421875
1667825330892590300,9.63459033203125,-0.812347412109375,0.241058349609375,-0.720977783203125
1667825330902598400,9.644598388671875,-0.8040924072265625,0.2665863037109375,-0.7314605712890625
1667825330912605200,9.654605224609375,-0.7874603271484375,0.280517578125,-0.7400970458984375
1667825330922613500,9.664613525390624,-0.7674713134765625,0.2881622314453125,-0.7476806640625
1667825330932620300,9.674620361328126,-0.746734619140625,0.2944488525390625,-0.7528839111328125
1667825330942628400,9.68462841796875,-0.716278076171875,0.3006744384765625,-0.7506866455078125
1667825330952635400,9.694635498046875,-0.685638427734375,0.301422119140625,-0.7474822998046875
1667825330962643500,9.7046435546875,-0.656707763671875,0.300567626953125,-0.7395782470703125
1667825330972650200,9.714650146484376,-0.6248626708984375,0.2988433837890625,-0.725067138671875
1667825330982658300,9.724658203125,-0.587127685546875,0.2943572998046875,-0.7056427001953125
1667825330992665300,9.734665283203125,-0.5573883056640625,0.2837982177734375,-0.6863861083984375
1667825331002673400,9.74467333984375,-0.5442352294921875,0.265838623046875,-0.6680755615234375
1667825331012680200,9.75468017578125,-0.543975830078125,0.24554443359375,-0.6565093994140625
1667825331022688500,9.7646884765625,-0.5582122802734375,0.23760986328125,-0.65814208984375
1667825331032695300,9.7746953125,-0.5767059326171875,0.24237060546875,-0.661224365234375
1667825331042703400,9.784703369140624,-0.598480224609375,0.2515716552734375,-0.660186767578125
1667825331052710400,9.79471044921875,-0.6213531494140625,0.2574005126953125,-0.6663970947265625
1667825331062718500,9.804718505859375,-0.6435089111328125,0.26373291015625,-0.686248779296875
1667825331072725200,9.814725341796875,-0.6563720703125,0.2772064208984375,-0.7043914794921875
1667825331082733300,9.8247333984375,-0.661468505859375,0.2859954833984375,-0.7059478759765625
1667825331092740400,9.834740234375,-0.6800537109375,0.28271484375,-0.6960296630859375
1667825331102748400,9.84474853515625,-0.7030487060546875,0.267669677734375,-0.6864166259765625
1667825331112755200,9.854755126953124,-0.721649169921875,0.2554931640625,-0.674591064453125
1667825331122763500,9.864763427734376,-0.7350616455078125,0.254241943359375,-0.6625213623046875
1667825331132770300,9.874770263671875,-0.7421875,0.259521484375,-0.650634765625
1667825331142778400,9.8847783203125,-0.7580718994140625,0.254791259765625,-0.6341400146484375
1667825331152785400,9.894785400390624,-0.776885986328125,0.2333984375,-0.615509033203125
1667825331162793500,9.90479345703125,-0.7935791015625,0.203887939453125,-0.596466064453125
1667825331172800300,9.91480029296875,-0.8115386962890625,0.1808319091796875,-0.5839996337890625
1667825331182808300,9.924808349609375,-0.820220947265625,0.1688690185546875,-0.5801239013671875
1667825331192815400,9.9348154296875,-0.82470703125,0.167877197265625,-0.576751708984375
1667825331202823400,9.944823486328126,-0.8282928466796875,0.1659088134765625,-0.5642852783203125
1667825331212830200,9.954830322265625,-0.8312225341796875,0.1581878662109375,-0.5551300048828125
1667825331222838500,9.964838623046875,-0.8371124267578125,0.150360107421875,-0.551483154296875
1667825331232845300,9.97484521484375,-0.843353271484375,0.1453399658203125,-0.550018310546875
1667825331242853400,9.984853271484376,-0.8472747802734375,0.141326904296875,-0.5525360107421875
1667825331252860400,9.9948603515625,-0.8463897705078125,0.1392822265625,-0.5579833984375
1667825331262868500,10.004868408203125,-0.8441009521484375,0.138885498046875,-0.56182861328125
1667825331272876300,10.014876220703124,-0.844879150390625,0.1326904296875,-0.5640869140625
1667825331282883300,10.02488330078125,-0.8354644775390625,0.11492919921875,-0.5621490478515625
1667825331292891100,10.03489111328125,-0.82537841796875,0.0973052978515625,-0.5527191162109375
1667825331302898400,10.0448984375,-0.8132781982421875,0.0858001708984375,-0.53961181640625
1667825331312906200,10.05490625,-0.7952117919921875,0.0773468017578125,-0.5210418701171875
1667825331322913500,10.06491357421875,-0.7702789306640625,0.06658935546875,-0.4994659423828125
1667825331332921300,10.07492138671875,-0.7430419921875,0.0494232177734375,-0.473907470703125
1667825331342928400,10.084928466796875,-0.7260589599609375,0.031463623046875,-0.4514312744140625
1667825331352936200,10.094936279296874,-0.7188568115234375,0.010406494140625,-0.430450439453125
1667825331362943500,10.104943603515625,-0.713531494140625,-0.0123138427734375,-0.4176788330078125
1667825331372951300,10.114951416015625,-0.714141845703125,-0.032379150390625,-0.41326904296875
1667825331382958300,10.124958251953124,-0.724334716796875,-0.04718017578125,-0.4280853271484375
1667825331392966100,10.134966064453126,-0.7356109619140625,-0.0553436279296875,-0.4466094970703125
1667825331402973400,10.144973388671875,-0.759674072265625,-0.0561981201171875,-0.4840240478515625
1667825331412981200,10.154981201171875,-0.8214874267578125,-0.038665771484375,-0.5540924072265625
1667825331422988300,10.16498828125,-0.89739990234375,0.001556396484375,-0.650604248046875
1667825331432996400,10.174996337890626,-0.951751708984375,0.067535400390625,-0.7392425537109375
1667825331443003400,10.18500341796875,-0.988494873046875,0.1505126953125,-0.8265533447265625
1667825331453011200,10.19501123046875,-1.006103515625,0.24945068359375,-0.9020233154296875
1667825331463018500,10.2050185546875,-0.9945831298828125,0.3312835693359375,-0.9231719970703125
1667825331473026300,10.2150263671875,-0.9813232421875,0.3531036376953125,-0.90386962890625
1667825331483033300,10.225033447265625,-0.9803009033203125,0.34759521484375,-0.861053466796875
1667825331493041200,10.235041259765625,-0.965179443359375,0.3485260009765625,-0.8017120361328125
1667825331503048400,10.24504833984375,-0.94110107421875,0.3487091064453125,-0.7244720458984375
1667825331513056300,10.25505615234375,-0.9207000732421875,0.355712890625,-0.6530914306640625
1667825331523063300,10.265063232421875,-0.897705078125,0.3731842041015625,-0.599822998046875
1667825331533071400,10.2750712890625,-0.8624420166015625,0.3924102783203125,-0.5571746826171875
1667825331543078400,10.285078369140624,-0.825469970703125,0.4002838134765625,-0.52783203125
1667825331553086200,10.295086181640626,-0.7953033447265625,0.3874969482421875,-0.5169830322265625
1667825331563093500,10.305093505859375,-0.7612762451171875,0.3630218505859375,-0.5334930419921875
1667825331573101300,10.315101318359375,-0.7251739501953125,0.3292083740234375,-0.59429931640625
1667825331583108600,10.325108642578124,-0.701934814453125,0.2908172607421875,-0.69580078125
1667825331593116700,10.33511669921875,-0.6995086669921875,0.2675018310546875,-0.7799072265625
1667825331603123700,10.345123779296875,-0.712799072265625,0.248687744140625,-0.84844970703125
1667825331613131800,10.3551318359375,-0.7528076171875,0.2351531982421875,-0.9511260986328125
1667825331623138600,10.365138671875,-0.8309326171875,0.252197265625,-1.0714263916015625
1667825331633147000,10.37514697265625,-0.89288330078125,0.2926025390625,-1.149871826171875
1667825331643153700,10.385153564453125,-0.8909912109375,0.321685791015625,-1.1709136962890625
1667825331653161700,10.39516162109375,-0.8585662841796875,0.325592041015625,-1.164703369140625
1667825331663168800,10.405168701171876,-0.830047607421875,0.3037872314453125,-1.1417999267578125
1667825331673176800,10.4151767578125,-0.8092193603515625,0.27813720703125,-1.075927734375
1667825331683185000,10.425184814453125,-0.7747344970703125,0.238983154296875,-1.0027923583984375
1667825331693191700,10.435191650390625,-0.738433837890625,0.190521240234375,-0.921600341796875
1667825331703199700,10.44519970703125,-0.7215423583984375,0.148712158203125,-0.8325958251953125
1667825331713206800,10.455206787109375,-0.688323974609375,0.1212615966796875,-0.730499267578125
1667825331723214800,10.46521484375,-0.647735595703125,0.0863494873046875,-0.6462249755859375
1667825331733222000,10.475221923828125,-0.6195068359375,0.0416717529296875,-0.5970001220703125
1667825331743230000,10.48522998046875,-0.58673095703125,0.007659912109375,-0.5576171875
1667825331753236700,10.49523681640625,-0.5604705810546875,-0.0131988525390625,-0.5333709716796875
1667825331763244800,10.505244873046875,-0.5441131591796875,-0.0215301513671875,-0.5145721435546875
1667825331773251800,10.515251953125,-0.5403289794921875,-0.0159912109375,-0.498077392578125
1667825331783260000,10.525260009765624,-0.557403564453125,0.0033111572265625,-0.4931640625
1667825331793266700,10.5352666015625,-0.5691680908203125,0.0281829833984375,-0.5035858154296875
1667825331803274800,10.545274658203125,-0.5720672607421875,0.03973388671875,-0.51739501953125
1667825331813281800,10.55528173828125,-0.5748138427734375,0.040496826171875,-0.5225067138671875
1667825331823289900,10.565289794921876,-0.5767059326171875,0.034912109375,-0.519287109375
1667825331833297000,10.575296875,-0.582550048828125,0.0184783935546875,-0.52545166015625
1667825331843305000,10.585304931640625,-0.593292236328125,-0.0000457763671875,-0.540496826171875
1667825331853311700,10.595311767578124,-0.603790283203125,-0.0093994140625,-0.5594635009765625
1667825331863319800,10.60531982421875,-0.614288330078125,-0.004791259765625,-0.5831146240234375
1667825331873326800,10.615326904296875,-0.62579345703125,0.0147857666015625,-0.5995941162109375
1667825331883334700,10.625334716796875,-0.6346282958984375,0.040130615234375,-0.6042327880859375
1667825331893341700,10.635341796875,-0.644805908203125,0.0594482421875,-0.60601806640625
1667825331903349800,10.645349853515626,-0.6529388427734375,0.0664825439453125,-0.6092376708984375
1667825331913356800,10.655356689453125,-0.6589508056640625,0.0612640380859375,-0.6180267333984375
1667825331923364600,10.665364501953125,-0.66595458984375,0.051177978515625,-0.631134033203125
1667825331933372000,10.675371826171874,-0.6767730712890625,0.0522918701171875,-0.6468505859375
1667825331943379700,10.685379638671876,-0.6936492919921875,0.069122314453125,-0.6588897705078125
1667825331953386800,10.69538671875,-0.7108001708984375,0.0934906005859375,-0.6646728515625
1667825331963394600,10.70539453125,-0.7275848388671875,0.1108551025390625,-0.6757354736328125
1667825331973401900,10.71540185546875,-0.7404632568359375,0.1161956787109375,-0.6992950439453125
1667825331983409700,10.72540966796875,-0.7560577392578125,0.1214141845703125,-0.7234649658203125
1667825331993416700,10.735416748046875,-0.776397705078125,0.13360595703125,-0.74224853515625
1667825332003424800,10.7454248046875,-0.79522705078125,0.146240234375,-0.7509918212890625
1667825332013431800,10.755431884765626,-0.8065338134765625,0.1552581787109375,-0.7583465576171875
1667825332023439600,10.765439697265625,-0.8144073486328125,0.1701812744140625,-0.7770233154296875
1667825332033447000,10.775447021484375,-0.81402587890625,0.1953887939453125,-0.800323486328125
1667825332043454700,10.785454833984375,-0.80487060546875,0.23004150390625,-0.8090057373046875
1667825332053461800,10.795461669921876,-0.7925872802734375,0.2593994140625,-0.79779052734375
1667825332063469600,10.805469482421875,-0.76556396484375,0.2705078125,-0.7757720947265625
1667825332073477600,10.8154775390625,-0.7290496826171875,0.273101806640625,-0.748687744140625
1667825332083484700,10.825484619140624,-0.690521240234375,0.2673797607421875,-0.7048797607421875
1667825332093492700,10.83549267578125,-0.652130126953125,0.248321533203125,-0.66156005859375
1667825332103499800,10.845499755859375,-0.62005615234375,0.2243499755859375,-0.6236114501953125
1667825332113507800,10.8555078125,-0.5919036865234375,0.2034759521484375,-0.59625244140625
1667825332123514600,10.8655146484375,-0.577606201171875,0.1897735595703125,-0.59149169921875
1667825332133522700,10.875522705078126,-0.577911376953125,0.184234619140625,-0.5935516357421875
1667825332143529700,10.88552978515625,-0.594085693359375,0.1777496337890625,-0.5861968994140625
1667825332153537800,10.895537841796875,-0.629791259765625,0.15716552734375,-0.57379150390625
1667825332163544600,10.905544677734374,-0.6815643310546875,0.1225433349609375,-0.5584869384765625
1667825332173552600,10.915552734375,-0.7186737060546875,0.0844268798828125,-0.54901123046875
1667825332183559700,10.9255595703125,-0.7442169189453125,0.05517578125,-0.5550079345703125
1667825332193567700,10.935567626953125,-0.768951416015625,0.0382232666015625,-0.55145263671875
1667825332203574800,10.94557470703125,-0.7931365966796875,0.03253173828125,-0.5454559326171875
1667825332213582800,10.955582763671876,-0.80352783203125,0.0263214111328125,-0.5383148193359375
1667825332223589600,10.965589599609375,-0.8122406005859375,0.020263671875,-0.5342254638671875
1667825332233597700,10.97559765625,-0.828216552734375,0.0212860107421875,-0.530120849609375
1667825332243604700,10.985604736328124,-0.85675048828125,0.0267333984375,-0.526519775390625
1667825332253612800,10.99561279296875,-0.8880615234375,0.03680419921875,-0.5274810791015625
1667825332263619600,11.00561962890625,-0.9109954833984375,0.0585174560546875,-0.5368194580078125
1667825332273627600,11.015627685546875,-0.939453125,0.097412109375,-0.5447845458984375
1667825332283634700,11.025634765625,-0.96429443359375,0.1374969482421875,-0.5576934814453125
1667825332293642800,11.035642822265626,-0.9910736083984375,0.1621551513671875,-0.57098388671875
1667825332303649500,11.0456494140625,-1.009552001953125,0.16973876953125,-0.5674896240234375
1667825332313657900,11.055657958984375,-1.0168914794921875,0.1634979248046875,-0.55078125
1667825332323664600,11.06566455078125,-1.0279388427734375,0.1484527587890625,-0.5316619873046875
1667825332333672700,11.075672607421875,-1.029754638671875,0.13421630859375,-0.5080108642578125
1667825332343679700,11.0856796875,-1.0136566162109375,0.130157470703125,-0.480712890625
1667825332353687800,11.095687744140625,-0.99554443359375,0.130157470703125,-0.458770751953125
1667825332363694600,11.105694580078126,-0.980316162109375,0.126708984375,-0.4427947998046875
1667825332373702700,11.11570263671875,-0.9657135009765625,0.1189422607421875,-0.4351043701171875
1667825332383709700,11.125709716796875,-0.948394775390625,0.1091461181640625,-0.4365386962890625
1667825332393717800,11.1357177734375,-0.923431396484375,0.099273681640625,-0.4493255615234375
1667825332403724500,11.145724609375,-0.9040069580078125,0.0896148681640625,-0.450836181640625
1667825332413732900,11.15573291015625,-0.8821563720703125,0.078857421875,-0.4384918212890625
1667825332423739600,11.16573974609375,-0.8546295166015625,0.0695648193359375,-0.414886474609375
1667825332433747700,11.175747802734374,-0.8255462646484375,0.059722900390625,-0.3839111328125
1667825332443754800,11.185754638671876,-0.8035736083984375,0.0402984619140625,-0.3486785888671875
1667825332453762800,11.1957626953125,-0.78485107421875,0.011962890625,-0.326263427734375
1667825332463769600,11.20576953125,-0.764739990234375,-0.0069122314453125,-0.3031768798828125
1667825332473777700,11.215777587890624,-0.75341796875,-0.0077667236328125,-0.276702880859375
1667825332483784700,11.22578466796875,-0.7474517822265625,0.0110321044921875,-0.2683258056640625
1667825332493792800,11.235792724609375,-0.743896484375,0.0889892578125,-0.2934722900390625
1667825332503799600,11.245799560546875,-0.7835540771484375,0.1028594970703125,-0.316925048828125
1667825332513808000,11.255807861328124,-0.8290252685546875,0.00347900390625,-0.2885589599609375
1667825332523814700,11.265814697265625,-0.869720458984375,-0.06866455078125,-0.23065185546875
1667825332533822700,11.27582275390625,-0.90582275390625,-0.05694580078125,-0.18408203125
1667825332543830800,11.285830810546875,-0.949310302734375,-0.0041046142578125,-0.1905059814453125
1667825332553837800,11.295837890625,-0.984588623046875,0.0048675537109375,-0.2433319091796875
1667825332563846000,11.305845947265626,-1.006927490234375,-0.013519287109375,-0.3276824951171875
1667825332573852700,11.315852783203125,-0.9835968017578125,-0.0424652099609375,-0.37884521484375
1667825332583861000,11.325861083984375,-1.047515869140625,-0.0470123291015625,-0.415130615234375
1667825332593868000,11.335867919921874,-1.118865966796875,0.042510986328125,-0.479766845703125
1667825332603875800,11.345875732421876,-1.1061859130859375,0.161590576171875,-0.5543975830078125
1667825332613883100,11.355883056640625,-1.1402130126953125,0.34332275390625,-0.5594024658203125
1667825332623891000,11.365890869140625,-1.1593780517578125,0.5157012939453125,-0.4683685302734375
1667825332633898000,11.37589794921875,-1.0840301513671875,0.56634521484375,-0.415679931640625
1667825332643905800,11.38590576171875,-1.02984619140625,0.5029144287109375,-0.4192962646484375
1667825332653913000,11.3959130859375,-1.1091766357421875,0.3707427978515625,-0.385162353515625
1667825332663921000,11.4059208984375,-1.2270660400390625,0.230072021484375,-0.319549560546875
1667825332673928000,11.415927978515626,-1.3065948486328125,0.137603759765625,-0.2736663818359375
1667825332683936000,11.42593603515625,-1.3496856689453125,0.127899169921875,-0.2668304443359375
1667825332693943000,11.435943115234375,-1.3704376220703125,0.1725311279296875,-0.303375244140625
1667825332703950800,11.445950927734375,-1.367889404296875,0.204345703125,-0.373809814453125
1667825332713958100,11.455958251953126,-1.3223724365234375,0.1922454833984375,-0.44256591796875
1667825332723966000,11.465966064453125,-1.311492919921875,0.16021728515625,-0.4870147705078125
1667825332733973000,11.475972900390625,-1.3073577880859375,0.1247100830078125,-0.4959869384765625
1667825332743980800,11.485980712890624,-1.249298095703125,0.0894317626953125,-0.4903106689453125
1667825332753988000,11.495988037109376,-1.2403564453125,0.0558624267578125,-0.4581146240234375
1667825332763996000,11.505995849609375,-1.25860595703125,0.0246429443359375,-0.3936767578125
1667825332774003000,11.5160029296875,-1.2505950927734375,-0.004364013671875,-0.3303070068359375
1667825332784011000,11.526010986328124,-1.234588623046875,-0.0282745361328125,-0.264892578125
1667825332794018000,11.53601806640625,-1.19427490234375,-0.016143798828125,-0.2192535400390625
1667825332804025900,11.54602587890625,-1.1294403076171875,0.030853271484375,-0.1865692138671875
1667825332814033200,11.556033203125,-1.0637359619140625,0.069000244140625,-0.151397705078125
1667825332824041000,11.566041015625,-0.9970703125,0.07611083984375,-0.0853424072265625
1667825332834048000,11.576048095703126,-0.9509735107421875,0.066131591796875,-0.012054443359375
1667825332844055800,11.586055908203125,-0.891998291015625,0.0302886962890625,0.0002899169921875
1667825332854063000,11.59606298828125,-0.8343963623046875,-0.0148162841796875,-0.0257568359375
1667825332864071000,11.60607080078125,-0.868133544921875,-0.0442047119140625,-0.0505828857421875
1667825332874078000,11.616077880859375,-0.898101806640625,-0.0502777099609375,-0.04168701171875
1667825332884086000,11.6260859375,-0.9127197265625,-0.038116455078125,0.00164794921875
1667825332894093000,11.636093017578125,-0.967620849609375,0.008758544921875,0.0516510009765625
1667825332904100900,11.646100830078124,-1.00604248046875,0.0625457763671875,0.07244873046875
1667825332914108200,11.656108154296875,-0.9757537841796875,0.06536865234375,0.105010986328125
1667825332924116000,11.666115966796875,-0.902069091796875,0.0115203857421875,0.142852783203125
1667825332934123000,11.676123046875,-0.86871337890625,-0.083343505859375,0.183990478515625
1667825332944130800,11.686130859375,-0.854339599609375,-0.1463623046875,0.17718505859375
1667825332954138000,11.69613818359375,-0.82330322265625,-0.156890869140625,0.1153411865234375
1667825332964146000,11.70614599609375,-0.755767822265625,-0.1608734130859375,-0.0236053466796875
1667825332974152700,11.716152587890624,-0.8461456298828125,-0.19085693359375,-0.2640838623046875
1667825332984161000,11.7261611328125,-1.2854766845703125,-0.2279052734375,-0.2957763671875
1667825332994167800,11.736167724609375,-1.1160125732421875,-0.26702880859375,-0.1205596923828125
1667825333004176000,11.74617578125,-0.82525634765625,-0.33154296875,-0.1036834716796875
1667825333014183000,11.756182861328124,-0.86505126953125,-0.3642120361328125,-0.1298980712890625
1667825333024191000,11.76619091796875,-0.93084716796875,-0.3352508544921875,-0.1238555908203125
1667825333034197800,11.77619775390625,-0.968109130859375,-0.2839813232421875,-0.097747802734375
1667825333044205800,11.786205810546875,-1.0123443603515625,-0.277496337890625,-0.046234130859375
1667825333054212900,11.796212890625,-1.0645599365234375,-0.2968292236328125,-0.027984619140625
1667825333064221000,11.806220947265626,-1.0673675537109375,-0.27362060546875,-0.070526123046875
1667825333074227700,11.816227783203125,-1.0361785888671875,-0.22235107421875,-0.106109619140625
1667825333084236000,11.826236083984375,-1.0157623291015625,-0.1939239501953125,-0.103515625
1667825333094244000,11.836244140625,-1.0070953369140625,-0.204010009765625,-0.0906219482421875
1667825333104251000,11.8462509765625,-0.993133544921875,-0.22491455078125,-0.08758544921875
1667825333114258000,11.8562578125,-0.95782470703125,-0.2344512939453125,-0.100311279296875
1667825333124266000,11.866265869140625,-0.8956146240234375,-0.2303466796875,-0.131317138671875
1667825333134274000,11.876274169921874,-0.83319091796875,-0.2132110595703125,-0.13995361328125
1667825333144280800,11.88628076171875,-0.8290252685546875,-0.2101898193359375,-0.1185150146484375
1667825333154289000,11.896288818359375,-0.848541259765625,-0.238006591796875,-0.0852203369140625
1667825333164296000,11.9062958984375,-0.8551177978515625,-0.27972412109375,-0.05230712890625
1667825333174304000,11.916303955078124,-0.8709716796875,-0.3185272216796875,-0.0255584716796875
1667825333184311000,11.92631103515625,-0.9044342041015625,-0.3488616943359375,-0.0065155029296875
1667825333194319000,11.936319091796875,-0.9033966064453125,-0.3622283935546875,-0.013275146484375
1667825333204326000,11.946325927734375,-0.8701171875,-0.34521484375,-0.033477783203125
1667825333214334000,11.956333984375,-0.846771240234375,-0.3207244873046875,-0.04443359375
1667825333224341000,11.966341064453125,-0.830291748046875,-0.3141021728515625,-0.0408935546875
1667825333234349000,11.97634912109375,-0.8250579833984375,-0.3233642578125,-0.030517578125
1667825333244355800,11.98635595703125,-0.828125,-0.3404541015625,-0.017608642578125
1667825333254364000,11.996364013671876,-0.8317718505859375,-0.3557586669921875,-0.005645751953125
1667825333264371000,12.006370849609375,-0.839752197265625,-0.362518310546875,0.00823974609375
1667825333274379000,12.01637890625,-0.8564453125,-0.3684844970703125,0.0294189453125
1667825333284385800,12.0263857421875,-0.8759002685546875,-0.3772125244140625,0.043914794921875
1667825333294394000,12.03639404296875,-0.8899383544921875,-0.3814849853515625,0.05194091796875
1667825333304401000,12.04640087890625,-0.9023895263671875,-0.3770751953125,0.049041748046875
1667825333314409000,12.056408935546875,-0.9127655029296875,-0.3590850830078125,0.04193115234375
1667825333324416000,12.066416015625,-0.9217529296875,-0.3296356201171875,0.0269012451171875
1667825333334424000,12.076424072265626,-0.93756103515625,-0.306915283203125,0.00970458984375
1667825333344430800,12.086430908203125,-0.94744873046875,-0.2943267822265625,-0.00250244140625
1667825333354439000,12.09643896484375,-0.9470367431640625,-0.28680419921875,-0.019500732421875
1667825333364446000,12.106446044921874,-0.9402923583984375,-0.2816314697265625,-0.047882080078125
1667825333374454000,12.1164541015625,-0.913177490234375,-0.2694091796875,-0.0728302001953125
1667825333384460800,12.126460693359375,-0.8981781005859375,-0.2675323486328125,-0.0867767333984375
1667825333394469000,12.13646923828125,-0.9106903076171875,-0.2847747802734375,-0.0822296142578125
1667825333404476000,12.146475830078124,-0.9046630859375,-0.3003082275390625,-0.0700836181640625
1667825333414484000,12.15648388671875,-0.955474853515625,-0.302734375,-0.0759429931640625
1667825333424491000,12.166490966796875,-0.920135498046875,-0.3013916015625,-0.1090087890625
1667825333434499000,12.1764990234375,-0.9154205322265625,-0.3061065673828125,-0.126922607421875
1667825333444505900,12.186505859375,-0.919830322265625,-0.320404052734375,-0.116455078125
1667825333454514000,12.196513916015626,-0.90521240234375,-0.3431396484375,-0.0979461669921875
1667825333464521000,12.20652099609375,-0.892242431640625,-0.363983154296875,-0.0751495361328125
1667825333474529000,12.216529052734375,-0.874755859375,-0.3828582763671875,-0.055389404296875
1667825333484535800,12.226535888671876,-0.8553314208984375,-0.3885650634765625,-0.042572021484375
1667825333494544100,12.236544189453125,-0.8448486328125,-0.3659515380859375,-0.033966064453125
1667825333504551000,12.246551025390625,-0.8261871337890625,-0.32958984375,-0.0233154296875
