time,seconds_elapsed,z,y,x
1667824974424403200,0.0204033203125,-1.04919633372128,0.86815090752393,-0.7033294708967208
1667824974434410000,0.030409912109375,-0.5140893400669098,0.7772296966269612,-0.8935276331037283
1667824974444418300,0.040418212890625,-0.0416968690007925,0.584000496160984,-1.0688904836200177
1667824974454425000,0.050425048828125,0.14180559495985506,0.3833040285542607,-1.2179112706556916
1667824974464433200,0.06043310546875,0.19626959107518194,0.1852060530081391,-1.3169175883308053
1667824974474440200,0.070440185546875,0.1569967343509197,0.02713175255358219,-1.3263118780113756
1667824974484448300,0.0804482421875,0.061359600847959515,-0.0008539864808320999,-1.2602695261746644
1667824974494455000,0.090455078125,-0.0072749594390392296,0.042968496371805665,-1.206731704993546
1667824974504463000,0.100463134765625,-0.0265431390106678,0.12423428243398665,-1.1088178587302564
1667824974514470100,0.11047021484375,0.10891396370530128,0.20659721608310935,-1.025400739853084
1667824974524478200,0.120478271484375,0.25892916860580445,0.18929449136555193,-1.1281392297938466
1667824974534485000,0.130485107421875,0.34380817672908304,0.12239070039391517,-1.2370382881909607
1667824974544493300,0.140493408203125,0.431495228010416,0.0610834142550826,-1.3888665338627992
1667824974554501000,0.150501220703125,0.4728846384972334,0.02119359467625618,-1.540503494746238
1667824974564508200,0.160508056640625,0.3459627244144678,0.028244682231545446,-1.6966792681030929
1667824974574516000,0.170515869140625,0.16000877564847468,0.09960369904637337,-1.7001229788161814
1667824974584523300,0.180523193359375,-0.11798632795512676,0.24395225648730992,-1.519378289131075
1667824974594531000,0.190531005859375,-0.43779695850312705,0.40510903312712904,-1.3130465921163559
1667824974604538000,0.2005380859375,-0.6761264066725969,0.5400891659811139,-1.1239239501863718
1667824974614546200,0.210546142578125,-0.823500741675496,0.6205749075815081,-0.9488790795780718
1667824974624553200,0.22055322265625,-0.8902262534707784,0.6769310010537505,-0.7518832200549542
1667824974634561000,0.23056103515625,-0.8211702529013156,0.6689110684663057,-0.6257137317746877
1667824974644568300,0.240568359375,-0.6419727926582097,0.6184037010222673,-0.5888436984084546
1667824974654576000,0.250576171875,-0.3703466395646334,0.5675301306143403,-0.5766452380273491
1667824974664583200,0.260583251953125,-0.08069558495879173,0.5124480026006698,-0.6349713894635438
1667824974674591000,0.270591064453125,0.22041034511923788,0.44254123042076826,-0.7137548571906983
1667824974684598300,0.280598388671875,0.5052957927584648,0.3108183457970619,-0.8803665382355451
1667824974694606000,0.290606201171875,0.7126660390406847,0.23432021252810953,-0.9546960952937602
1667824974704613000,0.300613037109375,0.7745663226366043,0.23664193347394466,-0.8253439583893865
1667824974714621200,0.31062109375,0.6506488510668277,0.22556290557682512,-0.6598273060396314
1667824974724628200,0.320628173828125,0.41335400664210314,0.14794862775951623,-0.512369749732688
1667824974734636000,0.330635986328125,0.2119575740724802,0.04346972389221191,-0.3692378015398979
1667824974744643300,0.340643310546875,0.09614216041564941,-0.061093058866262435,-0.3121272729711607
1667824974754651100,0.350651123046875,0.08982172522246837,-0.13169891922622917,-0.343248095160909
1667824974764658200,0.360658203125,0.15516601179242134,-0.099201547986269,-0.339610505843535
1667824974774666000,0.370666015625,0.19391630594730377,0.0030517887860536572,-0.23274178423024713
1667824974784673300,0.38067333984375,0.27202012084722516,0.13245704411715267,-0.03718611357808113
1667824974794681000,0.39068115234375,0.33901977340877054,0.22692484157979487,0.12223174697253852
1667824974804688100,0.400688232421875,0.38384091190993785,0.275161049221456,0.21671242218306286
1667824974814696200,0.4106962890625,0.44254327624738216,0.2599430218234658,0.2638734200749546
1667824974824703200,0.420703125,0.5187736984908581,0.17172405562251805,0.26042671368718145
1667824974834711000,0.4307109375,0.6328782165765762,0.05454407561421394,0.24375059643536803
1667824974844718300,0.44071826171875,0.7249813307344913,-0.030500936725735662,0.21251827669516204
1667824974854726100,0.45072607421875,0.8067547740578651,-0.09158376645892859,0.1574361486814916
1667824974864734200,0.460734130859375,0.8262433183819055,-0.13417495395094156,0.08191283352775498
1667824974874741000,0.470740966796875,0.7892074269294739,-0.18365911582708358,0.07820683688297868
1667824974884749000,0.4807490234375,0.7069108365148306,-0.22948709328323602,0.12319617155790329
1667824974894756000,0.490756103515625,0.6138315708011388,-0.23782032960355282,0.17423048548549414
1667824974904764200,0.50076416015625,0.4328577485352754,-0.24600597414672373,0.19244374917671084
1667824974914771200,0.510771240234375,0.24786709184348582,-0.2319356554791331,0.14115867535844445
1667824974924779300,0.520779296875,0.06473170762956142,-0.20182167224436998,0.09318550256714224
1667824974934786000,0.5307861328125,0.016274842974543572,-0.17687953868955372,0.20133388872742652
1667824974944794000,0.540794189453125,-0.05715630393922329,-0.2183177567541599,0.25800167849734423
1667824974954801200,0.55080126953125,-0.09948796371221542,-0.2374550034224987,0.31782617873251434
1667824974964809200,0.560809326171875,-0.2004763951152563,-0.3494292314812541,0.3322673765391111
1667824974974816000,0.57081591796875,-0.3857563901424408,-0.5301818122118711,0.2850584661185741
1667824974984824000,0.580823974609375,-0.6097925245434045,-0.7033008293241262,0.15275880452021956
1667824974994831000,0.5908310546875,-0.8212439026594162,-0.8545134273156523,0.07300839145705103
1667824975004839200,0.600839111328125,-1.0797300036728381,-0.9384344040617346,0.0942579541042447
1667824975014846200,0.61084619140625,-1.4744786785662174,-1.0603852517336607,0.21265549320876598
1667824975024854300,0.620854248046875,-1.7749387119561433,-1.023280094437301,0.28834567109569903
1667824975034861000,0.630861083984375,-1.9266887778252362,-0.734260323472321,0.2885816900749691
1667824975044869000,0.640869140625,-2.0184528692871333,-0.4747068854883313,0.2784870153063908
1667824975054876200,0.650876220703125,-2.2105361145883795,-0.2746098450794816,0.39697935655489563
1667824975064884200,0.66088427734375,-2.5696616874366995,0.027924656496942042,0.393657957047224
1667824975074891000,0.67089111328125,-2.6587007378488776,0.2893850971460342,0.32838995058387516
1667824975084899000,0.680899169921875,-2.41350432651937,0.40165918493419883,0.21385252097360788
1667824975094906000,0.690906005859375,-1.958065912863612,0.29014409881979225,0.22393216256983578
1667824975104914200,0.7009140625,-1.4547791218400001,0.0699979575946927,0.27698095812499524
1667824975114921200,0.710921142578125,-1.032976435804367,-0.09105039023458956,0.23382746057510376
1667824975124929300,0.72092919921875,-0.9115864368855953,-0.024375731843709943,0.15749576991423964
1667824975134937000,0.73093701171875,-0.9406073641866445,0.21715455819368362,0.19330840318202971
1667824975144944000,0.740944091796875,-0.7754729160875081,0.4921200848430395,0.306888605132699
1667824975154952000,0.750951904296875,-0.3824398129403591,0.6066469199940562,0.42589653122052545
1667824975164959200,0.760959228515625,0.15682020874023436,0.5427528322324157,0.49345871303565797
1667824975174967000,0.770967041015625,0.7145791791856289,0.47998014971613884,0.4575280794113874
1667824975184974000,0.78097412109375,1.1196996104896069,0.44647360143363474,0.40232758571505545
1667824975194982100,0.790982177734375,1.225967443600297,0.4807300913006067,0.4211944910094142
1667824975204989200,0.8009892578125,1.1387176146924496,0.5261626396983862,0.5094494053065777
1667824975214997000,0.8109970703125,1.1619774942487477,0.5783282957434653,0.47711146241202945
1667824975225004300,0.82100439453125,1.351691087809205,0.5722381621748208,0.3844692729413509
1667824975235012000,0.83101220703125,1.4817068762540817,0.4729781619995832,0.3990092549473047
1667824975245019100,0.84101904296875,1.3800643648564814,0.3071457947641611,0.47107554324865336
1667824975255027000,0.85102685546875,0.8701602015197276,0.19921908853054046,0.6167031807146967
1667824975265034000,0.861033935546875,0.0931447321653366,0.17886252920031548,0.7916463445141911
1667824975275042000,0.8710419921875,-0.5909370174258947,0.19524726229012013,0.8692899945564567
1667824975285049000,0.881049072265625,-1.0009364529430866,0.2483335403114557,0.801064745722711
1667824975295057200,0.89105712890625,-1.216112404540181,0.28689795650541783,0.6695904290325939
1667824975305064000,0.90106396484375,-1.1532985132306814,0.36751404648721214,0.5244362542971969
1667824975315072000,0.911072021484375,-0.8868541466891765,0.5412766222000122,0.4378330527298152
1667824975325079000,0.9210791015625,-0.39302491984069343,0.7264280224114656,0.4801648586332798
1667824975335087000,0.931087158203125,0.3983808939158916,0.8925579112887382,0.5521482909567654
1667824975345094000,0.941093994140625,1.3100620233476161,1.0441787978202104,0.6144041099920868
1667824975355102000,0.95110205078125,2.1934984705477953,1.1520672178700566,0.6226331552855671
1667824975365109000,0.96110888671875,3.0064608670741317,1.2401210566371679,0.6604490911997855
1667824975375117000,0.971116943359375,3.5261546030193567,1.1700275297135114,0.7424760708928108
1667824975385124000,0.9811240234375,3.5775492746919393,0.929996538323164,0.6369616864979267
1667824975395132200,0.991132080078125,3.2752550116121766,0.8114449777007102,0.5855290209025145
1667824975405139000,1.001138916015625,2.8224621440291404,0.8359013735651969,0.5905827971607446
1667824975415147000,1.01114697265625,2.345341475397348,0.8881783810302615,0.5572139037832617
1667824975425154800,1.02115478515625,2.1235984203696248,0.9376853392601012,0.686163816562295
1667824975435162000,1.031162109375,2.253893025755882,0.9629507134199142,0.8901100797452032
1667824975445170000,1.041169921875,2.5371096634000536,0.884108062851429,1.069424298235774
1667824975455177000,1.051177001953125,2.728964360642433,0.6327466991513967,1.0448315626405178
1667824975465185000,1.06118505859375,2.7216894012033936,0.24655805507153272,0.799300658659637
1667824975475192000,1.071192138671875,2.6214298685967923,-0.0978439958974719,0.48653074040338395
1667824975485200000,1.081199951171875,2.467622870197892,-0.32558950621038674,0.24210297535881398
1667824975495207200,1.091207275390625,2.2909031982451675,-0.4668272381544113,0.09947072031646967
1667824975505215000,1.101215087890625,2.1037246761202812,-0.5753109937489033,-0.0287162452660501
1667824975515222000,1.111221923828125,1.890645989063382,-0.6612965018093585,-0.1904262718744576
1667824975525229800,1.121229736328125,1.6139485240548848,-0.6429691102191806,-0.2703630012899637
1667824975535237000,1.131237060546875,1.2530875057160853,-0.5226622303619981,-0.27636209557428953
1667824975545245000,1.141244873046875,0.8617319803923368,-0.38081454982608554,-0.25858371616899967
1667824975555252000,1.151251953125,0.5926408987343311,-0.322297186666727,-0.2951785858556628
1667824975565260000,1.161260009765625,0.5354764114886522,-0.5440852498799562,-0.5078247267141938
1667824975575267000,1.17126708984375,0.456704488068819,-1.0511837081462143,-0.906501096445322
1667824975585275000,1.18127490234375,0.3001438070476055,-1.6602753909438848,-1.185914250153303
1667824975595282200,1.1912822265625,0.10636486374437808,-2.1536223872333764,-1.392967685571313
1667824975605290000,1.2012900390625,-0.029473931765556335,-2.314799037617445,-1.3831499097816646
1667824975615297000,1.211297119140625,-0.13123276301920414,-2.3806392910107967,-1.2952940778046846
1667824975625304800,1.221304931640625,-0.2770195365697145,-2.6374668111622332,-1.2677448304913936
1667824975635312000,1.23131201171875,-0.5920037698745727,-2.9829455514520404,-1.2558484948620199
1667824975645320000,1.24131982421875,-1.0632786350876093,-3.227566208720207,-1.4125374784380196
1667824975655327000,1.251326904296875,-1.6021195545732974,-3.2068969301789996,-1.7044142462693155
1667824975665335000,1.2613349609375,-2.2915783210277554,-2.932300821363926,-1.915441115362942
1667824975675343000,1.271343017578125,-2.989550648805499,-2.2482909679651257,-1.7008346342168748
1667824975685350000,1.281349853515625,-3.103591454005241,-1.3030623737186193,-0.9584028408572077
1667824975695358000,1.29135791015625,-2.906190228551626,-0.515053216663003,-0.12305837052240967
1667824975705365000,1.301364990234375,-2.5884073044389484,-0.04366495420336723,0.624848785508424
1667824975715373000,1.311373046875,-2.001895702239871,0.3363172364518046,1.1923828616455197
1667824975725379800,1.3213798828125,-1.0879963122367857,0.5364560701757669,1.3167454466342925
1667824975735388200,1.33138818359375,-0.525346062618494,0.5397782003358006,1.3886175275377928
1667824975745395000,1.34139501953125,-0.14146306513249873,0.6413847636371851,1.575868384246528
1667824975755403000,1.351403076171875,0.4414426215291023,0.0523193853020668,2.1354555930323897
1667824975765410000,1.36141015625,0.4546224210977554,-0.009591419687867165,1.3135896129518747
1667824975775418000,1.371418212890625,-0.1765250261634588,0.8607584591850638,-0.664881228428334
1667824975785425000,1.3814248046875,-0.8298135780841112,1.2429977811172603,-1.6132622953563929
1667824975795433000,1.391432861328125,-0.22323007871508596,1.168379762506485,-1.3430460090607403
1667824975805440000,1.40143994140625,0.757968239057064,1.3323720548331737,-0.9923065717637538
1667824975815448000,1.411447998046875,1.3933569771498442,2.001917621810734,-0.42540012600570914
1667824975825454800,1.421454833984375,2.422297873827815,3.0540210751503705,1.0803902211472391
1667824975835463200,1.431463134765625,3.465561310368776,3.856608500395715,2.5357667243584987
1667824975845470000,1.441469970703125,3.659042732030153,3.9107320125102993,2.8665651973888275
1667824975855478000,1.45147802734375,3.424178914144635,3.466473164516687,2.652789467978477
1667824975865485000,1.461485107421875,3.0419267327308654,2.9956331835895775,2.1450420442841946
1667824975875493000,1.4714931640625,2.523817051106691,2.728228155322373,1.8914390391372142
1667824975885500000,1.4815,1.8981874904841183,2.5000474684625864,1.7719298855289816
1667824975895508000,1.491508056640625,1.348805887761712,2.2813398356080055,1.5452332997471092
1667824975905515000,1.501514892578125,0.9777408707946539,2.1694474406138062,1.262106532343477
1667824975915523000,1.511523193359375,0.24795009395182133,2.2442989757195115,0.7123688827250152
1667824975925531000,1.52153076171875,-1.2399690809458495,2.4595623133391142,0.13039222054183483
1667824975935538200,1.5315380859375,-1.245387598863244,2.6969056730806824,0.10821341422051191
1667824975945546000,1.5415458984375,-2.9510727418512106,2.756571621753275,0.7778139262557029
1667824975955553000,1.551552978515625,-0.8052771027207374,2.6561408242329954,1.8240873582676052
1667824975965560800,1.561560791015625,-0.22234686613976953,2.4401824900865554,1.8840479059725999
1667824975975568100,1.571568115234375,-0.06828735428452491,2.0289228253751994,1.6773489830806851
1667824975985576000,1.581575927734375,0.2790741310119629,1.6003396854192018,1.2971464276731013
1667824975995583000,1.5915830078125,0.7400152337372302,1.542744405540824,1.4016609873756765
1667824976005591000,1.601591064453125,0.9748854813635349,1.4728835183292626,1.290363197273761
1667824976015598000,1.61159814453125,1.2135516141414642,1.150283549323678,0.5685460296586156
1667824976025606000,1.62160595703125,1.061093107742071,0.8841595007777213,-0.4188685322798788
1667824976035613200,1.63161328125,0.5856400800615549,0.267686183296144,-1.274705463284254
1667824976045621000,1.64162109375,-0.0538835658788681,-0.6333358972162008,-1.1988123101711272
1667824976055628000,1.6516279296875,-0.7868173169225454,-1.1497411130100488,0.004083104595169425
1667824976065635800,1.6616357421875,-0.9999106170266866,-1.0599491984039544,1.6795605216503142
1667824976075643100,1.67164306640625,-0.6257628316134214,-0.9530652792215347,2.591367907810211
1667824976085651000,1.68165087890625,-0.17482523650825021,-1.39097738853693,2.47964736225158
1667824976095658000,1.691657958984375,0.6276590206235647,-1.8387790237039328,2.0184439553283156
1667824976105666000,1.701666015625,0.8516051386535167,-1.9963015354946254,0.9023436845049262
1667824976115673000,1.711673095703125,0.22055530654788016,-1.7822662783652543,0.1699064848065376
1667824976125681000,1.721680908203125,-0.3356616951525211,-1.5121420542672275,-0.5959034076616168
1667824976135689000,1.73168896484375,-0.8553285430908203,-1.393860835018754,-1.5405536174982786
1667824976145696000,1.741696044921875,-1.367154029878974,-1.5439219248875975,-2.5629519606649875
1667824976155704000,1.7517041015625,-1.134143730905652,-1.7274176668465135,-3.254508283920586
1667824976165710800,1.7617109375,-0.5266495464324951,-1.8935896412998436,-3.460647527103126
1667824976175719000,1.771718994140625,0.08018529734909534,-2.5503116748005152,-3.6827275590002535
1667824976185726000,1.781725830078125,1.170457153302431,-2.042417682242393,-3.187158795008063
1667824976195734000,1.791734130859375,0.21131810712516308,-0.057228784653544425,-2.241743446017802
1667824976205741000,1.801740966796875,-0.345372941827774,1.5193056622862815,-1.465402514924109
1667824976215749000,1.8117490234375,0.7038081943243741,1.0405343038380146,-1.455799404798448
1667824976225756000,1.821755859375,0.5187082320392131,-0.38277649754881854,-2.6037042422920464
1667824976235764000,1.831763916015625,0.5791653310894965,-0.711343266004324,-3.4129929187417027
1667824976245771000,1.84177099609375,0.7234609892994165,0.03685644323229789,-2.654839970767498
1667824976255779000,1.851779052734375,0.7458440860211849,0.5538420892626047,-1.7642200418040155
1667824976265785900,1.861785888671875,1.0944465112894772,0.5589671771913767,-1.2595368279859422
1667824976275794000,1.8717939453125,1.6195371378421783,0.24303718746900557,-0.6757602037087083
1667824976285801000,1.881801025390625,1.8495768965721129,-0.6846329537332058,-0.6026999359339476
1667824976295809000,1.89180908203125,1.3243915774732828,-2.1601853990107776,-2.125458076761663
1667824976305815800,1.90181591796875,1.2150912447988986,-2.6081407634347675,-2.514919751162827
1667824976315824000,1.91182421875,-0.9824076935619115,-2.0943758330166338,-1.5342150621265171
1667824976325832000,1.92183203125,-4.777769698095321,-1.0627613332152366,0.06073416242599487
1667824976335839000,1.9318388671875,-0.5702829364538192,-0.08558511056602,0.4272100980371237
1667824976345846800,1.9418466796875,-1.4498732296198606,-0.7264017189264297,-0.001459258897602558
1667824976355854000,1.95185400390625,-1.890821345630288,-1.038222519764304,-0.7124623331621289
1667824976365862000,1.96186181640625,-1.603716468375921,-0.9498007244676351,-0.122282856105268
1667824976375869000,1.971868896484375,-1.482594180482626,-0.9203174403518438,0.05995996318310499
1667824976385877000,1.981876953125,-0.8747025211244821,-1.0399024356752633,-0.04628332000821828
1667824976395884000,1.991884033203125,-0.13388941500782967,-1.1977864742547273,0.04570990403443575
1667824976405891800,2.001891845703125,0.4001023108810186,-1.3354162448346614,0.18595687137544153
1667824976415899100,2.011899169921875,0.27365853570401666,-1.469080034393072,0.3775122934103012
1667824976425907000,2.021906982421875,-1.086612164402008,-1.4460557171583175,0.9307266061633824
1667824976435914000,2.0319140625,-3.2087761680543423,-0.7810872488379478,1.987259274122119
1667824976445921800,2.041921875,-4.878208094400168,-0.05883446628451347,2.904035680866241
1667824976455929000,2.05192919921875,-5.219145684129,0.06926759749352931,3.0284260306447743
1667824976465937000,2.06193701171875,-4.337707717269659,-0.12082651981711387,2.5982828017652033
1667824976475944000,2.07194384765625,-2.9214725533574817,-0.11497545570135116,2.2764047172933815
1667824976485952000,2.081951904296875,-1.4634604409456253,0.13218904083073138,1.9480401934117078
1667824976495959000,2.091958984375,-0.16297463971674442,0.45524844404160975,1.6252645755782722
1667824976505966800,2.101966796875,1.012092053207755,0.6482686779320239,1.3497268019989133
1667824976515974100,2.11197412109375,1.8667711924791335,0.5810030679106712,0.9743404147014021
1667824976525982000,2.12198193359375,2.245868124732375,0.22333178552389144,0.6501619443327188
1667824976535989000,2.131989013671875,2.0686270592540503,-0.07958440884649753,0.46606356030553575
1667824976545996800,2.141996826171875,1.4201222344785929,0.06161036073863506,0.5660901609390974
1667824976556005000,2.152005126953125,0.5167044910013675,0.5021089794158935,0.8115700653851031
1667824976566012000,2.162011962890625,-0.465175379294157,1.0302046330034733,1.0086854596346617
1667824976576020000,2.17202001953125,-1.2983283309340476,1.4756144045978783,0.9883967048436403
1667824976586027000,2.182027099609375,-1.736622717565298,1.6605436864912508,0.7725941457808018
1667824976596035000,2.19203515625,-1.8025889354258775,1.5222113205999135,0.37392274448573587
1667824976606041900,2.202041748046875,-1.6466905177056788,1.3527514105170964,-0.0031336218506097793
1667824976616050000,2.2120498046875,-1.2770774531126021,1.368316059395671,-0.29913784487545486
1667824976626057000,2.222056884765625,-0.7294669517159461,1.3214181146204471,-0.6714987468719482
1667824976636065000,2.23206494140625,-0.23678864846825598,1.1654957315027714,-1.1337053394883871
1667824976646071800,2.24207177734375,0.03307926278114319,1.0031354242920876,-1.5398849244564772
1667824976656080100,2.252080078125,0.11071721373498439,0.8998106588959693,-1.6748545359164475
1667824976666087000,2.2620869140625,0.12722235833406448,0.9624702364265918,-1.529676249653101
1667824976676095000,2.272094970703125,0.17948562953472136,1.0474030205637217,-1.3232640347480773
1667824976686102000,2.28210205078125,0.2833855644702911,0.9557172550350427,-1.3296253864735363
1667824976696110000,2.292110107421875,0.514597874110937,0.6400210740685462,-1.4857166964173316
1667824976706116900,2.302116943359375,0.822988115978241,0.18277239612042903,-1.5393097549170254
1667824976716125000,2.312125,1.0645850415110587,-0.31371289819478987,-1.490264861240983
1667824976726132000,2.322132080078125,1.1814350589126348,-0.7981517808854579,-1.4024895471543073
1667824976736140000,2.33214013671875,1.2154396198451518,-1.234881986939907,-1.266788698810339
1667824976746147800,2.34214794921875,1.1391507454127072,-1.6251599461600184,-1.0573170963346958
1667824976756155100,2.352155029296875,0.9534802897632122,-1.9664719221591949,-0.8811796081840991
1667824976766163000,2.362162841796875,0.740957483023405,-2.247863097941875,-0.8252022848963737
1667824976776170000,2.372169921875,0.5603197608441114,-2.4251184842064974,-0.7854092036902904
1667824976786177800,2.382177734375,0.27993922340869903,-2.4806290667653084,-0.6559545562595128
1667824976796185000,2.39218505859375,-0.1556558411359787,-2.502093879598379,-0.5745937853902578
1667824976806193000,2.40219287109375,-0.6266226633131504,-2.495589027749002,-0.543501897034049
1667824976816200000,2.412199951171875,-1.0667337439775466,-2.4360516738921403,-0.4199883300900459
1667824976826208000,2.4222080078125,-1.5591677170753477,-2.4902561422884464,-0.32776188181340693
1667824976836215000,2.432215087890625,-1.8601877224355936,-2.5519331385225055,-0.06942483388185501
1667824976846222800,2.442222900390625,-1.8953543128848074,-2.49509832162261,0.3464934702903032
1667824976856230100,2.452230224609375,-1.7433038027644157,-2.406982231274247,0.726244482538104
1667824976866238000,2.462238037109375,-1.4885644870638846,-2.523321961066127,0.9582079028069972
1667824976876245000,2.472244873046875,-1.0618179148852824,-2.6553198632389305,1.146335103958845
1667824976886252800,2.482252685546875,-0.6755524061769247,-2.655716461341083,1.4593565127581356
1667824976896260000,2.492260009765625,-0.510976176482439,-2.580193018323183,1.7779297104656695
1667824976906268000,2.502267822265625,-0.48803953753113744,-2.374713700354099,2.130406931340694
1667824976916275000,2.51227490234375,-0.5183236166357994,-1.9921599056452512,2.43198632414937
1667824976926283000,2.522282958984375,-0.6093512105166912,-1.505494286815822,2.679422623360157
1667824976936291000,2.532291015625,-0.7079518700003623,-1.0965700793147086,2.7021365594714877
1667824976946297900,2.5422978515625,-0.632968232947588,-0.7960092158988118,2.5638357577621935
1667824976956306000,2.552305908203125,-0.4126514113306999,-0.48226884517520663,2.39091898522377
1667824976966313000,2.56231298828125,-0.06808043353557586,-0.0763639854952693,2.205736605352163
1667824976976321000,2.572321044921875,0.3495926053494215,0.3456324695467949,2.0391259472206236
1667824976986327800,2.582327880859375,0.7479635623931884,0.6648623775973915,1.8013351359724998
1667824976996335900,2.5923359375,1.1682108356803655,0.8311091708526015,1.4759186482414601
1667824977006343000,2.602343017578125,1.5687661510258912,0.9429659100115299,1.1690040318846702
1667824977016351000,2.61235107421875,1.9331126733928918,1.1045780292034149,0.9527353166148066
1667824977026358000,2.62235791015625,2.2228286099284884,1.3424310920327902,0.8290478544086217
1667824977036366000,2.632365966796875,2.3326772241353986,1.6109189471006393,0.7872597999930381
1667824977046372900,2.642372802734375,2.2389666747808454,1.7937603168040512,0.7062357137322426
1667824977056381000,2.652380859375,2.3433143534839154,1.8140794667333364,0.6238412159010768
1667824977066388000,2.662387939453125,2.6646529242515564,1.6641899340391157,0.5009036952793597
1667824977076396000,2.67239599609375,3.169517924377322,1.4592805249124765,0.43539369675368067
1667824977086402800,2.68240283203125,3.3668963534772396,1.4461036479532718,0.6769464908838272
1667824977096411000,2.692410888671875,3.0565047086596486,1.7098434317111968,1.149585922448337
1667824977106419000,2.7024189453125,2.628853296595812,1.88740481518507,1.4533230778127908
1667824977116426000,2.712426025390625,2.056864725267887,1.9500287368804214,1.4044599704444407
1667824977126433800,2.722433837890625,1.445709680199623,2.1142466546565295,1.1066153802499175
1667824977136441000,2.732441162109375,1.018302598285675,2.1153461403310296,0.4055690518543124
1667824977146449000,2.742448974609375,0.826031721457839,1.9120494270980357,-0.10809154140651225
1667824977156456000,2.7524560546875,0.6659539722263813,1.9283891520023344,0.13670856408178805
1667824977166463700,2.762463623046875,0.3662403732895851,1.9888053345203398,0.4685805115625262
1667824977176471000,2.772470947265625,0.025153730478882787,1.9575579633414744,0.677234075653553
1667824977186478800,2.782478759765625,-0.14458733463287352,1.958976013445854,0.8340934473603964
1667824977196486000,2.79248583984375,-0.2567997553616762,1.9119629178583621,0.8149243442490697
1667824977206494000,2.802493896484375,-0.2708206819295883,1.848614773541689,0.8095365137308835
1667824977216501000,2.8125009765625,-0.2762216641902923,1.7269804444730281,0.8944041236773133
1667824977226508800,2.8225087890625,-0.20343582944273947,1.546837812334299,1.0356032771766186
1667824977236516000,2.83251611328125,-0.0035889644026756286,1.3337854287624358,0.9405500810414552
1667824977246524000,2.84252392578125,0.4312865536957979,1.1050415550619364,0.7383394094794988
1667824977256536600,2.85253662109375,0.8739929115504026,1.0160802460610865,0.5558721337854862
1667824977266543600,2.862543701171875,1.1864093401938676,1.0505155996263027,0.37429859206080435
1667824977276551400,2.872551513671875,1.2822078017383813,1.087762503480911,0.11294658022224903
1667824977286558700,2.882558837890625,1.155977377051115,1.094182307395339,-0.16717559853792188
1667824977296566500,2.89256640625,0.8521686177551746,1.1403314796298742,-0.38849399841278787
1667824977306573600,2.902573486328125,0.39780397081077096,1.2250509132772682,-0.48929129115790126
1667824977316581400,2.912581298828125,-0.28824177232980724,1.2427753705382347,-0.47184068240225313
1667824977326588700,2.922588623046875,-0.8225549852579832,1.220961598137021,-0.373139192892611
1667824977336596500,2.932596435546875,-1.1020341899394988,1.2150526663541794,-0.34011224482059477
1667824977346603500,2.942603515625,-1.096442653542757,1.0919862586557865,-0.43109541503787036
1667824977356611600,2.952611572265625,-0.8956751665264368,0.918356953933835,-0.6369111253544688
1667824977366618600,2.96261865234375,-0.6567208644568919,0.7522808410704136,-0.8678475406631827
1667824977376626400,2.97262646484375,-0.2818365814626217,0.7077344278573989,-1.0211688013717533
1667824977386633700,2.9826337890625,0.14699498029649258,0.6792725957438349,-1.1386994945138693
1667824977396641500,2.9926416015625,0.5730184988975524,0.5493079529643058,-1.2771309368655084
1667824977406649600,3.002649658203125,0.776603381422162,0.2978884293362498,-1.4013438842505215
1667824977416656400,3.012656494140625,0.6990244671791791,0.1314209790676832,-1.5293918797537684
1667824977426664700,3.022664794921875,0.4186427606999874,0.08221767995953559,-1.6004814319774507
1667824977436671500,3.03267138671875,0.0593254646718502,0.014348258826136589,-1.5763710730716585
1667824977446679600,3.042679443359375,-0.28259470635354517,-0.0699985421165824,-1.5285437384918332
1667824977456686600,3.0526865234375,-0.4826479076206684,-0.16656477316319943,-1.5670663613706826
1667824977466694700,3.062694580078125,-0.5521802935302257,-0.3588677986949682,-1.6621233568981288
1667824977476701400,3.072701416015625,-0.5513713152348995,-0.5742641150444746,-1.7562746357575059
1667824977486709500,3.08270947265625,-0.3997568584442138,-0.7729805147498846,-1.9410823370978234
1667824977496716500,3.092716552734375,-0.2309890222787857,-0.8298091941699385,-1.9218746555417774
1667824977506724600,3.102724609375,-0.21243512845635412,-0.8730760889664292,-1.811646102106571
1667824977516731400,3.1127314453125,-0.31155776598751544,-1.0091747044563293,-1.7482345371648669
1667824977526739700,3.12273974609375,-0.4644131627500057,-1.2319748673215507,-1.6949854697972535
1667824977536746500,3.13274658203125,-0.6136842712849379,-1.4853981319874525,-1.5002780134722589
1667824977546754600,3.142754638671875,-0.9071084146887064,-1.7301546905949712,-1.1440864482492208
1667824977556762400,3.152762451171875,-1.3261287765294312,-1.9904048786714672,-0.822823865327239
1667824977566769700,3.162769775390625,-1.814322627839446,-2.2362118231147528,-0.5347691400021314
1667824977576777500,3.172777587890625,-2.2758698797643184,-2.3963190907016396,-0.20147066684961318
1667824977586784500,3.182784423828125,-2.5984821237295863,-2.421109833087027,0.08001461695730686
1667824977596792600,3.19279248046875,-2.834616692203283,-2.3052865283846855,0.3037047143995762
1667824977606799600,3.202799560546875,-2.9245857169419525,-2.0493007197543975,0.5661340000808238
1667824977616807400,3.212807373046875,-2.85178059297204,-1.6426558553621171,0.7898147451728582
1667824977626814700,3.222814697265625,-2.6743758613646027,-1.2060589202985166,0.8339666061103344
1667824977636822500,3.232822509765625,-2.311028871428966,-0.8447510349750519,0.7271294486790895
1667824977646829600,3.24282958984375,-1.7980156361609696,-0.46618251051008697,0.6359285440579057
1667824977656837400,3.25283740234375,-1.2708417735934256,-0.1549105757266283,0.519437715357542
1667824977666844700,3.2628447265625,-0.7600082204520702,0.024238076938688752,0.3112605366066098
1667824977676852500,3.2728525390625,-0.29966099196672435,0.23340075959563253,0.17073153745383024
1667824977686859500,3.282859619140625,-0.05529167911112308,0.36646278386861086,0.06058130995184183
1667824977696867600,3.29286767578125,0.06943944692909718,0.42089843067228794,0.06868102977722883
1667824977706874600,3.30287451171875,0.12244564545154571,0.48403147093355653,0.24535598580539225
1667824977716882400,3.31288232421875,0.15397592522501943,0.6132862118780612,0.5644017694607377
1667824977726890500,3.322890380859375,0.15529694469571112,0.8222410970032215,0.9449044768586754
1667824977736897500,3.3328974609375,0.16233108111619948,0.9354618179917334,1.3015396941959858
1667824977746905600,3.342905517578125,0.1844680941224098,0.7918214088201523,1.604416433338821
1667824977756912400,3.352912353515625,0.07127543018460274,0.39647944420874115,1.8447458231538534
1667824977766920400,3.36292041015625,-0.18196867852210996,-0.03650163844525814,1.9539532168477773
1667824977776927500,3.372927490234375,-0.4950251586347818,-0.32224516421854493,2.0714839099898934
1667824977786935600,3.382935546875,-0.7140051786899566,-0.32359716334939004,2.1047516810804603
1667824977796942600,3.392942626953125,-0.7640811689794064,-0.2915542578786611,1.933061819988489
1667824977806950700,3.40295068359375,-0.6164373693853616,-0.35424715315699573,1.6096806374773382
1667824977816957400,3.41295751953125,-0.1228027883261442,-0.48743338833153244,1.2988774892494082
1667824977826965500,3.422965576171875,0.7283505149066448,-0.7376110952049494,0.8721127968922257
1667824977836972500,3.43297265625,1.6773703181296586,-1.227457389897108,0.2083019741743803
1667824977846980600,3.442980712890625,2.8783880293905733,-1.8825433466285466,-0.5148392816513776
1667824977856988700,3.45298876953125,3.1665234187364577,-2.2272744834214446,-1.1069608326867222
1667824977866995500,3.462995361328125,2.184898984506726,-1.7023668122202158,-0.9851441327884792
1667824977877003800,3.473003662109375,0.8361123859673738,-0.6853560073107481,-0.1686871721446514
1667824977887010600,3.483010498046875,-0.09890110373497009,-0.24273849678337572,0.0000786181941628456
1667824977897018600,3.4930185546875,-0.1285410397171974,-0.734530664846301,-0.5086693608447909
1667824977907025700,3.503025634765625,0.298171630191803,-0.9933639718621968,-0.5950193183034658
1667824977917033700,3.51303369140625,0.6558961040705442,-0.4095055145204067,-0.4209633126020431
1667824977927040500,3.52304052734375,0.3162047150105238,0.03321604090332985,-0.9433832586407661
1667824977937048600,3.533048583984375,-0.32997838881909847,-0.32526275847405195,-2.0051289850726723
1667824977947055600,3.5430556640625,-0.42177287541925906,-0.3666834408819675,-2.3381024640545247
1667824977957063700,3.553063720703125,-0.353032516670227,0.3277645121619105,-2.3674118529081345
1667824977967070500,3.563070556640625,0.10415770908892154,1.2580518501251936,-2.2935814775437113
1667824977977078800,3.573078857421875,0.38325872810781,1.9247259533196686,-2.4521000146344303
1667824977987086600,3.583086669921875,0.09486264199912547,2.274887298467755,-2.375017943997681
1667824977997093600,3.59309375,-0.10513269160091876,2.4861282487034795,-1.7674384193286299
1667824978007101400,3.603101318359375,-0.15045593440532684,2.211695513756573,-1.1078849617943167
1667824978017108700,3.613108642578125,0.030115736800432204,1.2382754287704825,-0.3986906905174255
1667824978027116500,3.623116455078125,0.25186229895949364,-0.1932549194291234,-0.05167699574530124
1667824978037123600,3.63312353515625,-0.23204525333344936,-1.2395377037912607,-0.3270636704161763
1667824978047131600,3.643131591796875,-0.9013637335568666,-1.3445228036150336,-0.4844704468727112
1667824978057138400,3.653138427734375,-1.4448960257291792,-0.7522519072368741,-0.11903320665955543
1667824978067146500,3.663146484375,-1.7948223930776117,0.02153203285038471,0.23109920465499162
1667824978077153500,3.673153564453125,-1.3191770576953887,0.5968082475468516,0.26155162606388327
1667824978087161600,3.68316162109375,0.33393794009983535,0.8628037012770772,0.18540946662575006
1667824978097168400,3.69316845703125,0.5921288575589656,1.0212843905754387,-0.4778022211551666
1667824978107176400,3.703176513671875,1.1424287441700696,0.8946464080005884,-1.0222422758221625
1667824978117183500,3.71318359375,2.196275534045696,1.0624452530033885,-0.39029228000640864
1667824978127191600,3.723191650390625,2.6346552608728406,1.1267800702698527,0.2603761525437236
1667824978137199600,3.73319970703125,2.469944591143727,1.262988868135959,0.5796370402544736
1667824978147206700,3.74320654296875,1.68654322014451,1.3298261697426437,0.48322424620389937
1667824978157214700,3.753214599609375,0.6753285342931747,1.1414198593884706,-0.11173925025910138
1667824978167221500,3.763221435546875,0.042137598505616186,1.1035707518570124,-0.7992372380346059
1667824978177229600,3.7732294921875,-0.2725461905479431,1.3987469996251165,-0.8405889468595386
1667824978187236600,3.783236572265625,-0.5641220757365226,1.8978651266619562,-0.34048283169865606
1667824978197244700,3.79324462890625,-0.49041269640326496,2.345270602118224,-0.003967150065302848
1667824978207251500,3.80325146484375,-0.04150163868963718,2.605681679844856,-0.09234189134985207
1667824978217259500,3.813259521484375,0.5001701203078032,2.6582290286839005,-0.47054684319943185
1667824978227266600,3.8232666015625,0.8050514772713184,2.4667677146732805,-0.9442708551302552
1667824978237274600,3.833274658203125,0.46003567831814285,1.9915441118344663,-1.0326002959683538
1667824978247282400,3.843282470703125,-0.5203565837681293,1.679078291091323,-0.4673731815993786
1667824978257284900,3.853284912109375,-1.3398042506605385,1.4377990532055496,-0.17677213279232382
1667824978267293000,3.86329296875,-1.929559364825487,1.1701543709635733,-0.07728226938396691
1667824978277300000,3.873300048828125,-2.689435483330488,0.8432283554524183,-0.5148617857441306
1667824978287308000,3.88330810546875,-3.341802828752994,0.5828156702905893,-0.8837158486634492
1667824978297314800,3.893314697265625,-3.3303315866678953,0.5641249983459711,-0.7461855929352342
1667824978307323000,3.903322998046875,-2.681397722825408,0.7870949648201465,-0.06164455526918172
1667824978317330000,3.913329833984375,-1.939384008747339,0.8987155571356416,0.7249649641215801
1667824978327338000,3.923337890625,-1.348210844478011,0.9030547553837299,0.8940233076661824
1667824978337344800,3.9333447265625,-0.8300140690922737,0.8757289415627717,0.5261792985722422
1667824978347353000,3.94335302734375,-0.28771862523853775,0.8117901378765702,0.2251696684755385
1667824978357359900,3.95335986328125,0.0010293430477380753,0.9085065910488367,0.24194062440395353
1667824978367368000,3.963367919921875,-0.10285130266547203,0.8895674973011016,0.6046428866952658
1667824978377376000,3.9733759765625,-0.26363924599289895,0.3450830189704895,0.6510919186592101
1667824978387383000,3.983383056640625,-0.16461539266109465,-0.10436696792542934,0.15983721847385168
1667824978397391000,3.99339111328125,0.22737083178162573,-0.27719343183189626,-0.35715661086291073
1667824978407398000,4.00339794921875,0.6755103206008672,-0.2959919480651617,-0.3526503124196082
1667824978417406200,4.01340625,1.0498755481570958,-0.2537815765842795,0.16142134586013854
1667824978427413000,4.0234130859375,1.4315250875025987,-0.26648542920425533,0.8700826062388718
1667824978437421000,4.033421142578125,1.8089257372319698,-0.3761014036990702,1.3770761428259313
1667824978447428000,4.043427978515625,2.251068031463027,-0.5117176424995065,1.6619662666402757
1667824978457436200,4.053436279296875,2.6332810499101877,-0.6551917551934718,1.7748220998391508
1667824978467443000,4.06344287109375,2.929820110464096,-0.77283058488518,1.7604647809237242
1667824978477451000,4.073450927734375,3.2576994811773297,-0.9042921882241964,1.7441234485842287
1667824978487459000,4.083458984375,3.5784406705737113,-1.079153957350552,1.623473746638745
1667824978497466000,4.093466064453125,3.850567758926749,-1.234044367071986,1.344511843829602
1667824978507474000,4.103473876953125,4.104853485640883,-1.2640291709691285,1.11175800383538
1667824978517481200,4.113481201171875,4.304813747927546,-1.2058616441607475,1.0123508502744138
1667824978527489000,4.123489013671875,4.53492890998125,-1.0177478870123624,1.027125956210494
1667824978537496000,4.13349609375,4.667908224406838,-0.9591030980810522,0.9543426056809723
1667824978547503900,4.14350390625,5.114746567499638,-0.6819339239075779,1.0023001425117253
1667824978557511200,4.15351123046875,5.8548348664730785,-0.17888737138062716,1.3574223249375819
1667824978567519000,4.16351904296875,6.624938949003815,0.08069178556650876,2.023796568402648
1667824978577526000,4.173526123046875,6.459294213294982,-0.26263620643019675,1.4381243396371601
1667824978587533800,4.183533935546875,5.84332446142137,-0.5638239695727825,-0.12054887191951275
1667824978597541000,4.193541015625,5.566621735715866,0.012710428491234778,-1.8444488860338926
1667824978607549000,4.203548828125,-8.772871600162983,-0.8615537012159824,1.6774457214534282
1667824978617557000,4.213556884765625,-25.932570825576782,-2.5907912769660353,9.433530973112582
1667824978627564000,4.22356396484375,2.6579759307056663,-1.9395771932318806,1.5698130297303199
1667824978637572000,4.233572021484375,-2.4587983432292937,-0.07966010443121195,3.843122703617811
1667824978647579000,4.243578857421875,-0.7284224110990762,-1.8546540537059306,3.0056837452217935
1667824978657587000,4.2535869140625,-3.7426392991274593,-2.728984818908572,-0.20854688884615896
1667824978667594000,4.263593994140625,-5.178675726574659,-1.9302473470896482,-1.677283808889985
1667824978677602000,4.27360205078125,-4.6276440185576675,-1.9740373889774083,-1.101032319420576
1667824978687608800,4.28360888671875,-3.739476451182365,-2.550511581286788,0.4803951602578163
1667824978697617200,4.2936171875,1.1285925265192984,-3.5854961420431732,-1.0609376249194145
1667824978707624000,4.3036240234375,0.7295055301606654,-2.549545366603136,-3.604641279757023
1667824978717632000,4.313632080078125,0.2689315071821213,-1.9542874172382056,-3.318705154021084
1667824978727639000,4.32363916015625,-0.2730781054675579,-1.0548298826288431,-2.6209496838644144
1667824978737647000,4.333647216796875,-1.19149643419981,-0.8141586205735802,-1.98313547219038
1667824978747655000,4.343655029296875,-2.4144202723205086,-1.331692548136413,-1.4424565236225724
1667824978757662000,4.353661865234375,-2.1986995463222265,-1.832903409668803,-1.2558277443349362
1667824978767670000,4.363669921875,-1.1319365762501954,-1.4959852847144006,-1.3998364022970198
1667824978777677000,4.373677001953125,-0.90357673343122,-0.10421597861479967,-1.2188824537754057
1667824978787684900,4.383684814453125,-0.4566179788291454,0.9473596149258315,-0.8664715761348605
1667824978797692200,4.393692138671875,0.6732721862852573,0.24100856771823018,-0.5588894357800483
1667824978807700000,4.403699951171875,1.1202794562041758,-0.7321190736599266,-0.6156219613492488
1667824978817707000,4.41370703125,1.296522158294916,-0.761905651571229,-0.8552139768004416
1667824978827714800,4.42371484375,1.5138146636545657,-0.29989439886379987,-0.8334975272938608
1667824978837722000,4.43372216796875,1.6863544195741413,0.44099327032640573,-0.3960977514147758
1667824978847730000,4.44372998046875,0.45992695724666116,0.7950927586410195,-0.5984539689272642
1667824978857738000,4.453738037109375,0.8577817814618348,-0.5867135545119643,-1.9110966564178467
1667824978867745000,4.4637451171875,1.6189491088211536,-1.297481797107309,-3.0721172883331773
1667824978877753000,4.473753173828125,1.2858493731111287,-1.279522069785744,-4.073610206115245
1667824978887760000,4.483759765625,0.4708966795504093,-0.7439837720420212,-3.8586855989307165
1667824978897768000,4.493767822265625,0.5093453604102134,0.24793728926917535,-1.8530556785985826
1667824978907775000,4.50377490234375,0.27768472248017784,1.0171235445689408,-0.03531885840147733
1667824978917783000,4.513782958984375,-2.383258825859427,1.961422383684665,1.4278490293383597
1667824978927789800,4.523789794921875,-6.826629980605841,2.082532835009694,1.4062877703934906
1667824978937798100,4.533798095703125,-1.719022763466835,0.7715976820893585,-1.3046261159040033
1667824978947805000,4.543804931640625,2.691630363026261,0.746699826067686,-2.40639347160086
1667824978957813000,4.55381298828125,0.2736906844079494,0.9142655929669737,-1.8240654386967419
1667824978967820000,4.563820068359375,-0.4190338058441877,0.4065723471453413,-1.7737122389011084
1667824978977828000,4.573828125,0.16314239749908446,-0.09409742978028952,-2.9912653437688945
1667824978987836000,4.5838359375,0.5500117173194885,-0.19235672848038374,-3.0432620729878543
1667824978997843000,4.593843017578125,0.9019991088509559,-0.015504771917499601,-2.3913906943887473
1667824979007851000,4.60385107421875,1.0795873803317546,0.1818547332862392,-1.7668192645169793
1667824979017858000,4.613858154296875,1.4051257408767939,0.3242450327988714,-1.3368528535090387
1667824979027865900,4.623865966796875,1.7556342920273542,0.49245939980000253,-0.7980399180088191
1667824979037873200,4.633873046875,1.8677081810683012,0.7245796911310404,0.29736601289734244
1667824979047881000,4.643880859375,1.9448697466820477,1.254750908883661,2.36466898394078
1667824979057888000,4.653887939453125,2.3029174611657854,1.3308603350959718,3.152083682234585
1667824979067895800,4.663895751953125,1.6769477088034153,1.5694550100728868,4.132571513649821
1667824979077903000,4.673903076171875,0.6516390311479568,1.6455713044174014,3.566794364182651
1667824979087911000,4.683910888671875,0.4938151983231306,1.5734323892712592,1.4209116312906145
1667824979097919000,4.6939189453125,0.8304477843344211,1.4023751269944011,-0.8282971821717917
1667824979107926000,4.703926025390625,1.0728040038019417,1.3822301645882427,-1.6172703619539737
1667824979117934000,4.71393408203125,0.8177572295874357,1.6921305187575517,-1.0500598186828196
1667824979127940900,4.72394091796875,0.43406712432503697,2.1262162016525865,-0.2920563621819019
1667824979137949000,4.733948974609375,0.4953215112328529,2.423401012764126,0.3347410731762647
1667824979147956000,4.7439560546875,0.5146908130913973,2.6684105232194066,0.8857254349201917
1667824979157964000,4.753964111328125,0.047294250616431235,2.966610502722859,1.2984797221034765
1667824979167970800,4.763970703125,-0.16100070929527283,3.147171652534604,1.4083911724135278
1667824979177979000,4.773978759765625,0.051346740877628326,3.277081642517447,0.8909569058328867
1667824979187986000,4.78398583984375,0.5586468591958285,3.4611621986269947,-0.0020095862567424774
1667824979197994000,4.793993896484375,0.8998246874213218,3.6836826677680015,-0.712911538234353
1667824979208001000,4.8040009765625,1.035734794601798,3.802353763116896,-0.6979013083681463
1667824979218009000,4.814009033203125,0.9807657715737819,3.826656429724395,-0.19114274958074093
1667824979228017200,4.82401708984375,0.7049281382650137,3.8428453479811546,0.5300590626150369
1667824979238024000,4.83402392578125,0.22185411418676376,3.81746219266057,1.173833059476316
1667824979248032000,4.844031982421875,-0.32847499851882456,3.80802567127347,1.637162226381898
1667824979258039600,4.85403955078125,-0.2624111655026674,3.785263219845295,1.7566700648158788
1667824979268047400,4.86404736328125,0.046807928404211996,3.6890251978397366,1.3211091948017477
1667824979278054400,4.874054443359375,0.03116027741730213,3.603499708506465,0.9334259282499551
1667824979288062200,4.884062255859375,-0.41347734076082704,3.495275188370049,0.8981389262914657
1667824979298069500,4.894069580078125,-0.8955237753570079,3.3705770878165957,1.1798477897211908
1667824979308077300,4.904077392578125,-1.1393313626766204,3.2922043928474185,1.592049411457777
1667824979318084400,4.91408447265625,-1.2120663440197705,3.101900432178378,2.0553350314825773
1667824979328092400,4.924092529296875,-1.3646458464503288,2.756687649348378,2.4888667337566615
1667824979338100500,4.9341005859375,-1.5913655208468436,2.4344331327795983,2.8226088590234517
1667824979348107300,4.944107177734375,-1.601758320045471,2.2476462403208015,3.0904402960091826
1667824979358115300,4.954115234375,-1.3390952256083488,2.158048971503973,3.16308759906888
1667824979368122400,4.964122314453125,-1.329269997164607,2.0832059119656683,2.9335359161168335
1667824979378130400,4.97413037109375,-1.7313082445442676,1.974991036440432,2.657650352013111
1667824979388137200,4.98413720703125,-2.035332107895613,1.7429450524546204,2.4988158808410166
1667824979398145500,4.9941455078125,-2.072794115805626,1.3817792059503495,2.350847087076306
1667824979408152300,5.00415234375,-2.0124714567899704,0.9714528765663504,2.211378410631418
1667824979418160400,5.014160400390625,-1.9518974533617495,0.6221657569695264,1.985681065019965
1667824979428167400,5.02416748046875,-1.9403402865588664,0.37289040576331317,1.59308810685575
1667824979438175500,5.034175537109375,-1.979903650662303,0.03683459672667086,1.3345248489528894
1667824979448183600,5.04418359375,-1.8252865049242972,-0.4247510144472122,1.2025497431337833
1667824979458190300,5.0541904296875,-1.4649299289762974,-0.8794083607278764,1.0618553242862223
1667824979468198700,5.06419873046875,-1.2576245646238327,-1.255785804889351,1.0298621031761168
1667824979478205400,5.074205322265625,-1.0363123022288083,-1.6000300349481402,0.9216875596612691
1667824979488213500,5.084213623046875,-0.6680716950327158,-1.9268791858308016,0.8256149573504924
1667824979498220500,5.094220458984375,-0.18904139338731765,-2.3215251310020686,0.7314017191708088
1667824979508228600,5.104228515625,0.19963643715977666,-2.676002001261711,0.25121172609627246
1667824979518235400,5.1142353515625,0.38020986193120476,-2.745598976840079,-0.12670388741791247
1667824979528243500,5.124243408203125,0.6884235781878233,-2.5815385877132413,-0.0032090251743793485
1667824979538250500,5.13425048828125,0.7035358071237802,-2.4260028658255934,0.5469768796682357
1667824979548258600,5.144258544921875,0.32793080863952634,-2.4723265178441998,0.9509288517147302
1667824979558266400,5.154266357421875,0.06227262403964996,-2.601694656035304,0.8559452136844397
1667824979568273700,5.164273681640625,-0.039831367389857764,-2.5912822753533717,0.6729547908991574
1667824979578281500,5.174281494140625,-0.21991262473016976,-2.4322685020916164,0.7199801614463329
1667824979588288500,5.18428857421875,-0.35958968322873114,-2.101733502303064,1.0599860232830047
1667824979598296300,5.19429638671875,-0.20344021335691212,-1.8325256623975932,1.3218851476103066
1667824979608303600,5.2043037109375,-0.06349778192043304,-1.3560583431079982,1.0027361958414316
1667824979618311400,5.2143115234375,0.2485655955016613,-1.1306392299160362,0.17040917363166808
1667824979628318500,5.224318359375,0.3864204070091247,-1.4074286109916865,-0.8324176231026649
1667824979638326500,5.234326416015625,-0.24194884424302726,-1.8594559010297058,-1.7527210349291562
1667824979648334600,5.24433447265625,-1.4625091315701604,-2.586810390636325,-1.8384692271023988
1667824979658341400,5.25434130859375,-1.4913526564776896,-2.8771190323680638,-0.847788795235753
1667824979668349400,5.264349365234375,-1.1426619684040547,-2.607192961190641,-0.19895780724585055
1667824979678356500,5.2743564453125,-0.9266475201562047,-1.9087594456419348,0.10871347269713878
1667824979688364500,5.284364501953125,-0.600841448585689,-1.0897415484689175,0.35359015055298804
1667824979698371300,5.294371337890625,-0.39704438461512326,-0.23118045319765804,0.5725052886784077
1667824979708379400,5.30437939453125,-0.49460956357121466,0.48918461591303347,0.85749244312644
1667824979718386400,5.314386474609375,-0.6955845558583736,0.8938912057191133,1.2297341026574373
1667824979728394500,5.32439453125,-0.5556377405077219,0.9610489714518189,1.450170751261711
1667824979738401500,5.334401611328125,-0.4202374825455248,0.9619429976820946,1.4235177221357822
1667824979748409600,5.34440966796875,-0.45017187142968174,1.2466989737227558,1.3915554806858301
1667824979758416400,5.35441650390625,-0.3936743236601353,1.7447557551383972,1.3852227705329656
1667824979768424400,5.364424560546875,-0.33761092952415345,2.1271315629318357,1.4023849177360534
1667824979778432300,5.374432373046875,-0.2180563293389976,2.297878005693853,1.343725808018446
1667824979788439600,5.384439453125,-0.09392550727948545,2.406077391389012,1.1784013903051613
1667824979798447400,5.394447265625,-0.09005158845558763,2.5472636854067443,1.0184949059873818
1667824979808454400,5.404454345703125,-0.12004895957335829,2.6162568498730656,0.9095014473050832
1667824979818462500,5.41446240234375,0.03771919754147529,2.48512959305495,0.7618360204011202
1667824979828469500,5.424469482421875,0.2834627213597298,2.265066746199131,0.42707156634926796
1667824979838477300,5.434477294921875,0.43599590043053027,2.1142674051836132,0.28987200388014317
1667824979848484600,5.444484619140625,0.47907523676566777,1.9343395848393439,0.36043431735932824
1667824979858492400,5.454492431640625,0.355281756901741,1.847894642573595,0.3411415878683328
1667824979868499500,5.46449951171875,0.15781974117159842,1.9796639966875313,0.22186288201510904
1667824979878507300,5.47450732421875,-0.13483166429400442,2.30486742618978,0.038655601608753205
1667824979888515600,5.484515625,-0.45928222960233683,2.7374206388205287,-0.2386614566028118
1667824979898522400,5.4945224609375,-0.7270809333622456,3.140862323257327,-0.6629530368447304
1667824979908530400,5.504530517578125,-1.1050199277520178,3.4553251630365844,-0.9833324071913957
1667824979918537500,5.514537353515625,-1.4518880765736102,3.544865148708224,-1.1238643289536236
1667824979928545500,5.524545654296875,-1.7817630050182343,3.359407459026575,-1.378247086301446
1667824979938552300,5.53455224609375,-2.112173355513811,3.181619865581393,-1.8164947111815213
1667824979948560400,5.544560302734375,-1.9958593446850776,3.435817914012074,-2.247961882141232
1667824979958567400,5.5545673828125,-1.9663643701314926,4.043179996538162,-2.5891554924577473
1667824979968575500,5.564575439453125,-2.041661310917139,4.380957076409459,-2.681470203539729
1667824979978583300,5.574583251953125,-1.7700164531230926,3.9976808126449583,-2.3913860182136295
1667824979988590600,5.584590576171875,-1.4280711476564407,3.2245944994330404,-1.6424603327900171
1667824979998598400,5.594598388671875,-1.1515338416457175,2.3593454508304594,-0.9256219765007495
1667824980008605400,5.60460546875,-0.9023527445942163,1.6041647966653108,-0.5330886395692825
1667824980018613200,5.61461328125,-0.657848991703987,1.0578899277865885,-0.36460838817358016
1667824980028620500,5.62462060546875,-0.36831659504175185,0.7136416060745716,-0.1344499715000391
1667824980038628400,5.63462841796875,-0.037398733415454626,0.6207102243989706,0.13616495872437953
1667824980048635400,5.644635498046875,0.23223405390381813,0.5604559544444084,0.2848451156288385
1667824980058643500,5.6546435546875,0.8463679686523974,0.4016933794647455,0.20873919654786585
1667824980068650500,5.664650390625,1.6331161658614872,0.1549322030365467,-0.11108604704737662
1667824980078658300,5.674658203125,2.2234701227024196,0.060279404395818706,-0.2673357624232769
1667824980088665600,5.68466552734375,2.533731711399555,0.01666179646551609,-0.20350655659139155
1667824980098673400,5.69467333984375,2.477616148684919,-0.24788462750017642,-0.1651543218433857
1667824980108681500,5.704681396484375,2.1876438993006944,-0.7291600777238607,0.13921499394476414
1667824980118688300,5.714688232421875,1.8871113851964472,-1.207163958930969,0.743383833387494
1667824980128696300,5.7246962890625,1.7590721575215458,-1.5527864916056393,1.0271031598567961
1667824980138703400,5.734703369140625,1.6812939213141798,-1.7501912241905926,1.082013146173954
1667824980148711400,5.74471142578125,1.4922271012246608,-1.8475246402174232,1.2054214991778134
1667824980158718500,5.754718505859375,1.2452286089092492,-1.8166461023509501,1.479289293718338
1667824980168726500,5.7647265625,1.022121864312887,-1.6790280222088096,1.657441628822684
1667824980178733300,5.7747333984375,0.8213681135609745,-1.389293380972743,1.5700293028295038
1667824980188741400,5.784741455078125,0.5018775087475776,-0.9876029241174459,1.3290589847624301
1667824980198749400,5.79474951171875,0.1100827152237296,-0.4515110110789537,1.0814297933280468
1667824980208756500,5.804756591796875,-0.3271197845175862,0.12983458665907383,0.9389683648079633
1667824980218764500,5.8147646484375,-0.7677996049806475,0.42076515968143935,0.9405325453847646
1667824980228771300,5.824771240234375,-1.0504621158733964,0.4016974711179733,0.9610779052853584
1667824980238779600,5.834779541015625,-1.3220295245170592,0.43698388855457304,1.1020382815927265
1667824980248786400,5.844786376953125,-1.589522231067717,0.5972539454877376,1.1994476854652165
1667824980258794500,5.85479443359375,-1.7553087133347987,0.9622060325324535,0.9107564158022403
1667824980268801500,5.864801513671875,-1.9041016829639672,1.6944471251368523,0.6607546500176191
1667824980278809600,5.8748095703125,-2.1045912298217413,1.9703233368903397,0.5021849672615528
1667824980288816400,5.88481640625,-2.3537829943977293,1.616542047679424,0.5103758725017309
1667824980298824400,5.894824462890625,-2.5130162556290627,1.0949199740201234,0.645344314917922
1667824980308832500,5.90483251953125,-2.6327029577612877,0.6156511874437331,0.7268190675556659
1667824980318839600,5.914839599609375,-2.803715942505002,0.13631810345947742,0.692407679387927
1667824980328847400,5.924847412109375,-2.904682162076235,0.0007458499312400817,0.3872100960820913
1667824980338854700,5.934854736328125,-2.9611382087916134,0.2782803502857685,-0.19264438631534575
1667824980348862500,5.944862548828125,-2.9861376254916188,0.7387006440073252,-0.890480520492792
1667824980358869500,5.954869384765625,-3.069566434806585,1.1619213801473378,-1.505354293823242
1667824980368877300,5.964877197265625,-3.1468273691415787,1.210565876328945,-1.9921090522408484
1667824980378884600,5.974884521484375,-3.1155624623060225,0.6901584391564131,-2.5213585520386697
1667824980388892400,5.984892333984375,-3.061753715229034,0.03212649210095406,-2.9972482175707817
1667824980398899500,5.9948994140625,-2.945860560160875,-0.39253158336579796,-3.315613325485587
1667824980408907500,6.004907470703125,-2.875059761750698,-0.7575204952895641,-3.5609646351158615
1667824980418915600,6.01491552734375,-2.800222255170345,-1.3442016088366509,-3.5379689594537016
1667824980428922400,6.02492236328125,-2.516989835435152,-2.128838659110665,-3.41797772141695
1667824980438930400,6.034930419921875,-2.084896057009697,-2.6925077303826805,-3.429419737407565
1667824980448937500,6.0449375,-1.662850209867954,-2.846206592231989,-3.602473288068175
1667824980458945500,6.054945556640625,-1.1992916181206703,-2.8561715214073655,-3.9088983673423527
1667824980468952300,6.064952392578125,-0.7815805853128432,-2.8078403289586302,-4.15937359585762
1667824980478960600,6.074960693359375,-0.33945056604146956,-2.606910929378867,-4.200165624973177
1667824980488967400,6.084967529296875,0.03801498388396576,-2.3516332690179347,-3.816690039244294
1667824980498975500,6.0949755859375,0.34230887808203697,-2.269167751777172,-3.3143998580425977
1667824980508982500,6.104982421875,0.6362339567452668,-2.261466675880551,-2.783230203837156
1667824980518990600,6.114990478515625,0.8865005109459161,-2.179772727534175,-2.2747166180759666
1667824980528998400,6.124998291015625,1.0246458298325538,-2.1449241169929505,-2.0124188498198983
1667824980539005400,6.13500537109375,1.0585025067269802,-2.1189386118650435,-1.8404127623856066
1667824980549013500,6.145013427734375,0.989728830230236,-1.9775339989215135,-1.5936013170748948
1667824980559020500,6.1550205078125,0.9724106156826019,-1.6947861478328703,-1.41134330021739
1667824980569028400,6.1650283203125,0.9517939441114663,-1.3904969115436077,-1.1522224084317683
1667824980579035600,6.17503564453125,0.927277342492342,-1.1985410920143127,-0.9126970284759998
1667824980589043500,6.18504345703125,0.9661515552878379,-1.178378009429574,-0.7251169398128986
1667824980599050500,6.195050537109375,1.0479963102817536,-1.191276069447398,-0.6161474465280771
1667824980609058300,6.205058349609375,1.1196002417683601,-1.1595908913731574,-0.6583025806903838
1667824980619066400,6.21506640625,1.1583926214993,-1.1170692619860172,-0.7147831773251294
1667824980629073400,6.225073486328125,1.0100105707585811,-1.083188035172224,-0.6861538796901703
1667824980639081500,6.23508154296875,0.7738392504710704,-1.2006857028275728,-0.6650614073008299
1667824980649088300,6.245088134765625,0.6307119784533977,-1.4129542425453663,-0.6780033064603805
1667824980659096600,6.2550966796875,0.46234859490301455,-1.6474731925159691,-0.6819675339162349
1667824980669103400,6.265103271484375,0.2612438752889633,-1.8202683845013379,-0.6682365302056074
1667824980679111400,6.275111328125,0.15088029729723929,-1.9256711252152918,-0.7010697092711925
1667824980689118500,6.285118408203125,0.08807572180535644,-1.8457377568006514,-0.821570650395751
1667824980699126500,6.29512646484375,-0.018507132071256635,-1.53186002343297,-0.8517880940049887
1667824980709133300,6.30513330078125,-0.07164850128069519,-1.1229232487112284,-0.8061427796393632
1667824980719141400,6.315141357421875,-0.06685286450199783,-0.8650596635103225,-0.911346198388934
1667824980729149400,6.3251494140625,-0.016303411481902,-0.7323124042749405,-0.9593892215460539
1667824980739156500,6.335156494140625,0.036657778855040665,-0.6791413705796003,-0.8413514556646347
1667824980749164300,6.345164306640625,0.07047573117427527,-0.6465004992157221,-0.8000327723264694
1667824980759171600,6.355171630859375,0.15078092857599257,-0.500284102076292,-0.7723024693578481
1667824980769179400,6.365179443359375,0.27147899970784783,-0.27117197958528994,-0.7487994286954403
1667824980779186400,6.3751865234375,0.32348610419034957,-0.13650865759551525,-0.6679302407354116
1667824980789194200,6.3851943359375,0.29812826597411185,-0.20713000778555868,-0.4850689972877502
1667824980799201500,6.395201416015625,0.25132800941970196,-0.33281858068108555,-0.2200917806893587
1667824980809209300,6.405209228515625,0.1418623666483909,-0.44074002621769903,0.10909224288165568
1667824980819217400,6.415217529296875,0.06307458807229996,-0.5093213950127363,0.3663134385257959
1667824980829224400,6.425224365234375,0.020258432717993855,-0.4863900167584419,0.5359826074451208
1667824980839232500,6.435232421875,-0.05067446763925254,-0.2847369790792465,0.5809300026744604
1667824980849239300,6.4452392578125,-0.21274733621068298,0.20943302403092384,0.5577794287115335
1667824980859247400,6.455247314453125,-0.46810967918038365,1.0231202277004718,0.47061552452147004
1667824980869254400,6.46525439453125,-0.669893722828105,2.222868357416987,0.1813052461773157
1667824980879262500,6.475262451171875,-0.8228548449873924,3.752047178941965,-0.11298165153563022
1667824980889269200,6.485269287109375,-1.0363877055525779,5.056725171163678,-0.4727086974084377
1667824980899277600,6.495277587890625,-1.3503763519488274,5.851416582462191,-0.7703408138960599
1667824980909284400,6.505284423828125,-1.6736230944253503,6.097959147703647,-0.7803788083076476
1667824980919292400,6.51529248046875,-2.0464041215300557,5.865131219559908,-0.5018529588282108
1667824980929300500,6.525300537109375,-2.415286679891497,5.3484688141345975,0.0030839374899864196
1667824980939307500,6.5353076171875,-2.5302993988633156,4.744871637099981,0.4774971007287502
1667824980949315600,6.545315673828125,-2.5073043077230452,4.235084962663054,0.8781096992194652
1667824980959322400,6.555322265625,-2.4567303047835827,3.8358606036603446,1.2450520832985639
1667824980969330400,6.565330322265625,-2.324174768728018,3.4801959849208592,1.5901906318485737
1667824980979337500,6.57533740234375,-2.1672924545370043,3.2178017705529927,1.874935209712386
1667824980989345500,6.585345458984375,-2.09597289294973,2.942714078828692,2.133480931958556
1667824980999352600,6.5953525390625,-1.9976867062427102,2.561395378872752,2.411529227054119
1667824981009360600,6.605360595703125,-1.85092962635532,2.180343220898509,2.729133871990442
1667824981019367400,6.615367431640625,-1.7214077589072285,1.90786366584599,2.8984628491699693
1667824981029375500,6.62537548828125,-1.5928477222286164,1.7369260844260452,3.0026977151483294
1667824981039383300,6.63538330078125,-1.3862125122226774,1.564174731582403,3.153365246477723
1667824981049390600,6.645390625,-1.2309890711545943,1.2950766356617212,3.299733034786582
1667824981059398400,6.6553984375,-1.0921639533102512,0.9640525371819734,3.4597961709707974
1667824981069405400,6.665405517578125,-0.9192962806105613,0.6355699398785829,3.6022675363630055
1667824981079413500,6.67541357421875,-0.6942588602125644,0.3266086201250553,3.787680217859149
1667824981089420300,6.685420166015625,-0.5161925959564745,-0.010269465079903601,3.981510014566779
1667824981099428400,6.695428466796875,-0.31935119634270664,-0.22890695530772207,4.083071861943602
1667824981109435400,6.705435302734375,-0.1252479164559394,-0.29451076959669586,4.181988747769594
1667824981119443500,6.715443359375,0.05885550907254219,-0.2790256156951189,4.188256575992703
1667824981129451500,6.725451416015625,0.2586251441579312,-0.16468027459084986,4.080139315623045
1667824981139458300,6.735458251953125,0.3891219941180199,-0.007432195827364921,3.9380075574487448
1667824981149466600,6.745466552734375,0.4382137226104736,0.10742343288660049,3.7892771316617724
1667824981159473400,6.755473388671875,0.36391156501583755,0.21796412101089954,3.6534038493603465
1667824981169481500,6.7654814453125,0.25010171902775763,0.23134908776283264,3.478047866976261
1667824981179488500,6.775488525390625,0.08777297599911689,0.20244798744916914,3.2505496094226833
1667824981189496600,6.78549658203125,-0.1045780533928424,0.33332477663755417,2.9950509997874497
1667824981199503400,6.79550341796875,-0.33154322698302563,0.6380068116366863,2.65425778696537
1667824981209511400,6.805511474609375,-0.5735701414309442,0.9737018245369196,2.348138997161388
1667824981219518500,6.8155185546875,-0.8179273985225707,1.2462123592495917,2.0202403372257947
1667824981229526500,6.825526611328125,-1.0325487119115888,1.532553850916028,1.5727970139771699
1667824981239534300,6.835534423828125,-1.2645311291418968,1.955255531617999,1.0080237808555363
1667824981249541600,6.845541748046875,-1.480197640734911,2.568978381347656,0.39399990235269067
1667824981259553500,6.855553466796875,-1.6760114508666097,3.1274674196332692,-0.07842705550491809
1667824981269560300,6.865560302734375,-1.7569293002739548,3.3324498939961193,-0.5114344416439532
1667824981279568400,6.875568359375,-1.803235855027288,3.1324568984836336,-0.8553098383903502
1667824981289575400,6.885575439453125,-1.8411913455426692,2.661535669013858,-1.085558271434903
1667824981299583500,6.89558349609375,-1.7218752302885054,2.1410352928608654,-1.2779723561257124
1667824981309590300,6.90559033203125,-1.5155508397974073,1.7325988688766956,-1.5010563043683767
1667824981319598300,6.915598388671875,-1.3673663574554025,1.5842711786717176,-1.7879554299175737
1667824981329605400,6.92560546875,-1.2173792096056044,1.7218781528979539,-2.3045985461205243
1667824981339613400,6.935613525390625,-0.9782117031767964,2.127970059582591,-2.9481553930997846
1667824981349621500,6.94562158203125,-0.6836531489156186,2.570010062482953,-3.5409716484010216
1667824981359628500,6.955628662109375,-0.22903788821101187,2.6677561509639025,-4.041566716122627
1667824981369636600,6.96563671875,0.3370516882061958,2.493813542509079,-4.440945388904214
1667824981379643400,6.975643310546875,1.0351358057953417,2.306867075574398,-4.738759876221418
1667824981389651500,6.9856513671875,1.9188800037704408,1.9879262135982512,-4.9049692600756885
1667824981399658500,6.995658447265625,2.974458878135681,1.5303192237317562,-4.924983874100446
1667824981409666600,7.00566650390625,4.080133470404148,0.9175123198032379,-4.755575986465812
1667824981419673300,7.01567333984375,5.017687876760959,0.12423486695587635,-4.335205379059911
1667824981429681700,7.025681640625,5.585085613167285,-0.8288917870640754,-3.784074886843562
1667824981439688400,7.0356884765625,6.005597090348601,-1.5525158579707146,-3.0707781486839054
1667824981449696500,7.045696533203125,5.9735869181036945,-1.9540940866231917,-2.602773683443665
1667824981459704300,7.055704345703125,5.750445686715841,-2.2738456804603335,-2.4212732069551945
1667824981469711600,7.065711669921875,5.761075217279791,-2.3949907647073267,-2.161459656730294
1667824981479719400,7.075719482421875,5.7051043237328525,-2.1855676775485278,-1.9903104783862828
1667824981489726500,7.0857265625,5.593613203015924,-1.9544097284436224,-1.8450994588971137
1667824981499734500,7.095734619140625,5.502165337896347,-2.1206080063819885,-1.754454142332077
1667824981509741600,7.105741455078125,5.3664235730201,-2.4899130279392003,-1.6718781504541635
1667824981519749400,7.115749267578125,4.969402277019619,-2.671122997048497,-1.430603296482563
1667824981529756700,7.125756591796875,4.660242804345488,-2.7487171088606117,-1.207850772151351
1667824981539764500,7.135764404296875,4.329539608383178,-2.885768202769756,-1.167465570271015
1667824981549772500,7.1457724609375,4.027876044422388,-2.9665415291398762,-1.0916302848249673
1667824981559779300,7.155779296875,3.688043785586953,-2.9010575418382882,-1.0348124190598726
1667824981569787400,7.165787353515625,3.419212816169858,-2.6049627179205417,-1.1954150689482688
1667824981579794400,7.17579443359375,3.1508798594027754,-2.140012379553914,-1.2238707635819912
1667824981589802500,7.185802490234375,2.893981904363632,-1.9051964924633502,-1.0625374613314866
1667824981599809500,7.1958095703125,2.7402105618000028,-1.9703169071495532,-1.0564204397559165
1667824981609817600,7.205817626953125,2.619669288665056,-2.066419320076704,-0.975524948310852
1667824981619824400,7.215824462890625,2.3638830942600966,-2.2575421959131954,-0.8383107727944851
1667824981629832400,7.22583251953125,2.3675550607711076,-2.318486201697588,-0.9135796565294265
1667824981639839500,7.235839599609375,2.206641445237398,-1.79708273922503,-0.6364753642857074
1667824981649847600,7.24584765625,1.9993769974172113,-1.5284686274290085,-0.7112047343164682
1667824981659855400,7.25585546875,2.155892670252919,-1.542007323437929,-0.8038298265218734
1667824981669862400,7.2658623046875,2.113811185848713,-1.3652671932190656,-0.8575251763522624
1667824981679870500,7.275870361328125,2.0265870759040117,-1.1829910561829804,-0.9621972647041082
1667824981689877500,7.28587744140625,1.8966992977529764,-1.2001058571130037,-0.9851561154872178
1667824981699885300,7.29588525390625,1.7251830396622418,-1.2922685925036668,-1.0732909105360506
1667824981709892600,7.305892578125,1.588996453627944,-1.1771557741582392,-1.2816110048890113
1667824981719900400,7.315900390625,1.5317325976610183,-0.7549684727191924,-1.5740344468176364
1667824981729907500,7.325907470703125,1.4737287369817496,-0.1952349873304367,-1.9859505296111106
1667824981739915300,7.335915283203125,1.3250333825081586,0.41054947061538694,-2.408734043377638
1667824981749923600,7.345923583984375,1.1137240432113409,0.85767890560925,-2.723115634614229
1667824981759930400,7.355930419921875,0.8286492104798555,1.0240981328219174,-2.898564555978775
1667824981769938400,7.3659384765625,0.5006827460050582,0.9392220473080873,-2.912230677759647
1667824981779945500,7.375945556640625,0.15066050793356262,0.605118102991581,-2.7815695771485567
1667824981789953500,7.38595361328125,-0.1922749867473729,0.12514029136300087,-2.513193950283527
1667824981799960300,7.395960205078125,-0.4604431266078725,-0.39981414158940315,-2.1695313195049764
1667824981809968400,7.405968505859375,-0.7239058104574679,-0.8378414017170667,-1.7996067047446964
1667824981819975400,7.415975341796875,-0.9188076203107833,-1.0996832428991794,-1.41552087816298
1667824981829983500,7.4259833984375,-1.0377578979272395,-1.0998714589476584,-1.1490092916041612
1667824981839990300,7.435990234375,-1.0883481944143771,-0.8820680814564228,-0.9292740692675113
1667824981849998600,7.44599853515625,-1.154179387718439,-0.41227731732130046,-0.912653773856163
1667824981860006400,7.45600634765625,-1.1264202970467507,0.4973141463547945,-0.9622416883677244
1667824981870013400,7.466013427734375,-1.1935584812961517,1.6551608244091272,-1.0662596967250109
1667824981880021200,7.476021240234375,-1.3805880964696406,2.8556472052723167,-1.2240215702295303
1667824981890028500,7.486028564453125,-1.569554524924606,4.04713779425323,-1.406108322173357
1667824981900036400,7.496036376953125,-1.8115864808738231,5.318257800266147,-1.6074731905609367
1667824981910043400,7.50604345703125,-2.0428093119084836,6.61677902342379,-1.7894816165715455
1667824981920051500,7.516051513671875,-2.3269993246294556,7.612327938109636,-1.8931927509367465
1667824981930058500,7.52605859375,-2.635893278235197,8.088221695294976,-1.8135761933863161
1667824981940066300,7.53606640625,-2.890100679016113,8.158513959661125,-1.4764859267354011
1667824981950074400,7.546074462890625,-3.085467768293619,7.933494074919819,-0.9512895017206668
1667824981960081400,7.556081298828125,-3.140807962721586,7.462368262788653,-0.4064256686836481
1667824981970089500,7.56608935546875,-3.057229223541915,6.993340299719572,0.13166004852056504
1667824981980096300,7.57609619140625,-2.9290824438393113,6.559012478631734,0.6614239275813102
1667824981990104300,7.586104248046875,-2.7604370650097727,6.045761342954635,1.283112641623616
1667824982000111400,7.596111328125,-2.6891712794363496,5.316998155593872,1.9566174676209687
1667824982010119400,7.606119384765625,-2.657431740826368,4.323799895687401,2.6502678405463693
1667824982020126500,7.61612646484375,-2.4685940533176063,3.2654882353574037,3.2561002292871475
1667824982030134500,7.626134521484375,-2.2394868992626664,2.418418986567855,3.6523704146593805
1667824982040141300,7.636141357421875,-2.1027096538588403,1.938335960999131,3.9882653340458867
1667824982050149400,7.6461494140625,-1.8592562868043778,1.7449261432692407,4.311051765534281
1667824982060157400,7.656157470703125,-1.7361515929222107,1.59582045442909,4.550829074424505
1667824982070164500,7.66616455078125,-1.4944203734852373,1.320351362171769,4.769978021305799
1667824982080172500,7.676172607421875,-1.1807540909111498,0.9285220818564295,5.002013337767124
1667824982090179300,7.686179443359375,-0.9237572055421769,0.49847705265432596,5.09491607787013
1667824982100187600,7.696187744140625,-0.5821018229328095,0.15366145244836807,5.243992540615797
1667824982110194400,7.7061943359375,-0.278754982060194,0.005348375290632247,5.420388387441635
1667824982120202500,7.716202392578125,-0.03722600719705224,-0.05134937122613191,5.5266006909728045
1667824982130209500,7.72620947265625,0.2188428035415709,-0.06113076052814722,5.566339996165037
1667824982140217600,7.736217529296875,0.438937506840378,-0.0217938986569643,5.634067378479242
1667824982150225400,7.746225341796875,0.5672177036643028,-0.06000351006388664,5.6555158246994015
1667824982160232400,7.756232421875,0.684279902511835,-0.09918927302658558,5.6716386919826265
1667824982170240500,7.766240478515625,0.6240050281606614,-0.01614595589786768,5.678586319163442
1667824982180247600,7.77624755859375,0.5001508310854434,0.11374620616734027,5.566103849321603
1667824982190255400,7.78625537109375,0.3168283998668194,0.3557958439037204,5.381226005354524
1667824982200262700,7.7962626953125,0.037885055627673865,0.6953449018836021,5.1545542617529625
1667824982210270500,7.8062705078125,-0.2053518921971321,1.0695815346240998,4.873582772687077
1667824982220277500,7.816277587890625,-0.43866497350931166,1.475713773319125,4.603270040279627
1667824982230285300,7.826285400390625,-0.7498772870600223,1.8261627032369374,4.224134529581666
1667824982240292600,7.836292724609375,-0.939651670897007,2.163738999839127,3.8599183555960654
1667824982250300400,7.846300537109375,-1.2328139484941958,2.4753987648963927,3.4705309154748916
1667824982260304600,7.8563046875,-1.3663377450600265,2.8135210049435493,2.9958640697360037
1667824982270311700,7.866311767578125,-1.519442440408468,3.170760325653851,2.5289567520827054
1667824982280319700,7.87631982421875,-1.6291677204966544,3.3934424150973554,1.982745596089959
1667824982290326500,7.886326416015625,-1.654053155428171,3.5005911226958033,1.4755799178063869
1667824982300334600,7.89633447265625,-1.7367504355981944,3.4840666888743637,0.9853191970944404
1667824982310341600,7.906341552734375,-1.7417526277996598,3.438291610649228,0.4068973778486252
1667824982320349700,7.916349609375,-1.7315084432914851,3.4688749649614095,-0.1923947954684496
1667824982330356500,7.9263564453125,-1.7753661435879766,3.5305168898820876,-0.8312725447207688
1667824982340364800,7.93636474609375,-1.7551321877241133,3.520096033632755,-1.4836632710188626
1667824982350371600,7.94637158203125,-1.708238188471645,3.4631606789678333,-2.1555857962608336
1667824982360379600,7.956379638671875,-1.6946436706222592,3.4775527769356964,-2.865688122293353
1667824982370387700,7.9663876953125,-1.6939397601366042,3.535512213951349,-3.5810412084609267
1667824982380394800,7.976394775390625,-1.5894342605233192,3.4807711544603106,-4.221241730749607
1667824982390402800,7.98640283203125,-1.4644471138954163,3.276417625650763,-4.731579024806618
1667824982400409600,7.99640966796875,-1.3902420599997043,2.7974153810560702,-5.080073313525319
1667824982410418000,8.00641796875,-1.235395927811414,1.9363076700419186,-5.1808530706137415
1667824982420424700,8.0164248046875,-1.124648026677221,0.8689099091976881,-5.152046662846208
1667824982430432800,8.026432861328125,-0.9182612384743988,-0.010783259820938109,-5.085235226333141
1667824982440439800,8.036439697265624,-0.6726691058255732,-0.43990532895922657,-5.067615983012319
1667824982450448000,8.04644775390625,-0.29733444871529935,-0.48982934355735774,-5.267118564659357
1667824982460455700,8.05645556640625,0.24086261990889907,-0.3018178777396679,-5.608733615258336
1667824982470462700,8.066462646484375,0.8799870373986661,-0.01132043543756008,-5.981046001937985
1667824982480470800,8.076470703125,1.5272586671173571,0.2803933969169855,-6.273220437541604
1667824982490477800,8.086477783203126,2.0433026483833787,0.20349895780682561,-6.259812674435973
1667824982500485600,8.096485595703125,2.4293980612218378,-0.35336569414734836,-5.947962062981724
1667824982510493000,8.106492919921875,2.792685429924726,-0.9456418512225151,-5.516280372488499
1667824982520500700,8.116500732421875,3.1677006458222863,-1.3002081533312797,-5.259703319966793
1667824982530507800,8.1265078125,3.641590077447891,-1.3586229328989983,-4.966428814166784
1667824982540515600,8.136515625,4.013645274496079,-1.3363269299387932,-4.735611056801677
1667824982550523000,8.14652294921875,4.275761256444454,-1.387262167406082,-4.435746651217341
1667824982560530700,8.15653076171875,4.277619451531768,-1.6515829659223555,-4.159034573161602
1667824982570538800,8.166538818359374,4.158631837579608,-2.07064132168591,-3.8572941445723172
1667824982580545500,8.176545654296875,4.037140131852031,-2.4549177024036646,-3.5958331194013353
1667824982590553900,8.186553955078125,3.9285944169372318,-2.6154893726319073,-3.41997327914834
1667824982600560600,8.196560546875,3.894890884777903,-2.5479642348915337,-3.286875014518201
1667824982610568700,8.206568603515626,3.8035049789786335,-2.374942832934856,-3.2975621204882857
1667824982620575700,8.21657568359375,3.685696930199861,-2.177389047268033,-3.2364795830160378
1667824982630583800,8.226583740234375,3.5475557029664513,-2.1188696382820607,-3.090616821619868
1667824982640590600,8.236590576171874,3.3460324291467667,-2.21225110181272,-2.847657375562191
1667824982650598700,8.2465986328125,3.1087545358568427,-2.4831302359312772,-2.571015440133214
1667824982660606700,8.256606689453125,2.858282229951024,-2.8188059596091506,-2.3248384933337567
1667824982670613800,8.26661376953125,2.639043266698718,-3.017905805674195,-2.071148978947103
1667824982680621600,8.27662158203125,2.4224837517887354,-3.105923111823201,-1.7286533461213112
1667824982690628900,8.28662890625,2.2453806334763766,-3.160478293353319,-1.4762445191949605
1667824982700636700,8.29663671875,2.0700228975266217,-3.041019554758072,-1.3278542851477861
1667824982710643700,8.306643798828125,1.9853034638792275,-2.7510546118974686,-1.1508154642432928
1667824982720651500,8.316651611328124,1.8640712858706712,-2.4658108523398634,-0.9654536361515521
1667824982730658800,8.326658935546876,1.7474223439991474,-2.206675347507,-0.8186579778194427
1667824982740666600,8.33666650390625,1.647309526386857,-1.9445120192855596,-0.6825315975397824
1667824982750674700,8.3466748046875,1.5414695632994173,-1.7409826663404702,-0.5234755925714969
1667824982760681700,8.356681640625,1.4036118291825055,-1.6117711800158023,-0.2984405102610588
1667824982770689800,8.366689697265626,1.2497317655473947,-1.53174837975204,-0.1354179397493601
1667824982780696600,8.376696533203125,1.0760586216837167,-1.3648966063410042,0.012826748347282408
1667824982790704600,8.38670458984375,0.9346230290800333,-1.154016890633106,0.18736030843257903
1667824982800711700,8.396711669921874,0.8106722397625445,-0.9712497552096843,0.30771745717227456
1667824982810719700,8.4067197265625,0.7093383559226989,-0.7756213846474885,0.392141707265377
1667824982820726500,8.4167265625,0.6447311514556407,-0.5278291116058826,0.43210371529757974
1667824982830734800,8.42673486328125,0.5638274767041206,-0.3093412589818239,0.4416518803656101
1667824982840741600,8.43674169921875,0.5250432802796363,-0.11179390305578708,0.4788210428088903
1667824982850749700,8.446749755859376,0.4391080411016941,0.014304419684410095,0.4898889647901058
1667824982860757500,8.456757568359375,0.31593174328804013,0.12136837160885333,0.47063306017816064
1667824982870764800,8.466764892578125,0.2766062795937061,0.30910394309461114,0.4002496103972196
1667824982880772600,8.476772705078124,0.28519524424076076,0.5635819775104522,0.3604232114434242
1667824982890779600,8.486779541015625,0.2375508650124073,0.7683271359860897,0.3316770094305277
1667824982900787700,8.49678759765625,0.16471249636001883,0.898363967218995,0.240761059230566
1667824982910794800,8.506794677734375,0.09516023670621215,0.9598404724448919,0.18713234489560127
1667824982920802600,8.516802490234374,0.028202158264070746,0.9893009602069854,0.15276011969447134
1667824982930809900,8.526809814453125,-0.016111834432557225,1.0283084439933299,0.130123340472579
1667824982940817700,8.536817626953125,-0.10624028751663862,1.111760049661994,0.08392039222419262
1667824982950824700,8.54682470703125,-0.22335874659605323,1.270742404872179,-0.023348726883530617
1667824982960832500,8.55683251953125,-0.2523650608498603,1.4862807600408792,-0.1330991414129734
1667824982970840600,8.566840576171876,-0.3698455581746995,1.6028940460771322,-0.18506021479666232
1667824982980847600,8.57684765625,-0.44408466047048567,1.609417894887924,-0.1279705463528633
1667824982990855700,8.586855712890625,-0.5255611666738986,1.5319377648442982,-0.06124561907947063
1667824983000862700,8.59686279296875,-0.6082077395699917,1.4083271672666071,0.09280921660065651
1667824983010870800,8.606870849609376,-0.6852584652204066,1.2168868960440158,0.3086661361992359
1667824983020877600,8.616877685546875,-0.7859647186812013,1.0594628761917353,0.5128688583612442
1667824983030885600,8.6268857421875,-0.8556593824803829,1.0089110850840806,0.7047650566577911
1667824983040892700,8.636892578125,-0.9667173724770546,1.0275263537049293,0.9155711226075887
1667824983050900700,8.646900634765625,-1.0868833825588227,1.2271768193900585,0.9760913500219583
1667824983060907500,8.656907470703125,-1.18868503004089,1.8192209212750194,0.9000023820757865
1667824983070915600,8.66691552734375,-1.299850572065264,2.679714884305,0.818717014530301
1667824983080924000,8.676923828125,-1.411917300713062,3.570882802540064,0.7377098794043063
1667824983090930700,8.6869306640625,-1.4801697298146783,4.320985130527616,0.7200684242516756
1667824983100938800,8.696938720703125,-1.619495052266121,4.8391509262531995,0.7562877386242151
1667824983110945800,8.70694580078125,-1.7445383129954337,5.265016623944044,0.73235039819777
1667824983120953900,8.716953857421874,-1.8666775228463113,5.771050083327293,0.6970633962392807
1667824983130960600,8.726960693359375,-2.0584299287579952,6.144253281366825,0.7093161440908908
1667824983140968700,8.73696875,-2.16352740291506,6.245520529711246,0.8168523897022009
1667824983150975700,8.746975830078124,-2.264295323435217,6.131130764943361,1.0175374591320752
1667824983160983800,8.75698388671875,-2.323387856134027,5.890182658708095,1.1981529694795607
1667824983170991600,8.76699169921875,-2.3476108816340564,5.612049607938528,1.376546127602458
1667824983180999000,8.7769990234375,-2.345432953073084,5.224301167196035,1.6179735417872667
1667824983191006700,8.7870068359375,-2.3311788022711872,4.655500285993516,1.8967489821135997
1667824983201013800,8.797013671875,-2.3591174872934815,4.01692385777533,2.190364848697185
1667824983211021600,8.807021484375,-2.341794304309785,3.2495591370806096,2.5273037241786716
1667824983221028900,8.81702880859375,-2.302175995148718,2.4333055900543927,2.806577761676907
1667824983231036700,8.82703662109375,-2.189054642881453,1.6957777892187236,3.078665687063336
1667824983241043500,8.83704345703125,-2.03498256380558,1.119363510403037,3.225356715977192
1667824983251051800,8.8470517578125,-1.8515689471721648,0.7416641699880361,3.334535468098521
1667824983261059300,8.857059326171875,-1.5837939165487884,0.49822132432758803,3.4332881032735107
1667824983271067100,8.867067138671874,-1.2522023934446274,0.36869010452926154,3.473579781651497
1667824983281075200,8.8770751953125,-0.9357315748438239,0.23902444469630718,3.510334518074989
1667824983291082200,8.887082275390625,-0.6236709739007056,0.0015343699604272842,3.5639696621507406
1667824983301090300,8.89709033203125,-0.3832324246227741,-0.2242529920220375,3.549612050974369
1667824983311097000,8.90709716796875,-0.18592121554017066,-0.43702538960874077,3.500338609239459
1667824983321105200,8.917105224609376,0.007762450695037841,-0.7272451840132474,3.4416935280472036
1667824983331112200,8.9271123046875,0.24776940362267194,-0.8913099570542573,3.3996009377270937
1667824983341120300,8.937120361328125,0.38821364710144696,-0.9454594803929328,3.21773221244812
1667824983351127000,8.947126953125,0.6081739103656262,-0.9106132079392671,3.0546020899087187
1667824983361135400,8.95713525390625,0.7145498800259084,-0.8307301084071397,2.875855880564451
1667824983371143200,8.96714306640625,0.8024012550234794,-0.7438076117575169,2.670475346794724
1667824983381150200,8.977150146484375,0.8094283041160554,-0.6968120518267155,2.3654349998772144
1667824983391158000,8.987157958984374,0.7435223650753497,-0.6448515629649162,2.0171838722646234
1667824983401165300,8.997165283203126,0.6429355002105236,-0.4795131167262792,1.691470739674568
1667824983411173000,9.007173095703125,0.4388601672878489,-0.317716873139143,1.3744687368065118
1667824983421180200,9.01718017578125,0.25656528901867565,-0.11827274368107318,0.9390168801248073
1667824983431188200,9.027188232421874,0.06314473069906235,0.15693360598683356,0.43595396098494527
1667824983441195300,9.0371953125,-0.21392098309993743,0.3582984743744135,0.029920506489276886
1667824983451203000,9.047203125,-0.5038695593476296,0.4414654178828001,-0.35024259369075295
1667824983461210400,9.05721044921875,-0.7838006725151091,0.4986614693105221,-0.7560597750872373
1667824983471218200,9.06721826171875,-0.9978864177227019,0.5126753816157579,-1.1083604703515768
1667824983481226200,9.077226318359376,-1.1095476343095303,0.47902971712350845,-1.4345079027056693
1667824983491233000,9.08723291015625,-1.2205777133859694,0.4948310973674059,-1.8106424780219792
1667824983501241000,9.097240966796875,-1.2899030324161052,0.534618917876482,-2.1452093636751175
1667824983511248100,9.107248046875,-1.3504571621000765,0.532938417443633,-2.4183950211703777
1667824983521256200,9.117256103515626,-1.4267664947986602,0.5305448003053664,-2.6670079629451036
1667824983531263200,9.12726318359375,-1.4428548752903938,0.5175824428796768,-2.9410727413624524
1667824983541271300,9.137271240234375,-1.473598242469877,0.48377661938965316,-3.211300133574009
1667824983551278000,9.147278076171874,-1.3932465025126932,0.4719873973965645,-3.397224271723628
1667824983561286100,9.1572861328125,-1.337683020722866,0.4097235411852598,-3.5928695934206245
1667824983571294000,9.1672939453125,-1.2471965479813516,0.3314443697184324,-3.6612083856314417
1667824983581301200,9.17730126953125,-1.1793794415570795,0.0927484263241291,-3.660406421598792
1667824983591309000,9.18730908203125,-1.1598902396459132,-0.4090957646757364,-3.591307750931382
1667824983601316000,9.197316162109376,-1.1012263806879519,-1.0368915634214877,-3.404672834163904
1667824983611324200,9.20732421875,-1.0267091921031475,-1.58219671048522,-3.188001675572991
1667824983621331200,9.217331298828125,-0.8694633052967489,-2.0248703351140023,-2.988188712802529
1667824983631339000,9.227339111328124,-0.6408955188155174,-2.3052526261150836,-2.7663877901077267
1667824983641346300,9.23734619140625,-0.37658041938766834,-2.3765888465762135,-2.6521973473042246
1667824983651354000,9.24735400390625,-0.04706219542622566,-2.109541837966442,-2.756838455995917
1667824983661361200,9.257361083984375,0.3362543272834271,-1.4265753561407326,-2.9949101300120353
1667824983671369000,9.267368896484374,0.7819044104397297,-0.5505868868589401,-3.151656688994169
1667824983681377300,9.277377197265626,1.2674047848820686,0.11783376774191856,-3.341782955008745
1667824983691384000,9.287384033203125,1.7094518020451068,0.4209340865075588,-3.527539335376024
1667824983701392100,9.29739208984375,1.992452751111984,0.41080549120306964,-3.5920746436506508
1667824983711399200,9.307399169921876,2.1330255894064902,0.2216477779597044,-3.5138439875006675
1667824983721407200,9.3174072265625,2.192939083099365,-0.07059563122689723,-3.3896611429929733
1667824983731414000,9.3274140625,2.2862895669698715,-0.4087538193702698,-3.2289716916039586
1667824983741422000,9.337422119140625,2.4415830045342446,-0.6786842744618654,-3.125322516559064
1667824983751429000,9.34742919921875,2.6884008795857426,-0.7788426847815513,-3.1634614008173343
1667824983761437200,9.357437255859375,2.858630604997277,-0.7064987485826015,-3.167557437959313
1667824983771445200,9.3674453125,3.070111209207773,-0.6181272221684455,-3.1617516742900014
1667824983781452300,9.377452392578125,3.334436683899164,-0.6744675335496664,-3.109944037902355
1667824983791460400,9.38746044921875,3.554785069698095,-0.8759089743047952,-2.9947505555361507
1667824983801467100,9.397467041015625,3.7055548923581836,-1.0986118142753838,-2.8964573545664547
1667824983811475200,9.40747509765625,3.759546010264754,-1.289118019518256,-2.7155881617188453
1667824983821482200,9.417482177734374,3.710966396012902,-1.4727660294294356,-2.4283482599079607
1667824983831490300,9.427490234375,3.5796395249694584,-1.7503911306768656,-2.063340058761835
1667824983841497000,9.4374970703125,3.461631569704413,-2.0735463954776523,-1.809257161143422
1667824983851505200,9.447505126953125,3.3401240818858144,-2.283369880130887,-1.5727233642190694
1667824983861513200,9.45751318359375,3.2411803080528974,-2.3493057028532025,-1.3389835819274187
1667824983871520300,9.467520263671876,3.106296036788821,-2.3180489793241024,-1.0910101071000098
1667824983881528000,9.477528076171875,2.932865469509363,-2.2974083423554896,-0.88682901224792
1667824983891535400,9.487535400390625,2.7641566700547933,-2.290938269558549,-0.6946990051954984
1667824983901543200,9.497543212890625,2.577548056772351,-2.205795057541132,-0.5781640450924634
1667824983911550200,9.50755029296875,2.376366728258133,-2.0153432128340003,-0.4901853173881769
1667824983921558000,9.51755810546875,2.1877327466279266,-1.7927812426388263,-0.36887773605585095
1667824983931565300,9.5275654296875,2.000547210240364,-1.6497966670274733,-0.2578150698840618
1667824983941573000,9.537572998046874,1.8353361897736786,-1.5210434458643196,-0.14767711734175681
1667824983951580200,9.547580078125,1.6758388707786798,-1.3700754702836275,-0.020485154145956037
1667824983961588200,9.557588134765625,1.5471037697941064,-1.2227157483279705,0.06169628545641899
1667824983971596300,9.56759619140625,1.4407383215278387,-1.0720587383925915,0.13354279352724552
1667824983981603000,9.57760302734375,1.3106763558536767,-0.9184943165779114,0.2594657597005367
1667824983991611100,9.587611083984376,1.1686188319593667,-0.8496808925926684,0.35488720462620255
1667824984001618200,9.5976181640625,1.0565057799518107,-0.760278854086995,0.3971528134256601
1667824984011626200,9.607626220703125,0.8795207350611686,-0.5406763182193041,0.33237375952303405
1667824984021633000,9.617633056640624,0.6677940471351146,-0.17170856579244137,0.16590426342785358
1667824984031641300,9.627641357421876,0.5519032301545143,0.38242578441500663,-0.08566635910868645
1667824984041648000,9.637648193359375,0.48247488914132114,1.0060182862520217,-0.35392157446444034
1667824984051656200,9.64765625,0.3367114599337801,1.5154752903431654,-0.6208329739958047
1667824984061664000,9.6576640625,0.20625673208236694,1.9011726437747478,-0.8663812675029039
1667824984071671300,9.66767138671875,0.0635644174158573,2.2471388753205535,-1.0914730484366417
1667824984081679000,9.67767919921875,-0.10643573702350258,2.458005147024989,-1.1859440607696772
1667824984091686100,9.68768603515625,-0.28516251101493834,2.302826860272884,-1.1183803445845841
1667824984101694200,9.697694091796874,-0.45357853806801135,1.800375935551524,-0.8170195629626512
1667824984111701200,9.707701171875,-0.6546879703897982,1.0474567965775727,-0.4890443306595087
1667824984121709000,9.717708984375,-0.8016226718664169,0.48253217228651046,-0.2735919002085924
1667824984131716400,9.72771630859375,-0.9044447484374046,0.37474984295964237,-0.11531740100681781
1667824984141724200,9.73772412109375,-0.9660768095511942,0.47713411263525485,0.04039689231812954
1667824984151731200,9.747731201171876,-0.9981763405799865,0.6214619195491076,0.1875754124879837
1667824984161739000,9.757739013671875,-1.1070772986732422,0.9776046771943568,0.16428104614019393
1667824984171747300,9.767747314453125,-1.2166298525430261,1.7840391332566736,-0.04721475563943386
1667824984181754000,9.777754150390624,-1.34509826541543,2.980115296462178,-0.30183132174313065
1667824984191762200,9.78776220703125,-1.5772238905087113,4.2808916050702335,-0.5604933638453483
1667824984201769200,9.797769287109375,-1.7682441827535629,5.598607358041406,-0.8919359799981117
1667824984211777300,9.80777734375,-1.9860649497710168,6.896264657846093,-1.2066086631357669
1667824984221784000,9.8177841796875,-2.25958027761206,7.9270731019616125,-1.4127870692849158
1667824984231792000,9.827792236328126,-2.5648633472442626,8.367947568213939,-1.3998989461392164
1667824984241799200,9.837799072265625,-2.8088194031238554,8.130280967867375,-1.1367395926177501
1667824984251807200,9.84780712890625,-2.9455332279026507,7.609329340815544,-0.7130161676526069
1667824984261814000,9.85781396484375,-2.9869603400513527,7.075742688596248,-0.18537585661709308
1667824984271821000,9.867821044921875,-2.8861858436599372,6.5407029149591915,0.35577567789852615
1667824984281829000,9.8778291015625,-2.8723300445258615,5.9509466317504645,0.9696738841950893
1667824984291836000,9.8878359375,-2.772702087821066,5.265763058397174,1.4928490325152872
1667824984301844200,9.89784423828125,-2.7375848894715307,4.517813232268392,1.991466662684083
1667824984311851000,9.90785107421875,-2.7354852868437765,3.486229127605259,2.616853062200546
1667824984321859000,9.917859130859375,-2.684071910470724,2.335031970568001,3.1479537428230047
1667824984331866000,9.9278662109375,-2.582613523468375,1.362026896123588,3.6270664620548483
1667824984341874200,9.937874267578126,-2.4946239821091294,0.7071683184072375,3.9194098244845863
1667824984351882000,9.947882080078125,-2.3867104276180267,0.37068536999970675,4.173217412292957
1667824984361889000,9.957888916015625,-2.1136510268509388,0.13346271402835846,4.386388453808427
1667824984371897000,9.96789697265625,-1.7556024355843662,-0.012670096480846405,4.564765829840302
1667824984381904100,9.977904052734376,-1.4926131779327987,-0.19714637390971182,4.684474743804335
1667824984391912000,9.987911865234375,-1.176348111037165,-0.3989315135359764,4.852928691715002
1667824984401919200,9.997919189453125,-0.89425185572505,-0.5472527740001678,4.948948102533817
1667824984411927000,10.007927001953124,-0.6896785466849803,-0.6902344270020723,5.030073895603418
1667824984421934000,10.01793408203125,-0.4850291036687791,-0.8700596637547016,5.08124644895792
1667824984431942000,10.02794189453125,-0.2653789292670786,-0.9885238383546471,5.100201909318566
1667824984441949200,10.03794921875,-0.09450652203783393,-1.0074532874912023,5.1080830179572105
1667824984451957000,10.04795703125,0.07367898419499397,-0.9315911140382289,5.0482536954164505
1667824984461965000,10.057965087890626,0.11890110471248626,-0.8701046719402075,4.934126380977034
1667824984471972000,10.06797216796875,0.2015793879210949,-0.8284381980776786,4.851722823056578
1667824984481980200,10.077980224609375,0.2565980953097343,-0.7892635410308837,4.655638525420427
1667824984491987000,10.087987060546874,0.25806509912237524,-0.6610089170396327,4.356082747393846
1667824984501995000,10.0979951171875,0.22804420099854467,-0.4494575856804848,4.0498032140702005
1667824984512002000,10.108001953125,0.1507305135630071,-0.2434276480913162,3.678399758929014
1667824984522010000,10.118010009765625,0.039565117669105525,-0.0842085615158081,3.324571123445034
1667824984532017000,10.128016845703126,-0.15598909167833624,0.030093524968624115,2.9344688130527734
1667824984542025200,10.138025146484376,-0.31061010987386106,0.19756079992949963,2.4967162782132624
1667824984552033000,10.148032958984375,-0.5107246859394013,0.43182139122486113,2.0165257006168362
1667824984562040000,10.1580400390625,-0.7343173143565654,0.7090723984628915,1.4577484930396079
1667824984572048000,10.1680478515625,-1.0334813165865837,0.9663573069930076,0.966367828387022
1667824984582055200,10.17805517578125,-1.2749953861415386,1.0378075092226267,0.49649640023112296
1667824984592063000,10.18806298828125,-1.532933351752907,0.9924211380541325,0.03282908741235733
1667824984602070000,10.198070068359375,-1.741941866761446,0.996049265423417,-0.4130483016937971
1667824984612077800,10.208077880859374,-1.9686838991202413,1.1934762098401783,-0.9327169031977653
1667824984622085000,10.218085205078125,-2.2091874764584003,1.5435153899133205,-1.5439409218490123
1667824984632093000,10.228093017578125,-2.4338652697637677,2.031954155895114,-2.1506343113332984
1667824984642101000,10.23810107421875,-2.661374925494194,2.469974986281991,-2.6128502562999723
1667824984652108000,10.24810791015625,-2.8103508504748342,2.6587492531657215,-3.1534424033671615
1667824984662116000,10.2581162109375,-2.959070754867792,2.7719641289353367,-3.705981008815765
1667824984672123000,10.268122802734375,-3.102328886723518,2.999856354242563,-4.124975067171454
1667824984682131000,10.278130859375,-3.226294289088249,3.3172996711373326,-4.422941530179977
1667824984692138000,10.288137939453126,-3.2337583413586017,3.4738246963232755,-4.5895290996968745
1667824984702146000,10.29814599609375,-3.168889563345909,3.1850860803872343,-4.553869172772765
1667824984712152800,10.30815283203125,-3.0208503346934914,2.4885253729730845,-4.391755533799529
1667824984722161200,10.3181611328125,-2.8739769349500537,1.7992331952571867,-4.206376170051097
1667824984732168000,10.32816796875,-2.476155136221647,1.5136533356130122,-4.2015585406363005
1667824984742176000,10.338176025390625,-1.893202980069816,1.8513772239923476,-4.258209817662835
1667824984752184000,10.34818408203125,-1.2103994337208568,2.4058505968958137,-4.254649494832754
1667824984762191000,10.358191162109375,-0.40041707591861486,2.6107220120996235,-4.496745017537474
1667824984772199200,10.36819921875,0.5504018856808542,2.4750229173213243,-4.738703762120008
1667824984782206000,10.3782060546875,1.6041712264060972,2.0843407612144946,-4.810866496533155
1667824984792214300,10.38821435546875,2.6468004566967487,1.6640911498397588,-4.655922603058815
1667824984802221000,10.398220947265624,3.6560265990793703,1.2577701105743646,-4.446382027000189
1667824984812229000,10.40822900390625,4.503550605899095,0.8666513166159391,-4.285680008390545
1667824984822237000,10.41823681640625,5.214218164598941,0.6474737281620502,-4.054030476376414
1667824984832244200,10.428244140625,5.659619752886891,0.48400399840474123,-3.80744699460268
1667824984842252000,10.438251953125,5.965148175582289,0.14957915157079696,-3.5247318767398594
1667824984852259000,10.448259033203126,6.137315591058135,-0.5364958176642656,-3.0278809639826414
1667824984862267100,10.45826708984375,6.300645620083809,-1.2595032179772854,-2.582805246648192
1667824984872274200,10.468274169921875,6.383621424934268,-1.8134978674530982,-2.634587456333637
1667824984882282000,10.478281982421874,6.316243586710095,-1.9451760361522434,-2.539598557606339
1667824984892289300,10.488289306640626,6.200508252552151,-1.8475515282243489,-2.29696907415539
1667824984902297000,10.498297119140625,6.1127352765530345,-2.034307441022992,-2.4018282095119354
1667824984912304000,10.50830419921875,5.930544479712844,-2.183657460013032,-2.371069498632848
1667824984922312000,10.51831201171875,5.674537336033582,-2.241869410485029,-2.321014551131427
1667824984932320000,10.528320068359376,5.391306669864059,-2.365661794370413,-2.253074695110321
1667824984942327000,10.5383271484375,5.167499668043852,-2.5761194852739573,-2.126995953853428
1667824984952335000,10.548335205078125,4.828551206305622,-2.934969163790345,-1.7864491170078516
1667824984962342100,10.558342041015624,4.515081469216942,-3.443209777829051,-1.4909543048098683
1667824984972350200,10.56835009765625,4.123106058429181,-4.021654977950454,-1.2033566756024956
1667824984982357000,10.57835693359375,3.9572447573602196,-4.407198017603159,-1.0503387817546725
1667824984992365000,10.588364990234375,3.8481647894382474,-4.321733318546414,-0.8555348793178796
1667824985002372000,10.5983720703125,3.566538635855913,-4.019336179614067,-0.7531982481762767
1667824985012380200,10.608380126953126,3.4268256292611357,-3.703038525623083,-0.7207210429415106
1667824985022388000,10.618387939453125,3.3924002125680444,-3.398632384955883,-0.7108975680634378
1667824985032395000,10.62839501953125,3.3800983648777008,-3.1481179934740067,-0.7117971472516655
1667824985042403000,10.638403076171874,3.3734020821094512,-3.0107530113101,-0.6303033976525068
1667824985052410000,10.64841015625,3.324294644591212,-2.94976750447154,-0.6203297006487846
1667824985062418000,10.65841796875,3.2629946649760004,-2.6919471738904712,-0.6963175463080405
1667824985072425200,10.66842529296875,3.164853439697623,-2.1699387312620875,-0.8797253177225589
1667824985082433000,10.67843310546875,3.0434149254620073,-1.5083669196426868,-1.1223258673399685
1667824985092440000,10.688440185546876,2.9274522122889755,-0.8496148416191339,-1.4490496382772922
1667824985102447900,10.69844775390625,2.7177672593235966,-0.3191577195972204,-1.7435013711631298
1667824985112456200,10.708456298828125,2.380655949884653,-0.03888473418951034,-1.8969220005929468
1667824985122463000,10.718462890625,2.035161427503824,0.02469488079547882,-1.9893617993593216
1667824985132471000,10.728470947265626,1.6571628118813038,0.009736965638399124,-2.0263135196596385
1667824985142478000,10.73847802734375,1.2632196081519127,-0.0048287353307008745,-2.0013181946128604
1667824985152486100,10.748486083984375,0.9539946690261364,0.002063362270593643,-1.962208419495821
1667824985162493000,10.758492919921874,0.731693980115652,0.06518821922540664,-1.9771680882185696
1667824985172501000,10.7685009765625,0.5176877298850566,0.15231646758019923,-1.98790984698534
1667824985182508000,10.778508056640625,0.3522983571767807,0.18655659083426,-2.004692639482021
1667824985192516000,10.78851611328125,0.2707774273097515,0.2993547024965286,-2.177379110395908
1667824985202524000,10.79852392578125,0.1424457925595343,0.6579407616406678,-2.3493676621735093
1667824985212531200,10.80853125,0.026403146018087863,1.0612971058815717,-2.50080500883162
1667824985222539000,10.8185390625,-0.04162380376458168,1.4752847342520952,-2.6569927648872134
1667824985232546000,10.828546142578125,-0.11295885518193244,1.914469932243228,-2.84523394780755
1667824985242553900,10.838553955078124,-0.16176190292611717,2.3714321944653984,-3.154892017653584
1667824985252561200,10.84856103515625,-0.19727496872544287,2.992339987263083,-3.4674382101565597
1667824985262572800,10.85857275390625,-0.27486206627488136,3.632746261256933,-3.7262680100411174
1667824985272579800,10.868579833984375,-0.38207156414985655,4.101712265005707,-3.818023333674669
1667824985282587600,10.878587646484375,-0.5524013889349997,4.200462562093138,-3.659094754478335
1667824985292596000,10.888595947265625,-0.792552937965095,4.0618829434424635,-3.5068963603198524
1667824985302602800,10.898602783203126,-1.0266200525149702,4.0787306178689,-3.433236665347218
1667824985312610800,10.90861083984375,-1.1824331300392745,4.317370447161793,-3.3977211153298614
1667824985322617900,10.918617919921875,-1.4130214625626802,4.612994438697397,-3.4320103384226557
1667824985332626000,10.9286259765625,-1.5870163857266306,5.0014872680664055,-3.6551591685950755
1667824985342632700,10.9386328125,-1.6845266196250914,5.66512302647829,-3.915432737547159
1667824985352640800,10.948640869140625,-1.7694751858532427,6.647436612015962,-4.122983601093292
1667824985362647800,10.958647705078125,-1.8243971548691391,7.706649897360801,-4.342933342963457
1667824985372655900,10.96865576171875,-1.8210975288018583,8.634486627301573,-4.7696308153033256
1667824985382662700,10.97866259765625,-1.7761591936618089,9.490128474125266,-5.215061629685759
1667824985392671000,10.9886708984375,-1.5808932266712188,10.161702624320982,-5.431311932516098
1667824985402678800,10.9986787109375,-1.4509452427655458,10.371381147545575,-5.243565839636325
1667824985412685800,11.008685791015624,-1.301380704241991,9.96165117661953,-4.862190441057086
1667824985422693600,11.018693603515626,-0.8889034804344177,9.327121101182698,-4.2508541942030185
1667824985432701000,11.028700927734375,-0.42547355656810104,8.650691327649355,-3.6005811907112597
1667824985442708700,11.038708740234375,0.17125552479531614,7.92023244228661,-3.2108395303249355
1667824985452715800,11.0487158203125,0.8881932863384485,7.1785577509045595,-2.967627570810914
1667824985462723800,11.058723876953126,1.610589276754856,6.562136748132109,-2.8404537277936934
1667824985472731000,11.06873095703125,2.2691046234130856,6.143822488734125,-2.6321552607506513
1667824985482738700,11.07873876953125,2.5106740764170885,5.397929887396097,-2.0588743115246295
1667824985492746800,11.088746826171874,2.717103242456913,4.057279833561182,-1.3930091866254806
1667824985502753800,11.09875390625,2.6897455721929666,2.498870825898647,-1.1545575733810662
1667824985512761900,11.108761962890625,2.740820218130946,1.3749005523525177,-1.0758142915338278
1667824985522768600,11.1187685546875,3.300610986664891,0.8921378592457622,-1.3223866673916578
1667824985532777000,11.12877685546875,3.5975679803699254,1.0148378447845579,-1.6325193690121174
1667824985542783700,11.13878369140625,3.7181472474277015,1.4268465742975474,-1.5335469536066055
1667824985552791800,11.148791748046875,3.89086820513308,1.3536118267387152,-1.663078173404932
1667824985562798800,11.158798828125,3.832070563727617,0.8946976267311721,-1.930269851182401
1667824985572807000,11.168806884765624,4.089679297384619,0.7701972407069057,-1.6730001402214167
1667824985582814700,11.178814697265626,4.358268274739385,0.7345569683313369,-1.6054799709171055
1667824985592821800,11.18882177734375,4.40368971722126,0.5660096430487931,-1.7639900324404238
1667824985602829600,11.19882958984375,4.446548031216859,0.50752881250754,-1.6309630794808267
1667824985612836900,11.2088369140625,4.430678846433758,0.608403992794454,-1.6205806555457412
1667824985622844700,11.2188447265625,4.318852210152149,0.9256051714964211,-1.8079989777758716
1667824985632851700,11.228851806640625,4.593276469531655,1.6667356729991734,-1.4589851952277124
1667824985642859800,11.23885986328125,4.592295641800761,2.026113467042893,-1.6826422671832144
1667824985652866800,11.24886669921875,3.8776393057256935,1.8406036087825892,-2.1241534239038824
1667824985662874600,11.25887451171875,3.9483980185598133,2.2780346565827725,-2.3359371027141806
1667824985672882700,11.268882568359375,3.6047009009897706,2.6827134815990923,-2.6417200846925377
1667824985682889700,11.2788896484375,3.765162096580863,2.9315032412454483,-2.7768209213167427
1667824985692897800,11.288897705078124,3.6691561297655104,3.272231279876828,-2.8804151513040064
1667824985702904600,11.298904541015625,3.202743317630887,3.116345137116313,-2.7426296056404706
1667824985712913000,11.308912841796875,3.5051392875194547,2.5975118173927068,-2.3122812095776197
1667824985722919700,11.318919677734375,5.1888054909229275,2.9485663119882344,-2.3518586022064087
1667824985732927700,11.328927734375,4.892448216676712,2.7214097074791788,-1.2915601519733666
1667824985742934800,11.338934814453125,3.927227220237255,2.3678052361398936,-0.7665887678861617
1667824985752942800,11.34894287109375,4.03232893217802,2.414658757251501,-0.631244770155847
1667824985762951000,11.358950927734375,3.9359500403970475,2.7459111115291712,-0.47497269681766624
1667824985772957700,11.368957763671874,3.810014799264073,2.9248414452686906,-0.37681919657960533
1667824985782966000,11.378966064453126,3.9924323905974624,2.7703087629437446,-0.20188041669428347
1667824985792972800,11.388972900390625,3.62383756313622,2.3835063708797097,-0.17611892958059905
1667824985802980900,11.39898095703125,2.745678179556131,1.95417182803452,-0.5494144820787012
1667824985812988000,11.40898779296875,2.221503498804569,1.6954215231269596,-0.9247659441933035
1667824985822996000,11.418995849609376,2.0737924791932105,1.8166341196522116,-1.0267534696362912
1667824985833002800,11.429002685546875,1.823724077913165,1.6505346259132028,-0.8644104058213532
1667824985843010800,11.4390107421875,1.4792355177044867,0.5120192557945847,-0.922303061211109
1667824985853019000,11.449018798828124,1.6634838315963745,0.2212961880430579,-0.719629448312521
1667824985863026000,11.45902587890625,4.2141234231770035,-0.3073617756024003,-0.2973106294482946
1667824985873033700,11.46903369140625,4.294234486246109,-1.259486851364374,-0.07077741753458976
1667824985883041000,11.479041015625,-0.29428631319105625,1.8318834189713,-0.37028117311298847
1667824985893048800,11.489048828125,1.0036749379962682,1.9508003057748078,-0.7717761073961854
1667824985903056000,11.499055908203125,0.482471382009983,1.4246931956559419,-0.6092375210091471
1667824985913063700,11.509063720703125,-1.3421990368425845,1.1832450309440492,-0.7048097725823521
1667824985923071000,11.519071044921875,-1.6478993089735507,0.987643840649724,-0.4065288367971778
1667824985933078800,11.529078857421876,-1.2228519419282675,1.102751690559089,0.028031331741809842
1667824985943086800,11.5390869140625,-1.7684943581223487,2.148084334589541,0.47889235447943207
1667824985953094000,11.549093994140625,-1.6101210747212171,3.067386460418999,1.3089870875924825
1667824985963102000,11.55910205078125,-0.964746949186921,2.6358792497098444,2.015515354530513
1667824985973108700,11.569108642578126,-0.6294143398582935,0.9388748413056135,2.190472108463943
1667824985983116800,11.57911669921875,-0.9102835375934839,-0.1033925699353218,2.0314833235129712
1667824985993123800,11.589123779296875,-1.4467366851598022,-0.16296704093217848,2.123111513635516
1667824986003132000,11.5991318359375,-1.4998662178009747,0.04135068591162562,2.354263617521524
1667824986013138700,11.609138671875,-2.111971695461869,0.4566917747177183,2.6268437103390694
1667824986023146800,11.619146728515625,-1.7138135043859481,-0.09626257192492485,2.5474481020629405
1667824986033154800,11.62915478515625,0.37645898496508595,-0.5462538260906934,2.806354766575992
1667824986043161900,11.639161865234374,1.2233791806727647,-0.999095939642936,1.8657950409233568
1667824986053169700,11.649169677734376,-1.450833014562726,-2.3588274183057245,1.475968478732556
1667824986063177000,11.659177001953125,-3.079537209200859,-3.2549422914236783,2.27030873850584
1667824986073184800,11.669184814453125,-1.7523825967550277,-3.5314994711786505,1.7339299713499843
1667824986083191800,11.67919189453125,-0.9494815755158662,-2.7285739000201223,0.8783506683684885
1667824986093199600,11.68919970703125,-1.6121376752406358,-1.3704133239358662,0.42816622971817847
1667824986103207000,11.69920703125,-2.3233804034799337,-0.32698549061343074,0.07622326185032725
1667824986113214700,11.709214599609375,-1.7240145804047584,0.03819572901204228,-0.2156564285904169
1667824986123222800,11.719222900390625,-0.4326233552575111,-0.09576236731782554,-0.37858869047015903
1667824986133229800,11.729229736328126,-0.07063479419350624,-0.48257586529776453,-0.08133855903744697
1667824986143238000,11.73923779296875,-0.08961655803918837,-0.8357076045587658,0.32051001098901033
1667824986153244700,11.74924462890625,-0.17631927445828913,-1.0395167973585426,0.4605976961150765
1667824986163252700,11.759252685546874,-0.4428974965125322,-1.112234535305947,0.35904300913140175
1667824986173259800,11.769259765625,-0.4351724552184343,-1.14661479768306,-0.041190965305268765
1667824986183267800,11.779267822265625,-0.25192542732357975,-1.163835835466534,-0.47087212963104247
1667824986193274600,11.789274658203125,-0.16073416731357573,-1.1342132890105248,-0.6855189427874981
1667824986203283000,11.799282958984374,-0.0933060602068901,-1.1253896388247608,-0.7160889992266893
1667824986213291000,11.809291015625,0.01976443865597248,-1.1589791892156005,-0.6369007500909268
1667824986223297800,11.8192978515625,0.5041337632417678,-1.1964222001641989,-0.41874037585556506
1667824986233305600,11.8293056640625,0.8807552452921867,-1.2968325394183398,-0.2864030125953257
1667824986243313000,11.83931298828125,0.9131915339946747,-1.4501754274368286,-0.36174116217419505
1667824986253320700,11.84932080078125,0.7082587439924478,-1.5338623031660914,-0.4396672824196517
1667824986263324400,11.859324462890624,0.6973211703926324,-1.5013307373955844,-0.49589580398947
1667824986273332500,11.86933251953125,0.6052350073695183,-1.4523410810381174,-0.5708610286027193
1667824986283339500,11.879339599609375,0.5398457126140594,-1.3999232037976383,-0.7834339580945671
1667824986293347600,11.88934765625,0.6318944662362337,-1.2484618917420505,-0.8663821442857385
1667824986303355400,11.89935546875,0.5522247171938419,-1.173083117891848,-0.9041979340694845
1667824986313362700,11.90936279296875,0.4223106355577707,-1.1824983042299746,-1.0336595957629382
1667824986323370500,11.91937060546875,0.5087345350354909,-1.1930933480024337,-1.1434652476109564
1667824986333377500,11.92937744140625,0.6138011756628752,-1.188001577821374,-1.1409883361034094
1667824986343385300,11.93938525390625,0.6395785909980535,-1.1582017751023173,-1.1029200328633189
1667824986353392600,11.949392578125,0.6154144560784102,-1.1103300168588757,-1.1970105214461684
1667824986363400400,11.959400390625,0.5956693066447973,-0.9686895493328571,-1.2948892963960765
1667824986373407500,11.969407470703125,0.5141372708618641,-0.7786877864807844,-1.3052724509835243
1667824986383415600,11.97941552734375,0.30109599320590497,-0.6535767212122678,-1.1704317266002298
1667824986393423600,11.989423583984374,-0.02983399724960327,-0.6971852690532803,-0.9677265495195985
1667824986403430400,11.999430419921875,-0.20055062939524648,-0.8231839308112859,-0.7734305966049432
1667824986413438500,12.0094384765625,-0.3155138101369142,-0.8689964184373616,-0.5079992064982652
1667824986423445500,12.019445556640624,-0.4401794697254896,-0.9081523707836866,-0.24934593222439289
1667824986433453600,12.02945361328125,-0.4808522563755512,-0.939163010597229,-0.04728168339580297
1667824986443460400,12.03946044921875,-0.5475859514772892,-0.9545534719526767,-0.10859978318959473
1667824986453468700,12.04946875,-0.5159241542786359,-0.9052186554193496,-0.2282218956530094
1667824986463475500,12.059475341796874,-0.45216801368296144,-0.8661638253599405,-0.20441841073930261
1667824986473483500,12.0694833984375,-0.43686932226419445,-0.8493295949369668,-0.1443561562255025
1667824986483491600,12.07949169921875,-0.5221171636998653,-0.8026748112678528,-0.024058920979499816
1667824986493498600,12.08949853515625,-0.5921931549668312,-0.7847697367429732,0.0018283844709396362
1667824986503506700,12.099506591796874,-0.5460872373521327,-0.5956774899512529,-0.0448198233269155
1667824986513513500,12.109513427734376,-0.5852618943989276,-0.21560879005640743,-0.06060279113128781
1667824986523521500,12.119521484375,-0.5178554146021604,0.08785422454178332,-0.11954217909500002
1667824986533528600,12.129528564453125,-0.29066870721578597,0.3042462739303708,-0.24283245867714284
1667824986543536600,12.13953662109375,-0.13767127163410187,0.4627180492699146,-0.3491413544505834
1667824986553543700,12.149543701171876,-0.014494973820447921,0.49298517723977564,-0.38954350746572014
1667824986563551700,12.1595517578125,0.15734510939717292,0.41151100912392136,-0.43646512537747617
1667824986573559600,12.1695595703125,0.4903127431601286,0.3848115105077624,-0.45277767001390457
1667824986583566600,12.179566650390624,0.9092442576736212,0.36673604785203934,-0.2873481844909489
1667824986593574400,12.189574462890626,1.085498650202155,0.2711222952246666,0.033426030392199754
1667824986603581700,12.199581787109375,1.2264677943378686,0.07434358558356761,0.3311895181745291
1667824986613589500,12.209589599609375,1.3527905734837053,-0.1763014465406537,0.5977843991026282
1667824986623596500,12.219596435546874,1.3067828555464744,-0.42967970302104946,0.910233707102388
1667824986633604600,12.2296044921875,1.1035673908561467,-0.6230293149963021,1.2201913444168866
1667824986643611600,12.239611572265625,0.902498875066638,-0.7450579040795564,1.5494314820893107
1667824986653619500,12.249619384765625,0.707130032223463,-0.7752700869917869,1.7536966019630431
1667824986663626800,12.259626708984374,0.6768932993918657,-0.6061898238763213,1.6686242632247508
1667824986673634600,12.269634521484376,0.6795394299864769,-0.36464345948696136,1.4127733330205081
1667824986683642600,12.279642578125,0.4533914179980755,-0.20700024392604827,1.1643825095638631
1667824986693649400,12.2896494140625,0.36200726576447484,-0.0023778350472450256,0.9517981818951666
1667824986703657700,12.29965771484375,0.34730069501996036,0.27898002298772334,0.7809875878557563
1667824986713664500,12.30966455078125,0.5276145920723676,0.49030368307083844,0.6609099867098033
1667824986723672600,12.319672607421875,1.2983698319882153,0.6988909039273857,0.8088475085534155
1667824986733679600,12.3296796875,0.11575053172707557,0.6693675800621509,0.9877692205950617
1667824986743687700,12.339687744140624,0.4227934506386518,0.27788112183511254,1.0131965073183178
1667824986753695500,12.349695556640626,0.545986115065217,0.06983399920463562,0.9802255272172391
1667824986763702500,12.35970263671875,0.4939321027010679,-0.05929945344775915,0.9023559594646096
1667824986773710600,12.369710693359375,0.5102344182044267,-0.13347908064126968,0.7966567200221121
