time,seconds_elapsed,z,y,x
1667825181448058400,0.009058349609375,-0.3268175423145294,-0.7026558518409729,0.1352022886276245
1667825181458065400,0.0190654296875,-0.3163057565689087,-0.6737076044082642,0.016692427918314934
1667825181468073500,0.029073486328125,-0.3330032527446747,-0.661543607711792,-0.09153204411268234
1667825181478080500,0.03908056640625,-0.3789947032928467,-0.6778631806373596,-0.1748216152191162
1667825181488088300,0.04908837890625,-0.4472925364971161,-0.7118712067604065,-0.22339527308940887
1667825181498095600,0.059095703125,-0.5353840589523315,-0.7458456754684448,-0.2197299599647522
1667825181508103400,0.069103515625,-0.6239871382713318,-0.7498471140861511,-0.15673021972179413
1667825181518110500,0.0791103515625,-0.7036577463150024,-0.7153804302215576,-0.04567321389913559
1667825181528118300,0.0891181640625,-0.7659805417060852,-0.6851772665977478,0.0779493898153305
1667825181538125600,0.09912548828125,-0.8084281086921692,-0.6462599635124207,0.19108900427818298
1667825181548133400,0.10913330078125,-0.8205779790878296,-0.6021766662597656,0.26962241530418396
1667825181558140400,0.119140380859375,-0.8200778365135193,-0.5763919353485107,0.3006652891635895
1667825181568148500,0.1291484375,-0.8175150752067566,-0.5493278503417969,0.2976101040840149
1667825181578156500,0.139156494140625,-0.8083586096763611,-0.5156422853469849,0.2735700309276581
1667825181588163300,0.149163330078125,-0.8230893611907959,-0.4973019063472748,0.255946546792984
1667825181598171400,0.15917138671875,-0.847748339176178,-0.5016428828239441,0.2639821171760559
1667825181608178400,0.169178466796875,-0.8971944451332092,-0.542375922203064,0.304810494184494
1667825181618186500,0.1791865234375,-0.9680180549621582,-0.5853627920150757,0.3790711462497711
1667825181628193300,0.189193359375,-1.0432357788085938,-0.6382356286048889,0.48226091265678406
1667825181638201600,0.19920166015625,-1.1205101013183594,-0.7170449495315552,0.6092854738235474
1667825181648208400,0.20920849609375,-1.2062628269195557,-0.8669361472129822,0.7490028738975525
1667825181658216400,0.219216552734375,-1.3243039846420288,-1.1174248456954956,0.8896886110305786
1667825181668223500,0.229223388671875,-1.4682129621505737,-1.3578201532363892,1.0128611326217651
1667825181678231600,0.2392314453125,-1.5809611082077026,-1.5789703130722046,1.1065956354141235
1667825181688238300,0.24923828125,-1.6463062763214111,-1.8078336715698242,1.167314052581787
1667825181698246400,0.259246337890625,-1.687199354171753,-2.021606683731079,1.2054609060287476
1667825181708253400,0.26925341796875,-1.7174211740493774,-2.1608502864837646,1.2155519723892212
1667825181718261500,0.279261474609375,-1.7436528205871582,-2.1989645957946777,1.2024099826812744
1667825181728269600,0.28926953125,-1.7740099430084229,-2.1651105880737305,1.1704174280166626
1667825181738276600,0.299276611328125,-1.7987849712371826,-2.099637985229492,1.1007848978042603
1667825181748284700,0.30928466796875,-1.8119308948516846,-1.997644066810608,0.9960312843322754
1667825181758291500,0.31929150390625,-1.8108201026916504,-1.8459943532943726,0.8524336218833923
1667825181768299500,0.329299560546875,-1.8274403810501099,-1.6185246706008911,0.6927211880683899
1667825181778306600,0.339306640625,-1.846707820892334,-1.140282154083252,0.4881955087184906
1667825181788314600,0.349314697265625,-1.8477808237075806,-0.5920284390449524,0.2607775330543518
1667825181798321400,0.3593212890625,-1.8472342491149902,-0.5199640989303589,0.09145588427782059
1667825181808329500,0.36932958984375,-1.9247839450836182,-0.45805197954177856,-0.08788751065731049
1667825181818336500,0.37933642578125,-2.046020746231079,-0.5619474649429321,-0.27804067730903625
1667825181828344600,0.389344482421875,-2.1732168197631836,-0.7644068598747253,-0.466196209192276
1667825181838351600,0.3993515625,-2.2722208499908447,-0.9945380687713623,-0.6175734996795654
1667825181848359700,0.409359619140625,-2.3358633518218994,-1.1492317914962769,-0.7236756682395935
1667825181858366500,0.419366455078125,-2.3637189865112305,-1.1952346563339233,-0.8126412034034729
1667825181868374500,0.42937451171875,-2.345594882965088,-1.1652565002441406,-0.9107643365859985
1667825181878382300,0.43938232421875,-2.293884754180908,-1.0747631788253784,-1.003088355064392
1667825181888389600,0.4493896484375,-2.218867063522339,-0.9454908967018127,-1.0893018245697021
1667825181898397400,0.4593974609375,-2.1126158237457275,-0.8188911080360413,-1.1699378490447998
1667825181908404500,0.469404541015625,-1.9987080097198486,-0.7200133204460144,-1.2547051906585693
1667825181918412500,0.47941259765625,-1.8724850416183472,-0.674481213092804,-1.3477970361709595
1667825181928419300,0.48941943359375,-1.7438114881515503,-0.685542106628418,-1.4338093996047974
1667825181938427400,0.499427490234375,-1.6183931827545166,-0.7078178524971008,-1.4820197820663452
1667825181948434400,0.509434326171875,-1.5027130842208862,-0.8086240887641907,-1.51437509059906
1667825181958442500,0.5194423828125,-1.402748942375183,-0.9976579546928406,-1.5204205513000488
1667825181968449300,0.52944921875,-1.300775170326233,-1.202942132949829,-1.4638733863830566
1667825181978457300,0.539457275390625,-1.1933318376541138,-1.3335437774658203,-1.3297996520996094
1667825181988464400,0.54946435546875,-1.0633538961410522,-1.4115347862243652,-1.162892460823059
1667825181998472400,0.559472412109375,-0.9166978597640991,-1.5054346323013306,-1.0114696025848389
1667825182008479200,0.569479248046875,-0.77198725938797,-1.595591425895691,-0.894366979598999
1667825182018487600,0.579487548828125,-0.6231240034103394,-1.644221544265747,-0.8301690816879272
1667825182028495600,0.58949560546875,-0.44988566637039185,-1.6322479248046875,-0.7961978316307068
1667825182038502400,0.59950244140625,-0.25882411003112793,-1.5542511940002441,-0.751369059085846
1667825182048510500,0.609510498046875,-0.10480790585279465,-1.4645377397537231,-0.6792155504226685
1667825182058517500,0.619517578125,-0.018161959946155548,-1.353148102760315,-0.5557276606559753
1667825182068525600,0.629525634765625,0.0020040287636220455,-1.1347599029541016,-0.37055251002311707
1667825182078532400,0.639532470703125,-0.04616829380393028,-0.813448429107666,-0.15143638849258423
1667825182088540700,0.649540771484375,-0.1447497308254242,-0.5001874566078186,0.05061390995979309
1667825182098547500,0.65954736328125,-0.26583433151245117,-0.28732526302337646,0.20249611139297485
1667825182108555500,0.669555419921875,-0.37803491950035095,-0.16073748469352722,0.30256253480911255
1667825182118562600,0.6795625,-0.4702971875667572,-0.08506722003221512,0.34972259402275085
1667825182128570600,0.689570556640625,-0.5661203861236572,0.03280828148126602,0.38549336791038513
1667825182138577400,0.699577392578125,-0.6474064588546753,0.19703316688537598,0.3949505090713501
1667825182148585500,0.70958544921875,-0.7228101491928101,0.3558390736579895,0.38591334223747253
1667825182158592500,0.719592529296875,-0.785505473613739,0.48123106360435486,0.35507580637931824
1667825182168600600,0.7296005859375,-0.8228113055229187,0.5408065319061279,0.30640625953674316
1667825182178607400,0.739607421875,-0.8479920029640198,0.5325882434844971,0.2447785884141922
1667825182188615700,0.74961572265625,-0.8490373492240906,0.4856439232826233,0.18470193445682526
1667825182198623500,0.75962353515625,-0.8407274484634399,0.4102080166339874,0.12786288559436798
1667825182208630500,0.769630615234375,-0.8282076716423035,0.332981139421463,0.09185455739498138
1667825182218638300,0.779638427734375,-0.8139333724975586,0.2573029100894928,0.07534002512693405
1667825182228645600,0.789645751953125,-0.8038123250007629,0.16474473476409912,0.055697351694107056
1667825182238653400,0.7996533203125,-0.783555805683136,0.047571245580911636,0.023671507835388184
1667825182248660500,0.809660400390625,-0.7556706070899963,-0.09739073365926743,-0.009867011569440365
1667825182258668500,0.81966845703125,-0.7169698476791382,-0.23621785640716553,-0.041603367775678635
1667825182268675600,0.829675537109375,-0.6571688055992126,-0.36404746770858765,-0.06931542605161667
1667825182278683400,0.839683349609375,-0.5751522183418274,-0.4848119616508484,-0.10740502178668976
1667825182288690700,0.849690673828125,-0.47368234395980835,-0.5936023592948914,-0.14620648324489594
1667825182298698500,0.859698486328125,-0.36010465025901794,-0.6410822868347168,-0.17739422619342804
1667825182308705500,0.86970556640625,-0.2294883131980896,-0.6009931564331055,-0.19237662851810455
1667825182318713300,0.87971337890625,-0.10335568338632584,-0.4942414164543152,-0.20671509206295013
1667825182328720600,0.889720703125,0.017722271382808685,-0.3511103689670563,-0.20119355618953705
1667825182338728400,0.899728515625,0.11560063064098358,-0.14137576520442963,-0.1446666419506073
1667825182348735500,0.909735595703125,0.1951356679201126,0.09220369905233383,-0.04432645067572594
1667825182358743600,0.91974365234375,0.24591149389743805,0.276567667722702,0.07943464070558548
1667825182368751600,0.929751708984375,0.25487491488456726,0.4008893668651581,0.2198532670736313
1667825182378758400,0.93975830078125,0.23377786576747894,0.45338374376296997,0.37423112988471985
1667825182388766500,0.949766357421875,0.18675124645233154,0.46040037274360657,0.5345635414123535
1667825182398773500,0.9597734375,0.11027111113071442,0.44303175806999207,0.6811715960502625
1667825182408781600,0.969781494140625,0.011039867997169495,0.39979347586631775,0.8013752698898315
1667825182418788400,0.979788330078125,-0.08663050085306168,0.34606820344924927,0.8772923946380615
1667825182428796400,0.98979638671875,-0.16746649146080017,0.32717573642730713,0.9126051068305969
1667825182438803500,0.999803466796875,-0.24008236825466156,0.3648618459701538,0.92827969789505
1667825182448808400,1.009808349609375,-0.3053452670574188,0.4007719159126282,0.9151052832603455
1667825182458815500,1.0198154296875,-0.3532731235027313,0.41981619596481323,0.8670727610588074
1667825182468823600,1.029823486328125,-0.36879533529281616,0.44571223855018616,0.7914629578590393
1667825182478830600,1.03983056640625,-0.3450031876564026,0.47508129477500916,0.6975426077842712
1667825182488838400,1.04983837890625,-0.318071186542511,0.49309173226356506,0.6021588444709778
1667825182498845700,1.059845703125,-0.30133748054504395,0.4731616973876953,0.5187952518463135
1667825182508853500,1.069853515625,-0.3220598101615906,0.421743243932724,0.4549371600151062
1667825182518860500,1.079860595703125,-0.3696899116039276,0.3672259449958801,0.41102004051208496
1667825182528868400,1.089868408203125,-0.4247366487979889,0.3157041668891907,0.37095463275909424
1667825182538876400,1.09987646484375,-0.4733893871307373,0.27212393283843994,0.3358352780342102
1667825182548883500,1.109883544921875,-0.5080592036247253,0.2601966857910156,0.3081951141357422
1667825182558891500,1.1198916015625,-0.5196248292922974,0.3110460340976715,0.2990649938583374
1667825182568898600,1.129898681640625,-0.5269085764884949,0.3987404704093933,0.3153955042362213
1667825182578906600,1.13990673828125,-0.5269021391868591,0.476692259311676,0.3353407084941864
1667825182588913400,1.149913330078125,-0.5150513648986816,0.49661776423454285,0.3464125394821167
1667825182598921500,1.15992138671875,-0.48143506050109863,0.48472699522972107,0.34525778889656067
1667825182608928500,1.169928466796875,-0.435789555311203,0.4632076025009155,0.33698174357414246
1667825182618936600,1.1799365234375,-0.38085174560546875,0.4024382531642914,0.3076678216457367
1667825182628943400,1.189943359375,-0.3350088894367218,0.322663277387619,0.2553289830684662
1667825182638951400,1.199951416015625,-0.2893034517765045,0.2360231876373291,0.19329994916915894
1667825182648958500,1.20995849609375,-0.23884586989879608,0.14054831862449646,0.11839961260557175
1667825182658966500,1.219966552734375,-0.19710826873779297,0.038241129368543625,0.03802088648080826
1667825182668973600,1.2299736328125,-0.17537608742713928,-0.0398869626224041,-0.025618011131882668
1667825182678981600,1.239981689453125,-0.17074936628341675,-0.10025949031114578,-0.07205288857221603
1667825182688989400,1.249989501953125,-0.19210712611675262,-0.15495096147060394,-0.10287737846374512
1667825182698996500,1.25999658203125,-0.22503072023391724,-0.19341446459293365,-0.12816835939884186
1667825182709004300,1.27000439453125,-0.24877573549747467,-0.22254039347171783,-0.14745789766311646
1667825182719011600,1.280011474609375,-0.2384120374917984,-0.26696619391441345,-0.18035192787647247
1667825182729019400,1.290019287109375,-0.19768723845481873,-0.3283675014972687,-0.22128205001354218
1667825182739026400,1.3000263671875,-0.1412130445241928,-0.40745511651039124,-0.26348090171813965
1667825182749034500,1.310034423828125,-0.08399130403995514,-0.5060282945632935,-0.2923349142074585
1667825182759041500,1.32004150390625,-0.0349007248878479,-0.6288410425186157,-0.30652478337287903
1667825182769049300,1.33004931640625,-0.0025832662358880043,-0.7802649140357971,-0.324948251247406
1667825182779056600,1.340056640625,0.011924037709832191,-0.9345918893814087,-0.3585706651210785
1667825182789064400,1.350064453125,0.012035091407597065,-1.0601346492767334,-0.3957265615463257
1667825182799071500,1.360071533203125,-0.007978297770023346,-1.1247568130493164,-0.4416336119174957
1667825182809079300,1.370079345703125,-0.04874836280941963,-1.1389535665512085,-0.474456787109375
1667825182819086600,1.380086669921875,-0.10286352783441544,-1.098556637763977,-0.5003469586372375
1667825182829094400,1.390094482421875,-0.15560956299304962,-1.0060431957244873,-0.5190261006355286
1667825182839101400,1.400101318359375,-0.18716482818126678,-0.883604884147644,-0.5265732407569885
1667825182849109500,1.410109619140625,-0.19133320450782776,-0.794175922870636,-0.5304833054542542
1667825182859117600,1.42011767578125,-0.1736207902431488,-0.7529653906822205,-0.5470297932624817
1667825182869124400,1.430124267578125,-0.13962048292160034,-0.7466115951538086,-0.5727252960205078
1667825182879132400,1.44013232421875,-0.09431558102369308,-0.7721574306488037,-0.5981934070587158
1667825182889139500,1.450139404296875,-0.05703132972121239,-0.7803575992584229,-0.6115717887878418
1667825182899147500,1.4601474609375,-0.042885683476924896,-0.7945679426193237,-0.6061649918556213
1667825182909154300,1.470154296875,-0.05307760089635849,-0.7911306023597717,-0.590630829334259
1667825182919162600,1.48016259765625,-0.07837576419115067,-0.7662172913551331,-0.5657323598861694
1667825182929169400,1.49016943359375,-0.10860530287027359,-0.7631495594978333,-0.5584148168563843
1667825182939177500,1.500177490234375,-0.12645487487316132,-0.7615516781806946,-0.5509079098701477
1667825182949184500,1.5101845703125,-0.12205959856510162,-0.7493538856506348,-0.5374895334243774
1667825182959192600,1.520192626953125,-0.09615955501794815,-0.7158489227294922,-0.5000004768371582
1667825182969199400,1.530199462890625,-0.07512324303388596,-0.6628122925758362,-0.4285292625427246
1667825182979207400,1.54020751953125,-0.07207472622394562,-0.60200035572052,-0.32690489292144775
1667825182989214500,1.55021435546875,-0.07572006434202194,-0.5450417399406433,-0.19310981035232544
1667825182999222500,1.560222412109375,-0.06932288408279419,-0.49575915932655334,-0.04015514254570007
1667825183009229300,1.570229248046875,-0.057925086468458176,-0.44429996609687805,0.12851935625076294
1667825183019237600,1.580237548828125,-0.035061314702034,-0.42739367485046387,0.2897956073284149
1667825183029245400,1.590245361328125,-0.022427011281251907,-0.4258604943752289,0.4349876940250397
1667825183039252500,1.60025244140625,-0.01840483956038952,-0.39885470271110535,0.5670346617698669
1667825183049260300,1.61026025390625,-0.011631621979176998,-0.34361541271209717,0.6788645386695862
1667825183059267600,1.620267578125,-0.0306876040995121,-0.30057501792907715,0.7613967061042786
1667825183069275400,1.630275390625,-0.08937062323093414,-0.2590395510196686,0.8165352940559387
1667825183079282400,1.640282470703125,-0.17320986092090607,-0.21177296340465546,0.850290060043335
1667825183089290500,1.65029052734375,-0.26573899388313293,-0.15066221356391907,0.8521183133125305
1667825183099297500,1.660297607421875,-0.3569256365299225,-0.09987599402666092,0.8275195360183716
1667825183109305300,1.670305419921875,-0.4309695065021515,-0.06349082291126251,0.7780451774597168
1667825183119312600,1.680312744140625,-0.4686809182167053,-0.050456248223781586,0.7173259258270264
1667825183129320400,1.690320556640625,-0.48566150665283203,-0.0695391297340393,0.6644935607910156
1667825183139327500,1.700327392578125,-0.508747398853302,-0.17277763783931732,0.6264585852622986
1667825183149335300,1.710335205078125,-0.5175116062164307,-0.3100167214870453,0.5920625329017639
1667825183159342600,1.720342529296875,-0.5072669386863708,-0.4162534177303314,0.5652160048484802
1667825183169350400,1.730350341796875,-0.49725398421287537,-0.4784550070762634,0.5535928606987
1667825183179358500,1.7403583984375,-0.49342674016952515,-0.5055241584777832,0.5405617952346802
1667825183189365500,1.750365478515625,-0.4896621108055115,-0.47933197021484375,0.5296779870986938
1667825183199373600,1.76037353515625,-0.4801887273788452,-0.3854270577430725,0.49789100885391235
1667825183209380400,1.77038037109375,-0.4500236213207245,-0.25603070855140686,0.43248510360717773
1667825183219388400,1.780388427734375,-0.3999846875667572,-0.14020663499832153,0.3348999619483948
1667825183229395500,1.7903955078125,-0.32745882868766785,-0.094443678855896,0.20681123435497284
1667825183239403500,1.800403564453125,-0.24752697348594666,-0.10875657200813293,0.02690724842250347
1667825183249410300,1.810410400390625,-0.16924335062503815,-0.15569078922271729,-0.1851738542318344
1667825183259418400,1.82041845703125,-0.07367315888404846,-0.2150830179452896,-0.4190305471420288
1667825183269425400,1.83042529296875,0.04400021582841873,-0.4260583519935608,-0.6471260190010071
1667825183279433500,1.84043359375,0.1222500130534172,-0.5267860293388367,-0.8707583546638489
1667825183289440500,1.8504404296875,0.2012750506401062,-0.45942696928977966,-1.0879173278808594
1667825183299448600,1.860448486328125,0.3011886179447174,-0.3496845066547394,-1.289110541343689
1667825183309455400,1.870455322265625,0.3818911612033844,-0.23876357078552246,-1.4759166240692139
1667825183319463400,1.88046337890625,0.428729772567749,-0.14280109107494354,-1.63191556930542
1667825183329470500,1.890470458984375,0.45366203784942627,-0.08268449455499649,-1.751662254333496
1667825183339478500,1.900478515625,0.47935593128204346,-0.042155709117650986,-1.8263769149780273
1667825183349486300,1.910486328125,0.5206115245819092,-0.009938384406268597,-1.861967921257019
1667825183359493400,1.920493408203125,0.5827465057373047,-0.04196050018072128,-1.8825088739395142
1667825183369501400,1.93050146484375,0.7066192030906677,0.330328106880188,-2.0154941082000732
1667825183379508500,1.940508544921875,0.8432148694992065,-0.05385737121105194,-2.1496732234954834
1667825183389516300,1.950516357421875,0.9885720610618591,-0.5483565926551819,-2.2562520503997803
1667825183399523600,1.960523681640625,1.117993950843811,-1.232235312461853,-2.389371156692505
1667825183409531400,1.970531494140625,1.295310378074646,-1.813686728477478,-2.4830334186553955
1667825183419538400,1.980538330078125,1.5405970811843872,-2.178853750228882,-2.4653313159942627
1667825183429546200,1.990546142578125,1.8141541481018066,-2.1667094230651855,-2.326554775238037
1667825183439553500,2.000553466796875,2.094120740890503,-1.7930437326431274,-2.0501489639282227
1667825183449564200,2.010564208984375,2.3204636573791504,-1.202968716621399,-1.6879568099975586
1667825183459571500,2.020571533203125,2.450045585632324,-0.5895266532897949,-1.295607328414917
1667825183469579300,2.030579345703125,2.490995407104492,-0.15429849922657013,-0.9447084665298462
1667825183479586300,2.04058642578125,2.5059640407562256,0.07503216713666916,-0.6592812538146973
1667825183489594000,2.050593994140625,2.563626766204834,0.13732962310314178,-0.45947277545928955
1667825183499602400,2.0606025390625,2.6469762325286865,0.06640991568565369,-0.35483318567276
1667825183509609200,2.070609130859375,2.7014520168304443,-0.08635912090539932,-0.3056826889514923
1667825183519617300,2.0806171875,2.661306619644165,-0.25136804580688477,-0.2739620506763458
1667825183529624300,2.090624267578125,2.5048062801361084,-0.3992195725440979,-0.23596805334091187
1667825183539632400,2.10063232421875,2.2484495639801025,-0.5346056222915649,-0.16901299357414246
1667825183549639200,2.11063916015625,1.9167464971542358,-0.6484469771385193,-0.06401679664850235
1667825183559647200,2.120647216796875,1.5370702743530273,-0.6957436203956604,0.11719080805778503
1667825183569654300,2.130654296875,1.1444391012191772,-0.6766394376754761,0.3402433395385742
1667825183579662300,2.140662353515625,0.7713263034820557,-0.6150120496749878,0.5674282908439636
1667825183589669000,2.150669189453125,0.44873785972595215,-0.5683600902557373,0.7587817311286926
1667825183599677400,2.160677490234375,0.22265571355819702,-0.5432848334312439,0.8750936985015869
1667825183609684200,2.170684326171875,0.124021016061306,-0.5274446606636047,0.9228132963180542
1667825183619692300,2.1806923828125,0.14247725903987885,-0.4831794500350952,0.9320350289344788
1667825183629700000,2.1907001953125,0.1992686241865158,-0.44300326704978943,0.9217746257781982
1667825183639707400,2.200707275390625,0.253855437040329,-0.4548191726207733,0.8929954767227173
1667825183649715200,2.210715087890625,0.29562312364578247,-0.48320579528808594,0.8514378666877747
1667825183659722200,2.22072216796875,0.32757440209388733,-0.44943320751190186,0.8263000249862671
1667825183669730300,2.230730224609375,0.3386076092720032,-0.3832211494445801,0.8125064969062805
1667825183679737300,2.2407373046875,0.314601868391037,-0.2971472442150116,0.7969669103622437
1667825183689745200,2.2507451171875,0.22295771539211273,-0.18931986391544342,0.7741242051124573
1667825183699752400,2.26075244140625,0.115139901638031,-0.055157795548439026,0.7476052641868591
1667825183709760300,2.27076025390625,0.021557755768299103,0.19423525035381317,0.7138267755508423
1667825183719767300,2.280767333984375,-0.03989202156662941,0.540350079536438,0.6736987829208374
1667825183729775000,2.290775146484375,-0.06580138206481934,0.8322141170501709,0.5999667644500732
1667825183739782400,2.300782470703125,-0.059426840394735336,0.9783156514167786,0.5093876123428345
1667825183749790200,2.310790283203125,-0.039315979927778244,1.0204516649246216,0.43181344866752625
1667825183759797200,2.32079736328125,-0.018806178122758865,1.0020582675933838,0.3683162331581116
1667825183769805300,2.330805419921875,-0.020238958299160004,0.9610176682472229,0.3218286335468292
1667825183779813400,2.3408134765625,-0.042395394295454025,0.9108279943466187,0.29249152541160583
1667825183789820200,2.350820068359375,-0.07735950499773026,0.8471235632896423,0.27251914143562317
1667825183799828200,2.360828125,-0.11248073726892471,0.7889587879180908,0.26029443740844727
1667825183809835300,2.370835205078125,-0.15150830149650574,0.7385949492454529,0.2604004144668579
1667825183819843300,2.38084326171875,-0.20323753356933594,0.7158992290496826,0.28227856755256653
1667825183829850000,2.39085009765625,-0.24194365739822388,0.7255704998970032,0.3207756280899048
1667825183839858200,2.400858154296875,-0.26695820689201355,0.7125822901725769,0.35542893409729004
1667825183849865200,2.410865234375,-0.28487861156463623,0.6794621348381042,0.3777291774749756
1667825183859873300,2.420873291015625,-0.29383960366249084,0.6456173658370972,0.3898649513721466
1667825183869880300,2.43088037109375,-0.2991670072078705,0.6072177886962891,0.40099403262138367
1667825183879888400,2.440888427734375,-0.2808029055595398,0.5765882134437561,0.4134834408760071
1667825183889895200,2.450895263671875,-0.26560717821121216,0.5569034814834595,0.4371943771839142
1667825183899903200,2.4609033203125,-0.24443504214286804,0.5551079511642456,0.49047037959098816
1667825183909910300,2.47091015625,-0.234389066696167,0.5227119326591492,0.5644927024841309
1667825183919918300,2.48091845703125,-0.22414734959602356,0.42602241039276123,0.6340730786323547
1667825183929926100,2.490926025390625,-0.21532508730888367,0.23903228342533112,0.677607536315918
1667825183939933200,2.50093310546875,-0.21464359760284424,-0.033903639763593674,0.6675628423690796
1667825183949941200,2.510941162109375,-0.22667229175567627,-0.37302258610725403,0.5927615761756897
1667825183959948300,2.5209482421875,-0.25247007608413696,-0.7527930736541748,0.4345919191837311
1667825183969956000,2.5309560546875,-0.2924249470233917,-1.0824689865112305,0.22958658635616302
1667825183979963400,2.54096337890625,-0.3395676910877228,-1.3574103116989136,0.004084490239620209
1667825183989971200,2.55097119140625,-0.3949667513370514,-1.5910125970840454,-0.2023962438106537
1667825183999978200,2.560978271484375,-0.46517515182495117,-1.6967917680740356,-0.3594476580619812
1667825184009986000,2.570986083984375,-0.5411234498023987,-1.6779276132583618,-0.4468589723110199
1667825184019993300,2.580993408203125,-0.6214571595191956,-1.559281587600708,-0.48945146799087524
1667825184030001200,2.591001220703125,-0.6791276335716248,-1.3832130432128906,-0.5054258704185486
1667825184040008200,2.60100830078125,-0.6893312931060791,-1.1981532573699951,-0.5354589223861694
1667825184050016300,2.611016357421875,-0.6432114839553833,-1.0273463726043701,-0.5908260345458984
1667825184060023300,2.621023193359375,-0.5463584065437317,-0.8406912684440613,-0.6674140095710754
1667825184070031000,2.631031005859375,-0.435455322265625,-0.6078540086746216,-0.7338308095932007
1667825184080039200,2.6410390625,-0.3276212811470032,-0.3495209813117981,-0.769221305847168
1667825184090046200,2.651046142578125,-0.24157027900218964,-0.09845732897520065,-0.7644907236099243
1667825184100054300,2.66105419921875,-0.1747792661190033,0.10944100469350815,-0.7292855978012085
1667825184110061000,2.67106103515625,-0.11486533284187317,0.24057506024837494,-0.6839165687561035
1667825184120069400,2.6810693359375,-0.052859485149383545,0.28425541520118713,-0.6444620490074158
1667825184130076200,2.691076171875,0.017908159643411636,0.2339448481798172,-0.6108068823814392
1667825184140084200,2.701084228515625,0.08450130373239517,0.10767799615859985,-0.5734131932258606
1667825184150091300,2.71109130859375,0.13812485337257385,-0.08549492806196213,-0.527798593044281
1667825184160099300,2.721099365234375,0.18106140196323395,-0.30357638001441956,-0.463995099067688
1667825184170106000,2.731106201171875,0.21755069494247437,-0.5203489065170288,-0.38175374269485474
1667825184180114200,2.7411142578125,0.24332024157047272,-0.7235252261161804,-0.2750270366668701
1667825184190121200,2.751121337890625,0.2512335479259491,-0.8769938349723816,-0.15311232209205627
1667825184200129300,2.76112939453125,0.24044029414653778,-0.9696462750434875,-0.041129592806100845
1667825184210137300,2.771137451171875,0.21723724901676178,-0.9995871186256409,0.06041087955236435
1667825184220144400,2.781144287109375,0.18733340501785278,-0.989184558391571,0.13840368390083313
1667825184230152400,2.79115234375,0.14766934514045715,-0.9485828280448914,0.20073390007019043
1667825184240159200,2.8011591796875,0.08691998571157455,-0.8854440450668335,0.25585228204727173
1667825184250167300,2.811167236328125,0.012064918875694275,-0.8200898170471191,0.30807286500930786
1667825184260174300,2.82117431640625,-0.07199376821517944,-0.7362913489341736,0.37388649582862854
1667825184270182400,2.831182373046875,-0.18435946106910706,-0.6329319477081299,0.44988328218460083
1667825184280189200,2.841189208984375,-0.312766969203949,-0.5208293795585632,0.5161704421043396
1667825184290197200,2.851197265625,-0.44063544273376465,-0.40858057141304016,0.5597471594810486
1667825184300204300,2.861204345703125,-0.5592941641807556,-0.29121267795562744,0.583611249923706
1667825184310212400,2.87121240234375,-0.6592658162117004,-0.1720583140850067,0.5732662081718445
1667825184320219400,2.881219482421875,-0.7417305707931519,-0.06627089530229568,0.5441314578056335
1667825184330227500,2.8912275390625,-0.8109602332115173,0.023863520473241806,0.5042914152145386
1667825184340234200,2.901234130859375,-0.8653611540794373,0.07295543700456619,0.44380247592926025
1667825184350242300,2.9112421875,-0.9132442474365234,0.08363816887140274,0.36404773592948914
1667825184360250000,2.92125,-0.9446173906326294,0.06033817678689957,0.26674169301986694
1667825184370257400,2.93125732421875,-0.9719603061676025,0.013596768490970135,0.1543365716934204
1667825184380265200,2.94126513671875,-0.9850614666938782,-0.06597156077623367,0.015091600827872753
1667825184390272300,2.951272216796875,-1.0021506547927856,-0.163667231798172,-0.1499205231666565
1667825184400280300,2.9612802734375,-1.0038751363754272,-0.25541046261787415,-0.3299635350704193
1667825184410287400,2.971287353515625,-0.984328031539917,-0.3375905454158783,-0.5171994566917419
1667825184420295200,2.981295166015625,-0.9480224847793579,-0.4029405415058136,-0.7086208462715149
1667825184430302200,2.99130224609375,-0.9129358530044556,-0.43291175365448,-0.9017127752304077
1667825184440310300,3.001310302734375,-0.8781981468200684,-0.4007439613342285,-1.067945957183838
1667825184450314200,3.011314208984375,-0.8332575559616089,-0.3130473792552948,-1.1917229890823364
1667825184460322000,3.021322021484375,-0.7615764737129211,-0.18463243544101715,-1.254896640777588
1667825184470329300,3.031329345703125,-0.6715698838233948,-0.0010996191995218396,-1.2579350471496582
1667825184480337200,3.041337158203125,-0.5557615160942078,0.19358651340007782,-1.1984989643096924
1667825184490345200,3.05134521484375,-0.4143172800540924,0.3069639205932617,-1.1139906644821167
1667825184500352300,3.061352294921875,-0.22249191999435425,0.26775074005126953,-1.0589708089828491
1667825184510360300,3.0713603515625,0.024470455944538116,0.04778004065155983,-1.040213704109192
1667825184520367000,3.0813671875,0.32535094022750854,-0.2977163791656494,-1.072487473487854
1667825184530375200,3.091375244140625,0.6367388963699341,-0.6095344424247742,-1.123213529586792
1667825184540382200,3.10138232421875,0.9161670804023743,-0.7965062260627747,-1.1500685214996338
1667825184550390300,3.111390380859375,1.156542181968689,-0.8533458113670349,-1.1235435009002686
1667825184560397000,3.12139697265625,1.339529275894165,-0.7720066905021667,-1.0192791223526
1667825184570405000,3.131405029296875,1.4526939392089844,-0.5501065254211426,-0.8346850275993347
1667825184580412200,3.141412109375,1.5172630548477173,-0.18234211206436157,-0.5902017951011658
1667825184590420200,3.151420166015625,1.5657768249511719,0.2522231936454773,-0.31537020206451416
1667825184600427300,3.16142724609375,1.6442759037017822,0.6214691400527954,-0.06470096856355667
1667825184610435300,3.171435302734375,1.756837010383606,0.863292396068573,0.14474520087242126
1667825184620442000,3.181442138671875,1.892303466796875,0.9569648504257202,0.2952097952365875
1667825184630450200,3.1914501953125,2.0154500007629395,0.8997236490249634,0.38546860218048096
1667825184640458000,3.2014580078125,2.0871407985687256,0.7626428008079529,0.4483013451099396
1667825184650465300,3.21146533203125,2.0759530067443848,0.5790116786956787,0.5002202391624451
1667825184660473000,3.22147314453125,1.9695898294448853,0.3760039806365967,0.5483094453811646
1667825184670480100,3.231480224609375,1.7492786645889282,0.18783222138881683,0.6141712665557861
1667825184680488200,3.24148828125,1.4372332096099854,0.014401310123503208,0.7065129280090332
1667825184690495200,3.2514951171875,1.0770177841186523,-0.15010960400104523,0.8093828558921814
1667825184700503000,3.2615029296875,0.7055267691612244,-0.3074534237384796,0.9046489000320435
1667825184710510300,3.27151025390625,0.3896321952342987,-0.43881943821907043,0.9755012392997742
1667825184720518100,3.28151806640625,0.15643328428268433,-0.532804012298584,1.0009304285049438
1667825184730525200,3.291525146484375,0.011462245136499405,-0.5606135129928589,0.9746155142784119
1667825184740533000,3.301532958984375,-0.053465887904167175,-0.5306643843650818,0.9227485656738281
1667825184750540300,3.311540283203125,-0.05307839810848236,-0.49855679273605347,0.8447469472885132
1667825184760548000,3.321548095703125,-0.032229840755462646,-0.44981855154037476,0.7718836665153503
1667825184770556200,3.33155615234375,-0.02087705209851265,-0.37513846158981323,0.7034034132957458
1667825184780563200,3.341563232421875,-0.034456510096788406,-0.28180131316185,0.6539354920387268
1667825184790571300,3.3515712890625,-0.06441999971866608,-0.16558097302913666,0.6212846040725708
1667825184800578000,3.361578125,-0.11077471822500229,-0.002161954063922167,0.5998194813728333
1667825184810586000,3.371586181640625,-0.17434942722320557,0.17951835691928864,0.5782601237297058
1667825184820593200,3.38159326171875,-0.24377484619617462,0.3466101586818695,0.5424355864524841
1667825184830601200,3.391601318359375,-0.29731956124305725,0.4767415225505829,0.48356375098228455
1667825184840608000,3.40160791015625,-0.33817699551582336,0.5682889819145203,0.4137502908706665
1667825184850616300,3.4116162109375,-0.3612351715564728,0.6058779358863831,0.3335830271244049
1667825184860623000,3.421623046875,-0.3838837444782257,0.6122455596923828,0.2592499554157257
1667825184870631200,3.431631103515625,-0.4107038974761963,0.6223599910736084,0.20599204301834106
1667825184880638200,3.44163818359375,-0.43383294343948364,0.6484437584877014,0.17521202564239502
1667825184890646300,3.451646240234375,-0.44842973351478577,0.6926546096801758,0.1839868724346161
1667825184900654300,3.461654296875,-0.4603005051612854,0.7579305768013,0.23544155061244965
1667825184910661000,3.4716611328125,-0.46797651052474976,0.8287027478218079,0.3085083067417145
1667825184920669400,3.48166943359375,-0.4655466675758362,0.892045795917511,0.3968570828437805
1667825184930676200,3.49167626953125,-0.45571985840797424,0.9620032906532288,0.486183226108551
1667825184940684300,3.501684326171875,-0.4302395284175873,1.0324676036834717,0.5698930621147156
1667825184950691300,3.51169140625,-0.3935563564300537,1.096634030342102,0.6459699869155884
1667825184960699400,3.521699462890625,-0.34756940603256226,1.1422410011291504,0.7180982232093811
1667825184970706200,3.5317060546875,-0.2822546064853668,1.1365433931350708,0.7887348532676697
1667825184980714200,3.54171435546875,-0.21379537880420685,1.086373209953308,0.8541865348815918
1667825184990721300,3.55172119140625,-0.14203330874443054,1.0192103385925293,0.9203336238861084
1667825185000729300,3.561729248046875,-0.07036417722702026,0.9110652804374695,0.9637945294380188
1667825185010736000,3.571736083984375,0.014328871853649616,0.7222293019294739,0.9441789984703064
1667825185020744400,3.581744384765625,0.11021731793880463,0.41050443053245544,0.8426694273948669
1667825185030751200,3.591751220703125,0.20020979642868042,-0.00621182331815362,0.6566199660301208
1667825185040759300,3.60175927734375,0.25739291310310364,-0.45578110218048096,0.40122413635253906
1667825185050767000,3.61176708984375,0.25157204270362854,-0.8338115215301514,0.10657650977373123
1667825185060774400,3.6217744140625,0.19448240101337433,-1.0561859607696533,-0.1703602820634842
1667825185070782200,3.6317822265625,0.10933101922273636,-1.111424446105957,-0.40948790311813354
1667825185080789200,3.641789306640625,0.009190835058689117,-1.00062894821167,-0.561342716217041
1667825185090797300,3.65179736328125,-0.08675993233919144,-0.7545046806335449,-0.623896598815918
1667825185100804400,3.661804443359375,-0.14880278706550598,-0.4684785306453705,-0.6131430268287659
1667825185110812200,3.671812255859375,-0.15329687297344208,-0.2506612539291382,-0.5920326709747314
1667825185120819500,3.6818193359375,-0.08792240172624588,-0.10040409862995148,-0.5886102318763733
1667825185130827300,3.6918271484375,0.057796187698841095,-0.005231780000030994,-0.6022917032241821
1667825185140834300,3.701834228515625,0.25957244634628296,0.01786208711564541,-0.6150437593460083
1667825185150842000,3.711842041015625,0.44805261492729187,-0.07754112780094147,-0.6255245804786682
1667825185160849400,3.721849365234375,0.5578593015670776,-0.24884523451328278,-0.6319939494132996
1667825185170857200,3.731857177734375,0.5964468717575073,-0.4170273244380951,-0.6487129926681519
1667825185180865300,3.741865234375,0.5640804171562195,-0.524804413318634,-0.6541005969047546
1667825185190872300,3.751872314453125,0.47306421399116516,-0.581985354423523,-0.6476040482521057
1667825185200880400,3.76188037109375,0.3349393904209137,-0.5862861275672913,-0.6220307946205139
1667825185210887200,3.77188720703125,0.17884032428264618,-0.5287994146347046,-0.578529953956604
1667825185220895200,3.781895263671875,0.030109167098999023,-0.4321362376213074,-0.5163826942443848
1667825185230902300,3.79190234375,-0.07837123423814774,-0.3326903283596039,-0.4336307942867279
1667825185240910300,3.801910400390625,-0.1410231739282608,-0.24043817818164825,-0.3319752812385559
1667825185250917000,3.811917236328125,-0.16128823161125183,-0.18331310153007507,-0.2202785760164261
1667825185260925200,3.82192529296875,-0.15043024718761444,-0.16396497189998627,-0.10747985541820526
1667825185270932200,3.83193212890625,-0.13519138097763062,-0.17876149713993073,0.0023228090722113848
1667825185280940300,3.841940185546875,-0.14681874215602875,-0.199515238404274,0.10477913916110992
1667825185290947000,3.851947021484375,-0.19301871955394745,-0.21794937551021576,0.1875174343585968
1667825185300955400,3.861955322265625,-0.2711055278778076,-0.2245047390460968,0.25437527894973755
1667825185310963200,3.871963134765625,-0.3732692003250122,-0.2240045964717865,0.3116002380847931
1667825185320970200,3.88197021484375,-0.5026266574859619,-0.23900751769542694,0.34304389357566833
1667825185330978000,3.89197802734375,-0.638083815574646,-0.25175952911376953,0.35383689403533936
1667825185340985300,3.9019853515625,-0.7567515969276428,-0.23295868933200836,0.3520943820476532
1667825185350993200,3.9119931640625,-0.8511968851089478,-0.21184247732162476,0.3386022746562958
1667825185361000200,3.922000244140625,-0.9193759560585022,-0.2025001049041748,0.3040240705013275
1667825185371008300,3.93200830078125,-0.9581920504570007,-0.21774910390377045,0.24433384835720062
1667825185381015300,3.942015380859375,-0.9668960571289062,-0.2521083950996399,0.16376176476478577
1667825185391023000,3.952023193359375,-0.956005334854126,-0.3049468696117401,0.05306987464427948
1667825185401031200,3.96203125,-0.928511381149292,-0.37429797649383545,-0.09008408337831497
1667825185411038200,3.9720380859375,-0.8871402144432068,-0.45019540190696716,-0.25659316778182983
1667825185421046300,3.98204638671875,-0.8519457578659058,-0.5130550265312195,-0.4390503466129303
1667825185431053000,3.992052978515625,-0.8371979594230652,-0.5407236814498901,-0.6336134076118469
1667825185441061400,4.002061279296875,-0.8499598503112793,-0.5306532382965088,-0.8238981366157532
1667825185451067600,4.012067626953125,-0.8657017946243286,-0.4364470839500427,-0.9804914593696594
1667825185461075500,4.022075439453125,-0.9085009098052979,-0.2586454153060913,-1.053422451019287
1667825185471082800,4.032082763671875,-0.9462480545043945,-0.052082110196352005,-1.030221700668335
1667825185481090600,4.042090576171875,-0.9491937756538391,0.13422891497612,-0.931349515914917
1667825185491097600,4.05209765625,-0.879794716835022,0.21329310536384583,-0.8214413523674011
1667825185501105700,4.062105712890625,-0.7246525287628174,0.16131512820720673,-0.7640017867088318
1667825185511112700,4.07211279296875,-0.47587546706199646,-0.018495919182896614,-0.7850111722946167
1667825185521120500,4.08212060546875,-0.14006656408309937,-0.2631344199180603,-0.8720835447311401
1667825185531128600,4.092128662109375,0.2265378087759018,-0.513086199760437,-0.9854830503463745
1667825185541135600,4.102135498046875,0.5715721845626831,-0.7094578742980957,-1.091109037399292
1667825185551143700,4.112143798828125,0.8574609160423279,-0.7912728190422058,-1.1279083490371704
1667825185561150500,4.122150390625,1.0651205778121948,-0.7214945554733276,-1.0815472602844238
1667825185571158500,4.132158447265625,1.1929649114608765,-0.42847517132759094,-0.9088002443313599
1667825185581165600,4.14216552734375,1.2650805711746216,0.04433736950159073,-0.6239435076713562
1667825185591173600,4.152173583984375,1.3247947692871094,0.5054581165313721,-0.26166701316833496
1667825185601180700,4.1621806640625,1.420742392539978,0.836539089679718,0.10984021425247192
1667825185611188700,4.172188720703125,1.5801922082901,0.9947356581687927,0.4211738705635071
1667825185621195500,4.182195556640625,1.787109136581421,0.9890252947807312,0.6354179978370667
1667825185631203600,4.19220361328125,1.990085244178772,0.8538142442703247,0.7645472288131714
1667825185641210600,4.202210693359375,2.1238021850585938,0.6342608332633972,0.8214586973190308
1667825185651218700,4.21221875,2.153701066970825,0.396298348903656,0.8499484062194824
1667825185661225500,4.2222255859375,2.067697763442993,0.16261421144008636,0.8670229911804199
1667825185671233500,4.232233642578125,1.8666492700576782,-0.04695499315857887,0.8789643049240112
1667825185681241600,4.24224169921875,1.5819424390792847,-0.20996920764446259,0.8992363214492798
1667825185691248600,4.25224853515625,1.2471154928207397,-0.29794034361839294,0.9146272540092468
1667825185701256400,4.26225634765625,0.9001569747924805,-0.3151576817035675,0.9248828291893005
1667825185711263700,4.272263671875,0.5884571075439453,-0.2795751988887787,0.9146820902824402
1667825185721271600,4.282271484375,0.3563503921031952,-0.21565932035446167,0.86403888463974
1667825185731278600,4.292278564453125,0.22253666818141937,-0.12367720156908035,0.7744243144989014
1667825185741286400,4.302286376953125,0.17726080119609833,-0.027298199012875557,0.6729720234870911
1667825185751293700,4.312293701171875,0.1877581775188446,0.06494677811861038,0.5841944813728333
1667825185761301500,4.322301513671875,0.2212703377008438,0.13949210941791534,0.5210567712783813
1667825185771308500,4.33230859375,0.24454636871814728,0.19300220906734467,0.4837892949581146
1667825185781316600,4.342316650390625,0.2408272624015808,0.27598151564598083,0.475018173456192
1667825185791323600,4.35232373046875,0.2128976285457611,0.391405314207077,0.5031595230102539
1667825185801331500,4.36233154296875,0.16745983064174652,0.5307754874229431,0.5615251064300537
1667825185811339500,4.372339599609375,0.08347997814416885,0.6809574961662292,0.6422005295753479
1667825185821346600,4.3823466796875,-0.012458533979952335,0.8264191150665283,0.7378045320510864
1667825185831354600,4.392354736328125,-0.10260920226573944,0.9414926767349243,0.8318783044815063
1667825185841361400,4.402361328125,-0.17508552968502045,1.0110461711883545,0.9120516777038574
1667825185851369700,4.41236962890625,-0.22725684940814972,1.0373704433441162,0.9660659432411194
1667825185861376500,4.42237646484375,-0.2712472081184387,1.0261350870132446,0.9859344363212585
1667825185871384600,4.432384521484375,-0.30547842383384705,0.9635388851165771,0.9804621934890747
1667825185881391600,4.4423916015625,-0.314108669757843,0.8731024265289307,0.9362606406211853
1667825185891399700,4.452399658203125,-0.3047551214694977,0.7658715844154358,0.8609200716018677
1667825185901406500,4.462406494140625,-0.28021007776260376,0.6491074562072754,0.7609548568725586
1667825185911414500,4.47241455078125,-0.26470860838890076,0.5326396822929382,0.6391157507896423
1667825185921421600,4.482421630859375,-0.2787504196166992,0.4443710744380951,0.5176732540130615
1667825185931429600,4.4924296875,-0.32718798518180847,0.3961324393749237,0.3869067132472992
1667825185941436400,4.5024365234375,-0.3818381726741791,0.3878803551197052,0.24913685023784637
1667825185951444700,4.51244482421875,-0.44122692942619324,0.4130118191242218,0.11224265396595001
1667825185961452500,4.52245263671875,-0.49889075756073,0.4696207642555237,-0.011266502551734447
1667825185971459600,4.53245947265625,-0.5426097512245178,0.5353031158447266,-0.08260859549045563
1667825185981467400,4.54246728515625,-0.570397675037384,0.6109331250190735,-0.09085693210363388
1667825185991474700,4.552474609375,-0.5837116241455078,0.6835202574729919,-0.03881077840924263
1667825186001482500,4.562482421875,-0.5761152505874634,0.750394880771637,0.06326312571763992
1667825186011489500,4.572489501953125,-0.5439231991767883,0.8093301057815552,0.19496390223503113
1667825186021497600,4.58249755859375,-0.49522146582603455,0.7932416796684265,0.324539452791214
1667825186031504600,4.592504638671875,-0.42819342017173767,0.6241728067398071,0.3915829360485077
1667825186041512400,4.602512451171875,-0.3571631908416748,0.31553879380226135,0.3787901997566223
1667825186051519700,4.612519775390625,-0.29240044951438904,-0.07348114252090454,0.3105160593986511
1667825186061527600,4.622527587890625,-0.26364389061927795,-0.44337236881256104,0.21651099622249603
1667825186071534600,4.63253466796875,-0.287177175283432,-0.7292746901512146,0.11634764820337296
1667825186081542400,4.64254248046875,-0.36804085969924927,-0.9246492385864258,0.017290839925408363
1667825186091549700,4.6525498046875,-0.47588050365448,-1.048342227935791,-0.09350917488336563
1667825186101557500,4.6625576171875,-0.5945482850074768,-1.1081197261810303,-0.2261340618133545
1667825186111565600,4.672565673828125,-0.7206447124481201,-1.125761866569519,-0.37278687953948975
1667825186121572600,4.682572509765625,-0.8228459358215332,-1.1121762990951538,-0.5383108854293823
1667825186131580700,4.69258056640625,-0.874200701713562,-1.0799126625061035,-0.7332718372344971
1667825186141587500,4.70258740234375,-0.8648689985275269,-1.0185834169387817,-0.9514672756195068
1667825186151595500,4.712595458984375,-0.7996894717216492,-0.9303966164588928,-1.138903260231018
1667825186161602600,4.7226025390625,-0.7128914594650269,-0.7922427654266357,-1.2689213752746582
1667825186171610600,4.732610595703125,-0.618884265422821,-0.5890579223632812,-1.2918472290039062
1667825186181617400,4.742617431640625,-0.5262619256973267,-0.37059032917022705,-1.2075765132904053
1667825186191625500,4.75262548828125,-0.44396254420280457,-0.1831413209438324,-1.0392030477523804
1667825186201632500,4.762632568359375,-0.3765248954296112,-0.05921432003378868,-0.8277900815010071
1667825186211640600,4.772640625,-0.3311837911605835,-0.00028282770654186606,-0.6028518080711365
1667825186221647600,4.782647705078125,-0.27766862511634827,-0.023788420483469963,-0.41132229566574097
1667825186231655700,4.79265576171875,-0.21643643081188202,-0.12989860773086548,-0.26406094431877136
1667825186241662500,4.802662353515625,-0.1489657759666443,-0.29852917790412903,-0.15775421261787415
1667825186251670500,4.81267041015625,-0.08719296008348465,-0.4986545443534851,-0.07928895950317383
1667825186261678600,4.8226787109375,-0.0455685518682003,-0.6840419769287109,-0.0265935268253088
1667825186271685600,4.832685546875,-0.020613133907318115,-0.8329334259033203,0.022040586918592453
1667825186281693700,4.842693603515625,-0.0027164241764694452,-0.9325412511825562,0.07151492685079575
1667825186291700500,4.852700439453125,0.001353684812784195,-0.9764251112937927,0.1141555979847908
1667825186301708800,4.862708740234375,-0.008503473363816738,-0.990898072719574,0.1380303055047989
1667825186311715600,4.872715576171875,-0.029256155714392662,-0.968254804611206,0.14668478071689606
1667825186321723600,4.8827236328125,-0.04739947244524956,-0.8981776833534241,0.14015044271945953
1667825186331730700,4.892730712890625,-0.09052936732769012,-0.8102893829345703,0.11915834993124008
1667825186341738800,4.90273876953125,-0.15412458777427673,-0.7201419472694397,0.07972199469804764
1667825186351745500,4.91274560546875,-0.22980843484401703,-0.628514289855957,0.02857864834368229
1667825186361753600,4.922753662109375,-0.3045596182346344,-0.5411546230316162,-0.0012913667596876621
1667825186371760600,4.9327607421875,-0.37586575746536255,-0.4805231988430023,-0.011236408725380898
1667825186381768700,4.942768798828125,-0.4501253664493561,-0.4471335709095001,0.002147573046386242
1667825186391775500,4.952775390625,-0.5175270438194275,-0.41695383191108704,0.04001133143901825
1667825186401783800,4.96278369140625,-0.5678994059562683,-0.375345379114151,0.09138184785842896
1667825186411791600,4.97279150390625,-0.6088771820068359,-0.3362043797969818,0.13847558200359344
1667825186421798700,4.982798583984375,-0.6434487700462341,-0.32709023356437683,0.16124694049358368
1667825186431806500,4.992806396484375,-0.6690568923950195,-0.3087272047996521,0.15985117852687836
1667825186441813800,5.002813720703125,-0.681192934513092,-0.2711409628391266,0.1251286268234253
1667825186451821300,5.0128212890625,-0.687178373336792,-0.24276843667030334,0.06588340550661087
1667825186461828400,5.022828369140625,-0.6976057291030884,-0.23077329993247986,-0.026033731177449226
1667825186471836400,5.03283642578125,-0.7179879546165466,-0.22977674007415771,-0.1416516751050949
1667825186481843200,5.04284326171875,-0.7537866830825806,-0.22053024172782898,-0.27088555693626404
1667825186491851300,5.052851318359375,-0.7955429553985596,-0.19347572326660156,-0.40120866894721985
1667825186501858300,5.0628583984375,-0.8415994048118591,-0.13915416598320007,-0.5153645277023315
1667825186511866400,5.072866455078125,-0.8702917695045471,-0.059475578367710114,-0.6124362349510193
1667825186521873200,5.082873046875,-0.8747093677520752,0.01423326414078474,-0.6895216703414917
1667825186531881200,5.092881103515625,-0.8521263003349304,0.0734502449631691,-0.7305735349655151
1667825186541889500,5.1028896484375,-0.8036613464355469,0.1093163713812828,-0.7360599040985107
1667825186551896300,5.112896240234375,-0.7395451664924622,0.11152013391256332,-0.7282240986824036
1667825186561904400,5.122904296875,-0.6546934247016907,0.1162981167435646,-0.7058215737342834
1667825186571911400,5.132911376953125,-0.5545290112495422,0.14245487749576569,-0.6696840524673462
1667825186581919500,5.14291943359375,-0.45007050037384033,0.2062266767024994,-0.6151137948036194
1667825186591926300,5.15292626953125,-0.33757084608078003,0.29245424270629883,-0.5349880456924438
1667825186601934300,5.162934326171875,-0.21639728546142578,0.3578193783760071,-0.4513205885887146
1667825186611941400,5.17294140625,-0.07853315770626068,0.37090563774108887,-0.3586854636669159
1667825186621949400,5.182949462890625,0.09708739817142487,0.3094555735588074,-0.2980002760887146
1667825186631956200,5.192956298828125,0.29892411828041077,0.1878170371055603,-0.27163657546043396
1667825186641964500,5.202964599609375,0.5091231465339661,0.06309960782527924,-0.25438621640205383
1667825186651971300,5.212971435546875,0.6991101503372192,-0.03219202533364296,-0.24806466698646545
1667825186661979400,5.2229794921875,0.8540698885917664,-0.08167622238397598,-0.23220740258693695
1667825186671986400,5.232986328125,0.9762565493583679,-0.06939878314733505,-0.20032377541065216
1667825186681994500,5.242994384765625,1.073241949081421,0.005928462836891413,-0.1392870545387268
1667825186692002300,5.253002197265625,1.151481032371521,0.1605428010225296,-0.026765834540128708
1667825186702009300,5.26300927734375,1.2319968938827515,0.3407384157180786,0.14276887476444244
1667825186712017400,5.273017333984375,1.3268203735351562,0.49364301562309265,0.35555410385131836
1667825186722024400,5.2830244140625,1.4472302198410034,0.5769174098968506,0.5758915543556213
1667825186732032300,5.2930322265625,1.5845606327056885,0.572041928768158,0.7855675220489502
1667825186742039600,5.30303955078125,1.7175593376159668,0.5317347049713135,0.9474815726280212
1667825186752047400,5.31304736328125,1.828094482421875,0.4741787612438202,1.0483118295669556
1667825186762054400,5.323054443359375,1.9085218906402588,0.402803897857666,1.1018482446670532
1667825186772062200,5.333062255859375,1.909184455871582,0.3239879310131073,1.1137340068817139
1667825186782069500,5.343069580078125,1.8203675746917725,0.24636104702949524,1.0948997735977173
1667825186792077300,5.353077392578125,1.660430908203125,0.1851605325937271,1.0480002164840698
1667825186802084400,5.36308447265625,1.4447730779647827,0.14090652763843536,0.981645941734314
1667825186812092400,5.373092529296875,1.206037998199463,0.09319306164979935,0.8975955247879028
1667825186822099500,5.383099365234375,0.9653492569923401,0.057674214243888855,0.8073244690895081
1667825186832107300,5.393107177734375,0.7439561486244202,0.011815913021564484,0.709812343120575
1667825186842115300,5.403115234375,0.5797230005264282,-0.02672508731484413,0.5930686593055725
1667825186852122400,5.413122314453125,0.5026388764381409,-0.02875734493136406,0.4661935269832611
1667825186862130400,5.42313037109375,0.49032577872276306,0.028071315959095955,0.3444247543811798
1667825186872137200,5.43313720703125,0.48769402503967285,0.11441632360219955,0.2484324425458908
1667825186882145300,5.443145263671875,0.46567395329475403,0.23132430016994476,0.18693792819976807
1667825186892152300,5.45315234375,0.4172550141811371,0.3615395724773407,0.17110596597194672
1667825186902160400,5.463160400390625,0.3490333557128906,0.493507444858551,0.18844075500965118
1667825186912167400,5.47316748046875,0.2802436351776123,0.6295936703681946,0.23901577293872833
1667825186922175500,5.483175537109375,0.2326524257659912,0.7295732498168945,0.3027590811252594
1667825186932182300,5.493182373046875,0.20472624897956848,0.7857323884963989,0.3821721374988556
1667825186942190300,5.5031904296875,0.19915278255939484,0.7768920063972473,0.46998828649520874
1667825186952197400,5.513197265625,0.19668669998645782,0.7005831599235535,0.5476984977722168
1667825186962205400,5.523205322265625,0.18236128985881805,0.5895460844039917,0.598272979259491
1667825186972213200,5.533213134765625,0.16162538528442383,0.49766889214515686,0.630092978477478
1667825186982220300,5.54322021484375,0.13878345489501953,0.4264027178287506,0.6382806301116943
1667825186992228400,5.553228271484375,0.11379873752593994,0.34732040762901306,0.6104984879493713
1667825187002235400,5.5632353515625,0.0819380059838295,0.24348323047161102,0.5388456583023071
1667825187012243200,5.5732431640625,0.04932760074734688,0.12566258013248444,0.42501628398895264
1667825187022250500,5.58325048828125,0.007911984808743,0.03678411245346069,0.2834591269493103
1667825187032258300,5.59325830078125,-0.02869369648396969,0.0022599585354328156,0.1355125606060028
1667825187042265300,5.603265380859375,-0.06304074823856354,-0.0022333269007503986,-0.004324174486100674
1667825187052273200,5.613273193359375,-0.10165658593177795,0.027181286364793777,-0.1196768656373024
1667825187062280400,5.623280517578125,-0.1485908031463623,0.11435107886791229,-0.1816113442182541
1667825187072288300,5.633288330078125,-0.18994863331317902,0.2555904984474182,-0.16853176057338715
1667825187082295300,5.64329541015625,-0.22526507079601288,0.4585561156272888,-0.07207871973514557
1667825187092303400,5.653303466796875,-0.236723855137825,0.6860942244529724,0.09807489812374115
1667825187102310400,5.663310302734375,-0.21343158185482025,0.8947864174842834,0.31284818053245544
1667825187112318200,5.673318115234375,-0.1523386687040329,1.0334774255752563,0.5469219088554382
1667825187122326300,5.683326171875,-0.05747714266180992,1.0222400426864624,0.7460004091262817
1667825187132333300,5.693333251953125,0.06655532121658325,0.8137544393539429,0.8720403909683228
1667825187142341400,5.70334130859375,0.17977428436279297,0.43537941575050354,0.9069653153419495
1667825187152348200,5.71334814453125,0.24878717958927155,-0.021335115656256676,0.8529998660087585
1667825187162356500,5.7233564453125,0.2777024507522583,-0.4691363275051117,0.7320582270622253
1667825187172363300,5.73336328125,0.24948519468307495,-0.8501121997833252,0.5722664594650269
1667825187182371300,5.743371337890625,0.14070545136928558,-1.123155117034912,0.4150235652923584
1667825187192378400,5.75337841796875,-0.06136269494891167,-1.241943359375,0.28626585006713867
1667825187202386400,5.763386474609375,-0.326778382062912,-1.1655482053756714,0.19090977311134338
1667825187212393200,5.773393310546875,-0.5890803337097168,-0.9339399337768555,0.13739727437496185
1667825187222401300,5.7834013671875,-0.7863403558731079,-0.6816864013671875,0.0889626294374466
1667825187232408300,5.793408203125,-0.9006075859069824,-0.5194311738014221,0.010688330978155136
1667825187242416400,5.80341650390625,-0.9226683974266052,-0.4175106883049011,-0.11882279068231583
1667825187252423200,5.813423095703125,-0.8549261093139648,-0.3333108425140381,-0.28694814443588257
1667825187262431500,5.823431396484375,-0.724679708480835,-0.2336452454328537,-0.4562751352787018
1667825187272439300,5.833439208984375,-0.5862986445426941,-0.12957637012004852,-0.5848397612571716
1667825187282446300,5.8434462890625,-0.46409469842910767,-0.04301511123776436,-0.6766072511672974
1667825187292454100,5.8534541015625,-0.3804759681224823,0.022594258189201355,-0.7293327450752258
1667825187302461400,5.86346142578125,-0.3341505527496338,0.05288265645503998,-0.7424402832984924
1667825187312469200,5.87346923828125,-0.3257216513156891,0.04194984585046768,-0.7329224348068237
1667825187322476300,5.883476318359375,-0.34534886479377747,-0.010853978805243969,-0.7051283717155457
1667825187332484400,5.893484375,-0.3746894598007202,-0.11505894362926483,-0.664682924747467
1667825187342491400,5.903491455078125,-0.38924655318260193,-0.2669387459754944,-0.6162333488464355
1667825187352499200,5.913499267578125,-0.38619059324264526,-0.4394833743572235,-0.5699918270111084
1667825187362506500,5.923506591796875,-0.3552688956260681,-0.5975624918937683,-0.5120667219161987
1667825187372514300,5.933514404296875,-0.30988410115242004,-0.7203139662742615,-0.44933652877807617
1667825187382521300,5.943521240234375,-0.2730104923248291,-0.792833685874939,-0.3883003294467926
1667825187392529200,5.953529052734375,-0.2507834732532501,-0.8069503307342529,-0.3355300724506378
1667825187402537500,5.963537353515625,-0.24148665368556976,-0.7648457288742065,-0.2923165559768677
1667825187412544300,5.973544189453125,-0.23921391367912292,-0.7040740251541138,-0.2696746289730072
1667825187422552300,5.98355224609375,-0.2541225552558899,-0.6465612053871155,-0.27904894948005676
1667825187432559400,5.993559326171875,-0.28263330459594727,-0.5671790242195129,-0.31167080998420715
1667825187442567400,6.0035673828125,-0.3377189040184021,-0.4642805755138397,-0.3544371724128723
1667825187452574700,6.01357470703125,-0.4207320511341095,-0.341158390045166,-0.3848819136619568
1667825187462582800,6.023582763671875,-0.521298885345459,-0.18762582540512085,-0.36799079179763794
1667825187472589800,6.03358984375,-0.618812084197998,0.007444067858159542,-0.2912973463535309
1667825187482598000,6.043597900390625,-0.6946674585342407,0.20699766278266907,-0.17031154036521912
1667825187492604700,6.053604736328125,-0.7307482361793518,0.37162068486213684,-0.04236769676208496
1667825187502612700,6.06361279296875,-0.7229830026626587,0.4588770270347595,0.06483092904090881
1667825187512619800,6.073619873046875,-0.691366970539093,0.46770355105400085,0.13361558318138123
1667825187522627800,6.0836279296875,-0.6528443694114685,0.41739189624786377,0.15529663860797882
1667825187532634600,6.093634521484375,-0.6237503886222839,0.3625752627849579,0.148090660572052
1667825187542643000,6.103642822265625,-0.6221517324447632,0.31846240162849426,0.12059512734413147
1667825187552649700,6.113649658203125,-0.644432783126831,0.2732941210269928,0.0809534415602684
1667825187562657800,6.12365771484375,-0.6750386357307434,0.21595679223537445,0.01601012609899044
1667825187572665600,6.13366552734375,-0.6983159780502319,0.15647536516189575,-0.07785245031118393
1667825187582673000,6.1436728515625,-0.7072551250457764,0.1087762787938118,-0.19360248744487762
1667825187592680700,6.1536806640625,-0.7076703310012817,0.10244807600975037,-0.32538822293281555
1667825187602687700,6.163687744140625,-0.6986547112464905,0.15264306962490082,-0.439224511384964
1667825187612695800,6.17369580078125,-0.6776828765869141,0.21659621596336365,-0.5110451579093933
1667825187622702800,6.183702880859375,-0.6388769149780273,0.24721458554267883,-0.535800576210022
1667825187632710700,6.193710693359375,-0.5930127501487732,0.27411729097366333,-0.5145909190177917
1667825187642718000,6.203718017578125,-0.5270332098007202,0.2858445346355438,-0.4634544849395752
1667825187652725800,6.213725830078125,-0.4283183217048645,0.2598488926887512,-0.39909759163856506
1667825187662732500,6.223732666015625,-0.26814648509025574,0.15487585961818695,-0.3576420247554779
1667825187672740600,6.23374072265625,-0.023815050721168518,-0.02906334213912487,-0.36465200781822205
1667825187682747600,6.24374755859375,0.2857646346092224,-0.28634360432624817,-0.4203416109085083
1667825187692755700,6.253755615234375,0.6067341566085815,-0.5841223001480103,-0.519508421421051
1667825187702763800,6.263763671875,0.8790061473846436,-0.8642570376396179,-0.6456245183944702
1667825187712770800,6.273770751953125,1.090576410293579,-1.0724687576293945,-0.7650963664054871
1667825187722779000,6.28377880859375,1.2576959133148193,-1.1590430736541748,-0.8344333171844482
1667825187732785700,6.29378564453125,1.368674397468567,-1.0767592191696167,-0.8124425411224365
1667825187742793700,6.303793701171875,1.41962468624115,-0.8273125886917114,-0.6867562532424927
1667825187752800800,6.31380078125,1.4283357858657837,-0.46435993909835815,-0.4777521789073944
1667825187762808800,6.323808837890625,1.451911449432373,-0.13558898866176605,-0.2385675609111786
1667825187772815600,6.333815673828125,1.5134856700897217,0.09177333116531372,-0.00711809704080224
1667825187782823700,6.34382373046875,1.6175142526626587,0.226392924785614,0.17762406170368195
1667825187792830700,6.353830810546875,1.7493064403533936,0.2863076627254486,0.29120388627052307
1667825187802838800,6.3638388671875,1.8469221591949463,0.30996158719062805,0.3352501690387726
1667825187812845800,6.373845703125,1.887661337852478,0.2983512580394745,0.34521785378456116
1667825187822854000,6.38385400390625,1.8216568231582642,0.254376083612442,0.3451177179813385
1667825187832860700,6.393860595703125,1.6476956605911255,0.20734067261219025,0.343063086271286
1667825187842868700,6.40386865234375,1.407815933227539,0.1716764122247696,0.35779035091400146
1667825187852876500,6.41387646484375,1.1284385919570923,0.13365846872329712,0.3802866041660309
1667825187862883800,6.4238837890625,0.8522608280181885,0.0994618758559227,0.4178992509841919
1667825187872891600,6.4338916015625,0.6213876605033875,0.0714680552482605,0.4777732193470001
1667825187882898700,6.443898681640625,0.4636036157608032,0.06562002003192902,0.5473387241363525
1667825187892906800,6.45390673828125,0.3730071187019348,0.08019177615642548,0.6168330907821655
1667825187902913800,6.463913818359375,0.3239855170249939,0.1254388839006424,0.6694310903549194
1667825187912921600,6.473921630859375,0.29267048835754395,0.21223929524421692,0.7111697196960449
1667825187922929000,6.483928955078125,0.27384379506111145,0.318332701921463,0.7486289739608765
1667825187932936700,6.493936767578125,0.24621696770191193,0.4173154830932617,0.7691677808761597
1667825187942943700,6.50394384765625,0.19800736010074615,0.503069281578064,0.7702431678771973
1667825187952951600,6.51395166015625,0.12473314255475998,0.5550565719604492,0.7524559497833252
1667825187962958800,6.523958740234375,0.03272226080298424,0.5783589482307434,0.7152318358421326
1667825187972966700,6.533966552734375,-0.07957764714956284,0.5718501806259155,0.6528944373130798
1667825187982973700,6.5439736328125,-0.20442797243595123,0.5557625889778137,0.5808554291725159
1667825187992981800,6.553981689453125,-0.33012837171554565,0.5309978127479553,0.5016929507255554
1667825188002989800,6.56398974609375,-0.44509702920913696,0.5155403017997742,0.42376723885536194
1667825188012996600,6.57399658203125,-0.5395641326904297,0.5208554267883301,0.35812512040138245
1667825188023004700,6.584004638671875,-0.6112540364265442,0.5431719422340393,0.3314775228500366
1667825188033011700,6.59401171875,-0.6732378005981445,0.5356418490409851,0.3472011089324951
1667825188043019800,6.604019775390625,-0.7208953499794006,0.49513864517211914,0.3894723951816559
1667825188053026600,6.614026611328125,-0.7379608750343323,0.47204238176345825,0.4235406219959259
1667825188063035000,6.624034912109375,-0.7021975517272949,0.44758814573287964,0.45064252614974976
1667825188073041700,6.634041748046875,-0.6159606575965881,0.37568095326423645,0.4417797923088074
1667825188083049700,6.6440498046875,-0.5116512775421143,0.2901442050933838,0.3880710303783417
1667825188093056800,6.654056884765625,-0.41501477360725403,0.2314891517162323,0.3084939122200012
1667825188103064800,6.66406494140625,-0.3452647030353546,0.2287474274635315,0.23153363168239594
1667825188113071600,6.674071533203125,-0.33213719725608826,0.2355286329984665,0.19834664463996887
1667825188123079700,6.68407958984375,-0.3599182367324829,0.26756858825683594,0.23273417353630066
1667825188133086700,6.694086669921875,-0.40855661034584045,0.3188759982585907,0.3207191526889801
1667825188143094800,6.7040947265625,-0.429701566696167,0.3807947635650635,0.4530700147151947
1667825188153102600,6.7141025390625,-0.40390247106552124,0.40998512506484985,0.580849289894104
1667825188163110000,6.72410986328125,-0.3195455074310303,0.33740440011024475,0.6446474194526672
1667825188173117700,6.73411767578125,-0.18590381741523743,0.15479649603366852,0.5989169478416443
1667825188183124700,6.744124755859375,-0.03760383278131485,-0.15569451451301575,0.44943320751190186
1667825188193132500,6.754132568359375,0.07466305047273636,-0.5532573461532593,0.21134206652641296
1667825188203139800,6.764139892578125,0.11542326211929321,-0.9618166089057922,-0.087745301425457
1667825188213147600,6.774147705078125,0.0854824110865593,-1.274367094039917,-0.40840399265289307
1667825188223154700,6.78415478515625,0.012456403113901615,-1.3869948387145996,-0.6925025582313538
1667825188233162800,6.794162841796875,-0.10356740653514862,-1.2768549919128418,-0.8718299865722656
1667825188243169800,6.804169677734375,-0.25669944286346436,-0.9752352237701416,-0.9251598119735718
1667825188253177600,6.814177490234375,-0.40048936009407043,-0.5855377912521362,-0.8796761631965637
1667825188263185000,6.824184814453125,-0.47957566380500793,-0.2285679280757904,-0.7680487036705017
1667825188273192700,6.834192626953125,-0.46085870265960693,0.06825628876686096,-0.6526310443878174
1667825188283199700,6.84419970703125,-0.3408055305480957,0.2756366431713104,-0.5591045618057251
1667825188293207600,6.85420751953125,-0.1464719921350479,0.3777472972869873,-0.48826396465301514
1667825188303214800,6.86421484375,0.07742368429899216,0.33755940198898315,-0.4398775100708008
1667825188313222700,6.87422265625,0.2660505771636963,0.21344196796417236,-0.3936924338340759
1667825188323230700,6.884230712890625,0.38227492570877075,0.0350826196372509,-0.35989904403686523
1667825188333237800,6.89423779296875,0.42436087131500244,-0.14878042042255402,-0.3399466574192047
1667825188343245800,6.904245849609375,0.3965209722518921,-0.30662277340888977,-0.33168792724609375
1667825188353252600,6.914252685546875,0.32354530692100525,-0.42412543296813965,-0.3377857506275177
1667825188363260700,6.9242607421875,0.21950839459896088,-0.49279212951660156,-0.3365154266357422
1667825188373267700,6.934267822265625,0.10687824338674545,-0.5233095288276672,-0.3241647481918335
1667825188383275800,6.94427587890625,-0.013401293195784092,-0.5209997892379761,-0.29687827825546265
1667825188393282600,6.954282470703125,-0.11362829804420471,-0.5162670612335205,-0.26384681463241577
1667825188403290600,6.96429052734375,-0.17159226536750793,-0.5150079727172852,-0.22073717415332794
1667825188413297700,6.974297607421875,-0.18968258798122406,-0.5160236954689026,-0.1812068074941635
1667825188423305700,6.9843056640625,-0.18759119510650635,-0.49212846159935,-0.13366085290908813
1667825188433312800,6.994312744140625,-0.2016012966632843,-0.4388308823108673,-0.07239457219839096
1667825188443320800,7.00432080078125,-0.24490109086036682,-0.3503393828868866,-0.002282062778249383
1667825188453332200,7.014332275390625,-0.30893227458000183,-0.25286582112312317,0.08363204449415207
1667825188463339000,7.024339111328125,-0.38701722025871277,-0.15744635462760925,0.16358307003974915
1667825188473347000,7.03434716796875,-0.47304266691207886,-0.053940195590257645,0.23520958423614502
1667825188483354000,7.04435400390625,-0.5531955361366272,0.05082403123378754,0.30730560421943665
1667825188493362200,7.054362060546875,-0.6263131499290466,0.13907107710838318,0.36999136209487915
1667825188503369200,7.064369140625,-0.6851301193237305,0.2092411071062088,0.4123886227607727
1667825188513377300,7.074377197265625,-0.7071670293807983,0.2619871497154236,0.4426839351654053
1667825188523384000,7.084384033203125,-0.7086149454116821,0.2834183871746063,0.44696736335754395
1667825188533392100,7.09439208984375,-0.6961029171943665,0.25125885009765625,0.4137265980243683
1667825188543399200,7.104399169921875,-0.6697290539741516,0.17177149653434753,0.344372034072876
1667825188553407200,7.1144072265625,-0.6446554064750671,0.07687773555517197,0.24091114103794098
1667825188563414000,7.1244140625,-0.6335204839706421,0.00401684595271945,0.11151348054409027
1667825188573422000,7.134422119140625,-0.6472733020782471,-0.04397384822368622,-0.028141889721155167
1667825188583429000,7.14442919921875,-0.674692690372467,-0.05793840065598488,-0.16940154135227203
1667825188593437200,7.154437255859375,-0.7087153792381287,-0.045339252799749374,-0.3034578859806061
1667825188603445000,7.164445068359375,-0.7510894536972046,-0.022671224549412727,-0.44599080085754395
1667825188613452300,7.174452392578125,-0.7802369594573975,0.009709885343909264,-0.5895759463310242
1667825188623460000,7.184460205078125,-0.794014573097229,0.04836540296673775,-0.7136446237564087
1667825188633467100,7.194467041015625,-0.7777719497680664,0.092873215675354,-0.7986679077148438
1667825188643475000,7.204474853515625,-0.7299340963363647,0.16241367161273956,-0.825857937335968
1667825188653482200,7.214482177734375,-0.640324592590332,0.22075234353542328,-0.7953067421913147
1667825188663490000,7.224489990234375,-0.5148532390594482,0.255154013633728,-0.7165533304214478
1667825188673497000,7.2344970703125,-0.3506523072719574,0.2500615119934082,-0.621881902217865
1667825188683505200,7.244505126953125,-0.132717564702034,0.19680839776992798,-0.5530799627304077
1667825188693512200,7.25451220703125,0.13943113386631012,0.07970601320266724,-0.5346032381057739
1667825188703520000,7.26452001953125,0.440463125705719,-0.05997119098901749,-0.5602771639823914
1667825188713527300,7.27452734375,0.7124051451683044,-0.17491428554058075,-0.5983462333679199
1667825188723535000,7.28453515625,0.9239416718482971,-0.24717703461647034,-0.6252761483192444
1667825188733542100,7.294542236328125,1.0697423219680786,-0.26201775670051575,-0.6055799126625061
1667825188743550000,7.304550048828125,1.169031023979187,-0.206239715218544,-0.5308550596237183
1667825188753558300,7.314558349609375,1.232603669166565,-0.04880881682038307,-0.3873429298400879
1667825188763565000,7.32456494140625,1.2858905792236328,0.18816325068473816,-0.17332172393798828
1667825188773573000,7.334572998046875,1.358379602432251,0.41094306111335754,0.10568541288375854
1667825188783580200,7.344580078125,1.4766263961791992,0.5391066074371338,0.3985889256000519
1667825188793588200,7.354588134765625,1.6271435022354126,0.5445613265037537,0.6726590991020203
1667825188803595000,7.364594970703125,1.7828915119171143,0.44581636786460876,0.8953915238380432
1667825188813603000,7.37460302734375,1.9196885824203491,0.3327521085739136,1.050526738166809
1667825188823610000,7.384610107421875,2.006460189819336,0.24831686913967133,1.1406630277633667
1667825188833618200,7.3946181640625,2.018263101577759,0.15217143297195435,1.1936842203140259
1667825188843625000,7.404625,1.936975359916687,0.06308629363775253,1.2071589231491089
1667825188853633300,7.41463330078125,1.763028621673584,-0.011364241130650043,1.1959105730056763
1667825188863640000,7.42464013671875,1.500839114189148,-0.07667586952447891,1.1550300121307373
1667825188873648000,7.434648193359375,1.2026652097702026,-0.12117995321750641,1.084882378578186
1667825188883655200,7.4446552734375,0.9090239405632019,-0.1509953737258911,0.9768741130828857
1667825188893663200,7.454663330078125,0.6554428339004517,-0.15565936267375946,0.8341680765151978
1667825188903670000,7.464669921875,0.4919452369213104,-0.13766971230506897,0.6520851254463196
1667825188913678000,7.474677978515625,0.4170970916748047,-0.08259394764900208,0.45368626713752747
1667825188923686100,7.48468603515625,0.4005327522754669,0.008823052980005741,0.26340821385383606
1667825188933693200,7.494693115234375,0.3919273018836975,0.1285928636789322,0.10858772695064545
1667825188943701000,7.504700927734375,0.35761111974716187,0.2651411294937134,0.005028314422816038
1667825188953708300,7.514708251953125,0.2813621759414673,0.4204825162887573,-0.03196752071380615
1667825188963716000,7.524716064453125,0.16997624933719635,0.569876492023468,-0.01059405505657196
1667825188973723100,7.53472314453125,0.057259026914834976,0.6641697287559509,0.05627685412764549
1667825188983731000,7.54473095703125,-0.04201456159353256,0.708180844783783,0.14271746575832367
1667825188993738200,7.55473828125,-0.1047208160161972,0.6927497386932373,0.22778549790382385
1667825189003746000,7.56474609375,-0.1416945457458496,0.6096338033676147,0.3116516172885895
1667825189013753000,7.574753173828125,-0.1565760225057602,0.47786402702331543,0.38467416167259216
1667825189023761200,7.58476123046875,-0.16402488946914673,0.3572832942008972,0.4498204290866852
1667825189033768200,7.594768310546875,-0.17194220423698425,0.2647120952606201,0.4925095736980438
1667825189043776000,7.60477587890625,-0.18559116125106812,0.21971771121025085,0.5214322805404663
1667825189053783300,7.614783203125,-0.2024521678686142,0.22153238952159882,0.5143618583679199
1667825189063791000,7.624791015625,-0.22626961767673492,0.2395460158586502,0.48806262016296387
1667825189073799200,7.634799072265625,-0.26452165842056274,0.21387474238872528,0.42725998163223267
1667825189083806000,7.644805908203125,-0.2993811070919037,0.14271506667137146,0.32837948203086853
1667825189093814000,7.65481396484375,-0.3281533718109131,0.04392564669251442,0.19501902163028717
1667825189103821000,7.664821044921875,-0.3556331992149353,-0.048288170248270035,0.04623087868094444
1667825189113829000,7.6748291015625,-0.39583921432495117,-0.11123917251825333,-0.08881189674139023
1667825189123836200,7.684836181640625,-0.44291430711746216,-0.10137668997049332,-0.17215551435947418
1667825189133844200,7.69484423828125,-0.4923303425312042,0.007193730678409338,-0.18309073150157928
1667825189143851000,7.70485107421875,-0.543565034866333,0.18496160209178925,-0.11714686453342438
1667825189153859000,7.714859130859375,-0.5758576989173889,0.3890891671180725,0.01823333278298378
1667825189163866000,7.7248662109375,-0.5700623989105225,0.5247963666915894,0.17897480726242065
1667825189173874200,7.734874267578125,-0.535204291343689,0.5702022314071655,0.35432693362236023
1667825189183881000,7.744880859375,-0.47606587409973145,0.5387239456176758,0.5055558681488037
1667825189193889000,7.754888916015625,-0.40709611773490906,0.44770586490631104,0.6258423328399658
1667825189203896000,7.76489599609375,-0.327896386384964,0.32527902722358704,0.7082682251930237
1667825189213904100,7.774904052734375,-0.2474215179681778,0.14921878278255463,0.7517384886741638
1667825189223912200,7.784912109375,-0.1800541877746582,-0.12187397480010986,0.7324449419975281
1667825189233919200,7.794919189453125,-0.1519133597612381,-0.4784557819366455,0.6296778321266174
1667825189243927300,7.80492724609375,-0.17772126197814941,-0.8668381571769714,0.45989274978637695
1667825189253934000,7.81493408203125,-0.2652290165424347,-1.2050342559814453,0.23498588800430298
1667825189263942100,7.824942138671875,-0.41062456369400024,-1.4202139377593994,-0.03398912400007248
1667825189273949200,7.83494921875,-0.5915738344192505,-1.4754348993301392,-0.3207244873046875
1667825189283957200,7.844957275390625,-0.7712509036064148,-1.3710272312164307,-0.5816285014152527
1667825189293964000,7.854964111328125,-0.9430375695228577,-1.175612449645996,-0.7752938866615295
1667825189303972400,7.864972412109375,-1.0722227096557617,-0.9511312246322632,-0.8956974744796753
1667825189313979100,7.874979248046875,-1.1256675720214844,-0.7347160577774048,-0.9547592401504517
1667825189323987200,7.8849873046875,-1.093853235244751,-0.5118497014045715,-0.9735017418861389
1667825189333994200,7.894994140625,-0.9861328601837158,-0.28902193903923035,-0.9655908346176147
1667825189344002300,7.905002197265625,-0.8318111896514893,-0.09577872604131699,-0.9321295619010925
1667825189354009000,7.915009033203125,-0.6520107984542847,0.056297626346349716,-0.8859713673591614
1667825189364017200,7.92501708984375,-0.461899995803833,0.14703258872032166,-0.8365289568901062
1667825189374024200,7.935024169921875,-0.27970194816589355,0.15631717443466187,-0.7724837064743042
1667825189384032300,7.9450322265625,-0.14452043175697327,0.08051881194114685,-0.6964514851570129
1667825189394040000,7.9550400390625,-0.06815668195486069,-0.0607946403324604,-0.6097421646118164
1667825189404047400,7.96504736328125,-0.04542527347803116,-0.22094489634037018,-0.529076874256134
1667825189414055200,7.97505517578125,-0.04785221070051193,-0.3686709702014923,-0.43865859508514404
1667825189424062200,7.985062255859375,-0.057628143578767776,-0.4798901677131653,-0.3361271321773529
1667825189434070000,7.995070068359375,-0.0720805823802948,-0.5437977910041809,-0.23513954877853394
1667825189444077300,8.005077392578125,-0.08178514242172241,-0.5685122013092041,-0.14226606488227844
1667825189454081500,8.01508154296875,-0.07586599886417389,-0.5668644905090332,-0.07819253951311111
1667825189464088300,8.02508837890625,-0.04797684773802757,-0.5374298691749573,-0.03482162952423096
1667825189474096600,8.0350966796875,-0.007012103218585253,-0.4996313750743866,-0.009983391501009464
1667825189484104400,8.0451044921875,0.04481594264507294,-0.4737284183502197,-0.0009366337326355278
1667825189494111500,8.055111572265625,0.08282563835382462,-0.45507749915122986,0.011029748246073723
1667825189504119300,8.065119384765625,0.10117029398679733,-0.4427641034126282,0.02648567035794258
1667825189514126600,8.075126708984374,0.09446685016155243,-0.4067688286304474,0.025303225964307785
1667825189524134400,8.085134521484376,0.0701492577791214,-0.32362228631973267,0.0047058057971298695
1667825189534141400,8.095141357421875,0.033129192888736725,-0.2319011390209198,-0.02443317137658596
1667825189544149500,8.1051494140625,-0.027478229254484177,-0.13477885723114014,-0.0426127091050148
1667825189554156500,8.115156494140624,-0.11363894492387772,-0.052675195038318634,-0.04140496253967285
1667825189564164400,8.125164306640626,-0.21068772673606873,-0.013796771876513958,-0.023367108777165413
1667825189574171600,8.135171630859375,-0.28604933619499207,-0.025532258674502373,0.008838498964905739
1667825189584179500,8.145179443359375,-0.32136550545692444,-0.07178257405757904,0.05191459506750107
1667825189594186500,8.1551865234375,-0.3368792235851288,-0.16057689487934113,0.09213791787624359
1667825189604194300,8.1651943359375,-0.33301764726638794,-0.23926904797554016,0.12024092674255371
1667825189614201600,8.17520166015625,-0.3144913613796234,-0.2978633940219879,0.12798991799354553
1667825189624209400,8.18520947265625,-0.29482337832450867,-0.32214608788490295,0.1086343377828598
1667825189634217500,8.195217529296874,-0.2844005823135376,-0.305110901594162,0.05650588497519493
1667825189644224500,8.205224609375,-0.29586493968963623,-0.24773310124874115,-0.02021152898669243
1667825189654232600,8.215232666015625,-0.32236072421073914,-0.16719219088554382,-0.10905750840902328
1667825189664239400,8.2252392578125,-0.3628961741924286,-0.08236730843782425,-0.2104128897190094
1667825189674247400,8.235247314453124,-0.39264369010925293,-0.004723649006336927,-0.32027575373649597
1667825189684254500,8.24525439453125,-0.4054638743400574,0.028847627341747284,-0.44150203466415405
1667825189694262500,8.255262451171875,-0.39697691798210144,0.05132923275232315,-0.5637568235397339
1667825189704269300,8.265269287109374,-0.3810376226902008,0.08088206499814987,-0.6728937029838562
1667825189714277600,8.275277587890624,-0.34969329833984375,0.11048523336648941,-0.7567952871322632
1667825189724284400,8.285284423828125,-0.30815303325653076,0.14624428749084473,-0.809480607509613
1667825189734292500,8.29529248046875,-0.26211363077163696,0.18745139241218567,-0.8145933151245117
1667825189744299500,8.305299560546874,-0.21825669705867767,0.25375476479530334,-0.7728360295295715
1667825189754307600,8.3153076171875,-0.1631588339805603,0.35138198733329773,-0.671934187412262
1667825189764314400,8.325314453125,-0.09187159687280655,0.4583670496940613,-0.5168492794036865
1667825189774322400,8.335322509765625,0.01233150064945221,0.5201177597045898,-0.34491902589797974
1667825189784329500,8.34532958984375,0.15942507982254028,0.49072206020355225,-0.20972207188606262
1667825189794337500,8.355337646484376,0.35224485397338867,0.3609108030796051,-0.14726002514362335
1667825189804345300,8.365345458984375,0.5786489844322205,0.17975378036499023,-0.16714264452457428
1667825189814352600,8.3753525390625,0.7879832983016968,0.0009161274065263569,-0.24142034351825714
1667825189824360400,8.3853603515625,0.9417153000831604,-0.10184141248464584,-0.3459789752960205
1667825189834367500,8.395367431640626,1.0421948432922363,-0.12128914147615433,-0.44711410999298096
1667825189844375300,8.405375244140625,1.0987861156463623,-0.04866207763552666,-0.5216535925865173
1667825189854382600,8.415382568359375,1.1176745891571045,0.08986224234104156,-0.5604771375656128
1667825189864390400,8.425390380859374,1.1193121671676636,0.29689425230026245,-0.5528250932693481
1667825189874397400,8.4353974609375,1.1410866975784302,0.544323205947876,-0.49194684624671936
1667825189884405200,8.4454052734375,1.2079025506973267,0.8001068234443665,-0.3789779543876648
1667825189894412500,8.45541259765625,1.335141658782959,0.9713792204856873,-0.21397647261619568
1667825189904420400,8.46542041015625,1.5117343664169312,1.0448379516601562,-0.016882576048374176
1667825189914427400,8.475427490234376,1.7261923551559448,1.02252995967865,0.196714386343956
1667825189924435500,8.485435546875,1.9204014539718628,0.925825834274292,0.4255102872848511
1667825189934442500,8.4954423828125,2.0604114532470703,0.8274811506271362,0.649138331413269
1667825189944450300,8.5054501953125,2.141838312149048,0.7415382862091064,0.8467725515365601
1667825189954458400,8.515458251953126,2.143063545227051,0.6455081701278687,0.9918663501739502
1667825189964465400,8.52546533203125,2.0460565090179443,0.5374312400817871,1.0848472118377686
1667825189974473500,8.535473388671875,1.8498183488845825,0.41473567485809326,1.1329283714294434
1667825189984480300,8.545480224609374,1.5750709772109985,0.2658441960811615,1.1226263046264648
1667825189994488600,8.555488525390626,1.2507996559143066,0.0991889014840126,1.0569660663604736
1667825190004495400,8.565495361328125,0.9195370674133301,-0.08172495663166046,0.9369312524795532
1667825190014503400,8.57550341796875,0.6150216460227966,-0.2460814118385315,0.7820937037467957
1667825190024510500,8.585510498046874,0.3831290006637573,-0.3562542498111725,0.5789347290992737
1667825190034518500,8.5955185546875,0.25896206498146057,-0.3899059593677521,0.3494639992713928
1667825190044525300,8.605525390625,0.2101156860589981,-0.3414822220802307,0.12278371304273605
1667825190054533400,8.615533447265625,0.1921643763780594,-0.23131310939788818,-0.05673305317759514
1667825190064540400,8.62554052734375,0.1622147411108017,-0.08365361392498016,-0.17471374571323395
1667825190074548500,8.635548583984376,0.1314389854669571,0.08929765224456787,-0.22931094467639923
1667825190084555300,8.64555517578125,0.1011148989200592,0.2898544669151306,-0.2233172357082367
1667825190094563600,8.6555634765625,0.09234511107206345,0.49555355310440063,-0.18219323456287384
1667825190104570400,8.6655703125,0.1110420972108841,0.6453925967216492,-0.13849610090255737
1667825190114578400,8.675578369140625,0.1475745439529419,0.7399041652679443,-0.09436458349227905
1667825190124585500,8.68558544921875,0.20454248785972595,0.7662484049797058,-0.03571991249918938
1667825190134593500,8.695593505859375,0.27059102058410645,0.7263151407241821,0.04776539281010628
1667825190144600300,8.705600341796876,0.3173268139362335,0.6498392820358276,0.15165238082408905
1667825190154608400,8.7156083984375,0.32839733362197876,0.5401148796081543,0.26044782996177673
1667825190164616700,8.72561669921875,0.3083391785621643,0.40198126435279846,0.3595206141471863
1667825190174623500,8.73562353515625,0.2829051911830902,0.2603716552257538,0.4295782744884491
1667825190184631600,8.745631591796876,0.24590857326984406,0.14622431993484497,0.4762248694896698
1667825190194638600,8.755638671875,0.19170844554901123,0.07299165427684784,0.49096038937568665
1667825190204646700,8.765646728515625,0.11282215267419815,0.055032625794410706,0.4863179922103882
1667825190214653400,8.7756533203125,0.020414194092154503,0.08397798985242844,0.47086817026138306
1667825190224661500,8.78566162109375,-0.08706112951040268,0.161391019821167,0.45444953441619873
1667825190234668500,8.79566845703125,-0.20696836709976196,0.2728981077671051,0.44299739599227905
1667825190244676400,8.80567626953125,-0.31127771735191345,0.3632655441761017,0.4340747594833374
1667825190254683400,8.815683349609374,-0.38637831807136536,0.4326246678829193,0.426488995552063
1667825190264691500,8.82569140625,-0.4407459795475006,0.5071497559547424,0.44790640473365784
1667825190274698500,8.835698486328125,-0.47218057513237,0.5589833855628967,0.5004862546920776
1667825190284706300,8.845706298828125,-0.4719768464565277,0.5812181234359741,0.5795107483863831
1667825190294713600,8.855713623046874,-0.45212459564208984,0.5591210722923279,0.6715224385261536
1667825190304721400,8.865721435546876,-0.4161231815814972,0.48650652170181274,0.7529504895210266
1667825190314729500,8.8757294921875,-0.36615535616874695,0.3380851149559021,0.8102220296859741
1667825190324736300,8.885736328125,-0.31944483518600464,0.1133289560675621,0.8338165283203125
1667825190334744600,8.89574462890625,-0.310189813375473,-0.18646548688411713,0.8038389682769775
1667825190344751400,8.90575146484375,-0.3484991192817688,-0.5154934525489807,0.724316418170929
1667825190354759400,8.915759521484375,-0.4368646740913391,-0.8499334454536438,0.588471531867981
1667825190364766500,8.925766357421875,-0.5703140497207642,-1.1352791786193848,0.4169341027736664
1667825190374774500,8.9357744140625,-0.7229065299034119,-1.3190269470214844,0.19534020125865936
1667825190384781300,8.94578125,-0.8775091767311096,-1.3901761770248413,-0.03838840126991272
1667825190394789400,8.955789306640625,-0.9993948936462402,-1.3682676553726196,-0.24805587530136108
1667825190404796400,8.96579638671875,-1.1092609167099,-1.2821134328842163,-0.4152539372444153
1667825190414804500,8.975804443359374,-1.1930545568466187,-1.2087478637695312,-0.5613061785697937
1667825190424811300,8.985811279296875,-1.215582251548767,-1.1331158876419067,-0.6989336013793945
1667825190434819600,8.995819580078125,-1.1756926774978638,-1.0268741846084595,-0.8319201469421387
1667825190444826400,9.005826416015625,-1.0850878953933716,-0.8791366219520569,-0.9479455351829529
1667825190454838300,9.01583837890625,-0.9751947522163391,-0.7037861347198486,-1.0417026281356812
1667825190464845000,9.025844970703124,-0.8529609441757202,-0.4743526577949524,-1.0892480611801147
1667825190474853400,9.035853271484376,-0.7279108762741089,-0.24138599634170532,-1.0853188037872314
1667825190484861400,9.045861328125,-0.6123542189598083,-0.035772379487752914,-1.036710500717163
1667825190494868200,9.0558681640625,-0.5178042650222778,0.09542958438396454,-0.946671724319458
1667825190504876300,9.065876220703124,-0.44691038131713867,0.14828240871429443,-0.8225908279418945
1667825190514883300,9.07588330078125,-0.39279282093048096,0.12500984966754913,-0.6754500865936279
1667825190524891400,9.085891357421875,-0.3453323543071747,0.040039826184511185,-0.5145307183265686
1667825190534898200,9.095898193359375,-0.31486526131629944,-0.1001036986708641,-0.3559778034687042
1667825190544906500,9.105906494140624,-0.2738504707813263,-0.2822559177875519,-0.20232300460338593
1667825190554913300,9.115913330078126,-0.23701360821723938,-0.4787096083164215,-0.05751203000545502
1667825190564921300,9.12592138671875,-0.19045516848564148,-0.651691198348999,0.07552777975797653
1667825190574928400,9.135928466796875,-0.14374704658985138,-0.7724487781524658,0.1784736067056656
1667825190584936400,9.1459365234375,-0.10163102298974991,-0.8424558639526367,0.24154551327228546
1667825190594943200,9.155943115234376,-0.07986100763082504,-0.8596683740615845,0.26217249035835266
1667825190604951000,9.165950927734375,-0.0719575434923172,-0.8170125484466553,0.2616893947124481
1667825190614959400,9.17595947265625,-0.0878978967666626,-0.7223992347717285,0.24005280435085297
1667825190624966100,9.185966064453124,-0.12460983544588089,-0.5905274748802185,0.2005181908607483
1667825190634974200,9.19597412109375,-0.1861267238855362,-0.44746723771095276,0.15895769000053406
1667825190644981200,9.205981201171875,-0.2440158575773239,-0.2978556454181671,0.1276322603225708
1667825190654989300,9.2159892578125,-0.2940758466720581,-0.17335288226604462,0.11373242735862732
1667825190664996000,9.22599609375,-0.32889267802238464,-0.09195202589035034,0.126723051071167
1667825190675004200,9.236004150390626,-0.351805180311203,-0.055929046124219894,0.16305071115493774
1667825190685011200,9.24601123046875,-0.3521444499492645,-0.06628421694040298,0.19866488873958588
1667825190695019300,9.256019287109375,-0.3445912003517151,-0.07951267063617706,0.21900105476379395
1667825190705026000,9.266026123046874,-0.33478596806526184,-0.087223581969738,0.1964656561613083
1667825190715034400,9.276034423828126,-0.33412525057792664,-0.08920417726039886,0.1456485390663147
1667825190725041200,9.286041259765625,-0.3553517162799835,-0.07841091603040695,0.0844818577170372
1667825190735049200,9.29604931640625,-0.40445321798324585,-0.07993371784687042,0.021890118718147278
1667825190745056300,9.30605615234375,-0.4750618636608124,-0.0728829950094223,-0.03983369842171669
1667825190755064300,9.316064208984375,-0.5522852540016174,-0.06855642050504684,-0.11193825304508209
1667825190765072400,9.326072265625,-0.6288577914237976,-0.048587776720523834,-0.2082088589668274
1667825190775079200,9.3360791015625,-0.6896340847015381,-0.012910738587379456,-0.3328099250793457
1667825190785087200,9.346087158203124,-0.7358934283256531,0.05673758313059807,-0.46890729665756226
1667825190795094300,9.35609423828125,-0.7658220529556274,0.1385759860277176,-0.5827856659889221
1667825190805102300,9.366102294921875,-0.7725545167922974,0.22177153825759888,-0.64974445104599
1667825190815109400,9.376109375,-0.7489815354347229,0.36294037103652954,-0.6412364840507507
1667825190825117400,9.386117431640624,-0.6904377937316895,0.5439466834068298,-0.5665134787559509
1667825190835124200,9.396124267578125,-0.5893085598945618,0.7161951065063477,-0.43650513887405396
1667825190845132300,9.40613232421875,-0.43945860862731934,0.8400592803955078,-0.27556073665618896
1667825190855139300,9.416139404296874,-0.22913998365402222,0.8909477591514587,-0.13672961294651031
1667825190865147400,9.4261474609375,0.05656953528523445,0.8417066931724548,-0.04924025014042854
1667825190875154200,9.436154296875,0.41065916419029236,0.6893318295478821,-0.03050704300403595
1667825190885162200,9.446162353515625,0.7818508148193359,0.44724568724632263,-0.06583334505558014
1667825190895169300,9.456169189453124,1.1052640676498413,0.17092514038085938,-0.142820805311203
1667825190905177300,9.46617724609375,1.3601306676864624,-0.08958713710308075,-0.2265593707561493
1667825190915185200,9.47618505859375,1.5457346439361572,-0.30778470635414124,-0.29571714997291565
1667825190925192400,9.4861923828125,1.6553527116775513,-0.43232104182243347,-0.33028072118759155
1667825190935200300,9.4962001953125,1.7049075365066528,-0.4253457188606262,-0.31672975420951843
1667825190945207300,9.506207275390626,1.7002382278442383,-0.300175279378891,-0.2582741677761078
1667825190955215000,9.516215087890625,1.6730334758758545,-0.12291739881038666,-0.18313200771808624
1667825190965222400,9.526222412109375,1.662461519241333,0.07916086167097092,-0.11808429658412933
1667825190975230200,9.536230224609374,1.688316822052002,0.26021745800971985,-0.08090150356292725
1667825190985237200,9.5462373046875,1.7383767366409302,0.3991362154483795,-0.042438801378011703
1667825190995245300,9.556245361328125,1.777148723602295,0.5030575394630432,0.006479204632341862
1667825191005252400,9.56625244140625,1.777901291847229,0.5894544720649719,0.08870004117488861
1667825191015260200,9.57626025390625,1.7370675802230835,0.6711975336074829,0.2039289027452469
1667825191025267500,9.586267333984376,1.6534000635147095,0.7160182595252991,0.36314651370048523
1667825191035275300,9.596275146484375,1.5262293815612793,0.706376314163208,0.5381953120231628
1667825191045282300,9.6062822265625,1.369650959968567,0.6574249863624573,0.7069001793861389
1667825191055290000,9.6162900390625,1.213716983795166,0.5606327056884766,0.8416270613670349
1667825191065298400,9.62629833984375,1.080418348312378,0.406910240650177,0.9141790270805359
1667825191075305200,9.63630517578125,0.9692316651344299,0.22915010154247284,0.9245049357414246
1667825191085313300,9.646313232421875,0.8780679106712341,0.05014466121792793,0.8843284845352173
1667825191095320300,9.6563203125,0.8010069727897644,-0.12271872907876968,0.8104771375656128
1667825191105328400,9.666328369140626,0.727374792098999,-0.24475595355033875,0.7277867794036865
1667825191115335200,9.676335205078125,0.6370031237602234,-0.30290529131889343,0.6452128291130066
1667825191125343200,9.68634326171875,0.5449775457382202,-0.24916774034500122,0.5771338939666748
1667825191135350300,9.696350341796874,0.44887474179267883,-0.09833455830812454,0.5234591960906982
1667825191145358300,9.7063583984375,0.3363924026489258,0.08861242234706879,0.48246705532073975
1667825191155365000,9.716365234375,0.20492145419120789,0.2794888913631439,0.4424495995044708
1667825191165373400,9.72637353515625,0.07281135767698288,0.4263153672218323,0.3954240381717682
1667825191175380200,9.736380126953126,-0.043477434664964676,0.5012825727462769,0.33609306812286377
1667825191185388300,9.74638818359375,-0.131837397813797,0.5090019702911377,0.2768752872943878
1667825191195396000,9.75639599609375,-0.19828538596630096,0.4654041826725006,0.22190868854522705
1667825191205403400,9.7664033203125,-0.24771712720394135,0.40023767948150635,0.1747734099626541
1667825191215411200,9.7764111328125,-0.28209054470062256,0.3519095778465271,0.15205025672912598
1667825191225418200,9.786418212890625,-0.30172282457351685,0.3036096692085266,0.15191122889518738
1667825191235426300,9.79642626953125,-0.3174850046634674,0.2715398967266083,0.1802464723587036
1667825191245433300,9.806433349609375,-0.3222414255142212,0.2568661570549011,0.20958171784877777
1667825191255441200,9.816441162109374,-0.29701757431030273,0.23759125173091888,0.23175173997879028
1667825191265448400,9.826448486328125,-0.2373153418302536,0.19641238451004028,0.2284824401140213
1667825191275456300,9.836456298828125,-0.15677709877490997,0.1274796575307846,0.20694412291049957
1667825191285463300,9.84646337890625,-0.09065160900354385,0.04970363900065422,0.1644296944141388
1667825191295471000,9.85647119140625,-0.052570801228284836,-0.007730357814580202,0.12542077898979187
1667825191305478400,9.866478515625,-0.04993639886379242,-0.028988508507609367,0.10480231046676636
1667825191315486200,9.876486328125,-0.0842088833451271,0.010912036523222923,0.1182030737400055
1667825191325493200,9.8864931640625,-0.1399669647216797,0.09026464819908142,0.1770927608013153
1667825191335501300,9.896501220703126,-0.2158614546060562,0.1787191480398178,0.2543763518333435
1667825191345509400,9.90650927734375,-0.2921842038631439,0.25645601749420166,0.35448378324508667
1667825191355516200,9.91651611328125,-0.35923779010772705,0.29909616708755493,0.45842641592025757
1667825191365524200,9.926524169921874,-0.39560166001319885,0.298647403717041,0.5545095205307007
1667825191375531300,9.93653125,-0.37922802567481995,0.2267354130744934,0.6195670962333679
1667825191385539300,9.946539306640625,-0.3309270441532135,0.05204136297106743,0.6313686370849609
1667825191395546000,9.956546142578125,-0.3008245527744293,-0.19176118075847626,0.5985225439071655
1667825191405554200,9.96655419921875,-0.29560980200767517,-0.45311209559440613,0.5249889492988586
1667825191415561200,9.976561279296876,-0.33295026421546936,-0.7006632685661316,0.4197107255458832
1667825191425569300,9.9865693359375,-0.42070329189300537,-0.9100673794746399,0.29109254479408264
1667825191435576300,9.996576416015625,-0.5707319378852844,-1.0626294612884521,0.14398247003555298
1667825191445584400,10.00658447265625,-0.7416917085647583,-1.1193410158157349,-0.02388695627450943
1667825191455587300,10.01658740234375,-0.8944754004478455,-1.1014511585235596,-0.21015296876430511
1667825191465595400,10.026595458984374,-1.0050336122512817,-1.0341038703918457,-0.3901922404766083
1667825191475603500,10.036603515625,-1.0831491947174072,-0.945324718952179,-0.5508162975311279
1667825191485610500,10.046610595703125,-1.1199828386306763,-0.8571141362190247,-0.6965780258178711
1667825191495618600,10.05661865234375,-1.1165186166763306,-0.7555129528045654,-0.8344389200210571
1667825191505625600,10.06662548828125,-1.0771442651748657,-0.633823037147522,-0.9307047724723816
1667825191515633700,10.076633544921876,-1.019498586654663,-0.48462873697280884,-0.9839080572128296
1667825191525640400,10.086640380859375,-0.9457092881202698,-0.2745569944381714,-0.9772424101829529
1667825191535648500,10.0966484375,-0.8771307468414307,-0.012249741703271866,-0.8987076878547668
1667825191545655600,10.106655517578124,-0.8231756091117859,0.23442155122756958,-0.7689973711967468
1667825191555663600,10.11666357421875,-0.7950526475906372,0.41977277398109436,-0.6138138771057129
1667825191565670400,10.12667041015625,-0.7829136848449707,0.5192463397979736,-0.4667930006980896
1667825191575678500,10.136678466796875,-0.7645732760429382,0.504108190536499,-0.342879056930542
1667825191585685500,10.146685546875,-0.7411473393440247,0.39037492871284485,-0.2400038093328476
1667825191595693600,10.156693603515626,-0.7235369086265564,0.19403791427612305,-0.15263694524765015
1667825191605701400,10.166701416015625,-0.7149040102958679,-0.0010724549647420645,-0.06940490752458572
1667825191615708400,10.17670849609375,-0.7143234610557556,-0.14788053929805756,0.030941937118768692
1667825191625716500,10.186716552734374,-0.7164214849472046,-0.253033310174942,0.1366816759109497
1667825191635723300,10.19672314453125,-0.7162758111953735,-0.31113123893737793,0.23560453951358795
1667825191645731300,10.2067314453125,-0.7073856592178345,-0.32950466871261597,0.3248470723628998
1667825191655738400,10.21673828125,-0.6821090579032898,-0.33598893880844116,0.39917802810668945
1667825191665746400,10.226746337890624,-0.6464280486106873,-0.3373016119003296,0.45308226346969604
1667825191675753500,10.23675341796875,-0.5966748595237732,-0.36772289872169495,0.4758474826812744
1667825191685761500,10.246761474609375,-0.5400390028953552,-0.43686041235923767,0.44833436608314514
1667825191695768300,10.256768310546875,-0.4962313175201416,-0.4998606741428375,0.3897605538368225
1667825191705776400,10.2667763671875,-0.4712253212928772,-0.5293692946434021,0.3143952190876007
1667825191715783400,10.276783447265625,-0.4796728491783142,-0.5501925945281982,0.23217891156673431
1667825191725791500,10.28679150390625,-0.5167059898376465,-0.533402144908905,0.1643279641866684
1667825191735798300,10.29679833984375,-0.5820056200027466,-0.48139405250549316,0.11527599394321442
1667825191745806300,10.306806396484374,-0.6611201763153076,-0.4077177047729492,0.09174696356058121
1667825191755814700,10.316814697265626,-0.7327921986579895,-0.3671327233314514,0.06811034679412842
1667825191765821400,10.326821533203125,-0.7811011672019958,-0.37589800357818604,0.024719994515180588
1667825191775829500,10.33682958984375,-0.8087021708488464,-0.48166385293006897,-0.06577128916978836
1667825191785836500,10.34683642578125,-0.8245247602462769,-0.6680142879486084,-0.21970918774604797
1667825191795844600,10.3568447265625,-0.8435578942298889,-0.9016326069831848,-0.43040943145751953
1667825191805851400,10.366851318359375,-0.8662240505218506,-1.1534297466278076,-0.6964709758758545
1667825191815859500,10.376859375,-0.8926936984062195,-1.3700169324874878,-1.0104036331176758
1667825191825866500,10.386866455078126,-0.9357378482818604,-1.4935840368270874,-1.3454601764678955
1667825191835874600,10.39687451171875,-1.0045970678329468,-1.467441439628601,-1.6689649820327759
1667825191845881300,10.40688134765625,-1.100353717803955,-1.2726290225982666,-1.9134570360183716
1667825191855889700,10.4168896484375,-1.2128232717514038,-0.9376606345176697,-2.0273361206054688
1667825191865896400,10.426896484375,-1.2939274311065674,-0.5889269113540649,-2.0130021572113037
1667825191875904500,10.436904541015625,-1.3091684579849243,-0.277011901140213,-1.9187095165252686
1667825191885912300,10.446912353515625,-1.2068461179733276,-0.11407597362995148,-1.7948373556137085
1667825191895919600,10.456919677734374,-0.9756815433502197,-0.09968557953834534,-1.671262502670288
1667825191905927400,10.466927490234376,-0.6226403713226318,-0.25056537985801697,-1.5989807844161987
1667825191915934500,10.4769345703125,-0.20513105392456055,-0.4894711673259735,-1.5667091608047485
1667825191925942500,10.486942626953125,0.23637498915195465,-0.7508828043937683,-1.5449577569961548
1667825191935949600,10.496949462890624,0.6466027498245239,-0.9278727173805237,-1.508480429649353
1667825191945957400,10.506957275390626,0.9955681562423706,-0.9167492389678955,-1.4316450357437134
1667825191955964700,10.516964599609375,1.293745756149292,-0.6469966173171997,-1.2734529972076416
1667825191965972500,10.526972412109375,1.5493147373199463,-0.1532880961894989,-1.0029711723327637
1667825191975979500,10.5369794921875,1.7871099710464478,0.3940783441066742,-0.631813108921051
1667825191985987300,10.5469873046875,2.0478274822235107,0.8483257293701172,-0.19507628679275513
1667825191995994600,10.55699462890625,2.354607343673706,1.1553711891174316,0.23655954003334045
1667825192006002400,10.56700244140625,2.6983869075775146,1.2644805908203125,0.5999507904052734
1667825192016009500,10.577009521484374,3.0422511100769043,1.204511046409607,0.8644295930862427
1667825192026017500,10.587017578125,3.3039095401763916,1.0837349891662598,1.0224429368972778
1667825192036025600,10.597025634765625,3.41170597076416,0.8707783222198486,1.0788733959197998
1667825192046032400,10.607032470703125,3.3096415996551514,0.6718417406082153,1.0800760984420776
1667825192056040400,10.61704052734375,3.00642466545105,0.49392077326774597,1.0577952861785889
1667825192066047500,10.627047607421876,2.537400484085083,0.3725738227367401,1.0447256565093994
1667825192076055600,10.6370556640625,1.9441148042678833,0.30347731709480286,1.050527572631836
1667825192086062300,10.647062255859375,1.303444504737854,0.3040328621864319,1.0501344203948975
1667825192096070700,10.657070556640624,0.6817684173583984,0.36128097772598267,1.0459288358688354
1667825192106077400,10.667077392578125,0.1465526819229126,0.4080743193626404,1.0279085636138916
1667825192116085500,10.67708544921875,-0.2704392075538635,0.4475167989730835,0.9956198334693909
1667825192126092500,10.687092529296875,-0.5291248559951782,0.5080411434173584,0.9580029249191284
1667825192136100600,10.6971005859375,-0.6535711288452148,0.5593826174736023,0.9180257320404053
1667825192146107400,10.707107421875,-0.7146603465080261,0.5426976084709167,0.886752188205719
1667825192156115500,10.717115478515625,-0.7363837361335754,0.47129321098327637,0.8732179999351501
1667825192166123300,10.727123291015625,-0.7426877021789551,0.3518823981285095,0.8756787776947021
1667825192176130600,10.737130615234374,-0.7402751445770264,0.17190144956111908,0.8933339715003967
1667825192186138400,10.747138427734376,-0.7125846743583679,0.1759747564792633,0.8910225629806519
1667825192196145400,10.7571455078125,-0.5701037049293518,0.6661345958709717,0.8502503633499146
1667825192206153500,10.767153564453125,-0.40608838200569153,0.9987197518348694,0.7593052983283997
1667825192216160500,10.777160400390626,-0.24462918937206268,1.089383602142334,0.6398271322250366
1667825192226168300,10.787168212890625,-0.16764332354068756,1.139281988143921,0.533182680606842
1667825192236175600,10.797175537109375,-0.22113238275051117,1.2946206331253052,0.49191007018089294
1667825192246183400,10.807183349609375,-0.37889111042022705,1.479461908340454,0.5316415429115295
1667825192256190500,10.8171904296875,-0.5985393524169922,1.5275750160217285,0.6134242415428162
1667825192266198300,10.8271982421875,-0.8475797772407532,1.4981492757797241,0.7304843068122864
1667825192276205600,10.83720556640625,-1.1118894815444946,1.4937607049942017,0.8982251286506653
1667825192286213400,10.84721337890625,-1.3578819036483765,1.5469911098480225,1.0618398189544678
1667825192296220400,10.857220458984376,-1.556881070137024,1.6145741939544678,1.2025700807571411
1667825192306228500,10.867228515625,-1.698995590209961,1.4374388456344604,1.3049856424331665
1667825192316236500,10.877236572265625,-1.8162204027175903,1.1616487503051758,1.4079312086105347
1667825192326243300,10.887243408203124,-1.927628755569458,0.8805563449859619,1.4844419956207275
1667825192336251400,10.89725146484375,-2.045927047729492,0.5511563420295715,1.4766855239868164
1667825192346258400,10.907258544921875,-2.153158187866211,0.1972627341747284,1.4023127555847168
1667825192356266500,10.9172666015625,-2.242408037185669,-0.050024550408124924,1.3072350025177002
1667825192366273300,10.927273193359374,-2.316474676132202,-0.19645340740680695,1.1989634037017822
1667825192376281600,10.937281494140626,-2.3944668769836426,-0.29339858889579773,1.0748637914657593
1667825192386288400,10.947288330078125,-2.5000672340393066,-0.3253037929534912,0.9514816403388977
1667825192396296400,10.95729638671875,-2.592524290084839,-0.24307869374752045,0.8579453229904175
1667825192406303500,10.967303466796874,-2.666551113128662,-0.10472428053617477,0.7969328165054321
1667825192416311600,10.9773115234375,-2.715991497039795,0.10857973992824554,0.76502525806427
1667825192426318300,10.987318359375,-2.7431185245513916,0.33400940895080566,0.7426515221595764
1667825192436326400,10.997326416015625,-2.752345085144043,0.49717700481414795,0.7121380567550659
1667825192446333400,11.00733349609375,-2.720839500427246,0.6199575066566467,0.6746791005134583
1667825192456341000,11.017341064453126,-2.6006033420562744,0.7594723105430603,0.6311686635017395
1667825192466349000,11.02734912109375,-2.3784427642822266,0.7719941735267639,0.49991074204444885
1667825192476356000,11.037356201171875,-2.0897581577301025,0.6347916126251221,0.28318455815315247
1667825192486364200,11.0473642578125,-1.8485137224197388,0.45426416397094727,0.032462336122989655
1667825192496371000,11.057370849609375,-1.7255539894104004,0.17534013092517853,-0.2570224702358246
1667825192506379000,11.06737890625,-1.719770908355713,-0.14116723835468292,-0.5527142882347107
1667825192516386000,11.077385986328125,-1.7650891542434692,-0.39526236057281494,-0.8091751337051392
1667825192526394000,11.08739404296875,-1.8062924146652222,-0.5683936476707458,-1.0058860778808594
1667825192536401200,11.097401123046875,-1.79501211643219,-0.6422857642173767,-1.1269224882125854
1667825192546409200,11.1074091796875,-1.7381541728973389,-0.6711685061454773,-1.190705418586731
1667825192556416000,11.117416015625,-1.654715657234192,-0.747407078742981,-1.2099720239639282
1667825192566424000,11.127424072265624,-1.5463780164718628,-0.8534405827522278,-1.1734617948532104
1667825192576431000,11.13743115234375,-1.4183894395828247,-0.9289420247077942,-1.1037415266036987
1667825192586439200,11.147439208984375,-1.2731422185897827,-1.0011712312698364,-1.0227636098861694
1667825192596446000,11.157446044921874,-1.1177750825881958,-1.045212745666504,-0.9704961180686951
1667825192606454000,11.1674541015625,-0.9877363443374634,-0.9960113167762756,-0.9323061108589172
1667825192616462300,11.17746240234375,-0.9180787205696106,-0.8648775219917297,-0.9136506915092468
1667825192626469000,11.18746923828125,-0.9178741574287415,-0.6751057505607605,-0.856191098690033
1667825192636477200,11.197477294921875,-0.9658342599868774,-0.4730040431022644,-0.725724995136261
1667825192646484200,11.207484130859376,-1.0015352964401245,-0.12399251759052277,-0.49955201148986816
1667825192656492300,11.2174921875,-1.075168490409851,-0.06662776321172714,-0.29948604106903076
1667825192666499000,11.2274990234375,-1.1914385557174683,-0.14739371836185455,-0.12412381172180176
1667825192676507100,11.237507080078124,-1.277819037437439,-0.14812661707401276,0.09261062741279602
1667825192686514200,11.24751416015625,-1.3040040731430054,-0.12160952389240265,0.3336469531059265
1667825192696522200,11.257522216796875,-1.2759252786636353,-0.16278864443302155,0.5465248823165894
1667825192706529000,11.267529052734375,-1.2360310554504395,-0.3137206435203552,0.7232029438018799
1667825192716537300,11.277537353515624,-1.2177181243896484,-0.5108174681663513,0.8664773106575012
1667825192726544100,11.287544189453126,-1.2183085680007935,-0.6483036875724792,1.0018348693847656
1667825192736552200,11.29755224609375,-1.220875859260559,-0.7036657333374023,1.1336019039154053
1667825192746559200,11.307559326171875,-1.2220563888549805,-0.6803489923477173,1.2480899095535278
1667825192756567300,11.3175673828125,-1.222960352897644,-0.6266269087791443,1.3273160457611084
1667825192766574000,11.327573974609376,-1.2470225095748901,-0.6069605350494385,1.3625859022140503
1667825192776582100,11.33758203125,-1.2858588695526123,-0.6408945322036743,1.3501086235046387
1667825192786590200,11.347590087890625,-1.3300784826278687,-0.7084663510322571,1.3030157089233398
1667825192796597200,11.35759716796875,-1.3854680061340332,-0.8013829588890076,1.2359600067138672
1667825192806605000,11.36760498046875,-1.4459036588668823,-0.9049456119537354,1.1720819473266602
1667825192816612400,11.3776123046875,-1.498905062675476,-0.9905598163604736,1.1000932455062866
1667825192826620200,11.3876201171875,-1.5303291082382202,-1.0044887065887451,1.0106525421142578
1667825192836627200,11.397627197265624,-1.5425260066986084,-0.951521098613739,0.9034726023674011
1667825192846635000,11.407635009765626,-1.5433924198150635,-0.8538906574249268,0.7739798426628113
1667825192856642300,11.417642333984375,-1.552778720855713,-0.750918447971344,0.6089749336242676
1667825192866650000,11.427650146484375,-1.5873316526412964,-0.7354127764701843,0.3947734236717224
1667825192876657200,11.4376572265625,-1.6513599157333374,-0.8205782771110535,0.1256849616765976
1667825192886665200,11.447665283203126,-1.7367805242538452,-1.009129524230957,-0.16048341989517212
1667825192896672300,11.45767236328125,-1.8258765935897827,-1.236342191696167,-0.42841285467147827
1667825192906680000,11.46768017578125,-1.8812716007232666,-1.3820452690124512,-0.5982890129089355
1667825192916688100,11.477688232421874,-1.9165433645248413,-1.3959307670593262,-0.6402692198753357
1667825192926695200,11.487695068359375,-1.926793098449707,-1.2770438194274902,-0.5555934309959412
1667825192936703200,11.497703125,-1.9094090461730957,-1.0660021305084229,-0.38678285479545593
1667825192946710000,11.5077099609375,-1.8727953433990479,-0.8456087708473206,-0.18020066618919373
1667825192956718000,11.517718017578124,-1.8249510526657104,-0.6829761862754822,0.012924853712320328
1667825192966725000,11.52772509765625,-1.7549935579299927,-0.5704701542854309,0.1726580560207367
1667825192976733200,11.537733154296875,-1.669337272644043,-0.5171344876289368,0.2993779182434082
1667825192986740200,11.547740234375,-1.5734821557998657,-0.522041916847229,0.4000946879386902
1667825192996748300,11.557748291015624,-1.4972566366195679,-0.6004900932312012,0.47091931104660034
1667825193006755000,11.567755126953125,-1.4447581768035889,-0.7303860187530518,0.5108936429023743
1667825193016763100,11.57776318359375,-1.4074177742004395,-0.855141818523407,0.538781464099884
1667825193026770200,11.587770263671874,-1.379361867904663,-0.9398378133773804,0.5440793037414551
1667825193036778200,11.5977783203125,-1.3592963218688965,-0.9808573722839355,0.5409253239631653
1667825193046785000,11.607784912109375,-1.3595170974731445,-1.0115835666656494,0.5043984651565552
1667825193056793000,11.61779296875,-1.3714885711669922,-1.00459623336792,0.436801552772522
1667825193066801200,11.62780126953125,-1.4029791355133057,-0.936593770980835,0.35790249705314636
1667825193076808200,11.63780810546875,-1.4883818626403809,-0.9173700213432312,0.3132378160953522
1667825193086816000,11.64781591796875,-1.5876141786575317,-1.1806671619415283,0.2150430679321289
1667825193096823300,11.6578232421875,-1.6541889905929565,-1.4736417531967163,0.08635059744119644
1667825193106831000,11.6678310546875,-1.6919126510620117,-1.6602625846862793,-0.04524470865726471
1667825193116838100,11.677838134765626,-1.7481764554977417,-1.6754039525985718,-0.18765485286712646
1667825193126846000,11.687845947265625,-1.8338814973831177,-1.5889379978179932,-0.32423266768455505
1667825193136853200,11.697853271484375,-1.943922519683838,-1.4070053100585938,-0.40988099575042725
1667825193146861000,11.707861083984374,-2.0680832862854004,-1.159075379371643,-0.43088507652282715
