time,seconds_elapsed,z,y,x
1667824566035838500,0.00883837890625,1.249637246131897,0.3864201307296753,-0.7379387617111206
1667824566045846500,0.018846435546875,1.183287262916565,0.24860289692878723,-0.7474159002304077
1667824566055854600,0.0288544921875,1.1009198427200317,0.1057133823633194,-0.740007758140564
1667824566065862400,0.0388623046875,1.0128581523895264,-0.009495234116911888,-0.7096538543701172
1667824566075869400,0.048869384765625,0.9249004125595093,-0.06864617019891739,-0.6799103617668152
1667824566085877500,0.05887744140625,0.8378403186798096,-0.05596739426255226,-0.6475284099578857
1667824566095885600,0.068885498046875,0.7469317317008972,-0.002666090615093708,-0.6085972785949707
1667824566105892400,0.078892333984375,0.6550254821777344,0.06338589638471603,-0.5893178582191467
1667824566115900400,0.088900390625,0.5555859804153442,0.11432178318500519,-0.6014546751976013
1667824566125908500,0.098908447265625,0.3956488072872162,0.1451214998960495,-0.6380635499954224
1667824566135915500,0.10891552734375,0.1674334704875946,0.1321716159582138,-0.7075113654136658
1667824566145923300,0.11892333984375,-0.06659606844186783,0.05416629835963249,-0.7905386090278625
1667824566155931400,0.128931396484375,-0.2079649120569229,-0.0751781091094017,-0.8384219408035278
1667824566165938400,0.1389384765625,-0.22306877374649048,-0.21556930243968964,-0.8069127798080444
1667824566175946500,0.148946533203125,-0.13794907927513123,-0.2818000018596649,-0.70107102394104
1667824566185954600,0.15895458984375,-0.005507150664925575,-0.2378261387348175,-0.5466194152832031
1667824566195961600,0.168961669921875,0.13457059860229492,-0.16223151981830597,-0.39447593688964844
1667824566205969700,0.1789697265625,0.2686586380004883,-0.10854778438806534,-0.2722536325454712
1667824566215977500,0.1889775390625,0.4026973843574524,-0.09110940247774124,-0.21816349029541016
1667824566225984500,0.198984619140625,0.5431042909622192,-0.08287011831998825,-0.21748332679271698
1667824566235992300,0.208992431640625,0.6797904968261719,-0.10638689249753952,-0.23952071368694305
1667824566246000600,0.219000732421875,0.8075907826423645,-0.14253132045269012,-0.2647581696510315
1667824566256007400,0.22900732421875,0.9003215432167053,-0.17903552949428558,-0.2753777801990509
1667824566266015500,0.239015380859375,0.9577403664588928,-0.1839788854122162,-0.27996426820755005
1667824566276023300,0.249023193359375,0.9939500093460083,-0.1631481796503067,-0.28120529651641846
1667824566286030600,0.259030517578125,1.0128962993621826,-0.16444380581378937,-0.2837022840976715
1667824566296038400,0.269038330078125,1.0047917366027832,-0.17665226757526398,-0.29252639412879944
1667824566306046500,0.27904638671875,0.9960443377494812,-0.15341885387897491,-0.316428005695343
1667824566316053500,0.289053466796875,0.9866652488708496,-0.06329268962144852,-0.3353082239627838
1667824566326061600,0.2990615234375,0.9866159558296204,0.048233307898044586,-0.36211958527565
1667824566336069600,0.309069580078125,0.9785098433494568,0.18703779578208923,-0.4075286388397217
1667824566346076400,0.319076416015625,0.9754897952079773,0.3423650562763214,-0.4688500463962555
1667824566356084500,0.32908447265625,0.985680103302002,0.5078293681144714,-0.5376676917076111
1667824566366092500,0.339092529296875,1.0146574974060059,0.6652030348777771,-0.604013204574585
1667824566376099600,0.349099609375,1.0639581680297852,0.8081314563751221,-0.6702667474746704
1667824566386107400,0.359107421875,1.1396963596343994,0.9246849417686462,-0.7509416341781616
1667824566396115500,0.369115478515625,1.230834722518921,1.0242892503738403,-0.833845853805542
1667824566406122500,0.37912255859375,1.3183573484420776,1.109025239944458,-0.9222303032875061
1667824566416130600,0.389130615234375,1.4143399000167847,1.1839220523834229,-1.0017259120941162
1667824566426138400,0.399138427734375,1.4969152212142944,1.2226396799087524,-1.0481312274932861
1667824566436145700,0.409145751953125,1.5485962629318237,1.2033133506774902,-1.0464550256729126
1667824566446153500,0.419153564453125,1.5471376180648804,1.1325891017913818,-1.0021864175796509
1667824566456161500,0.42916162109375,1.506363034248352,1.0296443700790405,-0.922094464302063
1667824566466168300,0.439168212890625,1.4258066415786743,0.8867980241775513,-0.7995424866676331
1667824566476176400,0.44917626953125,1.3174433708190918,0.7356013059616089,-0.6407967805862427
1667824566486184400,0.459184326171875,1.1786292791366577,0.6229842305183411,-0.47149908542633057
1667824566496191500,0.46919140625,1.0453625917434692,0.5485323667526245,-0.30222323536872864
1667824566506199300,0.47919921875,0.9125342965126038,0.5031616687774658,-0.1358443796634674
1667824566516207400,0.489207275390625,0.8031324148178101,0.4933471381664276,0.006246977020055056
1667824566526214400,0.49921435546875,0.7243617177009583,0.5167624354362488,0.10924579948186874
1667824566536222500,0.509222412109375,0.6827998757362366,0.5330186486244202,0.17709781229496002
1667824566546230500,0.51923046875,0.6684012413024902,0.5306342840194702,0.18897737562656403
1667824566556238300,0.52923828125,0.6669615507125854,0.513464093208313,0.14058294892311096
1667824566566245600,0.53924560546875,0.6862217783927917,0.48848047852516174,0.0671452134847641
1667824566576253400,0.54925341796875,0.7225781679153442,0.488016813993454,-0.013933125883340836
1667824566586261500,0.559261474609375,0.7816579937934875,0.5353252291679382,-0.08832985907793045
1667824566596268300,0.569268310546875,0.8509321808815002,0.6141939163208008,-0.15674008429050446
1667824566606276600,0.579276611328125,0.9277721047401428,0.7091270685195923,-0.22029295563697815
1667824566616284400,0.589284423828125,1.020261526107788,0.7734940648078918,-0.2705649137496948
1667824566626291500,0.59929150390625,1.1079472303390503,0.7730796933174133,-0.32280975580215454
1667824566636299300,0.60929931640625,1.180311918258667,0.7181581258773804,-0.34594833850860596
1667824566646307600,0.6193076171875,1.2517815828323364,0.6163281798362732,-0.3360017240047455
1667824566656314400,0.629314453125,1.3059347867965698,0.4686604142189026,-0.3098795711994171
1667824566666322400,0.639322509765625,1.3351856470108032,0.26602235436439514,-0.27533358335494995
1667824566676330500,0.64933056640625,1.3140904903411865,0.0240736436098814,-0.23439759016036987
1667824566686337500,0.659337646484375,1.251232385635376,-0.21159906685352325,-0.19241417944431305
1667824566696345600,0.669345703125,1.165213704109192,-0.3859221339225769,-0.1511431783437729
1667824566706353400,0.679353515625,1.0907093286514282,-0.4724296033382416,-0.10671526193618774
1667824566716360400,0.6893603515625,1.0380504131317139,-0.4752035439014435,-0.05295749008655548
1667824566726368500,0.699368408203125,1.0053062438964844,-0.41705501079559326,-0.0017931063193827868
1667824566736376600,0.70937646484375,0.9793093204498291,-0.31864747405052185,0.04369128867983818
1667824566746383400,0.71938330078125,0.9779167175292969,-0.25359979271888733,0.03911944106221199
1667824566756391400,0.729391357421875,0.9521711468696594,-0.22965610027313232,0.019329223781824112
1667824566766399500,0.7393994140625,0.9078681468963623,-0.2316761016845703,-0.015571236610412598
1667824566776406500,0.749406494140625,0.8462862968444824,-0.25885552167892456,-0.04911321774125099
1667824566786414300,0.759414306640625,0.7629035115242004,-0.3065255880355835,-0.09110354632139206
1667824566796422400,0.76942236328125,0.6630972623825073,-0.35088691115379333,-0.13341717422008514
1667824566806429400,0.779429443359375,0.5710390210151672,-0.3649311065673828,-0.17223487794399261
1667824566816437500,0.7894375,0.505608856678009,-0.3194291293621063,-0.20589376986026764
1667824566826445600,0.799445556640625,0.4829469621181488,-0.2251388430595398,-0.2320747822523117
1667824566836452600,0.80945263671875,0.4924067556858063,-0.0896902084350586,-0.2627969980239868
1667824566846460700,0.819460693359375,0.5218163132667542,0.07990894466638565,-0.2973792254924774
1667824566856468500,0.829468505859375,0.5681833028793335,0.25852155685424805,-0.33406826853752136
1667824566866475500,0.8394755859375,0.6100814938545227,0.38848328590393066,-0.34214216470718384
1667824566876483300,0.8494833984375,0.6331742405891418,0.4718168079853058,-0.31546953320503235
1667824566886490600,0.85949072265625,0.6309292316436768,0.5298998355865479,-0.2749926745891571
1667824566896497400,0.869497314453125,0.6138730049133301,0.5768374800682068,-0.23304790258407593
1667824566906505500,0.87950537109375,0.5941011905670166,0.6122085452079773,-0.18526732921600342
1667824566916513800,0.889513671875,0.5852094292640686,0.5954679250717163,-0.1234084889292717
1667824566926520600,0.8995205078125,0.5674168467521667,0.5403849482536316,-0.06437712162733078
1667824566936528600,0.909528564453125,0.5509888529777527,0.47063514590263367,-0.01122202817350626
1667824566946536400,0.919536376953125,0.5527486801147461,0.39265885949134827,0.02630164474248886
1667824566956544500,0.92954443359375,0.5848394632339478,0.340446799993515,0.037221938371658325
1667824566966551600,0.939551513671875,0.6204755306243896,0.33295851945877075,0.008313323371112347
1667824566976559600,0.9495595703125,0.6342677474021912,0.3684113025665283,-0.03353345766663551
1667824566986567400,0.9595673828125,0.6195162534713745,0.4486480951309204,-0.06660538911819458
1667824566996574700,0.96957470703125,0.6049338579177856,0.5202479958534241,-0.08336333185434341
1667824567006582500,0.97958251953125,0.6054084300994873,0.5399577617645264,-0.07940800487995148
1667824567016590600,0.989590576171875,0.6193063855171204,0.4836327135562897,-0.05447309464216232
1667824567026597400,0.999597412109375,0.6380348205566406,0.3574414849281311,0.014316887594759464
1667824567036605700,1.009605712890625,0.6614589095115662,0.2041318267583847,0.1208297461271286
1667824567046613800,1.01961376953125,0.6858705282211304,0.07071438431739807,0.2412717342376709
1667824567056620500,1.02962060546875,0.7040489912033081,-0.024357803165912628,0.34306442737579346
1667824567066628600,1.039628662109375,0.7233752608299255,-0.08101283013820648,0.4165160059928894
1667824567076636700,1.04963671875,0.7397803664207458,-0.11022743582725525,0.44944703578948975
1667824567086643700,1.059643798828125,0.7701030969619751,-0.11837804317474365,0.4572373330593109
1667824567096651500,1.069651611328125,0.7914307713508606,-0.1295686513185501,0.4403510093688965
1667824567106659600,1.07965966796875,0.8059124946594238,-0.12344523519277573,0.4101712703704834
1667824567116666600,1.08966650390625,0.8106356263160706,-0.08897700905799866,0.3562776744365692
1667824567126674700,1.0996748046875,0.8193843364715576,-0.04152160882949829,0.28305888175964355
1667824567136682500,1.1096826171875,0.8474383354187012,0.0016234630020335317,0.19747339189052582
1667824567146689500,1.119689453125,0.8691327571868896,0.03540406376123428,0.10661033540964127
1667824567156697600,1.129697509765625,0.8905029892921448,0.0574161559343338,0.011572499759495258
1667824567166705700,1.13970556640625,0.9039034843444824,0.06233980879187584,-0.07232985645532608
1667824567176712400,1.14971240234375,0.9054646492004395,0.06672150641679764,-0.1562042534351349
1667824567186720500,1.159720458984375,0.8923917412757874,0.0832594707608223,-0.22821852564811707
1667824567196728800,1.169728759765625,0.8666980862617493,0.09962140023708344,-0.298866868019104
1667824567206735600,1.179735595703125,0.8304005265235901,0.09995909035205841,-0.3634471893310547
1667824567216743700,1.18974365234375,0.7766091823577881,0.10488859564065933,-0.41018059849739075
1667824567226751500,1.19975146484375,0.7052849531173706,0.13316577672958374,-0.4372963607311249
1667824567236759600,1.209759521484375,0.6306538581848145,0.17582349479198456,-0.4337511658668518
1667824567246766600,1.2197666015625,0.5593091249465942,0.21480710804462433,-0.4109289348125458
1667824567256774700,1.229774658203125,0.5015986561775208,0.2392035275697708,-0.3712393343448639
1667824567266782500,1.239782470703125,0.4488944411277771,0.26527294516563416,-0.3223452866077423
1667824567276789800,1.249789794921875,0.39741554856300354,0.2976612448692322,-0.2811738848686218
1667824567286797600,1.259797607421875,0.3479403853416443,0.3188765347003937,-0.24419961869716644
1667824567296805600,1.2698056640625,0.31333687901496887,0.31195950508117676,-0.20580615103244781
1667824567306812400,1.2798125,0.2829291820526123,0.2934073805809021,-0.17504584789276123
1667824567316820700,1.28982080078125,0.2525997757911682,0.26790520548820496,-0.14299629628658295
1667824567326828500,1.29982861328125,0.227214515209198,0.23971165716648102,-0.10820823162794113
1667824567336835600,1.309835693359375,0.20826691389083862,0.2026958465576172,-0.06323303282260895
1667824567346843400,1.319843505859375,0.19597190618515015,0.16586406528949738,-0.011026818305253983
1667824567356851500,1.3298515625,0.18684551119804382,0.1526595801115036,0.02905348874628544
1667824567366858500,1.3398583984375,0.18954730033874512,0.1576644629240036,0.059847619384527206
1667824567376866600,1.349866455078125,0.19232018291950226,0.17799396812915802,0.07817523181438446
1667824567386874600,1.35987451171875,0.2027626931667328,0.18786443769931793,0.09942645579576492
1667824567396881700,1.369881591796875,0.20640377700328827,0.16725130379199982,0.13216149806976318
1667824567406889700,1.3798896484375,0.2010636031627655,0.13789288699626923,0.1684017926454544
1667824567416897500,1.3898974609375,0.19314761459827423,0.11267940700054169,0.21045203506946564
1667824567426904600,1.399904541015625,0.18280257284641266,0.0930873304605484,0.25834259390830994
1667824567436912600,1.40991259765625,0.1778048872947693,0.08752265572547913,0.308804988861084
1667824567446920700,1.419920654296875,0.17365753650665283,0.09731723368167877,0.339778870344162
1667824567456928500,1.429928466796875,0.17210465669631958,0.08855809271335602,0.356288880109787
1667824567466935600,1.439935546875,0.16485978662967682,0.07619836181402206,0.36716070771217346
1667824567476943600,1.449943603515625,0.14401549100875854,0.04942693933844566,0.3726066052913666
1667824567486951700,1.45995166015625,0.11156727373600006,0.014666028320789337,0.3769097328186035
1667824567496958500,1.46995849609375,0.07044114172458649,-0.01654382236301899,0.3607882857322693
1667824567506966500,1.479966552734375,0.027634557336568832,-0.050583016127347946,0.3223053514957428
1667824567516974600,1.489974609375,0.002551840851083398,-0.09539522975683212,0.2798367142677307
1667824567526981600,1.499981689453125,-0.019054651260375977,-0.14856471121311188,0.24851366877555847
1667824567536989700,1.50998974609375,-0.05794772133231163,-0.1966792345046997,0.2417180836200714
1667824567546997500,1.51999755859375,-0.10569792985916138,-0.20352250337600708,0.24429389834403992
1667824567557004800,1.5300048828125,-0.1438051015138626,-0.1798667013645172,0.25644588470458984
1667824567567012600,1.5400126953125,-0.16841964423656464,-0.14328259229660034,0.25324133038520813
1667824567577020700,1.550020751953125,-0.1950262188911438,-0.1162365972995758,0.23620854318141937
1667824567587027500,1.56002734375,-0.22309726476669312,-0.09851725399494171,0.19679749011993408
1667824567597035500,1.570035400390625,-0.2460651695728302,-0.08550398051738739,0.13627314567565918
1667824567607043600,1.580043701171875,-0.26570063829421997,-0.08109299093484879,0.0633092001080513
1667824567617050600,1.590050537109375,-0.27597272396087646,-0.0962144136428833,-0.012949620373547077
1667824567627058400,1.600058349609375,-0.27840739488601685,-0.12403646111488342,-0.0827081948518753
1667824567637066500,1.61006640625,-0.2797538936138153,-0.14912930130958557,-0.14083115756511688
1667824567647073500,1.620073486328125,-0.2842428982257843,-0.1765183061361313,-0.16767528653144836
1667824567657081600,1.63008154296875,-0.28705868124961853,-0.20049767196178436,-0.16147944331169128
1667824567667089700,1.640089599609375,-0.28029823303222656,-0.21435117721557617,-0.10896936058998108
1667824567677096700,1.6500966796875,-0.26490914821624756,-0.2228458672761917,-0.010365289635956287
1667824567687104800,1.660104736328125,-0.24246297776699066,-0.24328482151031494,0.12254029512405396
1667824567697112600,1.670112548828125,-0.22194863855838776,-0.266369104385376,0.2695148289203644
1667824567707120600,1.68012060546875,-0.21198736131191254,-0.29552459716796875,0.41750508546829224
1667824567717127700,1.690127685546875,-0.19488826394081116,-0.33271244168281555,0.541697084903717
1667824567727135700,1.7001357421875,-0.16398946940898895,-0.3638235032558441,0.6342741250991821
1667824567737143600,1.7101435546875,-0.12499146908521652,-0.38196226954460144,0.6775039434432983
1667824567747150600,1.720150634765625,-0.07473708689212799,-0.39531004428863525,0.6777784824371338
1667824567757158400,1.730158447265625,-0.014214888215065002,-0.3979993164539337,0.6496294140815735
1667824567767166700,1.740166748046875,0.04881174862384796,-0.3684219717979431,0.6043705940246582
1667824567777173500,1.750173583984375,0.10558474808931351,-0.29841333627700806,0.5573055744171143
1667824567787181600,1.760181640625,0.1566428691148758,-0.2224237471818924,0.5245412588119507
1667824567797189600,1.770189697265625,0.2008361667394638,-0.1319361925125122,0.5135019421577454
1667824567807196700,1.78019677734375,0.22718681395053864,-0.04399408772587776,0.5352844595909119
1667824567817204700,1.790204833984375,0.248638316988945,0.022221416234970093,0.5858078002929688
1667824567827212500,1.800212646484375,0.2598955035209656,0.03456144034862518,0.6576181054115295
1667824567837219800,1.8102197265625,0.2532370686531067,-0.013769075274467468,0.736190915107727
1667824567847227600,1.8202275390625,0.2222898006439209,-0.06418564170598984,0.790212869644165
1667824567857235700,1.830235595703125,0.18562684953212738,-0.05661853775382042,0.7880850434303284
1667824567867242500,1.840242431640625,0.16068555414676666,-0.0068358019925653934,0.7168534398078918
1667824567877250600,1.85025048828125,0.16886810958385468,0.09252247959375381,0.5660580992698669
1667824567887259000,1.8602587890625,0.1937500238418579,0.25674229860305786,0.35365980863571167
1667824567897266000,1.870265869140625,0.2504234313964844,0.442290335893631,0.10145418345928192
1667824567907273700,1.880273681640625,0.32821303606033325,0.6000626683235168,-0.15266969799995422
1667824567917281800,1.89028173828125,0.4174899160861969,0.6815029382705688,-0.3854595422744751
1667824567927289600,1.90028955078125,0.5060663819313049,0.654974639415741,-0.5476338267326355
1667824567937297000,1.910296875,0.5839385390281677,0.5320500731468201,-0.6434817910194397
1667824567947304700,1.9203046875,0.655575692653656,0.3187750577926636,-0.6465481519699097
1667824567957312800,1.930312744140625,0.6874404549598694,0.06282849609851837,-0.5749754309654236
1667824567967319800,1.94031982421875,0.664617657661438,-0.13650192320346832,-0.446396142244339
1667824567977327900,1.950327880859375,0.5968367457389832,-0.22260724008083344,-0.30705076456069946
1667824567987336000,1.9603359375,0.5171312689781189,-0.22742410004138947,-0.18981626629829407
1667824567997342700,1.9703427734375,0.4431025981903076,-0.18195009231567383,-0.11350658535957336
1667824568007351000,1.98035107421875,0.38188931345939636,-0.10171757638454437,-0.07447130233049393
1667824568017358800,1.99035888671875,0.34049180150032043,-0.01284442562609911,-0.06556808948516846
1667824568027366000,2.000365966796875,0.3267086148262024,0.06902939826250076,-0.06814257055521011
1667824568037373700,2.010373779296875,0.34008246660232544,0.11966994404792786,-0.07698959112167358
1667824568047381800,2.0203818359375,0.37321990728378296,0.1456378996372223,-0.09429001808166504
1667824568057389800,2.030389892578125,0.4111444056034088,0.15891508758068085,-0.12348758429288864
1667824568067396900,2.04039697265625,0.4403510093688965,0.15940722823143005,-0.16703373193740845
1667824568077404700,2.05040478515625,0.44620704650878906,0.18648679554462433,-0.21724577248096466
1667824568087412000,2.060411865234375,0.43332186341285706,0.24539723992347717,-0.2869545519351959
1667824568097419800,2.070419677734375,0.4058215320110321,0.32042595744132996,-0.3578207194805145
1667824568107427800,2.080427734375,0.3775496780872345,0.40481218695640564,-0.4196726381778717
1667824568117435600,2.090435546875,0.3467710018157959,0.5061500072479248,-0.4642843008041382
1667824568127443000,2.10044287109375,0.31860408186912537,0.5860688090324402,-0.48164838552474976
1667824568137450800,2.11045068359375,0.30483660101890564,0.6355314254760742,-0.4646265208721161
1667824568147458800,2.120458740234375,0.30561184883117676,0.6489718556404114,-0.41565605998039246
1667824568157465600,2.130465576171875,0.30772852897644043,0.6131001710891724,-0.33333295583724976
1667824568167474000,2.140473876953125,0.31985124945640564,0.5691364407539368,-0.22549358010292053
1667824568177482000,2.15048193359375,0.3551943004131317,0.5176138281822205,-0.08683902770280838
1667824568187488800,2.16048876953125,0.40469661355018616,0.48012587428092957,0.0720536857843399
1667824568197496800,2.170496826171875,0.48240232467651367,0.4761713445186615,0.2655341923236847
1667824568207504600,2.180504638671875,0.6179854869842529,0.5141341686248779,0.5024175643920898
1667824568217512000,2.190511962890625,0.8442694544792175,0.6420769691467285,0.7813704013824463
1667824568227519700,2.200519775390625,1.1754511594772339,0.9025018811225891,1.0601301193237305
1667824568237527800,2.21052783203125,1.5900938510894775,1.2611199617385864,1.3495537042617798
1667824568247535600,2.22053564453125,1.956325650215149,1.5585346221923828,1.6746844053268433
1667824568257543000,2.23054296875,2.27919864654541,1.7882248163223267,1.9593616724014282
1667824568267550700,2.24055078125,2.5802934169769287,2.0461151599884033,2.1946749687194824
1667824568277558800,2.250558837890625,2.8782105445861816,2.184462070465088,2.3987810611724854
1667824568287565800,2.26056591796875,3.170529365539551,2.1970720291137695,2.505589723587036
1667824568297574000,2.270573974609375,3.310154914855957,2.2964980602264404,2.5146796703338623
1667824568307582000,2.28058203125,3.2493250370025635,2.4461607933044434,2.43118953704834
1667824568317588700,2.290588623046875,2.928131580352783,2.5358893871307373,2.287119150161743
1667824568327596800,2.3005966796875,2.327690362930298,2.495528221130371,2.1655240058898926
1667824568337604900,2.31060498046875,1.9110199213027954,2.223942756652832,1.8402552604675293
1667824568347612000,2.32061181640625,1.6103298664093018,1.8310086727142334,1.4662387371063232
1667824568357619700,2.33061962890625,1.3559225797653198,1.5470441579818726,1.0572853088378906
1667824568367627800,2.340627685546875,1.3658503293991089,1.3899519443511963,0.6698843240737915
1667824568377634800,2.350634765625,1.52461576461792,1.288337230682373,0.390922486782074
1667824568387643000,2.360642822265625,1.598284363746643,1.3239021301269531,0.3300447463989258
1667824568397650700,2.370650634765625,1.5176953077316284,1.36418879032135,0.45877957344055176
1667824568407658800,2.38065869140625,1.31495201587677,0.9272056221961975,0.5487864017486572
1667824568417665800,2.390665771484375,1.0111894607543945,0.8409538269042969,0.6691762208938599
1667824568427673900,2.400673828125,0.7138179540634155,0.5861614942550659,0.8355955481529236
1667824568437682000,2.410681884765625,0.5197808742523193,0.6363983154296875,0.8734691739082336
1667824568447688700,2.420688720703125,0.7015789151191711,0.8160322308540344,0.6332858800888062
1667824568457697000,2.430697021484375,1.1052073240280151,0.8509782552719116,0.2621069848537445
1667824568467704800,2.440704833984375,1.43183171749115,0.7015208601951599,-0.012868394143879414
1667824568477712000,2.4507119140625,1.576756477355957,0.3787936568260193,-0.16586486995220184
1667824568487719700,2.4607197265625,1.5441948175430298,0.009321862831711769,-0.2460651695728302
1667824568497727700,2.470727783203125,1.379578948020935,-0.40338313579559326,-0.2885633409023285
1667824568507734800,2.48073486328125,1.1489102840423584,-0.9137036800384521,-0.28311824798583984
1667824568517742800,2.490742919921875,0.9207200407981873,-1.5443692207336426,-0.2017861157655716
1667824568527750700,2.500750732421875,0.7040370106697083,-2.1064488887786865,-0.06981157511472702
1667824568537758700,2.5107587890625,0.4227224886417389,-2.462756872177124,-0.017497234046459198
1667824568547765800,2.520765869140625,0.10269708186388016,-2.5239627361297607,-0.02834375761449337
1667824568557773800,2.53077392578125,-0.1338246464729309,-2.1422483921051025,0.07037962228059769
1667824568567782000,2.540781982421875,-0.2966577708721161,-1.6996943950653076,0.1788959801197052
1667824568577789000,2.550788818359375,-0.4177200198173523,-1.2623769044876099,0.23891910910606384
1667824568587796700,2.560796630859375,-0.573896050453186,-0.8089982867240906,0.2718685269355774
1667824568597804800,2.5708046875,-0.8001139760017395,-0.4516603946685791,0.2652479112148285
1667824568607811600,2.5808115234375,-1.0833935737609863,-0.23082175850868225,0.2097196727991104
1667824568617820000,2.59081982421875,-1.391541600227356,-0.11866992712020874,0.10550565272569656
1667824568627828000,2.600827880859375,-1.6670567989349365,-0.11698547750711441,-0.008418518118560314
1667824568637834800,2.610834716796875,-1.85476815700531,-0.2515147924423218,-0.12342100590467453
1667824568647842800,2.6208427734375,-1.9160152673721313,-0.4113699793815613,-0.25557318329811096
1667824568657850600,2.6308505859375,-1.8131096363067627,-0.49484702944755554,-0.38041365146636963
1667824568667858000,2.64085791015625,-1.5848662853240967,-0.4917028844356537,-0.49236202239990234
1667824568677865700,2.65086572265625,-1.3173075914382935,-0.4251992404460907,-0.5633012056350708
1667824568687873800,2.660873779296875,-1.0644971132278442,-0.31774386763572693,-0.5703532099723816
1667824568697881600,2.670881591796875,-0.8512924909591675,-0.15369448065757751,-0.5394405722618103
1667824568707889000,2.680888916015625,-0.6953745484352112,0.04314747080206871,-0.5127277374267578
1667824568717896700,2.690896728515625,-0.610073983669281,0.20841152966022491,-0.4932704269886017
1667824568727904800,2.70090478515625,-0.6020528078079224,0.25592684745788574,-0.4809149503707886
1667824568737911800,2.710911865234375,-0.6479396224021912,0.18074820935726166,-0.49294763803482056
1667824568747920000,2.720919921875,-0.7024321556091309,0.022456839680671692,-0.513611376285553
1667824568757928000,2.730927978515625,-0.749038577079773,-0.14767281711101532,-0.5485840439796448
1667824568767934700,2.740934814453125,-0.7628473043441772,-0.3014698326587677,-0.5885892510414124
1667824568777942800,2.75094287109375,-0.7376924157142639,-0.425068736076355,-0.6099293828010559
1667824568787950800,2.760950927734375,-0.6799923777580261,-0.4787561893463135,-0.5981348156929016
1667824568797959000,2.770958984375,-0.5972809791564941,-0.43062490224838257,-0.5769194960594177
1667824568807965700,2.780965576171875,-0.4991925060749054,-0.30244696140289307,-0.5560227632522583
1667824568817973800,2.790973876953125,-0.3897472321987152,-0.1358712762594223,-0.524297833442688
1667824568827981800,2.80098193359375,-0.2963847815990448,0.053040582686662674,-0.4838718771934509
1667824568837988900,2.81098876953125,-0.21756374835968018,0.2297663539648056,-0.43851903080940247
1667824568847996700,2.82099658203125,-0.15891002118587494,0.3673734962940216,-0.39783045649528503
1667824568858004700,2.831004638671875,-0.1327308863401413,0.45032110810279846,-0.35754403471946716
1667824568868011800,2.84101171875,-0.1448107212781906,0.48289209604263306,-0.30650001764297485
1667824568878019800,2.851019775390625,-0.19203974306583405,0.5033637881278992,-0.2543419897556305
1667824568888032000,2.861031982421875,-0.2697334885597229,0.559410810470581,-0.2085321694612503
1667824568898038800,2.871038818359375,-0.35847851634025574,0.6397429704666138,-0.17534279823303223
1667824568908046800,2.881046875,-0.4528529644012451,0.7429255247116089,-0.17418192327022552
1667824568918055000,2.891054931640625,-0.5525297522544861,0.8282883763313293,-0.22312761843204498
1667824568928063000,2.90106298828125,-0.6361945867538452,0.8731879591941833,-0.3043724000453949
1667824568938069800,2.91106982421875,-0.6986704468727112,0.8818743824958801,-0.4155375361442566
1667824568948077800,2.921077880859375,-0.740225613117218,0.8712677955627441,-0.558061957359314
1667824568958086000,2.9310859375,-0.7578152418136597,0.8397300839424133,-0.6869956851005554
1667824568968093000,2.941093017578125,-0.7852293252944946,0.7820162177085876,-0.7640992403030396
1667824568978100700,2.951100830078125,-0.8252206444740295,0.6931926012039185,-0.7683605551719666
1667824568988108800,2.96110888671875,-0.8682957291603088,0.6344283223152161,-0.7101569175720215
1667824568998115800,2.97111572265625,-0.9010863900184631,0.6411309838294983,-0.6097240447998047
1667824569008124000,2.9811240234375,-0.9221810102462769,0.6827772259712219,-0.489327609539032
1667824569018131700,2.991131591796875,-0.9273505210876465,0.7551305294036865,-0.36946460604667664
1667824569028139800,3.001139892578125,-0.9132937788963318,0.8413770198822021,-0.26640772819519043
1667824569038146800,3.011146728515625,-0.8617075681686401,0.9184853434562683,-0.19190898537635803
1667824569048155000,3.02115478515625,-0.7698391675949097,0.9664803147315979,-0.15433311462402344
1667824569058163000,3.031162841796875,-0.6500715017318726,0.9299020767211914,-0.14859426021575928
1667824569068169700,3.041169677734375,-0.5172495245933533,0.8126057982444763,-0.15892812609672546
1667824569078178000,3.051177978515625,-0.3772048056125641,0.6406723856925964,-0.177176371216774
1667824569088185900,3.061185791015625,-0.25489887595176697,0.42171767354011536,-0.17971357703208923
1667824569098193000,3.07119287109375,-0.1597348004579544,0.225275456905365,-0.15143106877803802
1667824569108200700,3.08120068359375,-0.10454504936933517,0.11037337779998779,-0.09553371369838715
1667824569118208800,3.091208740234375,-0.06523679196834564,0.09553904086351395,-0.02243899554014206
1667824569128215800,3.1012158203125,-0.03038746677339077,0.15482473373413086,0.04852226376533508
1667824569138223900,3.111223876953125,0.017368869855999947,0.27942711114883423,0.10573148727416992
1667824569148231700,3.121231689453125,0.08387546241283417,0.42903071641921997,0.13418017327785492
1667824569158239000,3.131239013671875,0.15038977563381195,0.571668803691864,0.13430267572402954
1667824569168246800,3.141246826171875,0.2147650271654129,0.6806677579879761,0.08873945474624634
1667824569178254800,3.1512548828125,0.2524101436138153,0.7135040163993835,-0.006617689039558172
1667824569188263000,3.161262939453125,0.2632811665534973,0.6609459519386292,-0.1313423067331314
1667824569198270000,3.17127001953125,0.25982412695884705,0.546261191368103,-0.26432088017463684
1667824569208278000,3.181278076171875,0.2398615926504135,0.428539901971817,-0.3978253901004791
1667824569218285800,3.191285888671875,0.21711979806423187,0.32240626215934753,-0.5162500739097595
1667824569228292900,3.20129296875,0.20068968832492828,0.21057747304439545,-0.6106756329536438
1667824569238301000,3.211301025390625,0.20201940834522247,0.0939808264374733,-0.6725736260414124
1667824569248309000,3.22130908203125,0.22259792685508728,-0.030780816450715065,-0.7090144157409668
1667824569258315800,3.231315673828125,0.25945019721984863,-0.13290904462337494,-0.6987058520317078
1667824569268323800,3.24132373046875,0.30615246295928955,-0.20628152787685394,-0.6445521116256714
1667824569278331600,3.25133154296875,0.34892842173576355,-0.2502593696117401,-0.5411666035652161
1667824569288340000,3.261340087890625,0.3776839077472687,-0.24972248077392578,-0.407284677028656
1667824569298346800,3.2713466796875,0.37971431016921997,-0.2129567414522171,-0.244251549243927
1667824569308354800,3.281354736328125,0.3778940439224243,-0.14649729430675507,-0.0871649980545044
1667824569318363000,3.29136279296875,0.3706563711166382,-0.08006447553634644,0.07265316694974899
1667824569328370000,3.301369873046875,0.3594372570514679,0.0011944277212023735,0.2195347547531128
1667824569338378000,3.3113779296875,0.34292832016944885,0.09902245551347733,0.3377213180065155
1667824569348385800,3.3213857421875,0.32429713010787964,0.22268767654895782,0.41460278630256653
1667824569358392800,3.331392822265625,0.2942875623703003,0.3589978516101837,0.44101813435554504
1667824569368401000,3.34140087890625,0.2653520405292511,0.46986204385757446,0.42387697100639343
1667824569378409000,3.351408935546875,0.22662915289402008,0.5324782729148865,0.37810787558555603
1667824569388416800,3.361416748046875,0.18672354519367218,0.5714062452316284,0.30369171500205994
1667824569398423800,3.371423828125,0.14693590998649597,0.5942202210426331,0.19363337755203247
1667824569408431900,3.381431884765625,0.10635919868946075,0.608349084854126,0.08479718118906021
1667824569418440000,3.39143994140625,0.05472023785114288,0.6108679175376892,-0.020018981769680977
1667824569428446700,3.40144677734375,-0.0012695288751274347,0.6071397662162781,-0.11664831638336182
1667824569438454800,3.411454833984375,-0.0365430973470211,0.6184715032577515,-0.21234741806983948
1667824569448462800,3.421462890625,-0.04472672566771507,0.6478767991065979,-0.3181889057159424
1667824569458470000,3.431469970703125,-0.02051379717886448,0.6943750381469727,-0.4319556653499603
1667824569468478000,3.44147802734375,0.04033197835087776,0.730660617351532,-0.5591538548469543
1667824569478485800,3.45148583984375,0.11208179593086243,0.7266597151756287,-0.6784570813179016
1667824569488493000,3.4614931640625,0.18610702455043793,0.6652494072914124,-0.76943439245224
1667824569498500900,3.4715009765625,0.25846537947654724,0.557246744632721,-0.8275642395019531
1667824569508509000,3.481509033203125,0.32607343792915344,0.4303971827030182,-0.8709080219268799
1667824569518516700,3.491516845703125,0.3968949019908905,0.29129788279533386,-0.8799238801002502
1667824569528524000,3.50152392578125,0.4630992114543915,0.14356622099876404,-0.8499726057052612
1667824569538531800,3.51153173828125,0.5201473236083984,0.02123178541660309,-0.7854577898979187
1667824569548540000,3.521539794921875,0.5767128467559814,-0.04691504314541817,-0.698155403137207
1667824569558546700,3.531546630859375,0.6342906355857849,-0.048895902931690216,-0.5924497246742249
1667824569568554800,3.5415546875,0.6823647022247314,0.0070589748211205006,-0.49052125215530396
1667824569578562800,3.551562744140625,0.7139186263084412,0.0986538752913475,-0.4111529290676117
1667824569588569900,3.56156982421875,0.7288882732391357,0.18143796920776367,-0.3696262538433075
1667824569598577700,3.57157763671875,0.7140970826148987,0.22310471534729004,-0.3696560859680176
1667824569608585700,3.581585693359375,0.6762213110923767,0.218306764960289,-0.4130333662033081
1667824569618594000,3.591593994140625,0.615371823310852,0.15998034179210663,-0.4912877082824707
1667824569628600800,3.601600830078125,0.5478146076202393,0.046789076179265976,-0.582647442817688
1667824569638609000,3.61160888671875,0.4669584035873413,-0.09233658760786057,-0.6751113533973694
1667824569648616700,3.62161669921875,0.3918790817260742,-0.21447128057479858,-0.7519698739051819
1667824569658624000,3.6316240234375,0.33710265159606934,-0.3216904103755951,-0.7922134399414062
1667824569668631800,3.6416318359375,0.3068755269050598,-0.4157772362232208,-0.7985783815383911
1667824569678639900,3.651639892578125,0.2852623760700226,-0.5108161568641663,-0.7450049519538879
1667824569688647000,3.66164697265625,0.2609732747077942,-0.5982831120491028,-0.6328805088996887
1667824569698655000,3.671655029296875,0.23458774387836456,-0.6702331900596619,-0.4796377122402191
1667824569708662800,3.681662841796875,0.20790579915046692,-0.7271833419799805,-0.28077200055122375
1667824569718670800,3.6916708984375,0.1688697189092636,-0.7717606425285339,-0.05798900127410889
1667824569728677600,3.701677734375,0.10297991335391998,-0.7816305756568909,0.13935816287994385
1667824569738686000,3.71168603515625,-0.00316037330776453,-0.7481029629707336,0.28787732124328613
1667824569748694000,3.721694091796875,-0.14498861134052277,-0.6706848740577698,0.3858374357223511
1667824569758700800,3.73170068359375,-0.3014810085296631,-0.529750645160675,0.441621869802475
1667824569768708900,3.741708984375,-0.4714815020561218,-0.326625794172287,0.452487587928772
1667824569778717000,3.751717041015625,-0.6579688191413879,-0.07342654466629028,0.41827207803726196
1667824569788724000,3.761723876953125,-0.8410571813583374,0.2350926697254181,0.3411754369735718
1667824569798731800,3.771731689453125,-0.9866366982460022,0.5684764981269836,0.18496719002723694
1667824569808739800,3.78173974609375,-1.0742336511611938,0.8568787574768066,-0.056535448879003525
1667824569818747600,3.79174755859375,-1.118948221206665,1.0134198665618896,-0.3497987389564514
1667824569828755000,3.8017548828125,-1.1178778409957886,0.9663008451461792,-0.6438913345336914
1667824569838762800,3.8117626953125,-1.0909456014633179,0.7072256207466125,-0.8812591433525085
1667824569848770800,3.821770751953125,-1.0576906204223633,0.27874401211738586,-1.009820818901062
1667824569858777900,3.83177783203125,-0.9971902966499329,-0.2219398468732834,-1.0071361064910889
1667824569868786000,3.841785888671875,-0.9105355739593506,-0.6719240546226501,-0.8826980590820312
1667824569878794000,3.8517939453125,-0.8019475936889648,-0.9468629360198975,-0.6671607494354248
1667824569888797700,3.861797607421875,-0.6770753860473633,-1.0437966585159302,-0.388679563999176
1667824569898805500,3.871805419921875,-0.5473719835281372,-0.9855312705039978,-0.07238844782114029
1667824569908813800,3.881813720703125,-0.40618667006492615,-0.8227985501289368,0.24970011413097382
1667824569918822000,3.89182177734375,-0.2461077719926834,-0.5939925312995911,0.5676597356796265
1667824569928828700,3.90182861328125,-0.07533017545938492,-0.3434654772281647,0.8704810738563538
1667824569938836700,3.911836669921875,0.08922494947910309,-0.10411814600229263,1.13151216506958
1667824569948844500,3.921844482421875,0.23471184074878693,0.10098414123058319,1.3303179740905762
1667824569958851800,3.931851806640625,0.33996155858039856,0.24778610467910767,1.4459638595581055
1667824569968859600,3.941859619140625,0.3946165442466736,0.34009552001953125,1.4831887483596802
1667824569978867700,3.95186767578125,0.4017290472984314,0.3829348683357239,1.439113974571228
1667824569988875500,3.96187548828125,0.3593970537185669,0.392339289188385,1.3099348545074463
1667824569998882800,3.9718828125,0.2840591371059418,0.35869982838630676,1.122687816619873
1667824570008890600,3.981890625,0.1927926242351532,0.28641632199287415,0.8938279747962952
1667824570018898700,3.991898681640625,0.10915684700012207,0.1990148276090622,0.6382681131362915
1667824570028905700,4.00190576171875,0.06089610606431961,0.09585835039615631,0.3780311942100525
1667824570038913800,4.011913818359375,0.0409354493021965,-0.026854250580072403,0.14665575325489044
1667824570048921900,4.021921875,0.04535496607422829,-0.16515406966209412,-0.03741874545812607
1667824570058929700,4.0319296875,0.04850282147526741,-0.27639803290367126,-0.19745448231697083
1667824570068936700,4.041936767578125,0.047875113785266876,-0.3490927517414093,-0.3303195834159851
1667824570078944800,4.05194482421875,0.02690724842250347,-0.3671867847442627,-0.4398553967475891
1667824570088952800,4.061952880859375,-0.015124358236789703,-0.33041438460350037,-0.5292718410491943
1667824570098959600,4.071959716796875,-0.06319122016429901,-0.25988245010375977,-0.5933687686920166
1667824570108967700,4.0819677734375,-0.11923238635063171,-0.1770445555448532,-0.6091791987419128
1667824570118975700,4.091975830078125,-0.19547975063323975,-0.10912968218326569,-0.5604633092880249
1667824570128982800,4.101982666015625,-0.2839861810207367,-0.057194046676158905,-0.4791114628314972
1667824570138990600,4.111990478515625,-0.3794613182544708,-0.02905801683664322,-0.3613851070404053
1667824570148998700,4.12199853515625,-0.48471397161483765,-0.007258978206664324,-0.24437245726585388
1667824570159005700,4.132005615234375,-0.5849345922470093,0.028742166236042976,-0.143922820687294
1667824570169013800,4.142013671875,-0.6787281632423401,0.07335597276687622,-0.07537677884101868
1667824570179021800,4.152021728515625,-0.760168194770813,0.12867169082164764,-0.02707263082265854
1667824570189029600,4.162029541015625,-0.8295381665229797,0.19314736127853394,0.00743128452450037
1667824570199037000,4.172036865234375,-0.8703314065933228,0.2704980671405792,0.03247351944446564
1667824570209044700,4.182044677734375,-0.8692110180854797,0.34570014476776123,0.05711495131254196
1667824570219052800,4.192052734375,-0.8392800092697144,0.3684280812740326,0.0857095792889595
1667824570229059600,4.2020595703125,-0.7906267642974854,0.3118487000465393,0.1320405900478363
1667824570239068000,4.21206787109375,-0.7210245132446289,0.15904584527015686,0.20797982811927795
1667824570249075700,4.22207568359375,-0.635245680809021,-0.04373682662844658,0.32115086913108826
1667824570259082800,4.232082763671875,-0.5436978936195374,-0.22071292996406555,0.47260987758636475
1667824570269090600,4.242090576171875,-0.44537800550460815,-0.28966909646987915,0.6402313709259033
1667824570279098600,4.2520986328125,-0.3475795388221741,-0.2512167692184448,0.8108587861061096
1667824570289106700,4.262106689453125,-0.25336650013923645,-0.1778525561094284,0.9874687194824219
1667824570299113700,4.27211376953125,-0.15506894886493683,-0.10102301836013794,1.1595163345336914
1667824570309121500,4.28212158203125,-0.053457897156476974,-0.047562990337610245,1.300390362739563
1667824570319129600,4.292129638671875,0.05740923061966896,-0.03127190098166466,1.3989936113357544
1667824570329136600,4.30213671875,0.17161676287651062,-0.04965224117040634,1.4648905992507935
1667824570339144700,4.312144775390625,0.27406296133995056,-0.07007895410060883,1.4941468238830566
1667824570349152800,4.32215283203125,0.3536475598812103,-0.03707679361104965,1.485221266746521
1667824570359159800,4.332159912109375,0.3939225375652313,0.07400525361299515,1.4152799844741821
1667824570369168000,4.34216796875,0.4065174162387848,0.2537347972393036,1.2869595289230347
1667824570379175700,4.35217578125,0.38307812809944153,0.4960542321205139,1.0868113040924072
1667824570389183700,4.362183837890625,0.3395807445049286,0.7785112261772156,0.813604474067688
1667824570399190800,4.372190673828125,0.2850751578807831,1.044559359550476,0.47033926844596863
1667824570409198800,4.38219873046875,0.23497070372104645,1.2324470281600952,0.09277787059545517
1667824570419206700,4.39220654296875,0.20384687185287476,1.2702151536941528,-0.2723018229007721
1667824570429213700,4.402213623046875,0.21473173797130585,1.1364643573760986,-0.5919520258903503
1667824570439221500,4.412221435546875,0.26752224564552307,0.8397750854492188,-0.8312215805053711
1667824570449229800,4.422229736328125,0.35042113065719604,0.4159628450870514,-0.9643799066543579
1667824570459238000,4.43223779296875,0.4539613723754883,-0.044560011476278305,-0.9882767200469971
1667824570469244700,4.44224462890625,0.5568749904632568,-0.38286828994750977,-0.9257941246032715
1667824570479252700,4.452252685546875,0.6350927948951721,-0.5362999439239502,-0.8008426427841187
1667824570489260800,4.4622607421875,0.6981242299079895,-0.5437591671943665,-0.6269360780715942
1667824570499267800,4.472267822265625,0.7374370098114014,-0.47779080271720886,-0.4451902508735657
1667824570509275600,4.482275634765625,0.7551568746566772,-0.358677476644516,-0.27660655975341797
1667824570519283700,4.49228369140625,0.7371030449867249,-0.22533191740512848,-0.11929629743099213
1667824570529290800,4.502290771484375,0.6921589970588684,-0.09071152657270432,0.02647022344172001
1667824570539298800,4.512298828125,0.6315257549285889,0.049794454127550125,0.14334623515605927
1667824570549306600,4.522306640625,0.555376410484314,0.19254201650619507,0.2245846390724182
1667824570559314700,4.532314697265625,0.46830064058303833,0.31708553433418274,0.2594022750854492
1667824570569321700,4.54232177734375,0.3659564256668091,0.417778342962265,0.263009250164032
1667824570579329800,4.552329833984375,0.25337526202201843,0.510179340839386,0.23382234573364258
1667824570589337900,4.562337890625,0.14211693406105042,0.5726014971733093,0.18694564700126648
1667824570599344600,4.5723447265625,0.05548083409667015,0.5971605777740479,0.13306458294391632
1667824570609352700,4.582352783203125,-0.003584614722058177,0.6044883131980896,0.09126945585012436
1667824570619360800,4.59236083984375,-0.026373017579317093,0.6188680529594421,0.06542827188968658
1667824570629367800,4.602367919921875,-0.032592564821243286,0.656246542930603,0.04469077289104462
1667824570639375600,4.612375732421875,-0.026926688849925995,0.6941763758659363,0.016620256006717682
1667824570649383700,4.6223837890625,-0.013032444752752781,0.704888105392456,-0.020626980811357498
1667824570659391700,4.632391845703125,0.023247266188263893,0.7137375473976135,-0.07669637352228165
1667824570669398800,4.642398681640625,0.08796127885580063,0.7037736177444458,-0.15085582435131073
1667824570679406600,4.652406494140625,0.16275057196617126,0.6550524234771729,-0.2278779000043869
1667824570689414700,4.66241455078125,0.2359912246465683,0.5629368424415588,-0.2872141897678375
1667824570699421700,4.672421630859375,0.299875408411026,0.4472840130329132,-0.32488808035850525
1667824570709429800,4.6824296875,0.3550078868865967,0.3473302721977234,-0.33908164501190186
1667824570719437800,4.692437744140625,0.38954243063926697,0.29560181498527527,-0.3191894292831421
1667824570729444900,4.70244482421875,0.39700114727020264,0.29218313097953796,-0.2714932858943939
1667824570739453000,4.712452880859375,0.3991875946521759,0.32659435272216797,-0.20821551978588104
1667824570749460700,4.722460693359375,0.41092121601104736,0.38644251227378845,-0.1648387461900711
1667824570759468800,4.73246875,0.4319756329059601,0.4379672110080719,-0.1519879400730133
1667824570769475600,4.7424755859375,0.45741575956344604,0.46717357635498047,-0.17437952756881714
1667824570779484000,4.75248388671875,0.4747430682182312,0.47245943546295166,-0.22647015750408173
1667824570789491700,4.76249169921875,0.4956779181957245,0.4587095081806183,-0.2992652654647827
1667824570799498800,4.772498779296875,0.5084373950958252,0.4283561408519745,-0.3921603262424469
1667824570809506600,4.782506591796875,0.5096336603164673,0.395780086517334,-0.5059561133384705
1667824570819514600,4.7925146484375,0.49540975689888,0.37711799144744873,-0.6436333060264587
1667824570829521700,4.802521728515625,0.4615151584148407,0.39212357997894287,-0.8145552277565002
1667824570839529700,4.81252978515625,0.4247925579547882,0.40355783700942993,-1.0139328241348267
1667824570849537500,4.82253759765625,0.39842885732650757,0.3382102847099304,-1.2048531770706177
1667824570859545600,4.832545654296875,0.36950695514678955,0.15850335359573364,-1.3338404893875122
1667824570869552600,4.842552734375,0.32601138949394226,-0.1037738025188446,-1.380311369895935
1667824570879560700,4.852560791015625,0.2892962694168091,-0.4072580337524414,-1.3317275047302246
1667824570889568000,4.862568115234375,0.2562759816646576,-0.714816689491272,-1.1993441581726074
1667824570899575000,4.872574951171875,0.2328079491853714,-0.9327269196510315,-1.0126339197158813
1667824570909583000,4.8825830078125,0.18990735709667206,-1.032377004623413,-0.814491868019104
1667824570919591000,4.8925908203125,0.11403629183769226,-1.0376583337783813,-0.6236041784286499
1667824570929598000,4.902597900390625,-0.021638182923197746,-0.9941055774688721,-0.4445801079273224
1667824570939606000,4.91260595703125,-0.21486090123653412,-0.9674188494682312,-0.26044756174087524
1667824570949614000,4.922614013671875,-0.4549427330493927,-0.904592752456665,-0.062013834714889526
1667824570959622000,4.932621826171875,-0.7479128241539001,-0.7067955136299133,0.0964338630437851
1667824570969629000,4.94262890625,-1.0756754875183105,-0.40947407484054565,0.18364599347114563
1667824570979637000,4.952636962890625,-1.3899636268615723,-0.12447188794612885,0.20391105115413666
1667824570989645000,4.96264501953125,-1.6285014152526855,0.05940846726298332,0.20754839479923248
1667824570999651800,4.97265185546875,-1.7549240589141846,0.13962261378765106,0.205659419298172
1667824571009660000,4.982659912109375,-1.7165244817733765,0.11386504769325256,0.20961235463619232
1667824571019668000,4.99266796875,-1.534190058708191,-0.01324097067117691,0.21971717476844788
1667824571029675000,5.002675048828125,-1.2817192077636719,-0.2205161303281784,0.25257498025894165
1667824571039682800,5.012682861328125,-1.0309847593307495,-0.4831906259059906,0.31989943981170654
1667824571049691000,5.02269091796875,-0.8170673847198486,-0.7098664045333862,0.42170676589012146
1667824571059699000,5.032698974609375,-0.6521461009979248,-0.8436012864112854,0.5304867625236511
1667824571069706000,5.0427060546875,-0.5371308326721191,-0.8979766368865967,0.6497108936309814
1667824571079714000,5.052714111328125,-0.4653541147708893,-0.90273118019104,0.7586743831634521
1667824571089721900,5.062721923828125,-0.4191056489944458,-0.8707191944122314,0.856106698513031
1667824571099729200,5.072729248046875,-0.37625086307525635,-0.8209542632102966,0.9212923645973206
1667824571109737000,5.082737060546875,-0.33407118916511536,-0.7584879994392395,0.9606389403343201
1667824571119745000,5.0927451171875,-0.29152560234069824,-0.7033551931381226,0.9633500576019287
1667824571129752800,5.1027529296875,-0.26023930311203003,-0.6642251014709473,0.9311609268188477
1667824571139760000,5.112760009765625,-0.23020151257514954,-0.6362936496734619,0.8667116761207581
1667824571149768000,5.122767822265625,-0.21426649391651154,-0.6266061067581177,0.7729223370552063
1667824571159776000,5.13277587890625,-0.21158894896507263,-0.625535249710083,0.6661955714225769
1667824571169782800,5.14278271484375,-0.21309655904769897,-0.6158552169799805,0.5456936955451965
1667824571179790800,5.152790771484375,-0.22659212350845337,-0.6060587763786316,0.4168342351913452
1667824571189799200,5.162799072265625,-0.2422770857810974,-0.6119347810745239,0.2984607219696045
1667824571199806000,5.172805908203125,-0.2564341723918915,-0.6376947164535522,0.22993147373199463
1667824571209814000,5.18281396484375,-0.2776672840118408,-0.661627471446991,0.22066766023635864
1667824571219821800,5.19282177734375,-0.29138070344924927,-0.6525847315788269,0.2536591589450836
1667824571229830100,5.202830078125,-0.28634095191955566,-0.6121214628219604,0.29707908630371094
1667824571239837000,5.2128369140625,-0.2800425589084625,-0.6160376071929932,0.3405405282974243
1667824571249845000,5.222844970703125,-0.2877441644668579,-0.7132693529129028,0.4206838309764862
1667824571259852800,5.232852783203125,-0.28624027967453003,-0.8068293929100037,0.510840117931366
1667824571269860000,5.242860107421875,-0.25399312376976013,-0.7817493677139282,0.5882936120033264
1667824571279868000,5.252867919921875,-0.20635023713111877,-0.6741211414337158,0.6557658910751343
1667824571289876000,5.2628759765625,-0.14045511186122894,-0.5493664741516113,0.7031006217002869
1667824571299883000,5.272883056640625,-0.06994206458330154,-0.45038872957229614,0.7309964299201965
1667824571309891000,5.28289111328125,-0.006717024836689234,-0.3998379409313202,0.7433825135231018
1667824571319899100,5.292899169921875,0.04210697486996651,-0.39823392033576965,0.7394745945930481
1667824571329907000,5.302906982421875,0.07327740639448166,-0.4172225296497345,0.7225824594497681
1667824571339914000,5.3129140625,0.0932878702878952,-0.43908682465553284,0.6900705695152283
1667824571349922000,5.322922119140625,0.09578405320644379,-0.44104957580566406,0.6339654922485352
1667824571359930000,5.33293017578125,0.08037366718053818,-0.4391419589519501,0.5611064434051514
1667824571369937000,5.34293701171875,0.06367431581020355,-0.4401821792125702,0.47918468713760376
1667824571379945000,5.352945068359375,0.04729001596570015,-0.45103001594543457,0.4076090455055237
1667824571389953000,5.362953125,0.031245537102222443,-0.44472765922546387,0.33631569147109985
1667824571399960000,5.3729599609375,0.023190541192889214,-0.41065117716789246,0.27095454931259155
1667824571409967900,5.3829677734375,0.02227121777832508,-0.3624575436115265,0.2133687436580658
1667824571419976000,5.392975830078125,0.024661671370267868,-0.3199721574783325,0.17952288687229156
1667824571429984000,5.40298388671875,0.01770096644759178,-0.3081783354282379,0.17777878046035767
1667824571439991000,5.412990966796875,-0.0033808830194175243,-0.32765164971351624,0.22773195803165436
1667824571449998800,5.422998779296875,-0.03207005187869072,-0.3396821916103363,0.3098609149456024
1667824571460007000,5.4330068359375,-0.05353619530797005,-0.31346097588539124,0.405233770608902
1667824571470014000,5.443013916015625,-0.058568503707647324,-0.23960353434085846,0.4918118119239807
1667824571480022000,5.45302197265625,-0.04306810721755028,-0.13282622396945953,0.5585652589797974
1667824571490030000,5.463030029296875,-0.019453592598438263,-0.006420082412660122,0.5848245620727539
1667824571500036900,5.473036865234375,0.0028391960076987743,0.13759967684745789,0.5753080248832703
1667824571510045000,5.483044921875,0.03315103054046631,0.2928595542907715,0.5106387734413147
1667824571520053000,5.493052978515625,0.06196749582886696,0.44548025727272034,0.3919864296913147
1667824571530061000,5.50306103515625,0.07912624627351761,0.6031226515769958,0.2312806248664856
1667824571540067800,5.51306787109375,0.09454301744699478,0.720059335231781,0.03657212480902672
1667824571550076000,5.523075927734375,0.10784950107336044,0.7890501618385315,-0.1783819943666458
1667824571560084000,5.533083984375,0.11426611989736557,0.7926241159439087,-0.4063941240310669
1667824571570091000,5.543091064453125,0.11976075172424316,0.714455246925354,-0.6425230503082275
1667824571580098800,5.553098876953125,0.13582360744476318,0.5731732249259949,-0.8659931421279907
1667824571590107000,5.56310693359375,0.16081151366233826,0.3958405554294586,-1.0657531023025513
1667824571600115000,5.573114990234375,0.19300220906734467,0.2055387794971466,-1.2123700380325317
1667824571610122000,5.5831220703125,0.2209230661392212,0.03945180028676987,-1.281562328338623
1667824571620130000,5.593130126953125,0.245147705078125,-0.06251583993434906,-1.269162654876709
1667824571630137900,5.603137939453125,0.2598142623901367,-0.09250223636627197,-1.1962450742721558
1667824571640145200,5.613145263671875,0.2500103712081909,-0.06119997426867485,-1.0666364431381226
1667824571650153000,5.623153076171875,0.22042211890220642,-0.0031473238486796618,-0.9021508693695068
1667824571660161000,5.6331611328125,0.1973719298839569,0.060624465346336365,-0.7053067684173584
1667824571670167800,5.643167724609375,0.1956709623336792,0.11751677840948105,-0.505609929561615
1667824571680176000,5.653176025390625,0.20941607654094696,0.15529237687587738,-0.3150218725204468
1667824571690184000,5.663183837890625,0.22827525436878204,0.18552619218826294,-0.1546361744403839
1667824571700192000,5.67319189453125,0.24411307275295258,0.2241571992635727,-0.028117921203374863
1667824571710198800,5.68319873046875,0.2512625753879547,0.2652985155582428,0.05770803615450859
1667824571720206800,5.693206787109375,0.2308846116065979,0.3077234625816345,0.10175112634897232
1667824571730215200,5.703215087890625,0.18026724457740784,0.3368384838104248,0.11387010663747787
1667824571740222000,5.713221923828125,0.11292096227407455,0.35537752509117126,0.10319296270608902
1667824571750230000,5.72322998046875,0.022597188130021095,0.35829049348831177,0.07763780653476715
1667824571760237800,5.73323779296875,-0.06312224268913269,0.34675902128219604,0.055500276386737823
1667824571770245000,5.7432451171875,-0.14062049984931946,0.32265740633010864,0.04674327000975609
1667824571780253000,5.7532529296875,-0.19530397653579712,0.30695247650146484,0.05233963578939438
1667824571790261000,5.763260986328125,-0.22079309821128845,0.30961671471595764,0.05024346336722374
1667824571800268800,5.773268798828125,-0.20987360179424286,0.3290095925331116,0.03502882272005081
1667824571810276000,5.783276123046875,-0.16080619394779205,0.34852975606918335,0.004713262431323528
1667824571820284000,5.793283935546875,-0.09908610582351685,0.3673388659954071,-0.045758966356515884
1667824571830292000,5.8032919921875,-0.03593989089131355,0.37426522374153137,-0.11022210866212845
1667824571840299000,5.813299072265625,0.020485300570726395,0.35468485951423645,-0.18867936730384827
1667824571850307000,5.82330712890625,0.039616119116544724,0.29486411809921265,-0.2616739571094513
1667824571860315100,5.833315185546875,0.04025261476635933,0.2508535385131836,-0.33183467388153076
1667824571870323000,5.843322998046875,0.013123791664838791,0.23741547763347626,-0.40019693970680237
1667824571880330000,5.853330078125,-0.01745861954987049,0.24830541014671326,-0.4616943895816803
1667824571890341600,5.863341552734375,-0.04228806868195534,0.26508891582489014,-0.5016418099403381
1667824571900349400,5.873349365234375,-0.055746618658304214,0.28923287987709045,-0.5234671831130981
1667824571910356500,5.8833564453125,-0.04309447482228279,0.3300415575504303,-0.5296566486358643
1667824571920364300,5.8933642578125,-0.008806008845567703,0.39559951424598694,-0.5347020030021667
1667824571930372400,5.903372314453125,0.05415245145559311,0.4629434049129486,-0.5392925143241882
1667824571940379400,5.91337939453125,0.13312450051307678,0.49072709679603577,-0.5524474382400513
1667824571950387500,5.923387451171875,0.21017560362815857,0.4535296857357025,-0.5679899454116821
1667824571960395500,5.9333955078125,0.27812936902046204,0.3498900830745697,-0.5869441628456116
1667824571970403300,5.9434033203125,0.3362472653388977,0.22830215096473694,-0.610733151435852
1667824571980410600,5.95341064453125,0.38477644324302673,0.11338488012552261,-0.6488834619522095
1667824571990418400,5.96341845703125,0.4219115674495697,0.000006924218723725062,-0.6985127925872803
1667824572000426500,5.973426513671875,0.4428519904613495,-0.11589757353067398,-0.740147054195404
1667824572010433500,5.98343359375,0.4399808347225189,-0.21810996532440186,-0.7671802639961243
1667824572020441600,5.993441650390625,0.40571022033691406,-0.27029168605804443,-0.7887473702430725
1667824572030449400,6.003449462890625,0.34737715125083923,-0.2823059856891632,-0.785582423210144
1667824572040457500,6.01345751953125,0.28523388504981995,-0.2708858251571655,-0.7527241110801697
1667824572050464500,6.023464599609375,0.23460344970226288,-0.26114505529403687,-0.6849328279495239
1667824572060472600,6.03347265625,0.19785742461681366,-0.2558978199958801,-0.5914947390556335
1667824572070480600,6.043480712890625,0.16622039675712585,-0.278061181306839,-0.48237890005111694
1667824572080487400,6.0534873046875,0.12878914177417755,-0.3398158848285675,-0.34694597125053406
1667824572090495500,6.06349560546875,0.08492261171340942,-0.4487365186214447,-0.18617306649684906
1667824572100503600,6.073503662109375,0.038431812077760696,-0.5581724643707275,-0.01248995866626501
1667824572110510600,6.083510498046875,-0.01384204626083374,-0.6305704712867737,0.16551493108272552
1667824572120518400,6.093518310546875,-0.08132654428482056,-0.6710917949676514,0.3374326229095459
1667824572130526500,6.1035263671875,-0.16742201149463654,-0.6780072450637817,0.5048200488090515
1667824572140534500,6.113534423828125,-0.2599514126777649,-0.622999906539917,0.6479212641716003
1667824572150541600,6.12354150390625,-0.3760945498943329,-0.5024450421333313,0.7493703961372375
1667824572160549400,6.13354931640625,-0.5176436901092529,-0.3256862163543701,0.789619505405426
1667824572170557400,6.143557373046875,-0.6917667388916016,-0.1536169946193695,0.7691259980201721
1667824572180564500,6.153564453125,-0.9116080403327942,-0.03717293590307236,0.7064106464385986
1667824572190572500,6.163572509765625,-1.1478849649429321,0.03406902030110359,0.6084079146385193
1667824572200580400,6.173580322265625,-1.360978603363037,0.09269557893276215,0.4832036793231964
1667824572210587400,6.18358740234375,-1.5038419961929321,0.12224122136831284,0.3560161590576172
1667824572220595500,6.193595458984375,-1.5601223707199097,0.11871679872274399,0.23452861607074738
1667824572230603500,6.203603515625,-1.5058069229125977,0.06353317201137543,0.13282142579555511
1667824572240611600,6.213611572265625,-1.358722448348999,-0.04849376529455185,0.07969748973846436
1667824572250618400,6.223618408203125,-1.1529008150100708,-0.1781524270772934,0.07986553758382797
1667824572260626400,6.23362646484375,-0.9217040538787842,-0.29365211725234985,0.14121225476264954
1667824572270634500,6.243634521484375,-0.7020691633224487,-0.3680403232574463,0.2388136386871338
1667824572280641500,6.2536416015625,-0.5287908911705017,-0.4078767001628876,0.367531418800354
1667824572290649300,6.2636494140625,-0.4178835153579712,-0.40722501277923584,0.5139378905296326
1667824572300657400,6.273657470703125,-0.34168943762779236,-0.3691956102848053,0.6594905853271484
1667824572310664400,6.28366455078125,-0.2744469940662384,-0.2947426736354828,0.7846900224685669
1667824572320672500,6.293672607421875,-0.2129383683204651,-0.21030423045158386,0.8817084431648254
1667824572330680300,6.303680419921875,-0.16579295694828033,-0.13887453079223633,0.9193008542060852
1667824572340688400,6.3136884765625,-0.15058231353759766,-0.09157305955886841,0.8961073756217957
1667824572350695400,6.3236953125,-0.1566292941570282,-0.08980072289705276,0.8040690422058105
1667824572360703500,6.333703369140625,-0.2021176815032959,-0.1580495536327362,0.6585307717323303
1667824572370711600,6.343711669921875,-0.27514129877090454,-0.2749439477920532,0.47952160239219666
1667824572380718600,6.353718505859375,-0.3663646876811981,-0.3953595757484436,0.2885982394218445
1667824572390726700,6.3637265625,-0.45666447281837463,-0.474531352519989,0.122359998524189
1667824572400734500,6.373734375,-0.5071215033531189,-0.49510934948921204,-0.0028810077346861362
1667824572410742500,6.383742431640625,-0.5079976916313171,-0.4539150297641754,-0.09434913843870163
1667824572420749300,6.393749267578125,-0.46293675899505615,-0.3820088803768158,-0.1562039852142334
1667824572430757600,6.403757568359375,-0.38476526737213135,-0.3017750382423401,-0.19595512747764587
1667824572440765400,6.413765380859375,-0.294464647769928,-0.19072361290454865,-0.21869292855262756
1667824572450772500,6.4237724609375,-0.20074056088924408,-0.0946844294667244,-0.22993972897529602
1667824572460780300,6.4337802734375,-0.13622015714645386,-0.05780497565865517,-0.214157834649086
1667824572470788400,6.443788330078125,-0.12129020690917969,-0.07519408315420151,-0.17172861099243164
1667824572480796700,6.453796630859375,-0.1408223658800125,-0.11628320068120956,-0.10860104858875275
1667824572490803500,6.463803466796875,-0.19882787764072418,-0.16233058273792267,-0.02997254580259323
1667824572500811500,6.4738115234375,-0.26967063546180725,-0.1990036517381668,0.06031340733170509
1667824572510819300,6.4838193359375,-0.34007182717323303,-0.2182401865720749,0.14876684546470642
1667824572520826600,6.49382666015625,-0.40405532717704773,-0.19099898636341095,0.21291705965995789
1667824572530834400,6.50383447265625,-0.46143072843551636,-0.12802188098430634,0.24393384158611298
1667824572540842500,6.513842529296875,-0.5149621367454529,-0.0454135537147522,0.2305557131767273
1667824572550849500,6.523849609375,-0.5524916648864746,0.03912103548645973,0.16689151525497437
1667824572560857600,6.533857666015625,-0.588246762752533,0.09026811271905899,0.0748492106795311
1667824572570865400,6.543865478515625,-0.6291552782058716,0.09597286581993103,-0.03237178921699524
1667824572580873500,6.55387353515625,-0.6673900485038757,0.06626903265714645,-0.1430056244134903
1667824572590880500,6.563880615234375,-0.7082769870758057,-0.019649334251880646,-0.23278211057186127
1667824572600888600,6.573888671875,-0.7487226724624634,-0.14322640001773834,-0.27509868144989014
1667824572610896600,6.583896728515625,-0.7621884346008301,-0.29133063554763794,-0.2615027129650116
1667824572620903400,6.5939033203125,-0.7505517601966858,-0.4319689869880676,-0.21324463188648224
1667824572630911500,6.603911376953125,-0.715864896774292,-0.5726877450942993,-0.14688904583454132
1667824572640919600,6.61391943359375,-0.6820698976516724,-0.7119657397270203,-0.07067842781543732
1667824572650926600,6.623926513671875,-0.6694025993347168,-0.8167190551757812,-0.0034264230635017157
1667824572660934400,6.633934326171875,-0.679783821105957,-0.8747339248657227,0.0629294291138649
1667824572670942500,6.6439423828125,-0.696448028087616,-0.9079198241233826,0.13450241088867188
1667824572680950500,6.653950439453125,-0.7004861831665039,-0.9146512150764465,0.21179933845996857
1667824572690957600,6.66395751953125,-0.6788957118988037,-0.863292932510376,0.2803589701652527
1667824572700965400,6.67396533203125,-0.6304969787597656,-0.7894296646118164,0.34072670340538025
1667824572710973400,6.683973388671875,-0.5502077341079712,-0.6650709509849548,0.3999364972114563
1667824572720980500,6.69398046875,-0.42758703231811523,-0.5670807361602783,0.4629913568496704
1667824572730988500,6.703988525390625,-0.2825731039047241,-0.4925825297832489,0.5229505300521851
1667824572740996400,6.713996337890625,-0.12139380723237991,-0.4162116050720215,0.5953877568244934
1667824572751004400,6.72400439453125,0.051906339824199677,-0.37563595175743103,0.7024505734443665
1667824572761011500,6.734011474609375,0.209449902176857,-0.3618554174900055,0.8397932052612305
1667824572771019500,6.74401953125,0.32949721813201904,-0.3732103407382965,0.9755595922470093
1667824572781027600,6.754027587890625,0.41933682560920715,-0.38746383786201477,1.088187575340271
1667824572791034400,6.764034423828125,0.4571438431739807,-0.373772531747818,1.1537290811538696
1667824572801042400,6.77404248046875,0.4464797377586365,-0.2985563278198242,1.151606798171997
1667824572811050500,6.784050537109375,0.39298537373542786,-0.15385881066322327,1.0634316205978394
1667824572821057500,6.7940576171875,0.3072052299976349,0.0096273273229599,0.8873255848884583
1667824572831065300,6.8040654296875,0.19588641822338104,0.14539261162281036,0.6526321172714233
1667824572841073400,6.814073486328125,0.06735347211360931,0.23431050777435303,0.39094406366348267
1667824572851081500,6.82408154296875,-0.06283248960971832,0.27328798174858093,0.1323401927947998
1667824572861088500,6.834088623046875,-0.1896037459373474,0.279742956161499,-0.1292133778333664
1667824572871096300,6.844096435546875,-0.284638375043869,0.27801164984703064,-0.38254550099372864
1667824572881104400,6.8541044921875,-0.33631837368011475,0.23997877538204193,-0.6077253818511963
1667824572891108400,6.8641083984375,-0.35340628027915955,0.14109773933887482,-0.7830511331558228
1667824572901116200,6.8741162109375,-0.3472365140914917,0.0014034858904778957,-0.9042105674743652
1667824572911124200,6.884124267578125,-0.30783745646476746,-0.13346298038959503,-0.9527301788330078
1667824572921131000,6.894131103515625,-0.26725247502326965,-0.2448907047510147,-0.9321721792221069
1667824572931139300,6.904139404296875,-0.2393936812877655,-0.32473281025886536,-0.8388118743896484
1667824572941147100,6.914147216796875,-0.22677801549434662,-0.3698931038379669,-0.694570004940033
1667824572951155200,6.9241552734375,-0.2266179621219635,-0.38580840826034546,-0.51114821434021
1667824572961162000,6.934161865234375,-0.21915312111377716,-0.3758343458175659,-0.31680750846862793
1667824572971170300,6.94417041015625,-0.1778930276632309,-0.360137403011322,-0.11051852256059647
1667824572981178400,6.954178466796875,-0.08467493951320648,-0.36560726165771484,0.11200296878814697
1667824572991185200,6.96418505859375,0.016706807538866997,-0.37263694405555725,0.33712077140808105
1667824573001193200,6.974193115234375,0.092108353972435,-0.36459580063819885,0.5349653959274292
1667824573011201000,6.984200927734375,0.1566561907529831,-0.3402915298938751,0.6914340853691101
1667824573021209300,6.994209228515625,0.21377752721309662,-0.3117634952068329,0.8133181929588318
1667824573031216000,7.004216064453125,0.26053357124328613,-0.2691124379634857,0.8913125991821289
1667824573041224200,7.01422412109375,0.29537492990493774,-0.20989464223384857,0.9337535500526428
1667824573051232000,7.02423193359375,0.3049015700817108,-0.13910062611103058,0.9467431306838989
1667824573061239300,7.0342392578125,0.29440048336982727,-0.07708679139614105,0.9354004263877869
1667824573071247000,7.0442470703125,0.2543228268623352,-0.030614901334047318,0.8911610841751099
1667824573081255200,7.054255126953125,0.19637909531593323,-0.012722985818982124,0.8329406380653381
1667824573091262200,7.06426220703125,0.15556135773658752,0.004454136826097965,0.7536807060241699
1667824573101270300,7.074270263671875,0.1427379697561264,0.044083304703235626,0.6816357970237732
1667824573111278300,7.0842783203125,0.14654922485351562,0.0779922679066658,0.6056289076805115
1667824573121286100,7.0942861328125,0.17329108715057373,0.0958213359117508,0.5014130473136902
1667824573131293200,7.104293212890625,0.22146421670913696,0.13257960975170135,0.38143524527549744
1667824573141301200,7.11430126953125,0.2930997908115387,0.12663011252880096,0.2891868054866791
1667824573151309300,7.124309326171875,0.3674645721912384,0.09255789965391159,0.21245314180850983
1667824573161316000,7.134316162109375,0.41576284170150757,0.06851407885551453,0.1395544409751892
1667824573171324200,7.14432421875,0.4511634409427643,0.05732853710651398,0.06954126060009003
1667824573181332200,7.154332275390625,0.4585811495780945,0.05217185616493225,0.014939534477889538
1667824573191340300,7.16434033203125,0.46103739738464355,0.04850521683692932,-0.02889369986951351
1667824573201347000,7.17434716796875,0.45253950357437134,0.03032621368765831,-0.05904654040932655
1667824573211355100,7.184355224609375,0.43223848938941956,-0.00974743627011776,-0.06642243266105652
1667824573221363000,7.194363037109375,0.40766391158103943,-0.041553303599357605,-0.06083778291940689
1667824573231370200,7.204370361328125,0.3844563364982605,-0.02646676078438759,-0.04830761253833771
1667824573241378000,7.2143779296875,0.381693035364151,0.029639918357133865,-0.05374152585864067
1667824573251386000,7.22438623046875,0.39406660199165344,0.10362599045038223,-0.08140324801206589
1667824573261393200,7.23439306640625,0.41909927129745483,0.19082880020141602,-0.14064019918441772
1667824573271401200,7.244401123046875,0.45307400822639465,0.28471988439559937,-0.23950020968914032
1667824573281409300,7.2544091796875,0.49217188358306885,0.38211143016815186,-0.3797531723976135
1667824573291417000,7.2644169921875,0.5251678824424744,0.48391368985176086,-0.5584486126899719
1667824573301424400,7.27442431640625,0.5429857969284058,0.568744421005249,-0.7467341423034668
1667824573311432200,7.28443212890625,0.5502370595932007,0.6188640594482422,-0.9095920324325562
1667824573321440300,7.294440185546875,0.5657387971878052,0.621355414390564,-1.0235893726348877
1667824573331447000,7.304447021484375,0.5862168669700623,0.5908846259117126,-1.0764960050582886
1667824573341455000,7.314455078125,0.5976120233535767,0.54006028175354,-1.0717004537582397
1667824573351463200,7.324463134765625,0.6049333214759827,0.43655866384506226,-1.0098637342453003
1667824573361470200,7.33447021484375,0.6048083901405334,0.2938220202922821,-0.8991215229034424
1667824573371478000,7.34447802734375,0.5931677222251892,0.17073605954647064,-0.762791633605957
1667824573381486000,7.354486083984375,0.5617094039916992,0.10219933837652206,-0.6268758773803711
1667824573391494400,7.364494384765625,0.5017129182815552,0.11934982985258102,-0.5213020443916321
1667824573401501200,7.374501220703125,0.4071906805038452,0.21323531866073608,-0.446251779794693
1667824573411509200,7.38450927734375,0.27460652589797974,0.32317298650741577,-0.40110987424850464
1667824573421517000,7.39451708984375,0.11780039966106415,0.4042752981185913,-0.3683260977268219
1667824573431524400,7.4045244140625,-0.06077253818511963,0.4774267375469208,-0.3415685296058655
1667824573441532200,7.4145322265625,-0.270552396774292,0.5748430490493774,-0.3514277935028076
1667824573451540200,7.424540283203125,-0.4952417016029358,0.7294507622718811,-0.40531474351882935
1667824573461548000,7.434548095703125,-0.6933502554893494,0.9104884266853333,-0.49795547127723694
1667824573471555300,7.444555419921875,-0.8225969076156616,1.0641733407974243,-0.5874507427215576
1667824573481563100,7.454563232421875,-0.8586342930793762,1.1319897174835205,-0.6432260870933533
1667824573491571200,7.4645712890625,-0.7968854308128357,1.086852788925171,-0.6670962572097778
1667824573501578000,7.474577880859375,-0.6796088814735413,0.8968732953071594,-0.6489758491516113
1667824573511586300,7.48458642578125,-0.5469011664390564,0.6051626205444336,-0.5980956554412842
1667824573521594400,7.494594482421875,-0.41733092069625854,0.3232872486114502,-0.49923163652420044
1667824573531601200,7.50460107421875,-0.3057734966278076,0.10336074233055115,-0.3581658601760864
1667824573541609200,7.514609130859375,-0.24449042975902557,-0.06664960086345673,-0.16194309294223785
1667824573551617000,7.524616943359375,-0.24459749460220337,-0.1515170931816101,0.06462106853723526
1667824573561625300,7.534625244140625,-0.2755863070487976,-0.1350686103105545,0.27754852175712585
1667824573571632000,7.544632080078125,-0.3059476613998413,-0.05060485377907753,0.4563840627670288
1667824573581640200,7.55464013671875,-0.3199620246887207,0.057915762066841125,0.5944761633872986
1667824573591648000,7.56464794921875,-0.3089013695716858,0.15630678832530975,0.6860316395759583
1667824573601655300,7.5746552734375,-0.2743873596191406,0.2136201411485672,0.726997435092926
1667824573611663000,7.5846630859375,-0.2501373887062073,0.19040216505527496,0.7207757830619812
1667824573621671200,7.594671142578125,-0.21301986277103424,0.1151534840464592,0.6641244888305664
1667824573631679200,7.60467919921875,-0.1659197211265564,0.024211863055825233,0.5632598996162415
1667824573641686300,7.614686279296875,-0.10327871888875961,-0.0569053590297699,0.4411068260669708
1667824573651694300,7.6246943359375,-0.03371375426650047,-0.12855264544487,0.3121837377548218
1667824573661702100,7.6347021484375,0.043232426047325134,-0.18859201669692993,0.18083103001117706
1667824573671709200,7.644709228515625,0.10930012166500092,-0.25443121790885925,0.05022934824228287
1667824573681717200,7.65471728515625,0.15983226895332336,-0.3604916036128998,-0.0693146288394928
1667824573691725300,7.664725341796875,0.2083340287208557,-0.4784693717956543,-0.19786541163921356
1667824573701732000,7.674732177734375,0.2548903524875641,-0.6291339993476868,-0.3374667167663574
1667824573711740200,7.684740234375,0.2759261131286621,-0.7616243958473206,-0.47501498460769653
1667824573721748200,7.694748291015625,0.27550187706947327,-0.852077305316925,-0.5965059995651245
1667824573731755300,7.70475537109375,0.2697049677371979,-0.9637449979782104,-0.6934155225753784
1667824573741763000,7.71476318359375,0.2581428587436676,-1.0919034481048584,-0.755325198173523
1667824573751771100,7.724771240234375,0.21901197731494904,-1.1684808731079102,-0.8097554445266724
1667824573761779000,7.734779052734375,0.17265300452709198,-1.157528042793274,-0.8398952484130859
1667824573771786200,7.7447861328125,0.11496440321207047,-1.111140251159668,-0.8064150214195251
1667824573781794000,7.7547939453125,0.0614982470870018,-1.053595781326294,-0.7096133828163147
1667824573791802000,7.764802001953125,0.01113441027700901,-1.0127562284469604,-0.5760238766670227
1667824573801809200,7.77480908203125,-0.029340844601392746,-0.9512766003608704,-0.45584237575531006
1667824573811817200,7.784817138671875,-0.06680300086736679,-0.8470910787582397,-0.35724255442619324
1667824573821825300,7.7948251953125,-0.1153486967086792,-0.7214024066925049,-0.2694261372089386
1667824573831833000,7.8048330078125,-0.1762959361076355,-0.571668267250061,-0.165553018450737
1667824573841840400,7.81484033203125,-0.26004594564437866,-0.43708598613739014,-0.06697450578212738
1667824573851848200,7.82484814453125,-0.3445880115032196,-0.31481361389160156,0.0291762612760067
1667824573861856300,7.834856201171875,-0.4041392207145691,-0.21969933807849884,0.11757723242044449
1667824573871863000,7.844863037109375,-0.446848601102829,-0.1300344318151474,0.20171847939491272
1667824573881871000,7.85487109375,-0.4821048676967621,-0.07830891758203506,0.2814934551715851
1667824573891878700,7.864878662109375,-0.4972646236419678,-0.05615328252315521,0.34497949481010437
1667824573901886700,7.87488671875,-0.475912481546402,-0.022479476407170296,0.39185646176338196
1667824573911893500,7.8848935546875,-0.4056694805622101,0.0657356008887291,0.4320632517337799
1667824573921901800,7.89490185546875,-0.2977869510650635,0.1811295747756958,0.4674649238586426
1667824573931909600,7.90490966796875,-0.17530284821987152,0.26019829511642456,0.5022493004798889
1667824573941916700,7.914916748046875,-0.06536169350147247,0.2926449179649353,0.5417924523353577
1667824573951924500,7.924924560546875,0.009354885667562485,0.28180426359176636,0.5842599868774414
1667824573961932500,7.9349326171875,0.04481301084160805,0.24546009302139282,0.6325367093086243
1667824573971939600,7.944939697265625,0.03273317962884903,0.1651575267314911,0.6897568702697754
1667824573981947600,7.95494775390625,-0.0012945625931024551,0.06078026071190834,0.7532697916030884
1667824573991955500,7.96495556640625,-0.05486458167433739,-0.07092530280351639,0.8306862711906433
1667824574001963500,7.974963623046875,-0.11410659551620483,-0.1833067089319229,0.8976384401321411
1667824574011970600,7.984970458984375,-0.1526971310377121,-0.2184835970401764,0.9311817288398743
1667824574021978600,7.994978515625,-0.17324581742286682,-0.17028118669986725,0.9095869660377502
1667824574031986700,8.004986572265626,-0.18622659146785736,-0.07104194909334183,0.8292692303657532
1667824574041993700,8.01499365234375,-0.1816486269235611,0.04386093094944954,0.6934242844581604
1667824574052001800,8.025001708984375,-0.15589426457881927,0.18974623084068298,0.5183491706848145
1667824574062009600,8.035009521484374,-0.11511193960905075,0.3536188006401062,0.3154247999191284
1667824574072017700,8.045017578125,-0.05054786056280136,0.5370525121688843,0.0814511850476265
1667824574082024400,8.0550244140625,0.054858721792697906,0.7079217433929443,-0.19632689654827118
1667824574092032800,8.06503271484375,0.2053142786026001,0.8234017491340637,-0.4931173026561737
1667824574102040600,8.07504052734375,0.35941222310066223,0.8215617537498474,-0.781324028968811
1667824574112047600,8.085047607421876,0.4773591160774231,0.7194737195968628,-1.0377907752990723
1667824574122055400,8.095055419921875,0.5566251873970032,0.5300531983375549,-1.2716301679611206
1667824574132063700,8.105063720703125,0.6073277592658997,0.297823965549469,-1.4793378114700317
1667824574142070500,8.115070556640624,0.6316887736320496,0.06247695907950401,-1.6493263244628906
1667824574152078600,8.12507861328125,0.6216635704040527,-0.17748451232910156,-1.767143726348877
1667824574162086400,8.13508642578125,0.5757493376731873,-0.3985236883163452,-1.780212163925171
1667824574172094500,8.145094482421875,0.511656641960144,-0.5619304180145264,-1.715374231338501
1667824574182101500,8.1551015625,0.4463399350643158,-0.6468679904937744,-1.5941847562789917
1667824574192109600,8.165109619140624,0.38664358854293823,-0.6458844542503357,-1.4536858797073364
1667824574202117600,8.17511767578125,0.3439139723777771,-0.5752941966056824,-1.3041108846664429
1667824574212124700,8.185124755859375,0.32460978627204895,-0.4701904058456421,-1.15086829662323
1667824574222132700,8.1951328125,0.32565534114837646,-0.3578324317932129,-1.0291863679885864
1667824574232140500,8.205140625,0.31312862038612366,-0.2304297387599945,-0.9372556209564209
1667824574242148600,8.215148681640626,0.28296512365341187,-0.10906869918107986,-0.8385114669799805
1667824574252155600,8.22515576171875,0.24668940901756287,0.015486547723412514,-0.7295340895652771
1667824574262163700,8.235163818359375,0.20716489851474762,0.1428287923336029,-0.6063200235366821
1667824574272171500,8.245171630859375,0.15981203317642212,0.2356538027524948,-0.480205237865448
1667824574282178600,8.255178466796876,0.11041172593832016,0.2873385548591614,-0.3564068377017975
1667824574292186600,8.2651865234375,0.05658232048153877,0.3056880235671997,-0.2605716586112976
1667824574302194700,8.275194580078125,-0.008221444673836231,0.2702280282974243,-0.1979495733976364
1667824574312201500,8.285201416015624,-0.07599063962697983,0.2335195392370224,-0.1663341224193573
1667824574322209500,8.29520947265625,-0.1071096733212471,0.20066200196743011,-0.15738749504089355
1667824574332217600,8.305217529296876,-0.08007699251174927,0.14498569071292877,-0.166058748960495
1667824574342225700,8.3152255859375,-0.009925867430865765,0.08176171034574509,-0.2031525820493698
1667824574352232700,8.325232666015625,0.09836598485708237,0.02935868687927723,-0.2590504586696625
1667824574362240500,8.335240478515624,0.22441180050373077,-0.014445784501731396,-0.3099171221256256
1667824574372248600,8.34524853515625,0.30705875158309937,-0.035955604165792465,-0.33731651306152344
1667824574382255600,8.355255615234375,0.17961743474006653,-0.034159835427999496,-0.3325984477996826
1667824574392263700,8.365263671875,0.22442245483398438,-0.0009057410643436015,-0.26178473234176636
1667824574402271500,8.375271484375,0.26891347765922546,0.14054299890995026,-0.19786354899406433
1667824574412279600,8.385279541015626,0.2510974705219269,0.22642941772937775,-0.1298016756772995
1667824574422286600,8.39528662109375,0.21792301535606384,0.2908281087875366,-0.05917251110076904
1667824574432294700,8.405294677734375,0.1814747154712677,0.3403088450431824,0.005365470424294472
1667824574442302700,8.415302734375,0.17372038960456848,0.3638426661491394,0.04885062947869301
1667824574452309500,8.4253095703125,0.20113497972488403,0.3751259446144104,0.04042119160294533
1667824574462317800,8.43531787109375,0.26049602031707764,0.38234472274780273,-0.006128998938947916
1667824574472325600,8.44532568359375,0.3582178056240082,0.3726140558719635,-0.08371513336896896
1667824574482332700,8.455332763671874,0.48325374722480774,0.3725179135799408,-0.192974254488945
1667824574492340500,8.465340576171876,0.6155372262001038,0.36900946497917175,-0.3113195300102234
1667824574502348500,8.4753486328125,0.7422578930854797,0.35413146018981934,-0.43843621015548706
1667824574512356600,8.485356689453125,0.8439051508903503,0.3300657868385315,-0.5686189532279968
1667824574522363600,8.49536376953125,0.9124916791915894,0.2614648938179016,-0.6575214266777039
1667824574532371500,8.505371337890624,0.9422972202301025,0.1293981969356537,-0.6647175550460815
1667824574542379500,8.515379638671876,0.9384963512420654,-0.03401362523436546,-0.5869950652122498
1667824574552386600,8.525386474609375,0.897280752658844,-0.20831219851970673,-0.4325929582118988
1667824574562394600,8.53539453125,0.8068291544914246,-0.3702499568462372,-0.23341940343379974
1667824574572402700,8.545402587890624,0.6870883703231812,-0.5125762224197388,-0.036067456007003784
1667824574582410500,8.555410400390626,0.550747811794281,-0.6400883793830872,0.12764637172222137
1667824574592417800,8.565417724609375,0.41160058975219727,-0.7226570248603821,0.2432912141084671
1667824574602425600,8.575425537109375,0.2721806466579437,-0.7532101273536682,0.31745997071266174
1667824574612433700,8.58543359375,0.13573358952999115,-0.7366313934326172,0.34807702898979187
1667824574622440700,8.595440673828126,0.014724085107445717,-0.6516755223274231,0.3619092106819153
1667824574632448800,8.60544873046875,-0.09165535122156143,-0.5306396484375,0.36355024576187134
1667824574642456600,8.61545654296875,-0.18606041371822357,-0.43010690808296204,0.3637121617794037
1667824574652464600,8.625464599609375,-0.27333512902259827,-0.33988165855407715,0.3550851345062256
1667824574662471400,8.635471435546876,-0.36220216751098633,-0.261959969997406,0.35054683685302734
1667824574672479700,8.645479736328125,-0.47875645756721497,-0.16292020678520203,0.3405671715736389
1667824574682487600,8.655487548828125,-0.6235522627830505,0.026856115087866783,0.30684250593185425
1667824574692494600,8.66549462890625,-0.7861877679824829,0.2650391161441803,0.24027198553085327
1667824574702502400,8.67550244140625,-0.9436610341072083,0.46977123618125916,0.16908755898475647
1667824574712510500,8.685510498046876,-1.0647644996643066,0.5785565376281738,0.10409524291753769
1667824574722517500,8.695517578125,-1.1116702556610107,0.6012243032455444,0.06233181804418564
1667824574732525600,8.705525634765625,-1.0713087320327759,0.5059875249862671,0.06780727952718735
1667824574742533600,8.71553369140625,-0.9614953994750977,0.31684479117393494,0.12651373445987701
1667824574752541400,8.72554150390625,-0.816211998462677,0.07868149876594543,0.22276143729686737
1667824574762548700,8.735548828125,-0.6746870875358582,-0.18850785493850708,0.3433975875377655
1667824574772556500,8.745556640625,-0.558813750743866,-0.4357576072216034,0.47959721088409424
1667824574782564600,8.755564697265624,-0.4911460280418396,-0.6169545650482178,0.6087605357170105
1667824574792571600,8.765571533203126,-0.47127991914749146,-0.7000110745429993,0.7257430553436279
1667824574802579700,8.775579833984375,-0.47425705194473267,-0.6774818301200867,0.8053271174430847
1667824574812587500,8.78558740234375,-0.4788808226585388,-0.5776777267456055,0.8335872292518616
1667824574822594600,8.795594482421874,-0.4701525866985321,-0.441240519285202,0.8123677372932434
1667824574832602600,8.8056025390625,-0.45728766918182373,-0.26385533809661865,0.736334502696991
1667824574842610700,8.815610595703125,-0.42617207765579224,-0.07560235261917114,0.6128908395767212
1667824574852618800,8.82561865234375,-0.3903765380382538,0.04421193525195122,0.4628709852695465
1667824574862625500,8.83562548828125,-0.34947970509529114,0.06472040712833405,0.2954617440700531
1667824574872633600,8.845633544921874,-0.31302183866500854,-0.0132124749943614,0.12170646339654922
1667824574882641700,8.8556416015625,-0.27266427874565125,-0.17518167197704315,-0.026264626532793045
1667824574892649200,8.865649169921875,-0.22813063859939575,-0.37175998091697693,-0.1233842521905899
1667824574902657000,8.875656982421875,-0.17978228628635406,-0.5459674596786499,-0.16001710295677185
1667824574912665000,8.8856650390625,-0.15016579627990723,-0.675675094127655,-0.1380942165851593
1667824574922673000,8.8956728515625,-0.14903156459331512,-0.7402346730232239,-0.07266807556152344
1667824574932680200,8.90568017578125,-0.16929635405540466,-0.7392221689224243,0.0003195793251506984
1667824574942688000,8.91568798828125,-0.2001996785402298,-0.6996438503265381,0.058394867926836014
1667824574952696000,8.925696044921875,-0.23728792369365692,-0.6279512643814087,0.08317051827907562
1667824574962703000,8.935703125,-0.276191383600235,-0.5531619787216187,0.07726708799600601
1667824574972711200,8.945711181640625,-0.3130607008934021,-0.48525163531303406,0.05664090812206268
1667824574982719000,8.955718994140625,-0.3499886393547058,-0.4074500501155853,0.026990871876478195
1667824574992726000,8.96572607421875,-0.3946080207824707,-0.3342706561088562,0.0020125508308410645
1667824575002733800,8.97573388671875,-0.44036567211151123,-0.3082640767097473,-0.019030949100852013
1667824575012742100,8.9857421875,-0.48793426156044006,-0.3288455307483673,-0.038611575961112976
1667824575022750200,8.995750244140625,-0.5431151986122131,-0.3828461766242981,-0.0238824300467968
1667824575032757000,9.005757080078125,-0.6184927821159363,-0.45690682530403137,0.04541861265897751
1667824575042765000,9.01576513671875,-0.7026185989379883,-0.5301206111907959,0.1777004897594452
1667824575052773000,9.025773193359376,-0.7917056083679199,-0.5486367344856262,0.34739792346954346
1667824575062780200,9.0357802734375,-0.8671222925186157,-0.46497246623039246,0.5365438461303711
1667824575072788000,9.0457880859375,-0.9140943288803101,-0.28840169310569763,0.718342661857605
1667824575082796000,9.055796142578124,-0.9235714673995972,-0.10743244737386703,0.8803400993347168
1667824575092803800,9.065803955078126,-0.8912084698677063,0.03110012784600258,0.9933732151985168
1667824575102811100,9.07581103515625,-0.8179348111152649,0.14066657423973083,1.038116216659546
1667824575112819000,9.08581884765625,-0.7113097906112671,0.2399417608976364,1.0197597742080688
1667824575122827000,9.095826904296874,-0.5680975317955017,0.27890700101852417,0.9640150666236877
1667824575132834000,9.105833984375,-0.4056614935398102,0.24002085626125336,0.8917182087898254
1667824575142842000,9.115842041015625,-0.24664519727230072,0.1216377541422844,0.8074451088905334
1667824575152850200,9.12585009765625,-0.14387089014053345,-0.041017208248376846,0.7492984533309937
1667824575162857000,9.13585693359375,-0.10836402326822281,-0.2013714611530304,0.7158369421958923
1667824575172865300,9.145865234375,-0.11965662240982056,-0.32427236437797546,0.7148385047912598
1667824575182873000,9.155873046875,-0.14920014142990112,-0.37494006752967834,0.7352609634399414
1667824575192881200,9.165881103515625,-0.17615345120429993,-0.3533271849155426,0.7746430039405823
1667824575202888000,9.175887939453125,-0.19688856601715088,-0.26098790764808655,0.8199800848960876
1667824575212896000,9.18589599609375,-0.20812204480171204,-0.10261958837509155,0.8592683672904968
1667824575222904000,9.195904052734376,-0.20383381843566895,0.09518031030893326,0.8595328330993652
1667824575232911000,9.2059111328125,-0.16967904567718506,0.29479196667671204,0.8029374480247498
1667824575242919000,9.2159189453125,-0.10255619883537292,0.4828944802284241,0.6846760511398315
1667824575252927000,9.225927001953124,0.006179066374897957,0.6468056440353394,0.5051065683364868
1667824575262935000,9.23593505859375,0.14311428368091583,0.7530801892280579,0.28105616569519043
1667824575272942000,9.245942138671875,0.3095530569553375,0.7900325655937195,0.023899473249912262
1667824575282950100,9.2559501953125,0.48391368985176086,0.7701414227485657,-0.2628646492958069
1667824575292958000,9.2659580078125,0.6426777839660645,0.680220365524292,-0.5527278780937195
1667824575302965200,9.27596533203125,0.7620611190795898,0.5379832983016968,-0.8105549216270447
1667824575312973000,9.28597314453125,0.839225709438324,0.3856576681137085,-1.0399811267852783
1667824575322981000,9.295981201171875,0.8774756193161011,0.22481925785541534,-1.230589747428894
1667824575332988000,9.30598779296875,0.8780806660652161,0.07625988125801086,-1.3546013832092285
1667824575342996200,9.315996337890626,0.8558110594749451,-0.04639120027422905,-1.400822401046753
1667824575353004000,9.326004150390625,0.8152607083320618,-0.15063850581645966,-1.3637137413024902
1667824575363012000,9.33601220703125,0.7588269710540771,-0.22388848662376404,-1.2593646049499512
1667824575373019000,9.346018798828124,0.7067326307296753,-0.2696881890296936,-1.1064976453781128
1667824575383027200,9.356027099609374,0.6535676717758179,-0.2694013714790344,-0.9380841255187988
1667824575393035300,9.36603515625,0.6052709817886353,-0.2179030328989029,-0.7732317447662354
1667824575403042000,9.3760419921875,0.5692826509475708,-0.13768009841442108,-0.6284016370773315
1667824575413050000,9.386050048828125,0.5420573949813843,-0.034209903329610825,-0.5247069001197815
1667824575423058000,9.396057861328124,0.5240650773048401,0.07067257165908813,-0.4637780487537384
1667824575433066200,9.406066162109376,0.5120187997817993,0.17340481281280518,-0.46001020073890686
1667824575443073000,9.416072998046875,0.493735134601593,0.2617565095424652,-0.49624010920524597
1667824575453081000,9.4260810546875,0.4680124819278717,0.3220813572406769,-0.5674874186515808
1667824575463089000,9.4360888671875,0.4336334764957428,0.33713436126708984,-0.6475188732147217
1667824575473096200,9.44609619140625,0.38477057218551636,0.3209702968597412,-0.7256024479866028
1667824575483104000,9.45610400390625,0.33228978514671326,0.2927463948726654,-0.7829973101615906
1667824575493112000,9.466112060546875,0.2821906805038452,0.26876968145370483,-0.809931218624115
1667824575503119000,9.476119140625,0.24531415104866028,0.24548299610614777,-0.8108489513397217
1667824575513127200,9.486127197265626,0.21634002029895782,0.1950555145740509,-0.7963640093803406
1667824575523135000,9.496135009765625,0.20342876017093658,0.13451732695102692,-0.7738680243492126
1667824575533143000,9.50614306640625,0.2043541967868805,0.10597597062587738,-0.7610970735549927
1667824575543149800,9.51614990234375,0.21910278499126434,0.09352781623601913,-0.751808226108551
1667824575553158100,9.526158203125,0.23921364545822144,0.10373704880475998,-0.7346614599227905
1667824575563166200,9.536166259765626,0.26655152440071106,0.135071262717247,-0.7097457647323608
1667824575573173000,9.546173095703125,0.29441753029823303,0.16462436318397522,-0.6564790606498718
1667824575583181000,9.55618115234375,0.32012712955474854,0.19897940754890442,-0.5604345798492432
1667824575593189000,9.566189208984374,0.3442774713039398,0.26292216777801514,-0.435412734746933
1667824575603197200,9.576197265625,0.38276949524879456,0.3331148326396942,-0.30275267362594604
1667824575613204000,9.586203857421875,0.4509141743183136,0.38103362917900085,-0.1851610690355301
1667824575623212000,9.5962119140625,0.5385425686836243,0.41407468914985657,-0.10674428939819336
1667824575633219800,9.6062197265625,0.6367682218551636,0.4311290383338928,-0.07225795090198517
1667824575643227100,9.61622705078125,0.721626341342926,0.406913697719574,-0.07548996061086655
1667824575653235000,9.62623486328125,0.7734214067459106,0.33602941036224365,-0.12007980048656464
1667824575663243000,9.636242919921875,0.7874237298965454,0.2328132688999176,-0.19289861619472504
1667824575673250000,9.64625,0.795669674873352,0.10689608752727509,-0.2681017518043518
1667824575683258000,9.656258056640626,0.7975205779075623,-0.040946368128061295,-0.3172607719898224
1667824575693266200,9.66626611328125,0.7957133650779724,-0.19815969467163086,-0.33258089423179626
1667824575703274000,9.67627392578125,0.7880820631980896,-0.3380446135997772,-0.30914506316185
1667824575713281300,9.68628125,0.7768288850784302,-0.41775596141815186,-0.26199379563331604
1667824575723289000,9.6962890625,0.7665930390357971,-0.44777217507362366,-0.1941918432712555
1667824575733297200,9.706297119140626,0.7578977942466736,-0.4409201443195343,-0.11742116510868073
1667824575743304000,9.716303955078125,0.7433971762657166,-0.43344491720199585,-0.035887692123651505
1667824575753312000,9.72631201171875,0.7166129946708679,-0.4210478961467743,0.05752081796526909
1667824575763320000,9.736320068359374,0.6779358983039856,-0.4068093001842499,0.16170793771743774
1667824575773327000,9.7463271484375,0.6350566148757935,-0.4156874716281891,0.27314871549606323
1667824575783335000,9.7563349609375,0.5834817886352539,-0.4528487026691437,0.38090020418167114
1667824575793343000,9.766343017578125,0.5132313370704651,-0.5217963457107544,0.47877803444862366
1667824575803351000,9.77635107421875,0.4190846085548401,-0.581379771232605,0.5598047375679016
1667824575813358000,9.786358154296876,0.3074212074279785,-0.6130287647247314,0.6189165115356445
1667824575823366100,9.7963662109375,0.1806880235671997,-0.6210811138153076,0.6429752111434937
1667824575833374000,9.8063740234375,0.0600590743124485,-0.5863425731658936,0.6236569285392761
1667824575843381200,9.81638134765625,-0.06295233219861984,-0.5095303654670715,0.5774306058883667
1667824575853389000,9.82638916015625,-0.1736849695444107,-0.3803228437900543,0.520333468914032
1667824575863397000,9.836397216796875,-0.2815698981285095,-0.21898241341114044,0.4477194547653198
1667824575873405000,9.846405029296875,-0.3771646022796631,-0.0511460080742836,0.36133262515068054
1667824575883412200,9.856412109375,-0.4731278717517853,0.12338611483573914,0.2731071710586548
1667824575893419800,9.866419677734376,-0.5703620314598083,0.2604547441005707,0.1686265617609024
1667824575903427600,9.876427490234375,-0.6433467268943787,0.33937060832977295,0.058270495384931564
1667824575913434600,9.8864345703125,-0.6873930096626282,0.338876336812973,-0.039322905242443085
1667824575923442700,9.896442626953124,-0.6908194422721863,0.2684208154678345,-0.12060417979955673
1667824575933450800,9.90645068359375,-0.6538827419281006,0.14337927103042603,-0.1662885695695877
1667824575943458800,9.916458740234376,-0.6050915122032166,-0.01697525568306446,-0.16685982048511505
1667824575953465600,9.926465576171875,-0.5667001605033875,-0.18897098302841187,-0.10585851967334747
1667824575963474000,9.936473876953125,-0.5616481304168701,-0.338430792093277,-0.01305321790277958
1667824575973481700,9.946481689453124,-0.5879114270210266,-0.44667816162109375,0.08885876834392548
1667824575983488800,9.95648876953125,-0.643619954586029,-0.4804355800151825,0.19007593393325806
1667824575993496600,9.96649658203125,-0.7156784534454346,-0.46215325593948364,0.2828274369239807
1667824576003504600,9.976504638671875,-0.779826819896698,-0.3891802430152893,0.3694416880607605
1667824576013511700,9.98651171875,-0.8235572576522827,-0.2743716239929199,0.4435169994831085
1667824576023519700,9.996519775390626,-0.8418132066726685,-0.12814384698867798,0.5069052577018738
1667824576033527600,10.006527587890625,-0.8291597366333008,0.024568991735577583,0.5339563488960266
1667824576043535600,10.01653564453125,-0.7942667603492737,0.134041428565979,0.5307102203369141
1667824576053542700,10.026542724609374,-0.7422839999198914,0.1948927938938141,0.4741731584072113
1667824576063550700,10.03655078125,-0.6876862645149231,0.22020187973976135,0.36880066990852356
1667824576073558500,10.04655859375,-0.615594208240509,0.22266609966754913,0.24746865034103394
1667824576083565800,10.05656591796875,-0.541541576385498,0.2136547565460205,0.1314522922039032
1667824576093573600,10.06657373046875,-0.47153183817863464,0.20342662930488586,0.03943076357245445
1667824576103581700,10.076581787109374,-0.40930840373039246,0.20335417985916138,-0.026581009849905968
1667824576113589800,10.08658984375,-0.3599485754966736,0.21220360696315765,-0.07423961162567139
1667824576123596500,10.096596435546875,-0.3294316828250885,0.2107844054698944,-0.09111100435256958
1667824576133604900,10.10660498046875,-0.3145398199558258,0.1806371510028839,-0.06824962794780731
1667824576143612700,10.11661279296875,-0.3110135495662689,0.12513475120067596,-0.016630908474326134
1667824576153619700,10.12661962890625,-0.29997286200523376,0.05463847890496254,0.04580157622694969
1667824576163627500,10.13662744140625,-0.28214752674102783,-0.03334837034344673,0.08235745877027512
1667824576173635800,10.1466357421875,-0.25862303376197815,-0.12183269113302231,0.06815695017576218
1667824576183642600,10.156642578125,-0.2326343059539795,-0.2076312154531479,-0.0054754591546952724
1667824576193650700,10.166650634765626,-0.21067601442337036,-0.27133962512016296,-0.12188436090946198
1667824576203658500,10.176658447265625,-0.2072647660970688,-0.3391932547092438,-0.25646135210990906
1667824576213666600,10.18666650390625,-0.21955019235610962,-0.39382001757621765,-0.38519802689552307
1667824576223673600,10.196673583984374,-0.2513749599456787,-0.3929576575756073,-0.49385926127433777
1667824576233681700,10.206681640625,-0.3071892261505127,-0.35116973519325256,-0.5674152374267578
1667824576243689700,10.216689697265625,-0.3733738362789154,-0.3003014922142029,-0.5999041795730591
1667824576253696800,10.22669677734375,-0.4529874622821808,-0.26458024978637695,-0.5874717831611633
1667824576263704800,10.236704833984374,-0.533935010433197,-0.26204946637153625,-0.5351065397262573
1667824576273712600,10.246712646484376,-0.6163803935050964,-0.30319103598594666,-0.4210880994796753
1667824576283720700,10.256720703125,-0.7149428725242615,-0.33923691511154175,-0.2688271999359131
1667824576293727700,10.266727783203125,-0.8187574744224548,-0.333421915769577,-0.09849035739898682
1667824576303735800,10.27673583984375,-0.9243331551551819,-0.28040608763694763,0.08307624608278275
1667824576313743600,10.28674365234375,-1.01413094997406,-0.19670666754245758,0.2641589343547821
1667824576323750700,10.296750732421875,-1.0677909851074219,-0.10202383995056152,0.4437183141708374
1667824576333758700,10.3067587890625,-1.0823405981063843,0.01375149842351675,0.6235322952270508
1667824576343766800,10.316766845703125,-1.0549933910369873,0.12309583276510239,0.7886719703674316
1667824576353773600,10.326773681640624,-0.9728497862815857,0.1872364729642868,0.9185852408409119
1667824576363781600,10.33678173828125,-0.8609153032302856,0.1967221200466156,0.9968683123588562
1667824576373789700,10.346789794921875,-0.7345128655433655,0.16588324308395386,1.0367469787597656
1667824576383797800,10.3567978515625,-0.6085517406463623,0.11502032727003098,1.0642998218536377
1667824576393804800,10.3668046875,-0.4942110478878021,0.04982747882604599,1.1077709197998047
1667824576403812600,10.3768125,-0.40518316626548767,-0.003667971817776561,1.170897126197815
1667824576413820700,10.386820556640625,-0.3544164001941681,-0.01673903316259384,1.2240599393844604
1667824576423827700,10.39682763671875,-0.34003373980522156,0.029563484713435173,1.2432719469070435
1667824576433835800,10.406835693359374,-0.3311350643634796,0.12482582032680511,1.2219312191009521
1667824576443843600,10.416843505859376,-0.31228840351104736,0.2410309910774231,1.1638565063476562
1667824576453851600,10.4268515625,-0.2759506106376648,0.3241746127605438,1.0858469009399414
1667824576463858700,10.436858642578125,-0.22403362393379211,0.3914628326892853,1.0010020732879639
1667824576473866800,10.44686669921875,-0.15019641816616058,0.44042691588401794,0.8920369744300842
1667824576483874800,10.456874755859374,-0.056603092700242996,0.44265463948249817,0.7838484644889832
1667824576493881600,10.466881591796875,0.04174158722162247,0.4261893928050995,0.6740428805351257
1667824576503890000,10.476889892578125,0.13435141742229462,0.3925323784351349,0.5736270546913147
1667824576513897700,10.486897705078125,0.21926923096179962,0.3239210844039917,0.49077504873275757
1667824576523905800,10.49690576171875,0.30259501934051514,0.24489283561706543,0.4080229103565216
1667824576533912600,10.50691259765625,0.37274932861328125,0.16064853966236115,0.3203657567501068
1667824576543920600,10.516920654296875,0.434746652841568,0.09405752271413803,0.23623517155647278
1667824576553928700,10.5269287109375,0.48818084597587585,0.04773157089948654,0.15850256383419037
1667824576563935700,10.536935791015624,0.5372570753097534,0.017114005982875824,0.09729991853237152
1667824576573943600,10.546943603515626,0.5805443525314331,-0.017649034038186073,0.033915624022483826
1667824576583951600,10.55695166015625,0.6195380687713623,-0.05970780551433563,-0.04122946038842201
1667824576593958700,10.566958740234375,0.6616357564926147,-0.10166644304990768,-0.12092162668704987
1667824576603966700,10.576966796875,0.7005780935287476,-0.1417185217142105,-0.19140298664569855
1667824576613974500,10.586974609375,0.7332596182823181,-0.1725187748670578,-0.2507163882255554
1667824576623982600,10.596982666015625,0.7540748715400696,-0.18116553127765656,-0.29562631249427795
1667824576633989600,10.60698974609375,0.7590839862823486,-0.14007188379764557,-0.34231898188591003
1667824576643997700,10.616997802734375,0.7443497776985168,-0.05609789118170738,-0.39492762088775635
1667824576654005800,10.627005859375,0.7114147543907166,0.04272562637925148,-0.4622693657875061
1667824576664012500,10.637012451171875,0.6627712845802307,0.14180614054203033,-0.5344306230545044
1667824576674020900,10.647020751953125,0.6137827038764954,0.2240522801876068,-0.6252223253250122
1667824576684028700,10.657028564453125,0.5813443660736084,0.2849678099155426,-0.7232663631439209
1667824576694036700,10.66703662109375,0.579138994216919,0.329731285572052,-0.8361289501190186
1667824576704043500,10.67704345703125,0.6030858755111694,0.36019864678382874,-0.9585946798324585
1667824576714051800,10.6870517578125,0.6502893567085266,0.37203001976013184,-1.0688633918762207
1667824576724059600,10.6970595703125,0.6937925815582275,0.37605220079421997,-1.1509257555007935
1667824576734066700,10.707066650390624,0.7027403116226196,0.3610450029373169,-1.1968402862548828
1667824576744074500,10.717074462890626,0.6812435388565063,0.33950936794281006,-1.198030948638916
1667824576754082600,10.72708251953125,0.6344088912010193,0.319231778383255,-1.1756236553192139
1667824576764091000,10.7370908203125,0.5933970212936401,0.27486857771873474,-1.1372400522232056
1667824576774097700,10.74709765625,0.5506985783576965,0.22927606105804443,-1.078706979751587
1667824576784105700,10.757105712890626,0.5121042728424072,0.18320044875144958,-0.9977319836616516
1667824576794113500,10.767113525390625,0.4779950678348541,0.10463453084230423,-0.894961953163147
1667824576804120800,10.777120849609375,0.44876447319984436,0.03470950946211815,-0.7834372520446777
1667824576814128600,10.787128662109374,0.41045835614204407,0.012518721632659435,-0.6642048954963684
1667824576824136700,10.79713671875,0.368765264749527,0.06454437226057053,-0.5402315258979797
1667824576834144500,10.80714453125,0.32422149181365967,0.14591379463672638,-0.423647940158844
1667824576844151800,10.81715185546875,0.28673163056373596,0.24036546051502228,-0.3273927867412567
1667824576854159600,10.82715966796875,0.2513430118560791,0.3034517467021942,-0.2559281885623932
1667824576864167700,10.837167724609374,0.22720065712928772,0.34061136841773987,-0.20549564063549042
1667824576874174700,10.8471748046875,0.2051323801279068,0.3664829134941101,-0.18029627203941345
1667824576884182800,10.857182861328125,0.1910242885351181,0.38240835070610046,-0.1963426172733307
1667824576894190600,10.867190673828125,0.1897187978029251,0.39375635981559753,-0.25214970111846924
1667824576904197600,10.87719775390625,0.21138282120227814,0.35308322310447693,-0.33109617233276367
1667824576914205400,10.887205322265626,0.2509584426879883,0.2453618198633194,-0.3967539966106415
1667824576924213800,10.8972138671875,0.2946380376815796,0.08930590748786926,-0.40237727761268616
1667824576934221600,10.9072216796875,0.3344288468360901,-0.06609752774238586,-0.33302801847457886
1667824576944228600,10.917228515625,0.3664030134677887,-0.18785645067691803,-0.17401866614818573
1667824576954236400,10.927236328125,0.37469664216041565,-0.2898818850517273,0.03904566913843155
1667824576964244500,10.937244384765625,0.32883620262145996,-0.4155319631099701,0.26776885986328125
1667824576974251500,10.94725146484375,0.2200937569141388,-0.5604166984558105,0.4751172661781311
1667824576984259600,10.957259521484374,0.07688945531845093,-0.7057523131370544,0.6385501027107239
1667824576994267600,10.967267578125,-0.07784286886453629,-0.7842506170272827,0.7317826151847839
1667824577004275500,10.977275390625,-0.2172343134880066,-0.78999263048172,0.7698284983634949
1667824577014282800,10.98728271484375,-0.3359313905239105,-0.7217198610305786,0.780199408531189
1667824577024290600,10.99729052734375,-0.42835694551467896,-0.5856949090957642,0.7727071046829224
1667824577034298600,11.007298583984374,-0.5133551955223083,-0.4084703326225281,0.7365102171897888
1667824577044305700,11.0173056640625,-0.5747588872909546,-0.23818619549274445,0.6672883033752441
1667824577054313700,11.027313720703125,-0.6201192140579224,-0.07258978486061096,0.5661014914512634
1667824577064321500,11.037321533203125,-0.6363330483436584,0.1149124726653099,0.42077866196632385
1667824577074329600,11.04732958984375,-0.6128074526786804,0.28152593970298767,0.2389071136713028
1667824577084336600,11.057336669921876,-0.548267126083374,0.39093634486198425,0.04313415288925171
1667824577094344700,11.0673447265625,-0.4487200081348419,0.423610657453537,-0.147494375705719
1667824577104352800,11.077352783203125,-0.3157432973384857,0.325472891330719,-0.31023162603378296
1667824577114359600,11.087359619140624,-0.18430300056934357,0.11129163950681686,-0.427309513092041
1667824577124367600,11.09736767578125,-0.08714316040277481,-0.17272010445594788,-0.48017460107803345
1667824577134375700,11.107375732421875,-0.0477835014462471,-0.4599228501319885,-0.47547730803489685
1667824577144383700,11.1173837890625,-0.051975317299366,-0.7096632122993469,-0.404705673456192
1667824577154390500,11.127390625,-0.08696898818016052,-0.8984072804450989,-0.2677353024482727
1667824577164398600,11.137398681640626,-0.13571281731128693,-1.0133929252624512,-0.0829438865184784
1667824577174406700,11.14740673828125,-0.19175985455513,-1.0620465278625488,0.1324336677789688
1667824577184414700,11.157414794921875,-0.24512161314487457,-1.05284583568573,0.36596760153770447
1667824577194421500,11.16742138671875,-0.30384910106658936,-1.0033941268920898,0.5908928513526917
1667824577204429600,11.1774296875,-0.3462410271167755,-0.9313777089118958,0.7866780757904053
1667824577214437400,11.187437255859376,-0.37054744362831116,-0.8393245339393616,0.9322957396507263
1667824577224444700,11.197444580078125,-0.3638637065887451,-0.748524010181427,1.0198980569839478
1667824577234452500,11.207452392578125,-0.33784860372543335,-0.6313113570213318,1.0400924682617188
1667824577244460500,11.21746044921875,-0.29675737023353577,-0.49896878004074097,0.9849594831466675
1667824577254468600,11.227468505859376,-0.2594022750854492,-0.366678386926651,0.8685290217399597
1667824577264475600,11.2374755859375,-0.2472420185804367,-0.2562597393989563,0.6948714256286621
1667824577274483700,11.247483642578125,-0.25591087341308594,-0.1839754283428192,0.47754207253456116
1667824577284491500,11.257491455078124,-0.2924332022666931,-0.16022588312625885,0.25120478868484497
1667824577294498600,11.26749853515625,-0.3413517475128174,-0.15105263888835907,0.030462834984064102
1667824577304506600,11.277506591796875,-0.38496658205986023,-0.15418557822704315,-0.16762788593769073
1667824577314514700,11.2875146484375,-0.4188041687011719,-0.18930014967918396,-0.30994346737861633
1667824577324522500,11.2975224609375,-0.4427332282066345,-0.23345883190631866,-0.38928118348121643
1667824577334529500,11.307529541015626,-0.45870551466941833,-0.28220638632774353,-0.40842050313949585
1667824577344537600,11.31753759765625,-0.44661930203437805,-0.3111051619052887,-0.3877312242984772
1667824577354545700,11.327545654296875,-0.40946847200393677,-0.28044605255126953,-0.3562944531440735
1667824577364552400,11.337552490234375,-0.34060657024383545,-0.22753222286701202,-0.3399764895439148
1667824577374560500,11.347560546875,-0.27999943494796753,-0.18968631327152252,-0.3392808735370636
1667824577384568600,11.357568603515626,-0.2517227828502655,-0.17304527759552002,-0.3473518490791321
1667824577394576600,11.36757666015625,-0.26358264684677124,-0.17238028347492218,-0.3541935086250305
1667824577404583700,11.377583740234375,-0.31043189764022827,-0.16355137526988983,-0.3643617033958435
1667824577414591500,11.387591552734374,-0.3933422267436981,-0.1429252028465271,-0.3657745122909546
1667824577424599600,11.397599609375,-0.5057774186134338,-0.11804461479187012,-0.36246341466903687
1667824577434606600,11.407606689453125,-0.6387285590171814,-0.10568568110466003,-0.3360472619533539
1667824577444614700,11.41761474609375,-0.7672846913337708,-0.09592998772859573,-0.277426540851593
1667824577454622500,11.42762255859375,-0.8839276432991028,-0.08838658779859543,-0.17730075120925903
1667824577464630500,11.437630615234376,-0.9764256477355957,-0.06775640696287155,-0.02943219058215618
1667824577474637600,11.447637451171875,-1.0351512432098389,-0.00624191714450717,0.133819580078125
1667824577484645600,11.457645751953125,-1.0497722625732422,0.08055556565523148,0.30075183510780334
1667824577494653700,11.46765380859375,-1.010628581047058,0.1549815982580185,0.46016785502433777
1667824577504660500,11.477660400390626,-0.9343048334121704,0.1989048421382904,0.57771897315979
1667824577514668800,11.487668701171875,-0.8411580920219421,0.20629511773586273,0.6364350318908691
1667824577524676600,11.497676513671875,-0.7495046257972717,0.17214247584342957,0.6351636648178101
1667824577534684700,11.5076845703125,-0.6762876510620117,0.11989417672157288,0.5868592262268066
1667824577544691500,11.51769140625,-0.6223791241645813,0.05775038152933121,0.5449687838554382
1667824577554699800,11.52769970703125,-0.5945589542388916,-0.0003374225052539259,0.5355100035667419
1667824577564707600,11.53770751953125,-0.5822541117668152,-0.01432061567902565,0.5847641229629517
1667824577574714600,11.547714599609375,-0.5767703652381897,0.015985092148184776,0.6813125014305115
1667824577584722400,11.557722412109374,-0.5627552270889282,0.08271778374910355,0.8039473295211792
1667824577594730500,11.56773046875,-0.5349978804588318,0.1800565868616104,0.930915117263794
1667824577604738800,11.57773876953125,-0.5007989406585693,0.2895585894584656,1.045954942703247
1667824577614745600,11.58774560546875,-0.46221503615379333,0.39439764618873596,1.1309614181518555
1667824577624753700,11.597753662109374,-0.4346883296966553,0.4867784380912781,1.1775087118148804
1667824577634761500,11.607761474609376,-0.41828832030296326,0.5604619979858398,1.1709381341934204
1667824577644769800,11.617769775390625,-0.3977705240249634,0.605510950088501,1.0937823057174683
1667824577654776600,11.627776611328125,-0.36317554116249084,0.6196606159210205,0.928957998752594
1667824577664784600,11.63778466796875,-0.32344570755958557,0.616864800453186,0.6864910125732422
1667824577674792400,11.64779248046875,-0.28032219409942627,0.5711020827293396,0.37922269105911255
1667824577684799700,11.6577998046875,-0.23525139689445496,0.544990062713623,0.03581951558589935
1667824577694807600,11.6678076171875,-0.17324475944042206,0.503972589969635,-0.31481093168258667
1667824577704815600,11.677815673828125,-0.08461102098226547,0.41754478216171265,-0.6303989887237549
1667824577714823400,11.687823486328124,0.008932508528232574,0.30768537521362305,-0.8801355957984924
1667824577724830700,11.697830810546876,0.0869908258318901,0.20490574836730957,-1.040352463722229
1667824577734838500,11.707838623046875,0.14118801057338715,0.12124307453632355,-1.1032121181488037
1667824577744846600,11.7178466796875,0.17335766553878784,0.05944228917360306,-1.0777263641357422
1667824577754853400,11.727853271484374,0.1989479809999466,0.0032977922819554806,-0.9764938354492188
1667824577764861700,11.73786181640625,0.213074192404747,-0.026974625885486603,-0.8129757046699524
1667824577774869800,11.747869873046875,0.21203449368476868,-0.022363629192113876,-0.6173326969146729
1667824577784877600,11.757877685546875,0.2007695883512497,-0.00854608416557312,-0.4211522936820984
1667824577794884600,11.767884521484374,0.1864023655653,-0.02472958154976368,-0.2493528425693512
1667824577804892400,11.777892333984376,0.16908623278141022,-0.06418883800506592,-0.11794234812259674
1667824577814900700,11.787900634765625,0.14772234857082367,-0.1165923923254013,-0.02677888423204422
1667824577824907500,11.797907470703125,0.10263875871896744,-0.144987553358078,0.016273245215415955
1667824577834915600,11.80791552734375,0.03538169339299202,-0.11357343196868896,0.00732422573491931
1667824577844923400,11.81792333984375,-0.05257319658994675,-0.05402515083551407,-0.05456870421767235
1667824577854931700,11.827931640625,-0.14051289856433868,0.0029047098942101,-0.14528289437294006
1667824577864938500,11.8379384765625,-0.21112076938152313,0.07473894953727722,-0.22439156472682953
1667824577874946600,11.847946533203125,-0.26088032126426697,0.16297374665737152,-0.28024256229400635
1667824577884954600,11.85795458984375,-0.2948244512081146,0.27546805143356323,-0.31416672468185425
1667824577894963000,11.867962890625,-0.31070834398269653,0.4205549359321594,-0.3338509500026703
1667824577904971000,11.877970947265625,-0.30099207162857056,0.5359052419662476,-0.34209343791007996
1667824577914979000,11.88797900390625,-0.2845715582370758,0.5499608516693115,-0.3386150598526001
1667824577924987100,11.897987060546875,-0.27856266498565674,0.4363752007484436,-0.31503570079803467
1667824577934994000,11.907993896484374,-0.28240346908569336,0.2612353265285492,-0.2715793251991272
1667824577945002000,11.918001953125,-0.26801732182502747,0.08207276463508606,-0.21123448014259338
1667824577955010000,11.928010009765625,-0.2261335402727127,-0.013704360462725163,-0.13103924691677094
1667824577965018000,11.93801806640625,-0.1518728882074356,-0.003998203668743372,-0.04549131914973259
1667824577975025000,11.94802490234375,-0.06259280443191528,0.0582507885992527,0.03546185418963432
1667824577985033000,11.958032958984376,0.015333948656916618,0.16028821468353271,0.08036008477210999
1667824577995040800,11.968040771484375,0.08014942705631256,0.2575069069862366,0.08483552932739258
1667824578005048000,11.978048095703125,0.14466211199760437,0.3023529350757599,0.04777471348643303
1667824578015056000,11.988055908203124,0.19597004354000092,0.28706371784210205,-0.0059838565066456795
1667824578025064000,11.99806396484375,0.22242695093154907,0.20208919048309326,-0.04731132090091705
1667824578035072000,12.008072021484375,0.21564680337905884,0.10977710038423538,-0.06968320906162262
1667824578045079000,12.0180791015625,0.19404670596122742,0.0046325684525072575,-0.0627715066075325
1667824578055087000,12.028087158203125,0.17430523037910461,-0.09653852134943008,-0.04632914811372757
1667824578065095000,12.038094970703124,0.16153377294540405,-0.15972362458705902,-0.03624802082777023
1667824578075102200,12.048102294921875,0.16985481977462769,-0.19230739772319794,-0.0556827038526535
1667824578085110000,12.058110107421875,0.1996697038412094,-0.19258250296115875,-0.1129305437207222
1667824578095118000,12.0681181640625,0.244045689702034,-0.16745051741600037,-0.20802296698093414
1667824578105126000,12.0781259765625,0.29820558428764343,-0.08545365184545517,-0.3427373766899109
1667824578115133000,12.0881328125,0.3767949342727661,0.09574117511510849,-0.548495888710022
1667824578125141000,12.09814111328125,0.4972952604293823,0.2807658910751343,-0.8180210590362549
1667824578135149000,12.108149169921875,0.6328182220458984,0.3713562488555908,-1.0837342739105225
1667824578145155800,12.11815576171875,0.7455735206604004,0.3590846657752991,-1.2864148616790771
1667824578155164000,12.128163818359376,0.8224086165428162,0.22321949899196625,-1.3480879068374634
1667824578165172000,12.138171875,0.8630415797233582,-0.02412557601928711,-1.2603808641433716
1667824578175180000,12.148179931640625,0.8437613248825073,-0.2913319766521454,-1.0712288618087769
1667824578185186800,12.158186767578124,0.7595639228820801,-0.5700783729553223,-0.8071572780609131
1667824578195195000,12.16819482421875,0.6029572486877441,-0.7960521578788757,-0.4956209361553192
1667824578205203000,12.178202880859375,0.406017541885376,-0.9217581152915955,-0.17906509339809418
1667824578215210000,12.1882099609375,0.2023666799068451,-0.9005045294761658,0.10396341979503632
1667824578225218000,12.198218017578125,0.006194246467202902,-0.7441577911376953,0.3100939393043518
1667824578235225900,12.208225830078124,-0.17293475568294525,-0.5298036932945251,0.44064635038375854
1667824578245234000,12.21823388671875,-0.3548678159713745,-0.277050256729126,0.4882809817790985
1667824578255241000,12.228240966796875,-0.5387995839118958,-0.014917696826159954,0.45424365997314453
1667824578265249000,12.2382490234375,-0.7365317940711975,0.1902274638414383,0.3607981503009796
1667824578275256800,12.2482568359375,-0.9382053017616272,0.3251868784427643,0.23432675004005432
1667824578285265000,12.258264892578126,-1.1252350807189941,0.4081480801105499,0.07731395959854126
1667824578295272000,12.26827197265625,-1.2806968688964844,0.4210422933101654,-0.0902223065495491
1667824578305280000,12.278280029296875,-1.387195348739624,0.3748926520347595,-0.25040799379348755
1667824578315288000,12.2882880859375,-1.453770399093628,0.3146516680717468,-0.3933723270893097
1667824578325294800,12.298294921875,-1.4766916036605835,0.2033320814371109,-0.49001792073249817
1667824578335303200,12.30830322265625,-1.4785614013671875,0.03663178160786629,-0.5187568664550781
1667824578345311000,12.31831103515625,-1.4663149118423462,-0.12059618532657623,-0.4664883613586426
1667824578355319000,12.328319091796875,-1.4569200277328491,-0.2809104919433594,-0.343703031539917
1667824578365325800,12.338325927734376,-1.455122470855713,-0.44255825877189636,-0.14948110282421112
1667824578375334100,12.348334228515625,-1.4670981168746948,-0.5974729657173157,0.09767835587263107
1667824578385342000,12.358342041015625,-1.4748412370681763,-0.6554550528526306,0.396525502204895
1667824578395349000,12.368348876953124,-1.4511295557022095,-0.6023905277252197,0.681266725063324
1667824578405356800,12.378356689453126,-1.3953022956848145,-0.4836902320384979,0.8988602757453918
1667824578415364900,12.38836474609375,-1.3226834535598755,-0.33256784081459045,0.9915508031845093
