time,seconds_elapsed,z,y,x
1667266564158262800,0.0932626953125,-0.6255075931549072,0.4282039403915405,-0.37261682748794556
1667266564160660700,0.09566064453125,-0.6383354067802429,0.4575245976448059,-0.33169007301330566
1667266564163058400,0.098058349609375,-0.6413896083831787,0.48012593388557434,-0.291374146938324
1667266564165456400,0.100456298828125,-0.6401679515838623,0.4966188073158264,-0.25289076566696167
1667266564167854000,0.10285400390625,-0.6340594291687012,0.5033381581306458,-0.21746163070201874
1667266564170251800,0.105251708984375,-0.6230642199516296,0.5076140761375427,-0.18142163753509521
1667266564172649700,0.107649658203125,-0.6041279435157776,0.5076140761375427,-0.14721418917179108
1667266564175047400,0.11004736328125,-0.5833591222763062,0.4960079789161682,-0.11545012891292572
1667266564177445400,0.1124453125,-0.5577035546302795,0.4831801950931549,-0.08674030750989914
1667266564179843000,0.114843017578125,-0.5283828973770142,0.46607646346092224,-0.05986303091049194
1667266564182241000,0.117240966796875,-0.4953971207141876,0.44103172421455383,-0.03298575058579445
1667266564184638700,0.119638671875,-0.4599680006504059,0.41476529836654663,-0.00916270911693573
1667266564187036700,0.12203662109375,-0.4220954477787018,0.3811686933040619,0.01038440316915512
1667266564189434400,0.124434326171875,-0.3823903799057007,0.34451785683631897,0.02993151545524597
1667266564191832300,0.126832275390625,-0.3414636254310608,0.3115321099758148,0.047646086663007736
1667266564194230000,0.12922998046875,-0.3005368411540985,0.2742704153060913,0.061084724962711334
1667266564196627700,0.131627685546875,-0.25716668367385864,0.23334364593029022,0.07330167293548584
1667266564199025700,0.134025634765625,-0.21257483959197998,0.1948602795600891,0.08185353130102158
1667266564201423400,0.13642333984375,-0.17531315982341766,0.1588202863931656,0.08979454636573792
1667266564203821300,0.1388212890625,-0.1453816443681717,0.13744063675403595,0.09834641218185425
1667266564206219000,0.141218994140625,-0.11422843486070633,0.1178935244679451,0.1056765764951706
1667266564208617000,0.143616943359375,-0.08368607610464096,0.09468132257461548,0.11056335270404816
1667266564211014700,0.1460146484375,-0.054365407675504684,0.0647498071193695,0.11178504675626755
1667266564213412600,0.14841259765625,-0.02626643143594265,0.034818295389413834,0.11545012891292572
1667266564215810300,0.150810302734375,0.0024433890357613564,0.0012216945178806782,0.11545012891292572
1667266564218208300,0.153208251953125,0.026877280324697495,-0.029320668429136276,0.11239589750766754
1667266564220606000,0.15560595703125,0.0525328628718853,-0.056808795779943466,0.10873081535100937
1667266564223003600,0.158003662109375,0.07269082218408585,-0.08063183724880219,0.10323318839073181
1667266564225401600,0.160401611328125,0.09040539711713791,-0.10017894953489304,0.09651386737823486
1667266564227799300,0.16279931640625,0.1050657257437706,-0.11667182296514511,0.08796200156211853
1667266564230197200,0.165197265625,0.11422843486070633,-0.12705622613430023,0.07452336698770523
1667266564232595000,0.167594970703125,0.11911521852016449,-0.13805148005485535,0.06352811306715012
1667266564234993000,0.169992919921875,0.11972606182098389,-0.13682979345321655,0.04703523963689804
1667266564237390600,0.172390625,0.1178935244679451,-0.13744063675403595,0.03298575058579445
1667266564239788500,0.17478857421875,0.11178504675626755,-0.13316470384597778,0.01588202826678753
1667266564242186200,0.177186279296875,0.10201149433851242,-0.12278030067682266,-0.0018325417768210173
1667266564244584200,0.179584228515625,0.08796200156211853,-0.11056335270404816,-0.021990500390529633
1667266564246982000,0.18198193359375,0.07146912813186646,-0.10017894953489304,-0.043981000781059265
1667266564249379600,0.184379638671875,0.056808795779943466,-0.0922379344701767,-0.06841489672660828
1667266564251777500,0.186777587890625,0.0397050715982914,-0.07757759839296341,-0.09284878522157669
1667266564254175200,0.18917529296875,0.023212196305394173,-0.05497625470161438,-0.1172826737165451
1667266564256573200,0.1915732421875,0.006719320081174374,-0.038483377546072006,-0.14171656966209412
1667266564258971000,0.193970947265625,-0.008551862090826035,-0.025655584409832954,-0.16859383881092072
1667266564261368800,0.196368896484375,-0.023823043331503868,-0.012827792204916477,-0.20096874237060547
1667266564263766500,0.1987666015625,-0.036039989441633224,0.0012216945178806782,-0.22906772792339325
1667266564266164500,0.20116455078125,-0.04459185153245926,0.012827792204916477,-0.2583884000778198
1667266564268562200,0.203562255859375,-0.053143709897994995,0.02748812735080719,-0.2901524603366852
1667266564270960000,0.205960205078125,-0.056808795779943466,0.04153761267662048,-0.31825143098831177
1667266564273357800,0.20835791015625,-0.05925218388438225,0.053143709897994995,-0.34635040163993835
1667266564275755500,0.210755615234375,-0.05986303091049194,0.062306419014930725,-0.37506023049354553
1667266564278153500,0.213153564453125,-0.05864133685827255,0.07146912813186646,-0.4031592011451721
1667266564280551200,0.21555126953125,-0.05741964280605316,0.08063183724880219,-0.4306473135948181
1667266564282949000,0.21794921875,-0.05497625470161438,0.08857285231351852,-0.4575245976448059
1667266564285346800,0.220346923828125,-0.04947862774133682,0.09529217332601547,-0.4856235682964325
1667266564287744800,0.222744873046875,-0.04459185153245926,0.09956810623407364,-0.5100574493408203
1667266564290142500,0.225142578125,-0.04031591862440109,0.10262233763933182,-0.5369347333908081
1667266564292540400,0.22754052734375,-0.03665083646774292,0.10262233763933182,-0.5632011890411377
1667266564294938000,0.229938232421875,-0.03420744836330414,0.10384403169155121,-0.5845808386802673
1667266564297336000,0.232336181640625,-0.031153209507465363,0.10323318839073181,-0.6084038615226746
1667266564299733800,0.234733642578125,-0.02748812735080719,0.09956810623407364,-0.6303943991661072
1667266564302131500,0.23713134765625,-0.02626643143594265,0.09651386737823486,-0.6529957056045532
1667266564304529400,0.239529296875,-0.02504473738372326,0.09284878522157669,-0.6707102656364441
1667266564306927000,0.241927001953125,-0.021990500390529633,0.08918370306491852,-0.6896465420722961
1667266564309325000,0.244324951171875,-0.021379653364419937,0.08185353130102158,-0.7055285573005676
1667266564311722800,0.24672265625,-0.01954711228609085,0.0794101431965828,-0.7214106321334839
1667266564314120700,0.24912060546875,-0.014660334214568138,0.07207997888326645,-0.7360709309577942
1667266564316518400,0.251518310546875,-0.011606098152697086,0.06658235192298889,-0.7464553713798523
1667266564318916400,0.253916259765625,-0.007330167107284069,0.06047387793660164,-0.7568397521972656
1667266564321314000,0.25631396484375,-0.0024433890357613564,0.051922015845775604,-0.767224133014679
1667266564323711700,0.258711669921875,0.0024433890357613564,0.04214845970273018,-0.7763868570327759
1667266564326109700,0.261109619140625,0.007941014133393764,0.034818295389413834,-0.781884491443634
1667266564328507400,0.26350732421875,0.00916270911693573,0.026877280324697495,-0.7843278646469116
1667266564330905300,0.2659052734375,0.011606098152697086,0.01832541823387146,-0.7873821258544922
1667266564333303000,0.268302978515625,0.014049487188458443,0.007330167107284069,-0.7886037826538086
1667266564335701000,0.270700927734375,0.012827792204916477,-0.0036650835536420345,-0.7849387526512146
1667266564338098700,0.2730986328125,0.013438640162348747,-0.013438640162348747,-0.7788302302360535
1667266564340496600,0.27549658203125,0.011606098152697086,-0.02748812735080719,-0.7696675658226013
1667266564342894300,0.277894287109375,0.008551862090826035,-0.042759306728839874,-0.7568397521972656
1667266564345292000,0.2802919921875,0.004275931045413017,-0.056808795779943466,-0.739736020565033
1667266564347690000,0.28268994140625,-0.0006108472589403391,-0.07207997888326645,-0.7165238261222839
1667266564350087700,0.285087646484375,-0.007330167107284069,-0.08918370306491852,-0.6927008032798767
1667266564352485600,0.287485595703125,-0.010995250195264816,-0.10323318839073181,-0.6652126908302307
1667266564354883300,0.28988330078125,-0.01588202826678753,-0.11483928561210632,-0.6352811455726624
1667266564357281300,0.29228125,-0.020157959312200546,-0.12644538283348083,-0.6004628539085388
1667266564359679000,0.294678955078125,-0.021990500390529633,-0.13927318155765533,-0.5638120174407959
1667266564362077000,0.297076904296875,-0.01832541823387146,-0.16004198789596558,-0.5289937257766724
1667266564364474600,0.299474609375,-0.00916270911693573,-0.18936264514923096,-0.4966188073158264
1667266564366872600,0.30187255859375,0.0024433890357613564,-0.21501824259757996,-0.4618005156517029
1667266564369270300,0.304270263671875,0.015271181240677834,-0.24006296694278717,-0.4294256269931793
1667266564371668000,0.30666796875,0.029320668429136276,-0.2632751762866974,-0.395218163728714
1667266564374066000,0.30906591796875,0.043981000781059265,-0.28221142292022705,-0.36101073026657104
1667266564376463600,0.311463623046875,0.05741964280605316,-0.2987042963504791,-0.3310792148113251
1667266564378861600,0.313861572265625,0.07269082218408585,-0.3170297145843506,-0.3011476993560791
1667266564381259300,0.31625927734375,0.08612946420907974,-0.33474430441856384,-0.2773246467113495
1667266564383657200,0.3186572265625,0.09895725548267365,-0.3542914092540741,-0.25716668367385864
1667266564386055000,0.321054931640625,0.11117420345544815,-0.3695625960826874,-0.23945212364196777
1667266564388452900,0.323452880859375,0.12461283802986145,-0.3817795515060425,-0.2235700935125351
1667266564390850600,0.3258505859375,0.13499724864959717,-0.38727715611457825,-0.2107423096895218
1667266564393248500,0.32824853515625,0.1435490995645523,-0.3903313875198364,-0.19913621246814728
1667266564395646200,0.330646240234375,0.14904673397541046,-0.3903313875198364,-0.19241689145565033
1667266564398044000,0.3330439453125,0.15393351018428802,-0.38666632771492004,-0.18691925704479218
1667266564400441900,0.33544189453125,0.15210096538066864,-0.3799470067024231,-0.18753011524677277
1667266564402839600,0.337839599609375,0.15149012207984924,-0.37689274549484253,-0.18691925704479218
1667266564405237500,0.340237548828125,0.14904673397541046,-0.3695625960826874,-0.18814095854759216
1667266564407635200,0.34263525390625,0.1435490995645523,-0.363454133272171,-0.19119518995285034
1667266564410033200,0.345033203125,0.13805148005485535,-0.36039987206459045,-0.19913621246814728
1667266564412430800,0.347430908203125,0.12827792763710022,-0.35978904366493225,-0.2101314514875412
1667266564414828800,0.349828857421875,0.12278030067682266,-0.36162158846855164,-0.2229592502117157
1667266564417226500,0.3522265625,0.11606097966432571,-0.3665083646774292,-0.2363978922367096
1667266564419624400,0.35462451171875,0.1050657257437706,-0.37139514088630676,-0.2522799074649811
1667266564422022100,0.357022216796875,0.09590301662683487,-0.37506023049354553,-0.26694026589393616
1667266564424419800,0.359419921875,0.08918370306491852,-0.3836120665073395,-0.28343313932418823
1667266564426817800,0.36181787109375,0.07757759839296341,-0.3915531039237976,-0.3029802441596985
1667266564429215500,0.364215576171875,0.06963659077882767,-0.39827242493629456,-0.31825143098831177
1667266564431613400,0.366613525390625,0.06658235192298889,-0.40193748474121094,-0.33169007301330566
1667266564434011100,0.36901123046875,0.06047387793660164,-0.40987852215766907,-0.34696123003959656
1667266564436409000,0.3714091796875,0.05741964280605316,-0.416597843170166,-0.3561239540576935
1667266564438806800,0.373806884765625,0.05925218388438225,-0.4202629029750824,-0.36162158846855164
1667266564441204700,0.376204833984375,0.05864133685827255,-0.418430358171463,-0.363454133272171
1667266564443602400,0.3786025390625,0.05986303091049194,-0.41537612676620483,-0.363454133272171
1667266564446000400,0.38100048828125,0.06169557198882103,-0.41354358196258545,-0.35856732726097107
1667266564448398000,0.383398193359375,0.06719319522380829,-0.41048935055732727,-0.3542914092540741
1667266564450795800,0.385795654296875,0.07207997888326645,-0.41232189536094666,-0.34512871503829956
1667266564453193700,0.38819384765625,0.07696675509214401,-0.41232189536094666,-0.33413344621658325
1667266564455591400,0.39059130859375,0.08551861345767975,-0.41232189536094666,-0.32069480419158936
1667266564457989400,0.3929892578125,0.09407047927379608,-0.41293275356292725,-0.30481278896331787
1667266564460387000,0.395386962890625,0.10201149433851242,-0.416597843170166,-0.2877090573310852
1667266564462785000,0.397784912109375,0.11056335270404816,-0.4159869849681854,-0.26632940769195557
1667266564465182700,0.4001826171875,0.1172826737165451,-0.41354358196258545,-0.24494975805282593
1667266564467580700,0.40258056640625,0.12827792763710022,-0.4080459773540497,-0.21623992919921875
1667266564469978400,0.404978271484375,0.13499724864959717,-0.40071579813957214,-0.18997350335121155
1667266564472376300,0.407376220703125,0.1435490995645523,-0.38727715611457825,-0.15454435348510742
1667266564474774000,0.40977392578125,0.15271180868148804,-0.3695625960826874,-0.12278030067682266
1667266564477171700,0.412171630859375,0.15943112969398499,-0.34757208824157715,-0.08490777015686035
1667266564479569700,0.414569580078125,0.16737215220928192,-0.32069480419158936,-0.042759306728839874
1667266564481967400,0.41696728515625,0.17286977171897888,-0.2877090573310852,0
1667266564484365300,0.419365234375,0.17775654792785645,-0.24617144465446472,0.04459185153245926
1667266564486763000,0.421762939453125,0.1832541823387146,-0.20280128717422485,0.0916270911693573
1667266564489161000,0.424160888671875,0.18753011524677277,-0.15454435348510742,0.13927318155765533
1667266564491558700,0.42655859375,0.19241689145565033,-0.10078980028629303,0.18691925704479218
1667266564493956600,0.42895654296875,0.19058434665203094,-0.04214845970273018,0.2351761907339096
1667266564496354300,0.431354248046875,0.18936264514923096,0.014660334214568138,0.28221142292022705
1667266564498752300,0.433752197265625,0.18997350335121155,0.07696675509214401,0.3304683566093445
1667266564501150000,0.43614990234375,0.18936264514923096,0.13744063675403595,0.3781144618988037
1667266564503547600,0.438547607421875,0.182643324136734,0.1954711228609085,0.4220954477787018
1667266564505945600,0.440945556640625,0.1820324808359146,0.2510582208633423,0.46546560525894165
1667266564508343300,0.44334326171875,0.17592400312423706,0.2999260127544403,0.5070032477378845
1667266564510741200,0.4457412109375,0.17225892841815948,0.34696123003959656,0.5454866290092468
1667266564513139000,0.448138916015625,0.16370706260204315,0.3830012381076813,0.5790832042694092
1667266564515537000,0.450536865234375,0.1563768982887268,0.41476529836654663,0.6090146899223328
1667266564517934600,0.4529345703125,0.14965757727622986,0.4459185004234314,0.6365028619766235
1667266564520332500,0.45533251953125,0.14171656966209412,0.4691306948661804,0.6597150564193726
1667266564522730200,0.457730224609375,0.1313321590423584,0.49356457591056824,0.679872989654541
1667266564525128000,0.4601279296875,0.12339114397764206,0.5161659121513367,0.6914790868759155
1667266564527526000,0.46252587890625,0.11361759155988693,0.5351021885871887,0.7012526392936707
1667266564529923600,0.464923583984375,0.10201149433851242,0.554649293422699,0.7061394453048706
1667266564532321500,0.467321533203125,0.09407047927379608,0.5754181146621704,0.7049177289009094
1667266564534719200,0.46971923828125,0.08185353130102158,0.5980194807052612,0.7000309824943542
1667266564537117200,0.4721171875,0.07146912813186646,0.6175665855407715,0.6890357136726379
1667266564539515000,0.474514892578125,0.06169557198882103,0.6395570635795593,0.6725428104400635
1667266564541912800,0.476912841796875,0.05375456064939499,0.6529957056045532,0.6536065936088562
1667266564544310500,0.479310546875,0.04703523963689804,0.6658235192298889,0.6261184215545654
1667266564546708200,0.481708251953125,0.04214845970273018,0.6707102656364441,0.5961869359016418
1667266564549106200,0.484106201171875,0.03787253051996231,0.6694886088371277,0.5625903010368347
1667266564551504000,0.48650390625,0.03787253051996231,0.6633801460266113,0.5265503525733948
1667266564553901800,0.48890185546875,0.04031591862440109,0.6511631608009338,0.49051034450531006
1667266564556299500,0.491299560546875,0.046424392610788345,0.6273401379585266,0.44958359003067017
1667266564558697500,0.493697509765625,0.05497625470161438,0.601073682308197,0.4092676639556885
1667266564561095200,0.49609521484375,0.07146912813186646,0.5674771070480347,0.3658975064754486
1667266564563493000,0.4984931640625,0.08551861345767975,0.5332696437835693,0.3274141252040863
1667266564565890800,0.500890869140625,0.10995250940322876,0.5002838969230652,0.2883199155330658
1667266564568288800,0.503288818359375,0.13621893525123596,0.46668729186058044,0.25533416867256165
1667266564570686500,0.5056865234375,0.16615045070648193,0.43614494800567627,0.2217375487089157
1667266564573084200,0.508084228515625,0.1985253542661667,0.41110020875930786,0.1960819661617279
1667266564575482000,0.510482177734375,0.2357870489358902,0.3915531039237976,0.17286977171897888
1667266564577879800,0.5128798828125,0.2730487287044525,0.3805578351020813,0.15210096538066864
1667266564580277800,0.51527783203125,0.3133646547794342,0.3762819170951843,0.13560809195041656
1667266564582675500,0.517675537109375,0.3549022674560547,0.37444937229156494,0.12278030067682266
1667266564585073400,0.520073486328125,0.40071579813957214,0.3762819170951843,0.11361759155988693
1667266564587471000,0.52247119140625,0.4428642690181732,0.3781144618988037,0.10750912129878998
1667266564589869000,0.524869140625,0.48806697130203247,0.38483378291130066,0.1044548824429512
1667266564592266800,0.527266845703125,0.5320479869842529,0.3970507085323334,0.10078980028629303
1667266564594664700,0.529664794921875,0.5729747414588928,0.40987852215766907,0.10078980028629303
1667266564597062400,0.5320625,0.610236406326294,0.4220954477787018,0.10384403169155121
1667266564599460000,0.534460205078125,0.6438329815864563,0.4349232614040375,0.1050657257437706
1667266564601858000,0.536858154296875,0.675597071647644,0.4446968138217926,0.10750912129878998
1667266564604255700,0.539255859375,0.7006418108940125,0.448361873626709,0.11117420345544815
1667266564606653700,0.54165380859375,0.7220214605331421,0.44958359003067017,0.11117420345544815
1667266564609051400,0.544051513671875,0.7409577369689941,0.444085955619812,0.10811996459960938
1667266564611449300,0.546449462890625,0.7550072073936462,0.4306473135948181,0.1050657257437706
1667266564613847000,0.548846923828125,0.7641699314117432,0.41171106696128845,0.09895725548267365
1667266564616245000,0.551244873046875,0.7678350210189819,0.3927747905254364,0.0922379344701767
1667266564618642700,0.553642578125,0.7721109390258789,0.367730051279068,0.08307522535324097
1667266564621040600,0.55604052734375,0.7733326554298401,0.3408527672290802,0.07269082218408585
1667266564623438300,0.558438232421875,0.7745543122291565,0.3176405727863312,0.06291726976633072
1667266564625836000,0.5608359375,0.7733326554298401,0.29565006494522095,0.05131116881966591
1667266564628234000,0.56323388671875,0.7702783942222595,0.2748812735080719,0.03665083646774292
1667266564630631700,0.565631591796875,0.7690566778182983,0.2608317732810974,0.021990500390529633
1667266564633029600,0.568029541015625,0.7678350210189819,0.24617144465446472,0.00916270911693573
1667266564635427300,0.57042724609375,0.7653915882110596,0.23334364593029022,-0.005497625097632408
1667266564637825300,0.5728251953125,0.7653915882110596,0.2217375487089157,-0.021990500390529633
1667266564640223000,0.575222900390625,0.7653915882110596,0.21379654109477997,-0.0397050715982914
1667266564642621000,0.577620849609375,0.7696675658226013,0.20768806338310242,-0.053143709897994995
1667266564645018600,0.5800185546875,0.7751652002334595,0.19913621246814728,-0.06780404597520828
1667266564647416600,0.58241650390625,0.7812736630439758,0.19180603325366974,-0.0787992998957634
1667266564649814300,0.584814208984375,0.7892146706581116,0.17775654792785645,-0.09345962852239609
1667266564652212200,0.587212158203125,0.7959339618682861,0.1588202863931656,-0.10323318839073181
1667266564654610000,0.58960986328125,0.8057075142860413,0.14049486815929413,-0.11361759155988693
1667266564657007600,0.592007568359375,0.81425940990448,0.11545012891292572,-0.12155860662460327
1667266564659405600,0.594405517578125,0.8228112459182739,0.08490777015686035,-0.12522368133068085
1667266564661803300,0.59680322265625,0.8319739699363708,0.05070032179355621,-0.12705622613430023
1667266564664201200,0.599201171875,0.8380824327468872,0.006719320081174374,-0.12766708433628082
1667266564666599000,0.601598876953125,0.8466343283653259,-0.04214845970273018,-0.12339114397764206
1667266564668996900,0.603996826171875,0.8521319031715393,-0.09529217332601547,-0.11361759155988693
1667266564671394600,0.60639453125,0.8557969927787781,-0.15087927877902985,-0.10323318839073181
1667266564673792500,0.60879248046875,0.860683798789978,-0.21196399629116058,-0.08674030750989914
1667266564676190200,0.611190185546875,0.8674030900001526,-0.2852656841278076,-0.07513421028852463
1667266564678588200,0.613588134765625,0.8710681796073914,-0.367730051279068,-0.05986303091049194
1667266564680985900,0.61598583984375,0.8802309036254883,-0.45385950803756714,-0.043981000781059265
1667266564683383600,0.618383544921875,0.8857285380363464,-0.5369347333908081,-0.025655584409832954
1667266564685781500,0.620781494140625,0.8900044560432434,-0.6181774139404297,-0.0036650835536420345
1667266564688179200,0.62317919921875,0.8955020904541016,-0.6963658928871155,0.021379653364419937
1667266564690577200,0.6255771484375,0.8991671800613403,-0.7660024762153625,0.04825693368911743
1667266564692974800,0.627974853515625,0.9034430980682373,-0.8313631415367126,0.0787992998957634
1667266564695372800,0.630372802734375,0.9064973592758179,-0.8893936276435852,0.11422843486070633
1667266564697770500,0.6327705078125,0.9101623892784119,-0.9382613897323608,0.15087927877902985
1667266564700168400,0.63516845703125,0.9144383668899536,-0.9791881442070007,0.19058434665203094
1667266564702566100,0.637566162109375,0.9168817400932312,-1.009730577468872,0.23212195932865143
1667266564704963800,0.6399638671875,0.9193251132965088,-1.0304993391036987,0.2736595869064331
1667266564707361800,0.64236181640625,0.92054682970047,-1.0427162647247314,0.32069480419158936
1667266564709759500,0.644759521484375,0.9193251132965088,-1.0439379215240479,0.3658975064754486
1667266564712157400,0.647157470703125,0.9193251132965088,-1.0347752571105957,0.41110020875930786
1667266564714555100,0.64955517578125,0.92054682970047,-1.0158389806747437,0.4593571424484253
1667266564716953000,0.651953125,0.9168817400932312,-0.9895725846290588,0.5088357925415039
1667266564719350800,0.654350830078125,0.9150491952896118,-0.9517000317573547,0.5583143830299377
1667266564721748500,0.65674853515625,0.9119949340820312,-0.9089407324790955,0.6077930331230164
1667266564724146400,0.659146484375,0.9107732772827148,-0.8643488883972168,0.656660795211792
1667266564726544100,0.661544189453125,0.9052756428718567,-0.8118160367012024,0.7055285573005676
1667266564728942000,0.663942138671875,0.9064973592758179,-0.7580614686012268,0.7513421177864075
1667266564731339800,0.66633984375,0.9016105532646179,-0.7055285573005676,0.7989882230758667
1667266564733737700,0.66873779296875,0.8985562920570374,-0.6505523324012756,0.8429692387580872
1667266564736135400,0.671135498046875,0.8991671800613403,-0.5992411375045776,0.8857285380363464
1667266564738533400,0.673533447265625,0.8991671800613403,-0.5491516590118408,0.9248227477073669
1667266564740931000,0.67593115234375,0.8985562920570374,-0.503948986530304,0.9602518677711487
1667266564743329000,0.6783291015625,0.8997780084609985,-0.4611896872520447,0.9932376146316528
1667266564745726700,0.680726806640625,0.9022213816642761,-0.42698222398757935,1.0250016450881958
1667266564748124700,0.683124755859375,0.9009997248649597,-0.40010493993759155,1.0537115335464478
1667266564750522400,0.6855224609375,0.9003888368606567,-0.37322768568992615,1.0793671607971191
1667266564752920000,0.687920166015625,0.897334635257721,-0.3500154912471771,1.1001359224319458
1667266564755318000,0.690318115234375,0.8955020904541016,-0.33230090141296387,1.1190721988677979
1667266564757715700,0.6927158203125,0.8875610828399658,-0.312142938375473,1.132510781288147
1667266564760113700,0.69511376953125,0.8777875304222107,-0.29320669174194336,1.142895221710205
1667266564762511400,0.697511474609375,0.8680139780044556,-0.2779355049133301,1.1508362293243408
1667266564764909300,0.699909423828125,0.8533536195755005,-0.2632751762866974,1.1545013189315796
1667266564767307000,0.70230712890625,0.8380824327468872,-0.24678228795528412,1.1551121473312378
1667266564769705000,0.704705078125,0.8197570443153381,-0.2339545041322708,1.155722975730896
1667266564772102700,0.7071025390625,0.7983773946762085,-0.21807247400283813,1.1538904905319214
1667266564774500600,0.70950048828125,0.7776085734367371,-0.20219044387340546,1.1490037441253662
1667266564776898300,0.711898193359375,0.7537854909896851,-0.18814095854759216,1.142895221710205
1667266564779296000,0.7142958984375,0.7293516397476196,-0.1710372269153595,1.1355650424957275
1667266564781694000,0.71669384765625,0.7018635272979736,-0.15454435348510742,1.1257915496826172
1667266564784091600,0.719091552734375,0.6725428104400635,-0.14110571146011353,1.1141854524612427
1667266564786489600,0.721489501953125,0.6462764143943787,-0.12461283802986145,1.1013575792312622
1667266564788887300,0.72388720703125,0.6145123243331909,-0.11117420345544815,1.0873081684112549
1667266564791285200,0.72628515625,0.5858024954795837,-0.09651386737823486,1.0695935487747192
1667266564793683000,0.728682861328125,0.554649293422699,-0.08429691940546036,1.054322361946106
1667266564796081000,0.731080810546875,0.522885262966156,-0.07146912813186646,1.0335536003112793
1667266564798478600,0.733478515625,0.4947862923145294,-0.062306419014930725,1.012784719467163
1667266564800876500,0.73587646484375,0.46546560525894165,-0.05864133685827255,0.994459331035614
1667266564803274200,0.738274169921875,0.4367557764053345,-0.055587101727724075,0.9724688529968262
1667266564805672000,0.740671875,0.4086568057537079,-0.05741964280605316,0.9498674869537354
1667266564808070000,0.74306982421875,0.3805578351020813,-0.05925218388438225,0.9260444641113281
1667266564810467600,0.745467529296875,0.3555130958557129,-0.062306419014930725,0.9009997248649597
1667266564812865500,0.747865478515625,0.3298575282096863,-0.0647498071193695,0.8771766424179077
1667266564815263200,0.75026318359375,0.30481278896331787,-0.07207997888326645,0.8502993583679199
1667266564817661200,0.7526611328125,0.28098973631858826,-0.0787992998957634,0.8258655071258545
1667266564820059000,0.755058837890625,0.258999228477478,-0.08796200156211853,0.7989882230758667
1667266564822456800,0.757456787109375,0.2363978922367096,-0.09529217332601547,0.7727217674255371
1667266564824854500,0.7598544921875,0.21807247400283813,-0.10934165865182877,0.7446228265762329
1667266564827252500,0.76225244140625,0.19913621246814728,-0.11972606182098389,0.7183563709259033
1667266564829650200,0.764650146484375,0.1820324808359146,-0.1301104724407196,0.6920899152755737
1667266564832047900,0.7670478515625,0.16676130890846252,-0.14049486815929413,0.6682668924331665
1667266564834445800,0.76944580078125,0.15149012207984924,-0.1447708010673523,0.6468872427940369
1667266564836843500,0.771843505859375,0.13866232335567474,-0.14965757727622986,0.6236750483512878
1667266564839241500,0.774241455078125,0.12644538283348083,-0.15515519678592682,0.601073682308197
1667266564841639200,0.77663916015625,0.11300674080848694,-0.15943112969398499,0.5815265774726868
1667266564844037000,0.779037109375,0.10017894953489304,-0.16004198789596558,0.5638120174407959
1667266564846434800,0.781434814453125,0.08796200156211853,-0.15943112969398499,0.5485408306121826
1667266564848832800,0.783832763671875,0.07452336698770523,-0.15332266688346863,0.5332696437835693
1667266564851230500,0.78623046875,0.06047387793660164,-0.14843589067459106,0.5222744345664978
1667266564853628400,0.78862841796875,0.04459185153245926,-0.14049486815929413,0.5112791657447815
1667266564856026000,0.791026123046875,0.025655584409832954,-0.13438639044761658,0.5008947253227234
1667266564858423800,0.793423828125,0.007941014133393764,-0.129499614238739,0.49295374751091003
1667266564860821800,0.79582177734375,-0.007941014133393764,-0.12216944992542267,0.48806697130203247
1667266564863219500,0.798219482421875,-0.028098974376916885,-0.11483928561210632,0.4825693368911743
1667266564865617400,0.800617431640625,-0.04581354558467865,-0.1050657257437706,0.48012593388557434
1667266564868015000,0.80301513671875,-0.06169557198882103,-0.0916270911693573,0.47890424728393555
1667266564870413000,0.8054130859375,-0.07696675509214401,-0.07207997888326645,0.47951510548591614
1667266564872810800,0.807810791015625,-0.09284878522157669,-0.047646086663007736,0.48012593388557434
1667266564875208700,0.810208740234375,-0.1044548824429512,-0.022601349279284477,0.4850127100944519
1667266564877606400,0.8126064453125,-0.11606097966432571,0.009773556143045425,0.49051034450531006
1667266564880004400,0.81500439453125,-0.12705622613430023,0.04581354558467865,0.497229665517807
1667266564882402000,0.817402099609375,-0.13621893525123596,0.08612946420907974,0.5021164417266846
1667266564884799700,0.8197998046875,-0.1441599577665329,0.12827792763710022,0.5143333673477173
1667266564887197700,0.82219775390625,-0.15149012207984924,0.17409147322177887,0.5247178077697754
1667266564889595400,0.824595458984375,-0.15515519678592682,0.21868331730365753,0.5357130169868469
1667266564891993300,0.826993408203125,-0.16065283119678497,0.2651077210903168,0.546097457408905
1667266564894391000,0.82939111328125,-0.16187451779842377,0.30908870697021484,0.5564818382263184
1667266564896789000,0.8317890625,-0.16431790590286255,0.34940463304519653,0.5668662786483765
1667266564899186700,0.834186767578125,-0.16676130890846252,0.38910970091819763,0.5754181146621704
1667266564901584600,0.836584716796875,-0.16553960740566254,0.42453885078430176,0.5864133834838867
1667266564903982300,0.838982421875,-0.16615045070648193,0.4575245976448059,0.5925218462944031
1667266564906380300,0.84138037109375,-0.16676130890846252,0.47951510548591614,0.5986303091049194
1667266564908778000,0.843778076171875,-0.16615045070648193,0.497229665517807,0.605960488319397
1667266564911175700,0.84617578125,-0.16553960740566254,0.5076140761375427,0.610236406326294
1667266564913573600,0.84857373046875,-0.16492876410484314,0.5118899941444397,0.6132906675338745
1667266564915971300,0.850971435546875,-0.16309621930122375,0.5106683373451233,0.6157340407371521
1667266564918369300,0.853369384765625,-0.16309621930122375,0.5015056133270264,0.6206207871437073
1667266564920767000,0.85576708984375,-0.16309621930122375,0.4886777997016907,0.6212316751480103
1667266564923165000,0.8581650390625,-0.16065283119678497,0.4727957844734192,0.624285876750946
1667266564925562600,0.860562744140625,-0.15943112969398499,0.45508119463920593,0.6236750483512878
1667266564927960600,0.862960693359375,-0.1588202863931656,0.4324798583984375,0.6255075931549072
1667266564930358300,0.865358154296875,-0.1569877415895462,0.40987852215766907,0.6273401379585266
1667266564932756200,0.867756103515625,-0.15087927877902985,0.38666632771492004,0.6303943991661072
1667266564935154000,0.87015380859375,-0.1453816443681717,0.36223241686820984,0.6328377723693848
1667266564937551600,0.872551513671875,-0.13988402485847473,0.3402419090270996,0.6395570635795593
1667266564939949600,0.874949462890625,-0.13316470384597778,0.3158080279827118,0.6438329815864563
1667266564942347300,0.87734716796875,-0.12278030067682266,0.29687178134918213,0.6493306159973145
1667266564944745200,0.8797451171875,-0.11422843486070633,0.27976804971694946,0.6615476012229919
1667266564947143000,0.882142822265625,-0.1044548824429512,0.2632751762866974,0.6688777208328247
1667266564949540900,0.884540771484375,-0.09284878522157669,0.24678228795528412,0.6817055344581604
1667266564951938600,0.8869384765625,-0.0794101431965828,0.2345653474330902,0.6969767212867737
1667266564954336500,0.88933642578125,-0.06291726976633072,0.22601348161697388,0.7098045349121094
1667266564956734200,0.891734130859375,-0.04703523963689804,0.21868331730365753,0.7262973785400391
1667266564959132200,0.894132080078125,-0.03176405653357506,0.2113531529903412,0.7421793937683105
1667266564961529900,0.89652978515625,-0.014049487188458443,0.20646637678146362,0.7605048418045044
1667266564963927600,0.898927490234375,0.005497625097632408,0.20157960057258606,0.7800519466400146
1667266564966325500,0.901325439453125,0.023212196305394173,0.1979145109653473,0.7989882230758667
1667266564968723200,0.90372314453125,0.04214845970273018,0.1966928243637085,0.818535327911377
1667266564971121200,0.90612109375,0.061084724962711334,0.19119518995285034,0.8386932611465454
1667266564973518800,0.908518798828125,0.08063183724880219,0.18875180184841156,0.8570187091827393
1667266564975916800,0.910916748046875,0.10262233763933182,0.182643324136734,0.8729007244110107
1667266564978314500,0.913314453125,0.12400199472904205,0.17409147322177887,0.8900044560432434
1667266564980712400,0.91571240234375,0.1435490995645523,0.16370706260204315,0.9083298444747925
1667266564983110100,0.918110107421875,0.16553960740566254,0.1557660549879074,0.9266552925109863
1667266564985508000,0.920508056640625,0.1850867122411728,0.14171656966209412,0.939483106136322
1667266564987905800,0.92290576171875,0.20707722008228302,0.12583453953266144,0.9529217481613159
1667266564990303500,0.925303466796875,0.22967857122421265,0.10934165865182877,0.9663603901863098
1667266564992701400,0.927701416015625,0.2510582208633423,0.09345962852239609,0.9810206890106201
1667266564995099100,0.93009912109375,0.2754921019077301,0.07452336698770523,0.9920159578323364
1667266564997497000,0.9324970703125,0.2987042963504791,0.05497625470161438,1.0011786222457886
1667266564999894800,0.934894775390625,0.32252734899520874,0.034818295389413834,1.0109522342681885
1667266565002292700,0.937292724609375,0.34818294644355774,0.013438640162348747,1.0188932418823242
1667266565004690400,0.9396904296875,0.37322768568992615,-0.007330167107284069,1.0274450778961182
1667266565007088400,0.94208837890625,0.40071579813957214,-0.03176405653357506,1.0304993391036987
1667266565009486000,0.944486083984375,0.4282039403915405,-0.05131116881966591,1.0366077423095703
1667266565011884000,0.946884033203125,0.45385950803756714,-0.07574506103992462,1.040272831916809
1667266565014281700,0.94928173828125,0.4831801950931549,-0.10078980028629303,1.0384403467178345
1667266565016679400,0.951679443359375,0.5106683373451233,-0.12216944992542267,1.0390511751174927
1667266565019077400,0.954077392578125,0.5381564497947693,-0.1453816443681717,1.040272831916809
1667266565021475000,0.95647509765625,0.5674771070480347,-0.1716480851173401,1.0366077423095703
1667266565023873000,0.958873046875,0.5937435626983643,-0.1985253542661667,1.0323318243026733
1667266565026270700,0.961270751953125,0.624285876750946,-0.22601348161697388,1.0292776823043823
1667266565028668700,0.963668701171875,0.6560499668121338,-0.25716668367385864,1.0256125926971436
1667266565031066400,0.96606640625,0.684759795665741,-0.2895416021347046,1.0176715850830078
1667266565033464300,0.96846435546875,0.7159129977226257,-0.3249707520008087,1.0121738910675049
1667266565035862000,0.970862060546875,0.7427902817726135,-0.36039987206459045,1.0060654878616333
1667266565038260000,0.973260009765625,0.7721109390258789,-0.40010493993759155,0.998735249042511
1667266565040657700,0.97565771484375,0.7983773946762085,-0.43981003761291504,0.9914051294326782
1667266565043055400,0.978055419921875,0.8264763355255127,-0.4825693368911743,0.9834640622138977
1667266565045453300,0.980453369140625,0.8509102463722229,-0.5222744345664978,0.9767447710037231
1667266565047851000,0.98285107421875,0.8753440976142883,-0.5638120174407959,0.9718579649925232
1667266565050249000,0.9852490234375,0.8942803740501404,-0.6053496599197388,0.9614735841751099
1667266565052646700,0.987646728515625,0.9126058220863342,-0.6456655263900757,0.9571976661682129
1667266565055044600,0.990044677734375,0.9272661209106445,-0.684148907661438,0.9529217481613159
1667266565057442300,0.9924423828125,0.939483106136322,-0.7232431769371033,0.9474241137504578
1667266565059840300,0.99484033203125,0.9492566585540771,-0.7592831254005432,0.9443698525428772
1667266565062238000,0.997238037109375,0.9547542929649353,-0.7898254990577698,0.9431481957435608
1667266565064636000,0.999635986328125,0.9541434049606323,-0.8191461563110352,0.9425373077392578
1667266565067033600,1.00203369140625,0.9517000317573547,-0.8399149775505066,0.9419264793395996
1667266565069431300,1.004431396484375,0.9474241137504578,-0.8582404255867004,0.9419264793395996
1667266565071829200,1.006829345703125,0.939483106136322,-0.8722898960113525,0.9407047629356384
1667266565074227000,1.00922705078125,0.9278770089149475,-0.8771766424179077,0.943759024143219
1667266565076625000,1.011625,0.9126058220863342,-0.8765658140182495,0.9443698525428772
1667266565079022800,1.01402294921875,0.8942803740501404,-0.8716790676116943,0.9468132257461548
1667266565081420500,1.016420654296875,0.873511552810669,-0.8612946271896362,0.948034942150116
1667266565083818200,1.018818359375,0.8515210747718811,-0.846023440361023,0.9498674869537354
1667266565086216200,1.02121630859375,0.8283088803291321,-0.8270871639251709,0.9529217481613159
1667266565088614000,1.02361376953125,0.8050966858863831,-0.8032641410827637,0.9541434049606323
1667266565091011800,1.02601171875,0.7806627750396729,-0.7782194018363953,0.9547542929649353
1667266565093409500,1.028409423828125,0.7605048418045044,-0.7415685653686523,0.962695300579071
1667266565095807500,1.030807373046875,0.7415685653686523,-0.7012526392936707,0.9688037633895874
1667266565098205200,1.033205078125,0.7250757217407227,-0.6639909744262695,0.975523054599762
1667266565100603100,1.03560302734375,0.7067502737045288,-0.6193991303443909,0.9791881442070007
1667266565103000800,1.038000732421875,0.6865923404693604,-0.5766398310661316,0.9852966070175171
1667266565105398800,1.040398681640625,0.6694886088371277,-0.5338805317878723,0.9938485026359558
1667266565107796500,1.04279638671875,0.6529957056045532,-0.49173203110694885,0.999346137046814
1667266565110194200,1.045194091796875,0.6371136903762817,-0.45019441843032837,1.003622055053711
1667266565112592100,1.047592041015625,0.6206207871437073,-0.41110020875930786,1.0121738910675049
1667266565114989800,1.04998974609375,0.6053496599197388,-0.3701734244823456,1.01706063747406
1667266565117387800,1.0523876953125,0.5888567566871643,-0.3304683566093445,1.0231691598892212
1667266565119785500,1.054785400390625,0.5717530250549316,-0.288930743932724,1.0286667346954346
1667266565122183400,1.057183349609375,0.5583143830299377,-0.24617144465446472,1.035996913909912
1667266565124581000,1.0595810546875,0.5412106513977051,-0.20402298867702484,1.0396620035171509
1667266565126979000,1.06197900390625,0.5247178077697754,-0.16004198789596558,1.0439379215240479
1667266565129376800,1.064376708984375,0.5076140761375427,-0.1172826737165451,1.0469921827316284
1667266565131774700,1.066774658203125,0.49234288930892944,-0.07574506103992462,1.0506572723388672
1667266565134172400,1.06917236328125,0.47585001587867737,-0.03298575058579445,1.0537115335464478
1667266565136570000,1.071570068359375,0.4575245976448059,0.007330167107284069,1.0567657947540283
1667266565138968000,1.073968017578125,0.43858832120895386,0.047646086663007736,1.0579874515533447
1667266565141365800,1.07636572265625,0.42392799258232117,0.08674030750989914,1.0616525411605835
1667266565143763700,1.078763671875,0.4043808877468109,0.12522368133068085,1.063485026359558
1667266565146161400,1.081161376953125,0.38605546951293945,0.16615045070648193,1.0628741979599
1667266565148559400,1.083559326171875,0.3658975064754486,0.20585553348064423,1.0659284591674805
1667266565150957000,1.08595703125,0.34818294644355774,0.24311721324920654,1.0695935487747192
1667266565153355000,1.08835498046875,0.3261924386024475,0.2858765125274658,1.068982720375061
1667266565155752700,1.090752685546875,0.30664533376693726,0.32313820719718933,1.0714260339736938
1667266565158150700,1.093150634765625,0.2883199155330658,0.36223241686820984,1.0738694667816162
1667266565160548400,1.09554833984375,0.26632940769195557,0.40132665634155273,1.0750911235809326
