sep=;
ACCELEROMETER X (m/s²);ACCELEROMETER Y (m/s²);ACCELEROMETER Z (m/s²);GRAVITY X (m/s²);GRAVITY Y (m/s²);GRAVITY Z (m/s²);LINEAR ACCELERATION X (m/s²);LINEAR ACCELERATION Y (m/s²);LINEAR ACCELERATION Z (m/s²);GYROSCOPE X (rad/s);GYROSCOPE Y (rad/s);GYROSCOPE Z (rad/s);LIGHT (lux);MAGNETIC FIELD X (μT);MAGNETIC FIELD Y (μT);MAGNETIC FIELD Z (μT);ORIENTATION Z (azimuth °);ORIENTATION X (pitch °);ORIENTATION Y (roll °);PROXIMITY (i);ATMOSPHERIC PRESSURE (hPa);SOUND LEVEL (dB);LOCATION Latitude : ;LOCATION Longitude : ;LOCATION Altitude ( m);LOCATION Altitude-google ( m);LOCATION Altitude-atmospheric pressure ( m);LOCATION Speed ( Kmh);LOCATION Accuracy ( m);LOCATION ORIENTATION (°);Satellites in range;Time since start in ms ;YYYY-MO-DD HH-MI-SS_SSS
-0.8667;2.4229;9.0647;-1.0856;5.5857;7.9869;-0.9495;-1.6856;0.0698;-1.8179;-0.4023;-0.9246;273.0;-10.74;-12.72;-41.16;53.66;-38.84;11.14;5.0;990.66;60.105;;;;NaN;;;;;0 / 0;15;2022-11-03 16:51:04:084
0.1101;2.4493;9.2994;-0.953;3.9659;8.9182;-1.1754;-0.6164;2.5001;1.011;-0.5263;0.0839;373.0;-18.48;-9.54;-39.42;69.93;-25.65;3.31;5.0;990.84;62.997;;;;NaN;;;;;0 / 0;514;2022-11-03 16:51:04:583
-1.1277;2.3774;10.5875;1.2524;5.1541;8.2485;-2.5213;-0.8661;-1.9442;-0.9316;-0.5764;1.236;633.0;-18.84;-7.62;-41.1;45.49;-32.3;-4.02;5.0;990.65;56.489;;;;NaN;;;;;0 / 0;1014;2022-11-03 16:51:05:083
-0.0263;2.1979;11.6098;2.2328;4.8267;8.2394;-1.0716;-1.2737;-0.2999;0.4227;0.1903;0.1065;659.0;-17.94;-2.64;-41.4;21.12;-31.46;-13.55;5.0;990.64;57.847;;;;NaN;;;;;0 / 0;1514;2022-11-03 16:51:05:583
0.5986;6.6466;9.9889;1.3261;5.3423;8.1161;-1.3189;-0.6665;0.6541;0.4991;0.1359;0.5818;781.0;-11.4;-4.5;-42.9;3.32;-33.52;-12.77;5.0;990.71;62.639;;;;NaN;;;;;0 / 0;2014;2022-11-03 16:51:06:083
-0.0622;3.6009;7.2068;1.1316;5.5898;7.9778;-1.0549;-2.1038;-0.2514;0.5345;-0.5531;-0.4744;958.0;-1.14;-6.24;-44.16;340.03;-31.45;-9.66;5.0;990.66;60.506;;;;NaN;;;;;0 / 0;2514;2022-11-03 16:51:06:583
-0.2346;4.6064;4.7908;0.6529;5.0903;8.3566;-1.6584;-1.1303;-0.8481;-0.193;0.3082;-0.2527;1399.0;-3.36;-3.42;-44.04;354.72;-29.5;-6.19;5.0;990.67;57.805;;;;NaN;;;;;0 / 0;3014;2022-11-03 16:51:07:083
-0.261;2.6647;9.3018;0.7864;4.6174;8.6158;-0.9707;-1.7395;-2.448;0.3604;0.1671;0.167;1574.0;3.0;-2.04;-45.0;342.14;-31.34;-5.01;5.0;990.7;62.463;;;;NaN;;;;;0 / 0;3514;2022-11-03 16:51:07:583
-1.4246;3.1987;7.3409;0.5888;4.753;8.5576;-2.3126;-1.5639;-2.7179;0.4508;0.1359;-0.4396;1848.0;-3.36;-1.86;-43.74;352.25;-27.99;-7.24;5.0;990.7;65.617;;;;NaN;;;;;0 / 0;4014;2022-11-03 16:51:08:083
-0.6033;3.9097;10.2235;0.7208;4.6026;8.6294;-1.1996;-2.0767;3.9452;-0.4447;-0.015;0.7461;1928.0;1.26;-2.16;-43.98;358.99;-28.61;0.86;5.0;990.75;67.87;;;;NaN;;;;;0 / 0;4515;2022-11-03 16:51:08:584
-0.6345;2.9808;16.262;0.236;3.2335;9.2552;-0.8336;-0.5623;2.783;-1.5113;-0.2422;-0.9851;2091.0;5.46;-0.24;-44.34;339.5;-28.32;-3.57;5.0;990.8;64.237;;;;NaN;;;;;0 / 0;5015;2022-11-03 16:51:09:084
-3.1149;4.9635;8.5907;-0.8458;4.5426;8.6498;-0.3575;1.2565;3.4015;-0.3384;0.0199;0.7913;2145.0;4.14;0.6;-44.7;1.05;-27.59;5.58;5.0;990.73;66.626;;;;NaN;;;;;0 / 0;5514;2022-11-03 16:51:09:583
-0.419;3.237;7.5851;1.0007;4.7177;8.5388;-1.5337;-1.0904;0.4275;-0.014;0.3063;-0.348;2193.0;3.3;-2.88;-45.24;336.28;-28.76;-6.68;5.0;990.67;64.824;;;;NaN;;;;;0 / 0;6014;2022-11-03 16:51:10:083
-1.142;4.4197;7.8413;0.7038;4.5055;8.6819;-1.5205;-0.1561;-0.9623;-0.226;0.2385;-0.3015;2249.0;-1.92;-0.72;-45.96;355.14;-27.35;-4.63;5.0;990.7;61.513;;;;NaN;;;;;0 / 0;6515;2022-11-03 16:51:10:584
0.4166;2.4565;7.8006;0.7533;5.369;8.1717;-0.3948;-2.6548;0.887;0.584;0.6045;0.2916;2276.0;-0.96;-3.54;-45.66;348.67;-30.18;-6.14;5.0;990.73;63.336;;;;NaN;;;;;0 / 0;7014;2022-11-03 16:51:11:083
0.0192;3.0287;10.2475;0.4747;4.0602;8.914;-0.5426;-1.8123;3.4701;0.1857;-0.1109;-0.0706;2289.0;0.54;1.74;-45.72;349.21;-28.39;-4.35;5.0;990.83;69.323;;;;NaN;;;;;0 / 0;7514;2022-11-03 16:51:11:583
-2.4469;5.0353;9.309;-0.5949;4.5416;8.6712;-0.8064;-0.2888;1.4239;0.4294;0.2453;0.4364;2331.0;3.42;0.36;-44.4;1.88;-26.5;4.74;5.0;990.73;66.442;;;;NaN;;;;;0 / 0;8014;2022-11-03 16:51:12:083
-1.0678;3.8882;9.8668;0.0698;3.927;8.9858;-0.4185;-0.2219;0.9368;-0.0556;0.018;-0.004;2342.0;5.52;0.42;-45.36;340.57;-23.61;-0.44;5.0;990.75;64.239;;;;NaN;;;;;0 / 0;8514;2022-11-03 16:51:12:583
-1.4461;3.9073;9.9314;-0.7019;4.4233;8.7242;-1.1298;-0.4292;1.0843;0.1686;0.1518;0.1829;2346.0;6.24;0.18;-44.58;353.38;-26.81;4.6;5.0;990.69;64.269;;;;NaN;;;;;0 / 0;9015;2022-11-03 16:51:13:084
-1.403;3.3136;7.985;-0.3746;4.3195;8.7961;-1.9019;-0.7555;-0.4753;-0.1442;-0.1903;0.8518;2328.0;9.18;-0.72;-44.52;339.64;-26.13;2.44;5.0;990.69;52.59;;;;NaN;;;;;0 / 0;9514;2022-11-03 16:51:13:583
3.0239;3.4333;7.7192;-0.2748;3.9692;8.9633;2.2616;-1.1776;0.2986;0.0037;-0.0278;-0.3755;2376.0;10.98;-4.98;-44.34;324.18;-23.88;1.76;5.0;990.82;52.758;;;;NaN;;;;;0 / 0;10014;2022-11-03 16:51:14:083
-2.7222;4.6759;10.2068;-0.9443;4.2123;8.8054;-0.59;0.3756;1.2529;-0.4698;0.3406;0.0082;2400.0;12.96;-3.24;-43.26;333.97;-27.7;5.65;5.0;990.76;57.826;;;;NaN;;;;;0 / 0;10514;2022-11-03 16:51:14:583
-0.7566;5.0449;7.1254;-0.5157;4.0362;8.9227;0.2769;0.1839;-2.5205;-0.992;0.0174;-0.037;2335.0;15.84;-5.58;-42.72;322.57;-27.98;5.43;5.0;990.72;61.575;;;;NaN;;;;;0 / 0;11016;2022-11-03 16:51:15:085
-1.4006;2.2027;7.5444;-0.0765;3.2518;9.2515;-0.7956;-0.4384;-0.7046;-0.3109;0.1176;-0.216;2362.0;8.64;2.88;-44.1;333.66;-19.37;0.47;5.0;990.68;62.35;;;;NaN;;;;;0 / 0;11514;2022-11-03 16:51:15:583
-2.7102;2.3152;7.3625;-1.1641;3.0651;9.2423;-1.1854;-1.4755;-1.0761;0.3286;0.0925;0.6239;2455.0;14.22;3.06;-42.6;333.02;-18.21;7.18;5.0;990.71;49.676;;;;NaN;;;;;0 / 0;12014;2022-11-03 16:51:16:083
-0.6704;3.3136;10.1709;-0.2106;2.8803;9.3717;-0.4716;0.7749;0.9382;-0.2993;-0.4145;-0.3003;2403.0;10.56;3.66;-43.8;329.24;-17.08;1.29;5.0;990.7;48.247;;;;NaN;;;;;0 / 0;12515;2022-11-03 16:51:16:584
-1.1636;2.9688;8.3585;-1.2187;3.5947;9.0423;-0.4601;0.0993;-0.8864;0.2932;0.3919;-0.5288;2556.0;7.8;3.48;-44.22;341.62;-20.07;2.61;5.0;990.72;55.474;;;;NaN;;;;;0 / 0;13014;2022-11-03 16:51:17:083
-1.8316;2.3583;8.4925;-0.8848;3.9937;8.9128;-1.0435;-1.2851;-0.2941;0.1478;0.3424;0.5775;2433.0;10.56;-0.24;-45.06;344.83;-23.8;7.49;5.0;990.72;52.061;;;;NaN;;;;;0 / 0;13514;2022-11-03 16:51:17:583
2.5259;1.1947;11.6912;-0.2205;2.9334;9.3551;1.4437;-0.8146;3.5048;0.1301;0.2831;-0.4616;2413.0;5.64;4.98;-44.22;342.69;-18.11;0.33;5.0;990.72;53.31;;;;NaN;;;;;0 / 0;14014;2022-11-03 16:51:18:083
-2.818;3.4668;8.6889;-1.442;3.5966;9.0086;-0.1996;0.9279;1.5539;0.0312;-0.1365;-0.0254;2509.0;8.58;2.4;-44.58;356.14;-21.83;8.41;5.0;990.7;65.53;;;;NaN;;;;;0 / 0;14515;2022-11-03 16:51:18:584
-1.5131;4.4389;8.9283;-0.9242;3.8193;8.9849;-0.7015;0.2532;-0.155;0.1093;-0.0357;0.035;2419.0;7.8;0.54;-45.48;349.82;-22.92;5.87;5.0;990.8;66.868;;;;NaN;;;;;0 / 0;15015;2022-11-03 16:51:19:084
-0.2227;3.4477;7.6402;-0.3854;3.5574;9.1305;0.4443;-0.38;-0.9677;0.2486;-0.0327;-0.2288;2502.0;3.9;1.68;-45.96;353.69;-21.27;2.42;5.0;990.76;67.324;;;;NaN;;;;;0 / 0;15514;2022-11-03 16:51:19:583
-2.2649;2.2266;10.5276;-0.4543;3.5843;9.1168;-1.7439;-1.0415;1.7392;0.2957;-0.1304;0.6105;2526.0;3.12;3.42;-45.6;4.76;-20.56;5.7;5.0;990.65;67.649;;;;NaN;;;;;0 / 0;16015;2022-11-03 16:51:20:084
-0.3041;6.23;6.7783;-0.3584;3.8399;9.0165;0.9483;0.7881;-1.5795;0.2407;-0.3125;-0.0328;2551.0;7.14;0.0;-45.24;346.36;-21.86;3.68;5.0;990.68;61.029;;;;NaN;;;;;0 / 0;16515;2022-11-03 16:51:20:584
-1.2929;4.2114;8.4016;-0.9708;3.7652;9.0028;-0.3029;0.3782;-0.321;-0.0849;0.5666;0.233;2612.0;5.76;0.96;-45.24;346.69;-21.54;2.36;5.0;990.73;62.334;;;;NaN;;;;;0 / 0;17014;2022-11-03 16:51:21:083
-0.1987;1.142;13.075;-0.0741;3.0269;9.3275;0.3912;-0.6242;0.0875;-1.3848;-0.7095;-0.1647;2481.0;8.22;4.74;-44.34;337.38;-17.98;0.46;5.0;990.78;66.281;;;;NaN;;;;;0 / 0;17514;2022-11-03 16:51:21:583
2.1141;3.8307;7.657;0.9318;4.2961;8.7661;0.7773;-0.0372;0.3047;0.7031;-0.6014;-0.6051;2437.0;4.08;-5.82;-46.02;328.56;-25.98;-6.07;5.0;990.71;64.037;;;;NaN;;;;;0 / 0;18015;2022-11-03 16:51:22:084
-0.929;5.3394;9.0839;-0.967;4.4319;8.6945;0.1632;-0.1442;0.4279;0.3146;0.4499;0.1914;2505.0;11.82;-3.9;-44.46;337.19;-26.87;6.35;5.0;990.73;62.642;;;;NaN;;;;;0 / 0;18514;2022-11-03 16:51:22:583
-0.9002;4.8028;7.8748;-0.8638;4.0016;8.9113;-0.6101;0.5739;-1.5419;0.3812;0.6093;0.1022;2483.0;11.7;-3.0;-44.28;337.24;-26.66;5.98;5.0;990.7;63.58;;;;NaN;;;;;0 / 0;19014;2022-11-03 16:51:23:083
0.0024;2.8132;8.0616;-0.7383;3.8173;9.003;0.8888;-0.9931;-0.6405;0.3262;0.2618;-0.5838;2515.0;9.78;0.18;-44.58;332.3;-20.91;1.92;5.0;990.7;64.587;;;;NaN;;;;;0 / 0;19514;2022-11-03 16:51:23:583
-1.7717;4.0749;9.7686;-1.5483;3.9225;8.8536;-0.862;0.4544;0.7631;0.1344;-0.1182;0.5983;2510.0;13.5;-1.26;-43.32;342.54;-24.81;10.87;5.0;990.74;66.971;;;;NaN;;;;;0 / 0;20014;2022-11-03 16:51:24:083
-1.4389;4.8195;9.9003;-0.8617;4.0129;8.9065;-0.708;0.7078;0.7969;-0.2132;0.2178;-0.0951;2433.0;14.4;-2.94;-42.66;327.42;-24.15;5.53;5.0;990.77;67.142;;;;NaN;;;;;0 / 0;20515;2022-11-03 16:51:24:584
-2.1428;5.1215;8.6003;-1.4916;4.3288;8.6722;-0.3054;0.7637;0.0196;-0.1772;0.2917;-0.3968;2443.0;12.72;-2.34;-43.2;342.84;-26.19;9.76;5.0;990.66;62.654;;;;NaN;;;;;0 / 0;21014;2022-11-03 16:51:25:083
-0.9361;2.7821;7.8557;-1.3066;4.7478;8.4806;0.2201;-2.0849;0.6585;0.1087;-0.0583;0.3105;2390.0;14.82;-6.0;-42.78;333.26;-28.96;8.76;5.0;990.7;61.859;;;;NaN;;;;;0 / 0;21515;2022-11-03 16:51:25:584
-0.4381;2.0686;13.6496;-0.6262;4.4727;8.7048;0.8642;-1.3788;5.7066;1.1069;-0.1359;-0.2209;2473.0;10.92;-0.48;-44.58;334.93;-24.11;2.92;5.0;990.72;65.808;;;;NaN;;;;;0 / 0;22014;2022-11-03 16:51:26:083
-2.7916;5.9331;8.2747;-1.8413;4.6997;8.4079;-1.5679;1.2035;-1.0073;-0.7605;-0.0608;0.3081;2466.0;13.14;-4.62;-43.56;353.17;-29.18;13.77;5.0;990.71;59.939;;;;NaN;;;;;0 / 0;22514;2022-11-03 16:51:26:583
-1.798;5.3178;5.1143;-1.6779;5.0727;8.2233;0.241;-0.3576;-2.8791;-0.0244;0.1811;0.1798;2374.0;16.92;-10.2;-41.4;326.21;-34.4;8.49;5.0;990.68;66.118;;;;NaN;;;;;0 / 0;23014;2022-11-03 16:51:27:083
-2.8539;4.5298;6.4718;-1.7942;5.3441;8.0244;-0.546;-0.6707;-1.7612;-0.066;-0.1805;-1.0089;2319.0;18.18;-8.22;-42.3;334.69;-33.02;12.6;5.0;990.67;62.059;;;;NaN;;;;;0 / 0;23514;2022-11-03 16:51:27:583
-1.0654;3.2058;8.8445;-1.0343;4.4769;8.6636;-0.8395;-1.135;0.4427;-0.1753;-0.1597;0.6019;2488.0;13.2;-3.96;-43.68;335.77;-27.16;6.81;5.0;990.72;59.098;;;;NaN;;;;;0 / 0;24015;2022-11-03 16:51:28:084
3.4596;5.0377;11.4733;0.7662;4.7275;8.5577;1.1882;1.4497;0.2389;-0.9542;-0.1494;0.12;2548.0;7.02;-4.74;-44.88;327.01;-28.82;-5.12;5.0;990.76;49.723;;;;NaN;;;;;0 / 0;24515;2022-11-03 16:51:28:584
-0.4381;4.8315;8.5021;-0.3847;4.2807;8.8146;-0.0765;0.7606;-1.3621;-0.0037;0.0944;-0.0273;2445.0;6.6;-2.94;-44.46;336.9;-25.31;0.17;5.0;990.61;53.469;;;;NaN;;;;;0 / 0;25014;2022-11-03 16:51:29:083
0.2251;3.6488;7.7216;-0.1355;4.032;8.9384;0.5092;-0.4869;-1.4388;-0.3763;-0.2929;0.1108;2181.0;9.3;-4.38;-42.66;334.27;-24.32;2.84;5.0;990.52;66.322;;;;NaN;;;;;0 / 0;25514;2022-11-03 16:51:29:583
0.9888;2.1811;8.8756;0.2138;4.0803;8.9149;0.417;-2.06;1.2325;0.0104;0.4023;-0.8232;2273.0;0.3;-4.02;-42.9;339.16;-23.88;-6.93;5.0;990.63;66.344;;;;NaN;;;;;0 / 0;26014;2022-11-03 16:51:30:083
-2.6504;2.8156;8.1526;-0.8906;4.325;8.7562;-2.1291;-1.623;-0.4915;0.6347;0.3326;1.5298;2049.0;7.44;-4.08;-40.68;349.17;-26.17;5.81;5.0;990.67;63.886;;;;NaN;;;;;0 / 0;26514;2022-11-03 16:51:30:583
1.913;3.9672;10.5132;0.5831;3.9457;8.9589;1.7822;0.2216;1.6363;-0.5852;-0.3882;-0.4011;1861.0;10.2;-4.8;-40.38;311.74;-23.72;-3.72;5.0;990.69;57.805;;;;NaN;;;;;0 / 0;27014;2022-11-03 16:51:31:083
-0.2969;4.9347;7.4104;-0.2693;4.3887;8.7657;-0.1206;1.0353;-1.5532;-0.4044;-0.2398;-0.3449;1756.0;7.68;-1.86;-41.1;337.98;-26.58;1.76;5.0;990.67;65.994;;;;NaN;;;;;0 / 0;27514;2022-11-03 16:51:31:583
0.2777;3.2441;8.1573;0.5844;4.311;8.7889;-0.6692;-1.5857;-0.1159;-0.2395;0.23;0.4639;1465.0;9.12;-2.58;-41.88;325.63;-25.61;-2.01;5.0;990.65;50.249;;;;NaN;;;;;0 / 0;28014;2022-11-03 16:51:32:083
2.5379;2.2889;12.1269;1.8076;4.0888;8.7284;1.5423;-1.5218;5.1689;0.3421;-0.1524;-0.979;1366.0;2.4;0.9;-45.0;327.12;-20.85;-11.16;5.0;990.72;48.86;;;;NaN;;;;;0 / 0;28514;2022-11-03 16:51:32:583
-1.6831;5.8972;6.5365;-0.4976;4.1719;8.861;-0.7991;1.3755;-2.3051;-0.2712;0.1891;0.2085;1046.0;7.38;0.78;-45.12;347.21;-25.03;3.1;5.0;990.72;62.377;;;;NaN;;;;;0 / 0;29015;2022-11-03 16:51:33:084
0.1676;4.3503;9.692;-0.3999;4.4853;8.7117;0.4641;0.0358;0.8095;-0.3506;-0.4743;-0.1824;1013.0;11.1;-3.0;-49.08;336.34;-27.22;2.63;5.0;990.66;60.71;;;;NaN;;;;;0 / 0;29514;2022-11-03 16:51:33:583
0.1963;3.8906;4.4436;-0.1051;4.7235;8.5935;0.7251;-1.1206;-4.0513;0.4191;0.3082;-0.2936;851.0;9.42;-4.98;-49.56;336.99;-28.79;0.7;5.0;990.62;67.737;;;;NaN;;;;;0 / 0;30015;2022-11-03 16:51:34:084
-1.6352;4.1755;8.5428;-0.7026;4.1581;8.8536;-1.2507;0.0248;-0.8053;0.3244;0.2025;0.9129;833.0;13.92;-4.44;-47.64;329.34;-25.09;4.54;5.0;990.65;49.204;;;;NaN;;;;;0 / 0;30514;2022-11-03 16:51:34:583
0.4429;5.6339;9.2706;0.1996;3.7835;9.0452;-0.4465;1.2568;0.3854;-0.0525;-0.3766;-0.6815;907.0;10.2;-5.1;-46.92;330.69;-28.76;-0.27;5.0;990.69;51.906;;;;NaN;;;;;0 / 0;31014;2022-11-03 16:51:35:083
0.8021;5.0976;8.1957;-0.1536;4.3259;8.7996;0.8244;0.8593;-1.0832;0.2535;0.0437;0.2134;824.0;5.46;-1.5;-47.28;336.76;-23.02;-2.99;5.0;990.59;66.682;;;;NaN;;;;;0 / 0;31514;2022-11-03 16:51:35:583
0.2921;4.5825;5.5716;-1.2737;5.3307;8.1321;-0.6553;0.4595;-2.0144;0.0855;0.0137;-0.1934;1129.0;20.04;-10.86;-43.56;321.15;-32.93;8.9;5.0;990.65;67.716;;;;NaN;;;;;0 / 0;32015;2022-11-03 16:51:36:084
-0.0287;4.8914;7.4127;-0.5972;5.9168;7.7977;0.8209;-0.5453;-0.9561;-0.3079;0.0192;0.1572;1288.0;16.92;-13.32;-43.38;319.99;-37.11;4.38;5.0;990.74;65.517;;;;NaN;;;;;0 / 0;32514;2022-11-03 16:51:36:583
0.2059;4.5466;8.2172;-0.1851;4.5343;8.6935;1.1549;-0.851;0.932;-0.0122;0.7022;0.7815;1220.0;17.04;-8.58;-44.46;307.95;-27.54;1.22;5.0;990.63;67.171;;;;NaN;;;;;0 / 0;33014;2022-11-03 16:51:37:083
0.5028;3.7182;12.328;-0.1348;4.6241;8.647;0.2804;-0.3463;3.0524;-0.7953;-0.3247;0.1853;1260.0;16.26;-8.22;-44.28;312.04;-28.13;0.89;5.0;990.68;66.974;;;;NaN;;;;;0 / 0;33514;2022-11-03 16:51:37:583
0.5986;4.9276;8.0161;-0.0541;4.8807;8.5056;0.4506;0.2065;-1.0249;0.7159;0.588;0.3509;1190.0;12.78;-9.0;-44.7;314.58;-30.48;-2.53;5.0;990.66;67.92;;;;NaN;;;;;0 / 0;34014;2022-11-03 16:51:38:083
-1.9704;5.1742;7.5109;-0.6516;5.2494;8.2577;-1.0459;-0.2162;-0.0261;-0.0208;0.2844;0.6404;1205.0;23.16;-17.46;-38.64;292.78;-33.71;4.31;5.0;990.66;64.629;;;;NaN;;;;;0 / 0;34514;2022-11-03 16:51:38:583
-1.4868;4.6519;9.6753;-0.7746;4.5599;8.6474;0.401;-0.1532;2.0976;-0.2468;-1.2465;0.3405;1654.0;25.98;-19.38;-35.76;281.05;-31.15;7.99;5.0;990.63;67.93;;;;NaN;;;;;0 / 0;35015;2022-11-03 16:51:39:084
-2.9281;6.5197;4.7429;-1.1248;5.8843;7.764;-0.2622;0.2312;-1.9992;0.1717;0.9441;-0.0749;1898.0;29.16;-25.68;-31.44;270.25;-36.87;8.24;5.0;990.78;48.96;;;;NaN;;;;;0 / 0;35516;2022-11-03 16:51:39:585
-0.2897;5.3226;8.447;-1.3433;5.1162;8.2577;0.2095;-0.281;-0.0861;0.171;-0.1426;-0.6406;2025.0;27.48;-18.78;-35.82;282.4;-31.45;9.24;5.0;990.62;58.977;;;;NaN;;;;;0 / 0;36015;2022-11-03 16:51:40:084
9.1031;-1.4605;2.2721;5.7978;5.9949;5.1591;0.4617;-6.5888;1.475;0.9969;-6.17;3.3123;1829.0;-22.92;-25.32;-34.86;294.47;-37.68;-48.34;5.0;990.53;67.021;;;;NaN;;;;;0 / 0;36514;2022-11-03 16:51:40:583
14.0902;-3.7804;-0.3304;9.2588;-2.9166;1.3918;4.7474;0.6324;-0.808;-0.4722;1.1823;-1.0553;225.0;-30.84;26.7;-12.72;312.08;24.0;-90.81;5.0;990.66;60.052;;;;NaN;;;;;0 / 0;37014;2022-11-03 16:51:41:083
9.6489;0.5962;1.1349;9.7943;-0.4826;-0.0993;0.6733;1.5039;4.0048;0.0586;-0.048;-0.213;11.0;-42.84;18.24;-7.44;327.98;3.08;-93.77;5.0;991.12;67.349;;;;NaN;;;;;0 / 0;37514;2022-11-03 16:51:41:583
10.8915;0.5746;-4.7621;9.542;-0.1179;-2.2596;-0.8988;0.7524;2.2192;0.5308;-0.1011;-1.1757;1.0;-39.96;22.98;3.24;7.16;5.15;-90.82;5.0;990.57;67.588;;;;NaN;;;;;0 / 0;38015;2022-11-03 16:51:42:084
9.2491;-3.8499;-3.0909;8.1197;-4.3494;-3.3649;2.3584;0.4243;-1.7564;-0.0922;-0.7816;0.28;1.0;-37.02;28.02;-3.12;301.66;26.33;-112.51;5.0;990.71;32.378;;;;NaN;;;;;0 / 0;38515;2022-11-03 16:51:42:584
4.8363;-7.7001;-1.8723;3.7962;-8.9741;-1.1067;0.337;3.108;-2.175;2.3469;-3.1915;-0.9332;1.0;-30.0;30.06;-18.72;250.58;66.22;-106.25;5.0;990.6;40.758;;;;NaN;;;;;0 / 0;39015;2022-11-03 16:51:43:084
-4.2401;-8.6505;0.8619;-0.8594;-9.5042;-2.2588;-2.1684;0.2595;2.431;-3.1661;-0.5452;-0.9918;1.0;0.6;41.88;-6.66;11.83;75.73;159.17;5.0;990.39;45.99;;;;NaN;;;;;0 / 0;39515;2022-11-03 16:51:43:584
-7.1015;-6.6514;4.276;-1.7194;-9.3048;-2.5756;-6.4022;2.504;2.8222;-1.5259;3.5201;-1.0663;1.0;-7.14;42.96;-4.02;1.05;71.55;116.98;5.0;990.47;57.514;;;;NaN;;;;;0 / 0;40014;2022-11-03 16:51:44:083
0.2298;-9.273;-0.1389;-1.553;-9.6822;0.1177;2.6955;0.9677;-4.281;1.6609;1.2361;-1.1311;1.0;7.08;39.54;-19.08;68.25;74.27;101.82;5.0;990.57;59.469;;;;NaN;;;;;0 / 0;40514;2022-11-03 16:51:44:583
-1.9992;-11.5811;-1.6903;-1.5953;-8.8946;-3.8093;-0.2711;-2.3278;3.3213;-2.3915;-0.0357;0.3393;1.0;10.98;41.16;-10.5;65.69;78.3;131.25;5.0;990.61;58.944;;;;NaN;;;;;0 / 0;41014;2022-11-03 16:51:45:083
-6.5772;-17.8877;-3.5099;-3.1024;-8.6479;-3.4292;0.2043;-8.5795;-5.8678;0.1301;1.8909;1.528;1.0;7.8;45.78;-2.7;22.78;61.87;137.86;5.0;990.64;60.586;;;;NaN;;;;;0 / 0;41514;2022-11-03 16:51:45:583
-4.1899;-10.9801;0.6512;-1.3896;-9.7074;0.0786;-2.2156;-1.0403;-1.0627;3.427;-0.7914;-0.7151;1.0;6.42;41.04;-26.52;93.48;81.84;86.76;5.0;990.68;63.969;;;;NaN;;;;;0 / 0;42015;2022-11-03 16:51:46:084
-0.8643;-9.4167;-3.5602;-2.0286;-8.7031;-4.0387;1.1582;-0.8376;1.6328;-2.2975;-1.7138;-0.2979;1.0;17.82;45.72;3.06;51.67;62.56;153.33;5.0;990.63;59.484;;;;NaN;;;;;0 / 0;42514;2022-11-03 16:51:46:583
-1.2043;-8.6721;2.4134;-1.9025;-9.2296;-2.7139;0.6672;1.3792;5.2736;1.3842;3.8048;0.3478;1.0;17.28;46.38;-6.72;52.27;65.44;137.45;5.0;990.61;60.332;;;;NaN;;;;;0 / 0;43015;2022-11-03 16:51:47:084
2.2075;-13.3216;-2.0853;-1.8639;-9.5565;1.1699;3.2311;-3.404;-3.3184;-0.3995;1.2581;-0.5312;1.0;16.2;38.34;-28.56;173.4;76.01;33.46;5.0;990.62;56.204;;;;NaN;;;;;0 / 0;43514;2022-11-03 16:51:47:583
-1.4365;-6.2396;-0.5339;-1.918;-8.6819;-4.1372;1.362;1.7338;4.4559;1.3018;1.4334;-0.825;1.0;18.66;47.46;6.78;36.89;51.92;147.32;5.0;990.66;61.053;;;;NaN;;;;;0 / 0;44015;2022-11-03 16:51:48:084
-1.0247;-8.617;-7.4965;-2.1939;-9.492;-1.1225;1.8189;0.6719;-2.4445;1.35;-0.2666;-0.6619;1.0;16.38;44.76;-17.4;77.39;75.45;117.1;5.0;990.65;64.261;;;;NaN;;;;;0 / 0;44514;2022-11-03 16:51:48:583
-2.636;-7.7623;-0.0263;-0.9797;-9.4726;-2.3408;-2.3748;-1.9465;1.468;-2.6426;-2.503;0.1389;1.0;18.72;46.26;2.88;82.54;75.0;157.29;5.0;990.65;58.758;;;;NaN;;;;;0 / 0;45014;2022-11-03 16:51:49:083
-4.5418;-15.5342;3.2489;-3.0099;-8.4016;-4.0649;-2.1049;-3.7855;10.3957;-1.2846;-0.3729;-1.1036;1.0;16.74;44.88;-2.28;43.01;58.95;143.48;5.0;990.75;58.337;;;;NaN;;;;;0 / 0;45515;2022-11-03 16:51:49:584
-1.6951;-10.281;0.261;-1.5069;-9.4477;2.1541;0.1953;0.4573;-1.5692;1.8234;-1.4438;-0.2148;1.0;16.08;39.66;-21.6;136.27;79.09;68.05;5.0;990.7;61.322;;;;NaN;;;;;0 / 0;46014;2022-11-03 16:51:50:083
-1.1756;-8.4973;-2.8419;-3.2591;-7.5019;-5.4102;1.9121;-1.0138;2.4751;-0.606;-0.7694;0.6539;1.0;20.94;40.32;9.3;71.37;59.73;152.36;5.0;990.64;61.485;;;;NaN;;;;;0 / 0;46514;2022-11-03 16:51:50:583
-0.6105;-11.8468;2.1141;-2.411;-9.3066;-1.935;1.6479;-0.4619;4.8043;2.2535;3.4309;0.586;1.0;18.78;40.2;-2.7;67.99;66.05;137.24;5.0;990.6;61.182;;;;NaN;;;;;0 / 0;47015;2022-11-03 16:51:51:084
-1.8818;-11.4159;1.7358;-2.2784;-9.5361;0.2023;0.9395;-2.2868;2.5471;-1.9218;0.1683;-0.067;1.0;16.44;38.28;-11.4;128.47;76.51;84.93;5.0;990.6;57.748;;;;NaN;;;;;0 / 0;47514;2022-11-03 16:51:51:583
-5.4711;-1.9441;-3.7589;-2.586;-8.7877;-3.5011;-7.5487;3.1071;-9.8354;2.0824;-0.2508;-0.1452;1.0;10.62;39.84;1.56;36.23;63.65;143.55;5.0;990.7;54.487;;;;NaN;;;;;0 / 0;48014;2022-11-03 16:51:52:083
-1.2139;-7.8174;-2.0183;-1.7775;-9.6278;0.5622;0.5091;1.0693;-4.741;0.741;2.8579;-0.5373;1.0;9.66;32.88;-22.2;118.13;79.04;72.45;5.0;990.59;59.869;;;;NaN;;;;;0 / 0;48514;2022-11-03 16:51:52:583
-2.3128;-10.9059;-2.4588;-3.5053;-7.1848;-5.6799;0.3971;-3.6855;-0.8753;-2.1179;-3.7076;0.4627;1.0;17.82;39.54;1.38;69.93;65.79;137.17;5.0;990.64;59.181;;;;NaN;;;;;0 / 0;49014;2022-11-03 16:51:53:083
-10.1948;-16.1734;0.8092;-2.4575;-8.7822;-3.6061;-5.5755;-1.8905;0.2017;1.5388;0.5177;-0.4897;1.0;11.1;42.0;1.5;20.28;50.13;143.36;5.0;990.71;64.682;;;;NaN;;;;;0 / 0;49520;2022-11-03 16:51:53:589
-0.9601;-9.0791;-0.1772;-1.109;-9.7146;0.7526;0.3248;-0.0411;-1.7395;1.4954;-0.2825;0.076;1.0;7.98;34.68;-26.58;133.25;82.15;55.84;5.0;990.54;62.464;;;;NaN;;;;;0 / 0;50015;2022-11-03 16:51:54:084
-0.838;-10.3409;-6.2803;-1.7216;-8.9847;-3.5328;0.5995;-1.0769;0.339;-3.2168;-1.9893;0.0241;1.0;18.54;42.48;0.06;61.68;66.38;154.02;5.0;990.55;58.196;;;;NaN;;;;;0 / 0;50514;2022-11-03 16:51:54:583
-1.2091;-10.8197;1.4653;-1.6905;-9.1383;-3.1311;-0.3615;-0.0794;5.3196;1.0629;2.7706;0.0222;1.0;14.1;43.44;-7.32;45.93;68.72;151.63;5.0;990.58;63.474;;;;NaN;;;;;0 / 0;51014;2022-11-03 16:51:55:083
-2.6217;-10.281;-5.0473;-0.9226;-9.5158;2.1836;-0.1684;-0.7606;-5.0622;-1.3219;2.6289;0.9959;1.0;11.46;34.5;-28.92;176.94;76.01;22.91;5.0;990.6;59.88;;;;NaN;;;;;0 / 0;51514;2022-11-03 16:51:55:583
-2.2673;-4.7597;-0.8212;-1.9168;-8.8033;-3.8726;0.194;3.1828;4.1261;1.3757;0.467;-0.7188;1.0;9.66;44.58;6.06;19.37;54.02;155.12;5.0;990.64;58.796;;;;NaN;;;;;0 / 0;52014;2022-11-03 16:51:56:083
0.565;-9.1773;-9.0863;-1.8371;-9.5854;-0.9571;0.9244;0.2063;1.071;0.2309;-0.6619;-0.1415;1.0;5.94;42.3;-13.02;38.85;74.09;136.21;5.0;990.63;61.927;;;;NaN;;;;;0 / 0;52514;2022-11-03 16:51:56:583
-2.4948;-10.7287;0.6776;-0.9357;-9.3891;-2.6719;-1.233;0.5505;4.5338;-2.5247;-1.8799;0.9892;1.0;8.16;43.02;-3.36;34.15;73.22;160.7;5.0;990.53;57.824;;;;NaN;;;;;0 / 0;53015;2022-11-03 16:51:57:084
-4.3838;-9.7232;3.9935;-3.5657;-8.2652;-3.8912;-3.0637;-2.6569;6.0342;1.5559;2.7284;0.2391;1.0;15.12;42.06;0.0;38.18;57.44;137.5;5.0;990.67;59.995;;;;NaN;;;;;0 / 0;53515;2022-11-03 16:51:57:584
-2.2721;-11.5667;-6.9626;-1.5382;-9.4904;1.933;-2.3857;-1.8171;-6.7912;-0.587;0.051;0.8994;1.0;11.4;31.86;-30.42;154.67;75.41;38.51;5.0;990.51;67.064;;;;NaN;;;;;0 / 0;54014;2022-11-03 16:51:58:083
-0.8116;-6.8501;-0.735;-2.5073;-7.9129;-5.2221;2.122;-0.2114;3.797;-0.0788;-0.6576;0.1419;1.0;15.48;41.04;7.62;37.39;53.79;154.35;5.0;990.58;59.805;;;;NaN;;;;;0 / 0;54515;2022-11-03 16:51:58:584
-0.3519;-10.9586;-0.4764;-2.3839;-9.4572;-1.0242;1.8251;-2.1326;1.1044;1.5803;0.792;-0.2295;1.0;7.86;40.98;-12.24;40.4;68.39;131.0;5.0;990.58;62.098;;;;NaN;;;;;0 / 0;55014;2022-11-03 16:51:59:083
-0.3519;-10.9993;-0.7278;-1.4683;-9.6525;-0.9183;1.5215;-3.3176;-2.1339;-3.0665;0.7089;-0.4091;1.0;7.5;36.12;-24.06;143.11;72.19;38.57;5.0;990.55;56.277;;;;NaN;;;;;0 / 0;55515;2022-11-03 16:51:59:584
-11.2411;-19.1422;-24.2275;-2.4808;-8.4447;-4.3246;-3.8108;-2.072;-6.725;-1.6976;0.6283;0.4718;1.0;-1.8;42.24;-1.62;357.48;62.91;154.56;5.0;990.65;59.771;;;;NaN;;;;;0 / 0;56014;2022-11-03 16:52:00:083
-2.6336;-9.5532;-3.5745;-1.4262;-9.3816;2.4743;-0.8679;-1.7676;-6.1823;-0.0067;1.3967;0.8506;1.0;4.74;31.74;-27.96;149.33;73.07;29.96;5.0;990.54;60.665;;;;NaN;;;;;0 / 0;56514;2022-11-03 16:52:00:583
1.5993;-4.6591;0.3376;-2.6285;-7.8087;-5.3184;3.6312;3.0294;4.0682;0.9554;-1.106;-0.7359;1.0;12.84;40.74;5.64;29.45;52.78;153.7;5.0;990.56;59.127;;;;NaN;;;;;0 / 0;57014;2022-11-03 16:52:01:083
0.656;-8.2818;0.3256;-1.5831;-9.5066;-1.8134;3.0397;2.0557;1.055;1.2932;-2.1023;0.4278;1.0;20.28;36.78;-11.04;78.93;75.79;138.88;5.0;990.51;62.945;;;;NaN;;;;;0 / 0;57514;2022-11-03 16:52:01:583
-3.7062;-12.7422;0.9313;-1.6086;-9.197;-2.9995;-1.2494;-3.5744;3.1066;-3.1398;-1.6674;-0.0755;1.0;15.96;39.48;-12.54;116.59;79.57;95.85;5.0;990.55;55.057;;;;NaN;;;;;0 / 0;58015;2022-11-03 16:52:02:084
-1.6424;-6.2156;2.739;-1.9962;-8.9182;-3.5569;1.8566;6.3841;6.9594;3.8423;3.007;0.1499;1.0;13.02;41.88;-0.66;33.57;57.58;145.16;5.0;990.68;58.376;;;;NaN;;;;;0 / 0;58514;2022-11-03 16:52:02:583
-3.1891;-11.7798;-5.428;-2.0538;-9.236;2.5785;-2.3434;-1.729;-10.4594;-1.9163;-1.7309;-0.205;1.0;15.18;31.86;-29.04;161.92;70.36;38.54;5.0;990.54;57.126;;;;NaN;;;;;0 / 0;59014;2022-11-03 16:52:03:083
-2.0542;-2.2913;-2.9568;-3.4003;-7.2244;-5.6935;-0.1772;5.4646;2.9363;3.521;0.04;-2.3944;1.0;12.96;41.52;8.16;20.96;47.45;149.15;5.0;990.62;63.135;;;;NaN;;;;;0 / 0;59515;2022-11-03 16:52:03:584
-0.0958;-8.0113;0.158;-2.3632;-9.507;-0.4503;2.0774;-0.1959;-0.1661;2.1912;-1.8011;-0.5355;1.0;16.8;35.94;-15.48;104.51;75.8;100.79;5.0;990.53;64.708;;;;NaN;;;;;0 / 0;60015;2022-11-03 16:52:04:084
-2.2338;-7.8844;-3.6823;-1.1035;-9.5739;-1.8146;-0.7255;-0.6071;-3.2338;-4.4532;-2.7107;0.8108;1.0;15.18;38.88;-5.94;69.86;77.49;148.7;5.0;990.57;63.865;;;;NaN;;;;;0 / 0;60515;2022-11-03 16:52:04:584
-3.0885;-7.5636;-0.3591;-1.5513;-9.3211;-2.6233;1.242;-8.9903;-19.1153;0.3012;1.4658;0.0839;1.0;13.02;41.34;-8.16;41.5;66.04;150.81;5.0;990.53;67.094;;;;NaN;;;;;0 / 0;61015;2022-11-03 16:52:05:084
0.4956;-13.5658;-0.1101;-1.8738;-9.377;2.1749;1.8192;-2.3601;-4.5863;-0.4154;0.1781;-0.3003;1.0;21.54;26.7;-32.94;182.95;69.93;31.61;5.0;990.54;56.956;;;;NaN;;;;;0 / 0;61514;2022-11-03 16:52:05:583
-0.9026;-3.6224;-0.6895;-1.6426;-9.1937;-2.9913;1.0356;4.8607;4.8569;2.0586;0.8011;-1.3644;1.0;15.66;53.94;0.18;27.93;52.72;154.21;5.0;990.65;58.306;;;;NaN;;;;;0 / 0;62015;2022-11-03 16:52:06:084
-0.9601;-8.3561;-0.1748;-2.3064;-9.5156;0.5509;0.5023;0.2025;-1.3425;1.7373;0.6796;-1.1439;1.0;16.08;48.78;-33.06;110.64;76.01;76.57;5.0;990.57;61.347;;;;NaN;;;;;0 / 0;62514;2022-11-03 16:52:06:583
-2.3679;-5.7177;-1.3791;-1.1903;-9.2402;-3.0613;-0.0209;2.5878;5.6725;-3.5436;-2.8573;0.828;1.0;14.46;56.64;6.48;50.26;70.43;158.75;5.0;990.5;58.069;;;;NaN;;;;;0 / 0;63015;2022-11-03 16:52:07:084
-1.9704;-11.593;2.885;-1.988;-9.4014;-1.9574;-1.2991;-0.6455;3.8793;0.8143;2.7504;1.3704;1.0;12.18;51.36;1.68;54.09;73.62;146.93;5.0;990.57;62.515;;;;NaN;;;;;0 / 0;63515;2022-11-03 16:52:07:584
-2.1715;-11.4398;-5.0233;-0.808;-9.7705;-0.2338;1.1481;-2.9849;-2.0693;-3.6866;-0.9716;-0.8336;1.0;14.04;42.36;-22.08;171.38;68.8;35.5;5.0;990.51;56.308;;;;NaN;;;;;0 / 0;64014;2022-11-03 16:52:08:083
-10.4486;-13.1133;-24.285;-2.7546;-8.5767;-3.8759;1.0462;2.9512;-2.3247;-0.9615;-2.5073;1.1676;1.0;8.28;44.04;0.84;21.96;61.64;157.67;5.0;990.59;59.475;;;;NaN;;;;;0 / 0;64514;2022-11-03 16:52:08:583
-0.3208;-8.289;0.1149;-1.837;-9.1839;2.9071;1.2107;0.7203;-3.584;1.6958;0.004;-1.0071;1.0;18.18;35.34;-19.32;127.84;72.19;74.8;5.0;990.56;59.137;;;;NaN;;;;;0 / 0;65014;2022-11-03 16:52:09:083
0.2705;-5.3394;-1.2019;-2.6212;-7.911;-5.1688;2.9564;2.31;3.7046;0.8851;-0.0791;-0.5294;1.0;14.58;40.38;8.28;38.18;53.77;153.11;5.0;990.5;59.907;;;;NaN;;;;;0 / 0;65515;2022-11-03 16:52:09:584
-0.3759;-7.3912;0.0072;-1.6958;-9.5242;-1.6075;1.4006;1.4229;1.1773;1.1148;0.4041;0.9263;1.0;17.94;40.5;-7.2;84.25;76.22;133.47;5.0;990.48;57.874;;;;NaN;;;;;0 / 0;66020;2022-11-03 16:52:10:089
-2.1093;-12.5651;1.5107;-1.7903;-9.6228;0.606;-0.0092;-0.7398;2.0135;-2.1399;1.522;-1.2979;1.0;14.34;39.9;-9.78;149.47;78.89;71.3;5.0;990.5;59.148;;;;NaN;;;;;0 / 0;66514;2022-11-03 16:52:10:583
-9.4239;-6.2468;-5.7488;-2.7161;-8.9569;-2.9268;-10.8965;-0.0626;-11.2863;1.3659;-0.8274;1.2513;1.0;12.18;43.26;1.92;52.52;70.17;147.49;5.0;990.57;57.2;;;;NaN;;;;;0 / 0;67015;2022-11-03 16:52:11:084
-1.2905;-9.9291;0.8954;-0.6652;-9.3255;2.9603;0.7608;0.7136;-2.3677;2.5296;-3.2067;-0.5593;1.0;16.2;36.84;-19.8;143.23;77.74;64.12;5.0;990.54;56.849;;;;NaN;;;;;0 / 0;67514;2022-11-03 16:52:11:583
-1.5323;-8.7439;-3.4189;-3.2899;-7.7456;-5.0351;0.8411;-0.3217;2.3037;-0.4832;-0.6576;0.6948;1.0;21.84;36.18;9.0;83.01;61.43;155.44;5.0;990.52;57.256;;;;NaN;;;;;0 / 0;68014;2022-11-03 16:52:12:083
0.8595;-8.7487;-0.656;-2.5933;-9.3298;-1.5488;4.5664;2.8397;-0.2232;0.7905;-4.2305;0.1291;1.0;31.08;32.4;-3.48;127.16;72.06;120.85;5.0;990.51;60.007;;;;NaN;;;;;0 / 0;68514;2022-11-03 16:52:12:583
-1.8483;-12.3711;1.154;-1.6882;-9.6165;0.9181;0.173;-2.0412;1.7692;-2.5388;2.7626;-0.307;1.0;20.94;37.68;-10.32;184.65;78.7;61.46;5.0;990.49;57.605;;;;NaN;;;;;0 / 0;69015;2022-11-03 16:52:13:084
-8.5093;-7.7743;-4.1348;-2.6164;-9.0089;-2.8572;-7.6877;-2.4185;-10.795;1.504;2.2697;0.4022;1.0;21.24;37.92;-1.32;80.65;66.73;137.52;5.0;990.51;57.415;;;;NaN;;;;;0 / 0;69514;2022-11-03 16:52:13:583
-2.3798;-8.5428;-3.3854;-1.4186;-9.2857;2.8165;-0.3132;0.3416;-2.9495;1.4923;0.0718;-0.2863;1.0;20.22;33.72;-19.26;171.29;78.1;52.79;5.0;990.5;55.634;;;;NaN;;;;;0 / 0;70015;2022-11-03 16:52:14:084
-2.1308;-8.1549;-2.4876;-3.3993;-7.4903;-5.3394;0.9198;0.9062;3.3592;-3.0549;-2.2501;0.1511;1.0;25.5;36.96;5.4;91.5;65.49;149.66;5.0;990.5;56.72;;;;NaN;;;;;0 / 0;70514;2022-11-03 16:52:14:583
-1.142;-7.9897;3.8379;-2.2809;-9.3406;-1.9287;-0.4171;1.1488;6.765;1.5534;1.4963;1.368;1.0;23.82;39.12;1.02;94.84;70.29;141.83;5.0;990.46;62.26;;;;NaN;;;;;0 / 0;71015;2022-11-03 16:52:15:084
-1.2546;-12.3065;1.7454;-2.0015;-9.5943;0.3368;1.0707;-1.8113;2.3008;-1.8723;2.1371;-0.5715;1.0;25.14;37.44;-3.96;180.68;78.06;80.45;5.0;990.47;54.048;;;;NaN;;;;;0 / 0;71514;2022-11-03 16:52:15:583
-8.9163;-3.9432;-4.5538;-2.7666;-8.9507;-2.8982;-8.2535;-0.0095;-11.2092;0.8222;-0.0492;-0.4506;1.0;24.9;37.02;1.08;94.27;65.88;136.33;5.0;990.53;63.62;;;;NaN;;;;;0 / 0;72014;2022-11-03 16:52:16:083
-3.4572;-8.4518;-7.1254;-1.9149;-9.5151;1.4023;-0.0065;1.4107;-3.3966;0.4942;0.5073;-0.7047;1.0;23.7;32.88;-18.78;176.97;75.99;53.78;5.0;990.45;61.943;;;;NaN;;;;;0 / 0;72514;2022-11-03 16:52:16:583
-0.8475;-7.2212;-2.0614;-3.73;-7.5711;-4.9935;2.3137;0.3175;2.8443;-0.4588;-0.029;0.3564;1.0;30.72;32.28;6.42;94.96;57.48;145.07;5.0;990.52;58.147;;;;NaN;;;;;0 / 0;73014;2022-11-03 16:52:17:083
-1.0726;-10.6545;0.4621;-2.9026;-9.3598;-0.3722;1.0441;-2.5514;2.5183;2.7092;-2.853;0.8408;1.0;29.58;34.2;1.98;111.19;69.27;138.02;5.0;990.48;63.74;;;;NaN;;;;;0 / 0;73515;2022-11-03 16:52:17:584
-1.0127;-12.0431;0.3831;-1.4606;-9.5462;-1.7051;0.9812;-2.8757;-0.5726;-3.0934;0.4774;-1.4707;1.0;29.58;33.6;-9.48;210.38;72.06;54.01;5.0;990.45;58.078;;;;NaN;;;;;0 / 0;74015;2022-11-03 16:52:18:084
-5.756;-3.2729;6.2324;-3.3479;-8.5675;-3.3999;1.0905;-0.0712;1.1301;0.2266;5.8432;0.3191;1.0;26.52;36.78;-3.18;81.16;60.89;135.44;5.0;990.56;60.039;;;;NaN;;;;;0 / 0;74515;2022-11-03 16:52:18:584
-6.3306;-11.3153;-8.945;-1.2685;-9.2554;2.983;3.3933;-5.8582;-2.7886;-0.2334;2.4352;0.9501;1.0;24.24;30.36;-20.16;221.15;70.7;23.04;5.0;990.47;61.765;;;;NaN;;;;;0 / 0;75014;2022-11-03 16:52:19:083
-0.5818;-5.5668;-0.2586;-3.8667;-7.3732;-5.1822;1.8356;4.1789;3.6346;1.2895;0.4352;-1.3278;1.0;29.1;33.9;8.88;77.52;48.75;143.27;5.0;990.5;59.727;;;;NaN;;;;;0 / 0;75514;2022-11-03 16:52:19:583
-1.0487;-8.3154;0.34;-2.4766;-9.4605;0.7323;2.3756;0.8704;0.0844;0.2694;0.5745;-0.6204;1.0;28.14;33.42;-9.0;140.4;71.84;97.2;5.0;990.41;64.663;;;;NaN;;;;;0 / 0;76014;2022-11-03 16:52:20:083
-3.7613;-10.1373;0.735;-1.7476;-9.3887;-2.2291;-3.7375;-3.3044;-2.2127;-1.5681;0.31;-0.6003;1.0;23.16;37.74;-4.8;178.95;77.22;78.38;5.0;990.45;59.821;;;;NaN;;;;;0 / 0;76514;2022-11-03 16:52:20:583
-3.1651;-14.0878;0.0694;-2.6228;-9.1193;-2.4757;-1.3422;-2.3515;6.6801;3.1227;1.7138;0.0925;1.0;23.46;38.28;-0.06;84.91;65.9;138.21;5.0;990.53;60.401;;;;NaN;;;;;0 / 0;77014;2022-11-03 16:52:21:083
0.2274;-11.5763;-0.6871;-2.754;-8.9332;2.9637;0.6317;-3.4855;-4.7346;-2.3812;-0.0999;-0.2032;1.0;28.02;30.54;-18.72;203.71;65.63;42.9;5.0;990.49;56.663;;;;NaN;;;;;0 / 0;77515;2022-11-03 16:52:21:584
-0.6512;-4.8794;0.0742;-3.7296;-7.7506;-4.7104;-4.8838;-4.3819;-7.4581;4.4312;-2.9447;-2.6155;1.0;26.82;37.38;5.16;70.71;52.22;141.63;5.0;990.49;59.968;;;;NaN;;;;;0 / 0;78015;2022-11-03 16:52:22:084
-0.237;-8.8469;0.7781;-3.2267;-9.2564;-0.2791;1.828;1.6779;0.8288;2.1747;-1.3955;-1.0847;1.0;28.38;34.32;-10.32;139.1;70.72;94.94;5.0;990.47;62.793;;;;NaN;;;;;0 / 0;78515;2022-11-03 16:52:22:584
-2.1141;-5.9666;-0.4381;-3.2605;-8.2645;-4.1518;1.0058;4.8942;2.4066;-3.3457;-3.5488;0.3564;1.0;25.14;37.8;2.16;120.67;75.36;133.35;5.0;990.43;59.081;;;;NaN;;;;;0 / 0;79014;2022-11-03 16:52:23:083
-3.6631;-13.8316;1.9872;-2.0618;-9.3317;-2.1996;-1.7112;-0.3958;4.856;1.0177;4.1114;0.0735;1.0;24.24;38.28;-0.48;97.73;65.86;126.97;5.0;990.54;58.179;;;;NaN;;;;;0 / 0;79515;2022-11-03 16:52:23:584
-5.507;-11.3464;-7.657;-2.2925;-9.3536;1.8507;0.0934;-4.1991;-6.1981;0.0177;-0.1109;-1.5257;1.0;28.26;31.08;-16.62;199.32;65.59;48.54;5.0;990.5;56.447;;;;NaN;;;;;0 / 0;80015;2022-11-03 16:52:24:084
-5.9212;-13.0511;-8.6003;-2.6118;-9.1672;-2.3046;-2.1632;4.4706;7.089;-0.1802;-1.1335;0.7937;1.0;24.42;38.58;0.78;103.34;69.19;131.43;5.0;990.51;58.848;;;;NaN;;;;;0 / 0;80514;2022-11-03 16:52:24:583
-1.7382;-9.4382;0.1197;-2.5422;-9.3326;1.6152;-1.4211;-2.0411;-5.5155;1.0965;-1.6661;-0.4598;1.0;25.5;33.84;-16.56;178.78;72.11;57.57;5.0;990.46;57.982;;;;NaN;;;;;0 / 0;81014;2022-11-03 16:52:25:083
-2.3343;-6.4694;-2.3703;-3.0071;-8.4531;-3.9588;4.0019;2.3834;3.7588;-0.4759;-0.6209;0.6765;1.0;30.24;32.34;10.44;109.4;59.54;142.78;5.0;990.47;57.317;;;;NaN;;;;;0 / 0;81514;2022-11-03 16:52:25:583
0.747;-7.6953;-0.3017;-3.2648;-9.2271;-0.6102;3.0101;1.7911;3.3129;0.5638;2.8042;1.0497;1.0;29.22;34.38;5.7;138.84;70.67;126.35;5.0;990.4;61.034;;;;NaN;;;;;0 / 0;82014;2022-11-03 16:52:26:083
-1.9369;-12.6944;1.9561;-2.1843;-9.5187;-0.8907;1.7388;-3.5034;0.7873;-3.4496;0.4175;-0.7951;1.0;30.36;33.54;-9.6;222.2;66.81;48.91;5.0;990.44;61.791;;;;NaN;;;;;0 / 0;82514;2022-11-03 16:52:26:583
-5.7895;-2.7174;3.948;-3.1064;-8.6882;-3.3219;-7.9009;3.2734;-5.0555;-2.8607;-0.5348;1.4834;1.0;24.06;38.88;-2.34;82.06;67.4;142.03;5.0;990.46;62.819;;;;NaN;;;;;0 / 0;83016;2022-11-03 16:52:27:085
-2.5067;-10.2738;-3.6847;-2.5979;-9.1054;2.5519;4.8051;-4.3056;-2.3448;0.1332;1.1188;0.9904;1.0;30.78;31.5;-14.28;213.46;68.2;45.51;5.0;990.45;56.385;;;;NaN;;;;;0 / 0;83514;2022-11-03 16:52:27:583
-1.5682;-7.3026;-2.1668;-3.805;-7.5412;-4.9821;2.9406;3.4707;3.9325;1.7856;0.8128;-0.7811;1.0;33.48;31.26;11.88;98.76;50.26;142.63;5.0;990.45;55.797;;;;NaN;;;;;0 / 0;84014;2022-11-03 16:52:28:083
-1.391;-11.0926;0.3687;-2.7724;-9.2273;-1.8277;3.3175;0.8301;-4.4473;1.2419;-3.985;0.0424;1.0;31.68;33.6;4.86;140.35;70.21;123.39;5.0;990.42;62.128;;;;NaN;;;;;0 / 0;84515;2022-11-03 16:52:28:584
0.7829;-10.9442;0.1891;-3.0491;-8.8685;-2.8674;1.8446;-3.8741;1.4528;-3.5131;-2.1267;-0.1311;1.0;30.54;33.6;7.32;193.83;70.21;94.67;5.0;990.46;64.504;;;;NaN;;;;;0 / 0;85014;2022-11-03 16:52:29:083
-5.0712;-21.6609;4.7477;-3.0227;-9.1166;-1.9801;-2.6609;-8.0288;10.7272;3.2865;-0.5348;-0.2136;1.0;31.56;33.9;3.0;110.22;62.65;132.48;5.0;990.53;57.291;;;;NaN;;;;;0 / 0;85514;2022-11-03 16:52:29:583
0.3496;-11.6625;-1.1827;-2.5738;-9.0235;2.8499;1.9288;-1.4909;-6.7385;0.5186;0.9881;0.6508;1.0;25.74;33.54;-19.62;212.58;71.46;31.6;5.0;990.43;61.2;;;;NaN;;;;;0 / 0;86015;2022-11-03 16:52:30:084
-1.5921;-5.167;0.1341;-3.4524;-8.2278;-4.0687;-4.7863;-4.0184;-14.9739;2.4984;-2.6735;-2.3657;1.0;26.34;37.86;1.44;72.84;57.04;139.68;5.0;990.41;54.872;;;;NaN;;;;;0 / 0;86514;2022-11-03 16:52:30:583
-0.0886;-6.4551;0.1317;-2.3858;-9.4214;-1.3099;2.5657;0.2448;2.1504;2.7813;0.4713;0.4352;1.0;27.96;35.94;-2.04;129.75;73.89;118.77;5.0;990.39;58.218;;;;NaN;;;;;0 / 0;87015;2022-11-03 16:52:31:084
0.7638;-16.1399;1.5945;-2.0189;-9.5618;-0.816;-0.1098;1.1219;-1.8657;-2.8112;-0.9441;0.2464;1.0;26.88;37.44;0.18;148.0;77.17;112.01;5.0;990.4;59.526;;;;NaN;;;;;0 / 0;87514;2022-11-03 16:52:31:583
-1.5227;-8.4518;2.6863;-3.0316;-8.9753;-2.5345;0.188;0.6525;5.0082;-0.9774;0.164;1.1859;1.0;17.88;40.56;-7.2;74.22;71.32;131.92;5.0;990.44;56.554;;;;NaN;;;;;0 / 0;88015;2022-11-03 16:52:32:084
0.5243;-12.8883;0.7757;-2.1889;-9.2049;2.5785;1.3602;-1.8531;-2.2261;-0.5156;1.0009;0.8237;1.0;23.04;33.36;-19.92;208.3;71.89;31.17;5.0;990.45;58.924;;;;NaN;;;;;0 / 0;88515;2022-11-03 16:52:32:584
-1.8531;-5.3418;-0.395;-3.0651;-7.9305;-4.887;2.1851;2.7122;4.9281;0.0996;0.1463;-0.1513;1.0;31.26;33.24;11.34;94.0;54.04;148.12;5.0;990.48;56.326;;;;NaN;;;;;0 / 0;89014;2022-11-03 16:52:33:083
-0.6297;-8.0975;-0.0024;-1.9053;-9.5926;-0.7228;1.9056;0.9182;-2.0575;2.1912;-1.0437;0.225;1.0;27.48;36.96;-6.84;132.12;78.01;110.77;5.0;990.39;59.847;;;;NaN;;;;;0 / 0;89514;2022-11-03 16:52:33:583
-0.996;-11.7319;0.668;-1.7402;-9.6196;-0.7779;-0.2849;-0.3013;-6.2704;-0.9438;0.5067;0.8206;0.0;25.62;37.2;2.64;155.52;78.79;114.09;5.0;990.37;55.322;;;;NaN;;;;;0 / 0;90015;2022-11-03 16:52:34:084
-7.5253;-1.6592;2.1356;-2.5575;-9.1962;-2.2493;1.0775;0.3754;4.2381;0.4166;1.3974;1.1645;0.0;24.48;37.5;-6.42;89.96;69.68;131.33;5.0;990.5;55.576;;;;NaN;;;;;0 / 0;90514;2022-11-03 16:52:34:583
0.9098;-14.1835;0.2753;-2.0771;-9.0079;3.2732;0.5578;-3.2489;-3.1624;-0.0898;1.4138;1.2629;1.0;23.4;34.32;-20.82;226.3;68.35;20.99;5.0;990.44;56.87;;;;NaN;;;;;0 / 0;91014;2022-11-03 16:52:35:083
-1.1109;-3.6536;-0.4381;-2.7657;-8.2316;-4.5564;2.009;3.805;5.3402;0.6921;-0.3204;-0.3864;0.0;31.26;33.3;11.64;96.14;53.86;147.62;5.0;990.43;57.996;;;;NaN;;;;;0 / 0;91515;2022-11-03 16:52:35:584
-0.7614;-7.3673;-0.5387;-2.2897;-9.5265;0.4168;1.4027;1.5434;0.933;2.5467;-4.076;0.3173;0.0;28.14;36.18;7.98;116.67;72.32;147.75;5.0;990.38;61.456;;;;NaN;;;;;0 / 0;92015;2022-11-03 16:52:36:084
-3.0382;-12.7398;1.1995;-1.3458;-9.5981;-1.4953;-0.9402;2.5636;4.1581;-3.4153;-4.9214;0.3576;0.0;24.9;37.2;8.46;137.81;78.16;138.01;5.0;990.4;58.262;;;;NaN;;;;;0 / 0;92515;2022-11-03 16:52:36:584
-5.8541;-7.1925;4.5131;-2.9627;-9.0209;-2.4526;-0.0593;-0.5059;4.2847;1.8155;6.1077;0.3503;0.0;30.06;35.4;0.36;111.49;66.91;129.62;5.0;990.41;58.4;;;;NaN;;;;;0 / 0;93015;2022-11-03 16:52:37:084
-3.1771;-11.0543;0.9266;-1.5871;-9.044;3.4434;2.6451;-5.6042;-4.6223;1.0446;1.4847;0.2763;1.0;26.82;32.1;-17.94;232.3;67.26;24.75;5.0;990.48;58.665;;;;NaN;;;;;0 / 0;93514;2022-11-03 16:52:37:583
-0.4118;-5.8374;-2.739;-1.838;-9.1184;-3.1058;1.7138;4.1026;3.1889;2.0006;0.558;-0.9967;1.0;29.16;34.2;9.72;87.47;53.93;148.45;5.0;990.47;58.475;;;;NaN;;;;;0 / 0;94015;2022-11-03 16:52:38:084
-0.2083;-9.613;0.2562;-2.9209;-9.348;0.5029;2.4849;0.153;0.1835;0.7208;-2.4493;0.4162;1.0;31.02;33.06;2.46;138.04;72.75;121.93;5.0;990.36;60.816;;;;NaN;;;;;0 / 0;94514;2022-11-03 16:52:38:583
-0.917;-5.4232;-1.1468;-1.3603;-9.2798;-2.8644;-1.5584;2.773;-2.0943;-2.0238;0.6564;0.3069;1.0;22.38;38.34;4.32;179.56;82.44;100.64;5.0;990.35;59.731;;;;NaN;;;;;0 / 0;95016;2022-11-03 16:52:39:085
-2.2218;-10.4941;2.9329;-1.86;-9.5349;-1.3404;2.2291;2.5808;3.1108;-0.7214;3.1774;1.1774;1.0;27.6;34.74;7.38;149.13;76.48;125.78;5.0;990.41;57.411;;;;NaN;;;;;0 / 0;95514;2022-11-03 16:52:39:583
-2.3463;-12.7039;-3.0502;-2.505;-8.9839;3.0307;1.4054;-3.6534;-0.3154;-2.9627;1.5953;-1.4884;0.0;29.28;33.84;-10.2;237.06;66.36;39.57;5.0;990.39;56.641;;;;NaN;;;;;0 / 0;96015;2022-11-03 16:52:40:084
-0.2322;-8.1669;-2.0279;-1.4869;-9.4933;-1.9586;-9.9677;7.3477;-6.0899;-2.9975;-0.3577;1.2415;0.0;20.16;40.02;-6.42;81.42;75.48;142.8;5.0;990.43;56.057;;;;NaN;;;;;0 / 0;96514;2022-11-03 16:52:40:583
-3.2106;-10.779;0.1077;-2.1027;-8.8149;3.7479;0.6877;-2.056;-2.4243;-0.0287;0.7181;-0.7432;0.0;27.96;31.08;-19.02;178.93;70.41;56.52;5.0;990.38;60.747;;;;NaN;;;;;0 / 0;97014;2022-11-03 16:52:41:083
-1.6305;-7.3984;-0.4286;-2.9934;-8.3664;-4.1489;0.8444;0.7736;2.4705;-2.9089;-2.7321;0.1193;1.0;27.18;37.56;2.28;106.59;72.1;141.21;5.0;990.34;60.935;;;;NaN;;;;;0 / 0;97515;2022-11-03 16:52:41:584
0.182;-9.4287;-0.4357;-2.6436;-9.4273;-0.5549;2.0716;-1.1252;1.9049;2.3274;1.8903;0.707;1.0;26.04;39.36;-3.66;105.56;73.7;130.48;5.0;990.4;64.889;;;;NaN;;;;;0 / 0;98014;2022-11-03 16:52:42:083
-0.7254;-11.6194;0.3184;-2.2885;-9.5138;0.648;0.5866;-3.6127;2.0197;-1.978;2.1334;-0.629;1.0;26.82;40.86;-2.52;195.56;75.96;74.19;5.0;990.48;55.097;;;;NaN;;;;;0 / 0;98514;2022-11-03 16:52:42:583
-12.1964;-7.6474;-16.3698;-2.397;-8.9807;-3.126;-0.9631;-9.4074;5.0542;-1.5382;0.6417;0.4773;1.0;19.38;44.04;-0.78;63.52;66.32;142.52;5.0;990.48;53.7;;;;NaN;;;;;0 / 0;99015;2022-11-03 16:52:43:084
-2.1715;-10.6832;-5.4423;-1.8831;-9.0812;3.1869;3.1331;-4.7941;-4.9758;0.8815;2.4352;-0.8275;1.0;25.44;37.26;-21.48;216.68;67.82;30.58;5.0;990.41;55.776;;;;NaN;;;;;0 / 0;99514;2022-11-03 16:52:43:583
1.2258;-4.8435;-2.6671;-1.4641;-9.2525;-2.9012;3.3108;5.1418;2.833;4.2284;-2.9844;-2.318;1.0;26.94;38.46;14.4;97.13;56.46;143.87;5.0;990.4;60.49;;;;NaN;;;;;0 / 0;100014;2022-11-03 16:52:44:083
-1.5754;-10.9298;-0.4621;-3.1948;-9.0636;1.953;2.0008;-0.7856;0.3036;2.5821;-3.4187;0.1248;1.0;29.16;38.46;6.78;138.01;69.33;125.64;5.0;990.36;63.054;;;;NaN;;;;;0 / 0;100515;2022-11-03 16:52:44:584
-2.4038;-7.2715;1.5107;-2.0903;-9.0401;-3.1746;-1.3667;-0.1455;0.9866;-2.4978;-3.4969;0.3887;1.0;24.54;39.3;7.14;177.47;77.36;107.28;5.0;990.33;57.357;;;;NaN;;;;;0 / 0;101014;2022-11-03 16:52:45:083
-2.6911;-9.8596;2.1548;-2.4341;-9.1896;-2.4077;1.8987;-3.9026;4.1403;1.496;4.3362;0.9397;1.0;28.74;35.22;8.58;132.96;69.57;134.69;5.0;990.4;58.142;;;;NaN;;;;;0 / 0;101515;2022-11-03 16:52:45:584
-0.7805;-14.0806;-1.087;-2.409;-9.0285;2.9755;1.7454;-1.3141;-0.9035;-2.2254;-1.4181;0.1523;1.0;27.72;34.26;-13.2;227.95;67.02;38.99;5.0;990.37;57.526;;;;NaN;;;;;0 / 0;102014;2022-11-03 16:52:46:083
-0.1317;-5.2149;-3.474;-2.0102;-9.1044;-3.0397;-11.239;1.6472;-9.7197;3.1991;-2.4596;-1.8544;1.0;20.34;40.08;-5.64;65.13;68.19;146.52;5.0;990.47;58.931;;;;NaN;;;;;0 / 0;102514;2022-11-03 16:52:46:583
-3.8523;-11.3991;-0.7709;-1.6381;-9.2017;2.9691;-2.0664;-1.1654;-7.8489;1.0177;1.4725;-0.1482;1.0;25.68;34.74;-19.62;155.37;71.64;67.82;5.0;990.36;58.218;;;;NaN;;;;;0 / 0;103014;2022-11-03 16:52:47:083
-1.5036;-6.7783;-2.0782;-3.2733;-7.6258;-5.2252;0.7853;-0.1075;1.6954;0.022;-0.1775;0.3619;1.0;29.76;38.22;9.3;165.15;78.88;104.39;5.0;990.35;60.121;;;;NaN;;;;;0 / 0;103514;2022-11-03 16:52:47:583
0.8763;-7.8916;-0.6297;-2.551;-9.41;-1.0558;1.5605;-1.7171;1.8092;2.1197;-2.0125;0.6276;1.0;25.5;36.9;6.06;121.37;73.29;139.95;5.0;990.32;59.323;;;;NaN;;;;;0 / 0;104014;2022-11-03 16:52:48:083
-2.7533;-10.7359;1.0918;-1.149;-9.739;0.0282;-2.739;0.364;3.2286;-2.6823;0.4988;-0.3522;1.0;22.26;37.5;-0.84;178.48;83.27;88.6;5.0;990.32;56.932;;;;NaN;;;;;0 / 0;104514;2022-11-03 16:52:48:583
-9.6585;-4.2521;-7.238;-3.1532;-8.5731;-3.5679;1.1037;-0.0131;7.2249;1.5119;-1.0143;0.12;1.0;29.4;35.58;0.36;88.18;60.95;138.53;5.0;990.36;60.607;;;;NaN;;;;;0 / 0;105014;2022-11-03 16:52:49:083
-0.2682;-7.621;-0.8045;-2.1939;-9.1137;2.8805;1.518;-3.9313;-5.3131;0.8216;-4.2984;-1.0028;1.0;25.2;33.84;-16.98;214.23;68.33;37.29;5.0;990.33;59.892;;;;NaN;;;;;0 / 0;105515;2022-11-03 16:52:49:584
-0.5483;-4.2617;0.34;-3.0015;-8.6073;-3.616;3.754;3.1045;6.1252;2.5669;0.1408;-1.5288;1.0;32.58;32.04;11.94;109.37;55.32;141.4;5.0;990.34;62.619;;;;NaN;;;;;0 / 0;106015;2022-11-03 16:52:50:084
-0.0766;-6.8717;0.1484;-3.4498;-9.1777;-0.1967;2.8162;1.4381;0.8925;0.4862;-2.3124;-0.0407;1.0;31.98;33.3;4.98;145.74;71.61;121.16;5.0;990.35;62.741;;;;NaN;;;;;0 / 0;106514;2022-11-03 16:52:50:583
-4.0438;-13.0487;2.4086;-1.3494;-9.5618;-1.7093;-0.572;3.6765;4.8377;-1.0482;0.4328;-0.5245;1.0;26.04;35.82;8.34;131.84;77.17;141.71;5.0;990.31;61.392;;;;NaN;;;;;0 / 0;107015;2022-11-03 16:52:51:084
-4.6495;-11.7415;3.5243;-2.7095;-9.1069;-2.4274;0.3418;-0.6132;4.7334;2.058;2.5012;-0.4799;1.0;27.96;36.72;0.54;109.24;68.23;131.86;5.0;990.43;62.072;;;;NaN;;;;;0 / 0;107515;2022-11-03 16:52:51:584
-2.5043;-10.8173;-3.1316;-3.0819;-8.8819;2.7899;3.1478;-5.8444;-4.2321;-0.5076;-0.3625;0.5402;1.0;32.88;30.9;-12.36;219.09;64.92;47.85;5.0;990.3;61.141;;;;NaN;;;;;0 / 0;108014;2022-11-03 16:52:52:083
-0.759;-4.8291;-0.9864;-3.6776;-7.5382;-5.0814;1.637;4.8243;2.3219;0.2981;-0.4621;-0.2832;1.0;32.64;32.58;10.38;89.98;50.24;144.11;5.0;990.34;55.032;;;;NaN;;;;;0 / 0;108514;2022-11-03 16:52:52:583
-0.486;-9.7998;0.6704;-2.5924;-9.4534;0.2871;2.5498;-0.2264;0.3441;2.0006;-3.1004;-1.0065;1.0;32.94;33.66;-2.1;139.85;70.42;111.85;5.0;990.31;59.057;;;;NaN;;;;;0 / 0;109014;2022-11-03 16:52:53:083
-1.1923;-8.7008;-3.6129;-2.0768;-9.2241;-2.6024;-0.7534;-0.5683;0.7329;-3.3995;-3.9386;0.6178;1.0;24.84;38.4;-4.14;175.07;80.38;84.54;5.0;990.3;59.836;;;;NaN;;;;;0 / 0;109514;2022-11-03 16:52:53:583
-3.1436;-10.2906;0.6919;-2.6481;-9.2227;-2.0246;2.2055;-2.2727;3.2606;0.5089;1.7205;0.2073;1.0;24.06;38.88;-5.46;95.6;70.13;127.4;5.0;990.33;54.817;;;;NaN;;;;;0 / 0;110016;2022-11-03 16:52:54:085
-0.2538;-12.6513;-1.5275;-2.2901;-8.9506;3.2882;0.4132;-3.505;-5.5633;-0.1674;1.6258;-0.0609;1.0;28.62;33.24;-17.46;224.41;65.88;34.86;5.0;990.35;54.763;;;;NaN;;;;;0 / 0;110514;2022-11-03 16:52:54:583
-0.6273;-3.0526;-0.3783;-2.7002;-8.2748;-4.5173;-7.7088;-14.2595;-10.9884;2.4764;0.6203;-1.6974;1.0;23.64;38.4;4.2;69.04;57.54;149.13;5.0;990.36;55.577;;;;NaN;;;;;0 / 0;111014;2022-11-03 16:52:55:083
-1.1349;-8.6745;-2.6791;-2.4829;-9.4706;0.5588;1.414;2.703;-2.9476;1.1961;-1.2758;-0.2252;1.0;27.3;34.62;-12.3;163.0;74.96;77.32;5.0;990.28;61.072;;;;NaN;;;;;0 / 0;111515;2022-11-03 16:52:55:584
-1.822;-6.4215;-1.1923;-3.1932;-7.4794;-5.4802;0.1332;0.5877;2.9253;-0.248;-0.3015;0.4394;1.0;28.32;33.84;10.14;118.91;68.93;146.76;5.0;990.3;58.515;;;;NaN;;;;;0 / 0;112014;2022-11-03 16:52:56:083
0.5531;-10.2259;0.8811;-2.8237;-9.3018;-1.2938;2.5195;-2.2848;2.1027;2.4893;-1.9135;1.2739;1.0;28.02;35.4;5.58;127.82;72.14;135.13;5.0;990.31;61.67;;;;NaN;;;;;0 / 0;112514;2022-11-03 16:52:56:583
-2.1261;-13.3887;2.3128;-1.847;-9.6209;-0.4431;1.1829;-3.5931;0.725;-2.0708;0.0883;-1.0358;1.0;30.3;32.34;-8.94;233.63;65.01;44.08;5.0;990.31;55.601;;;;NaN;;;;;0 / 0;113014;2022-11-03 16:52:57:083
-6.9722;-0.917;-2.9425;-2.7788;-8.6251;-3.749;-0.9252;-3.5923;5.5113;2.5235;-0.5867;0.5854;1.0;29.88;34.32;-0.12;88.89;61.58;143.45;5.0;990.43;59.298;;;;NaN;;;;;0 / 0;113515;2022-11-03 16:52:57:584
-5.5716;-10.1709;-7.9945;-1.4584;-9.1885;3.1007;3.2392;-5.2591;-3.3689;0.135;1.4261;0.1908;1.0;28.56;31.32;-15.54;233.65;69.55;25.19;5.0;990.31;56.362;;;;NaN;;;;;0 / 0;114015;2022-11-03 16:52:58:084
-0.984;-6.4479;-1.9369;-3.2639;-7.6973;-5.1252;1.6377;3.8079;4.0814;0.0483;-1.0553;0.2085;1.0;33.48;29.88;11.94;98.69;51.71;147.51;5.0;990.32;59.693;;;;NaN;;;;;0 / 0;114514;2022-11-03 16:52:58:583
-0.905;-7.9443;0.1101;-2.0386;-9.5497;0.9036;1.7558;1.8647;-0.4;1.7385;1.1921;-0.7915;1.0;29.28;32.94;-6.42;133.86;73.66;109.92;5.0;990.27;61.44;;;;NaN;;;;;0 / 0;115015;2022-11-03 16:52:59:084
-2.2218;-11.7367;-5.4136;-2.0195;-9.3275;-2.2558;-0.6795;-2.1973;1.9412;-4.0421;-3.7302;0.1438;1.0;29.82;34.74;-1.8;204.98;75.2;69.19;5.0;990.29;56.384;;;;NaN;;;;;0 / 0;115514;2022-11-03 16:52:59:583
-7.2595;-20.8062;6.3641;-2.508;-9.2059;-2.2653;-0.2485;-5.9497;6.9067;1.5107;6.4095;-0.5306;1.0;28.2;35.46;2.82;99.41;65.08;141.14;5.0;990.34;60.393;;;;NaN;;;;;0 / 0;116016;2022-11-03 16:53:00:085
-1.9393;-10.4486;-3.5961;-1.8233;-9.1574;2.9979;-0.5394;-2.5715;-6.9567;-0.0489;1.8665;0.5207;1.0;27.54;31.74;-17.7;221.45;69.03;31.31;5.0;990.33;57.374;;;;NaN;;;;;0 / 0;116514;2022-11-03 16:53:00:583
-0.9601;-3.7397;0.1269;-3.002;-7.8881;-4.9935;-8.1446;-4.4455;-17.6379;1.3158;0.6332;-1.0902;1.0;28.56;34.8;7.68;81.06;53.55;148.99;5.0;990.38;56.048;;;;NaN;;;;;0 / 0;117015;2022-11-03 16:53:01:084
-0.1915;-7.0321;-0.146;-2.3443;-9.522;0.0828;0.9255;-0.2006;-3.5089;1.4508;-0.1481;-0.7139;1.0;27.54;34.02;-12.18;150.5;76.16;87.98;5.0;990.26;63.998;;;;NaN;;;;;0 / 0;117514;2022-11-03 16:53:01:583
-2.1093;-6.9363;-2.7414;-3.0013;-8.0765;-4.6833;0.4778;1.6883;3.6785;-3.094;-1.1897;0.6074;1.0;28.14;36.3;2.76;131.97;76.89;130.75;5.0;990.24;52.819;;;;NaN;;;;;0 / 0;118014;2022-11-03 16:53:02:083
-0.4693;-12.024;1.7478;-2.7272;-9.2239;-1.9112;-0.5461;-2.0643;6.289;2.5772;1.9893;0.4468;1.0;29.82;35.16;-0.24;110.13;64.65;127.11;5.0;990.33;58.624;;;;NaN;;;;;0 / 0;118514;2022-11-03 16:53:02:583
-1.1061;-10.5707;-3.5769;-2.3276;-9.3802;1.6626;2.6787;-3.554;-3.537;-3.799;-1.5317;0.0601;1.0;28.26;36.06;-8.94;229.32;68.33;25.18;5.0;990.32;55.193;;;;NaN;;;;;0 / 0;119015;2022-11-03 16:53:03:084
-10.0296;-21.242;-16.0346;-2.5598;-8.9808;-2.9938;-0.5893;2.6086;10.2777;-2.5681;-0.938;1.0882;1.0;26.46;37.8;0.66;92.72;66.32;139.47;5.0;990.31;56.912;;;;NaN;;;;;0 / 0;119515;2022-11-03 16:53:03:584
-1.719;-8.9762;-2.3535;-2.0197;-9.3106;2.3247;-1.8622;-1.3949;-6.4944;0.6946;1.9642;-0.9924;1.0;25.98;32.52;-19.5;200.23;71.7;40.99;5.0;990.31;58.014;;;;NaN;;;;;0 / 0;120014;2022-11-03 16:53:04:083
-2.4876;-7.7743;2.8395;-2.656;-7.9852;-5.0351;1.85;2.3977;6.5848;-1.9487;1.6582;0.39;1.0;28.5;33.66;12.54;91.88;54.51;152.19;5.0;990.23;55.674;;;;NaN;;;;;0 / 0;120514;2022-11-03 16:53:04:583
-0.4262;-9.1845;0.237;-2.4478;-9.4962;-0.032;2.0928;1.0665;0.5598;0.7275;-2.0944;-0.8996;1.0;30.6;34.86;-1.32;123.18;72.88;127.1;5.0;990.26;61.289;;;;NaN;;;;;0 / 0;121014;2022-11-03 16:53:05:083
-2.9329;-10.2044;1.6376;-1.6825;-9.5415;-1.5162;-0.9653;-2.0915;1.9086;-2.9102;-1.0571;0.4431;1.0;24.96;36.12;-8.94;210.15;76.54;49.91;5.0;990.3;54.779;;;;NaN;;;;;0 / 0;121514;2022-11-03 16:53:05:583
-2.1069;-11.423;-0.328;-3.0111;-8.9166;-2.7564;1.0966;0.905;7.3292;2.2382;5.1792;-0.4262;1.0;28.38;36.6;2.1;94.04;65.43;142.71;5.0;990.36;56.315;;;;NaN;;;;;0 / 0;122015;2022-11-03 16:53:06:084
0.1269;-11.593;-3.6943;-1.8647;-9.1639;2.9522;-1.3595;-2.913;-6.9592;-0.2254;1.2062;0.7137;1.0;26.28;32.4;-19.08;215.5;69.14;32.28;5.0;990.28;59.312;;;;NaN;;;;;0 / 0;122515;2022-11-03 16:53:06:584
-0.7757;-4.6519;0.4525;-2.75;-7.9163;-5.0931;-1.1745;-1.3443;-5.8946;1.0782;-0.3729;-0.7145;1.0;26.76;35.94;8.7;76.99;53.83;151.63;5.0;990.37;63.337;;;;NaN;;;;;0 / 0;123015;2022-11-03 16:53:07:084
-0.6416;-8.7463;-1.0367;-2.47;-9.489;0.1658;0.9006;2.3556;0.7101;0.2095;-2.908;-0.1366;1.0;23.76;35.4;-13.38;143.18;75.38;86.16;5.0;990.23;60.843;;;;NaN;;;;;0 / 0;123514;2022-11-03 16:53:07:583
-2.5115;-8.5476;-0.4262;-2.2166;-8.7839;-3.755;-2.7623;0.6485;-3.7825;-3.9315;-0.1035;0.539;1.0;22.5;37.86;-5.46;132.24;79.7;112.59;5.0;990.24;56.52;;;;NaN;;;;;0 / 0;124015;2022-11-03 16:53:08:084
-0.8284;-9.637;1.0056;-1.7993;-9.346;-2.3634;1.349;1.4107;4.8969;2.6072;2.6539;0.1823;1.0;19.68;39.84;-4.14;66.83;64.62;136.8;5.0;990.27;62.027;;;;NaN;;;;;0 / 0;124515;2022-11-03 16:53:08:584
-2.2936;-12.3304;-4.0773;-1.0156;-9.3584;2.7495;1.185;-4.0134;-3.796;-2.6573;-1.1066;0.1261;1.0;19.2;31.92;-25.92;207.71;70.6;18.74;5.0;990.21;59.067;;;;NaN;;;;;0 / 0;125015;2022-11-03 16:53:09:084
-0.5914;-6.2037;-4.1515;-1.785;-9.0459;-3.3399;-10.0593;3.2167;-6.1195;2.587;-3.7266;-1.7035;1.0;16.08;41.94;-4.26;51.96;67.28;151.88;5.0;990.26;54.327;;;;NaN;;;;;0 / 0;125515;2022-11-03 16:53:09:584
-0.4645;-8.617;0.3352;-2.2475;-9.4886;1.0422;0.2781;1.6133;-3.441;3.2162;-2.7596;-0.7194;1.0;22.86;33.78;-21.0;155.05;75.37;65.12;5.0;990.23;59.43;;;;NaN;;;;;0 / 0;126014;2022-11-03 16:53:10:083
-2.7821;-9.3951;0.9744;-1.6839;-9.2686;-2.7253;0.5706;0.5672;3.1315;-3.0513;-2.613;0.4071;1.0;23.46;39.12;1.86;90.91;70.93;148.29;5.0;990.23;57.914;;;;NaN;;;;;0 / 0;126514;2022-11-03 16:53:10:583
0.1269;-10.4749;0.6871;-2.1143;-9.5106;-1.1173;2.5547;-3.916;3.2756;1.7153;-0.4701;0.4608;1.0;22.26;39.84;-1.56;80.45;72.27;150.06;5.0;990.24;62.155;;;;NaN;;;;;0 / 0;127015;2022-11-03 16:53:11:084
-0.6273;-12.2897;-0.4214;-1.6717;-9.6354;0.7309;-0.4221;-2.9504;-4.6702;-2.8283;1.4694;-0.2698;1.0;22.56;31.8;-22.2;209.88;69.75;28.09;5.0;990.26;54.928;;;;NaN;;;;;0 / 0;127514;2022-11-03 16:53:11:583
-7.0752;-16.9563;-14.78;-2.0649;-8.8557;-3.6718;-10.7621;-7.2629;-24.3862;-4.3854;-1.2972;1.0625;1.0;22.38;39.66;1.56;57.2;56.8;152.97;5.0;990.37;56.841;;;;NaN;;;;;0 / 0;128014;2022-11-03 16:53:12:083
-1.1037;-8.5261;-0.8092;-1.5942;-9.4212;2.2067;-0.2415;-1.5999;-6.4941;1.5821;1.31;-0.6039;1.0;21.42;32.22;-24.18;187.82;73.88;35.85;5.0;990.16;62.434;;;;NaN;;;;;0 / 0;128514;2022-11-03 16:53:12:583
-1.8603;-7.3361;-2.0327;-2.5062;-8.1089;-4.9127;2.8073;2.3;5.8426;-2.7012;-1.6423;0.7406;1.0;29.04;35.1;9.54;86.18;55.78;152.97;5.0;990.23;60.01;;;;NaN;;;;;0 / 0;129014;2022-11-03 16:53:13:083
0.0;-8.3824;-1.4988;-2.1785;-9.3065;-0.3868;4.131;1.7084;-5.9191;0.6322;1.3027;0.1322;1.0;28.68;36.12;-6.42;99.16;71.62;135.2;5.0;990.21;61.359;;;;NaN;;;;;0 / 0;129515;2022-11-03 16:53:13:584
-1.4293;-11.5906;1.4437;-1.4926;-9.6803;-0.4841;0.7885;-2.1774;-0.3164;-2.3115;0.8409;-0.1794;1.0;25.74;35.22;-17.7;219.69;70.82;30.96;5.0;990.15;56.994;;;;NaN;;;;;0 / 0;130014;2022-11-03 16:53:14:083
-5.5357;-1.7262;-8.8995;-2.8844;-8.4172;-4.1232;-7.8549;-1.1731;-12.3291;1.6799;-0.9612;0.0839;1.0;21.0;40.38;-1.38;60.82;62.59;152.82;5.0;990.26;55.594;;;;NaN;;;;;0 / 0;130514;2022-11-03 16:53:14:583
-2.3918;-9.5627;-2.8252;-1.1114;-9.3975;2.5733;-0.1569;0.8874;-2.2831;0.9578;-2.1597;-0.3522;1.0;21.78;36.6;-16.44;140.13;79.89;84.55;5.0;990.19;58.036;;;;NaN;;;;;0 / 0;131015;2022-11-03 16:53:15:084
-1.901;-7.9251;-2.4157;-2.7127;-7.7637;-5.342;1.3396;2.804;5.2353;-1.193;-0.0547;0.3753;1.0;26.34;35.22;9.12;73.36;52.34;153.08;5.0;990.17;55.201;;;;NaN;;;;;0 / 0;131514;2022-11-03 16:53:15:583
-1.719;-11.7056;0.7614;-1.8792;-9.3933;-2.0989;2.1453;0.7443;0.1149;2.168;1.2117;0.4755;1.0;25.5;36.0;-4.8;96.79;73.3;138.16;5.0;990.2;62.387;;;;NaN;;;;;0 / 0;132014;2022-11-03 16:53:16:083
-2.5546;-12.5268;-3.1292;-1.3161;-9.6169;1.3978;-1.2407;-2.772;2.1498;-3.3781;0.6136;0.1236;1.0;23.58;36.78;-9.42;216.43;78.71;43.27;5.0;990.24;54.857;;;;NaN;;;;;0 / 0;132514;2022-11-03 16:53:16:583
-2.9999;-5.1718;3.3303;-2.7808;-8.8749;-3.1103;-1.9405;8.1761;4.3515;1.1393;-1.0119;0.0381;1.0;23.94;38.22;-1.44;83.49;68.42;146.23;5.0;990.29;58.973;;;;NaN;;;;;0 / 0;133015;2022-11-03 16:53:17:084
-4.798;-11.4853;-4.4748;-0.6712;-9.3156;2.9897;-0.5961;0.2234;-1.0837;-0.1271;-2.3027;0.3869;1.0;24.3;34.56;-16.8;160.99;78.23;68.78;5.0;990.18;57.053;;;;NaN;;;;;0 / 0;133514;2022-11-03 16:53:17:583
-1.5586;-6.2109;-1.5323;-3.1146;-7.4851;-5.5175;0.5161;0.0773;2.306;-0.223;-0.0712;0.5683;1.0;26.28;36.96;5.1;93.94;68.11;152.59;5.0;990.23;58.053;;;;NaN;;;;;0 / 0;134014;2022-11-03 16:53:18:083
-0.5219;-10.7838;-0.1556;-2.1739;-9.5006;-1.0879;1.6881;-0.5991;1.9462;1.0079;2.1469;0.1743;1.0;28.02;34.62;-6.24;125.95;75.65;116.59;5.0;990.16;58.561;;;;NaN;;;;;0 / 0;134514;2022-11-03 16:53:18:583
0.2705;-16.4583;-2.0662;-1.4456;-9.2273;2.9895;0.2585;-1.4181;-0.094;-2.3518;-1.7376;0.2262;1.0;24.0;34.2;-18.06;225.43;70.21;25.81;5.0;990.14;62.234;;;;NaN;;;;;0 / 0;135015;2022-11-03 16:53:19:084
-1.3072;-3.4213;-2.9185;-1.8211;-8.3986;-4.724;-7.0661;0.4795;-10.6875;3.0085;-3.087;-1.8654;1.0;20.52;39.54;-0.3;54.1;58.92;158.92;5.0;990.27;59.803;;;;NaN;;;;;0 / 0;135515;2022-11-03 16:53:19:584
-1.5131;-9.6298;-2.5618;-0.89;-9.4262;2.5543;-0.3599;0.6179;-1.5277;0.2999;-3.3546;0.0515;1.0;22.56;35.28;-17.28;144.13;82.58;83.85;5.0;990.13;59.92;;;;NaN;;;;;0 / 0;136014;2022-11-03 16:53:20:083
-1.889;-7.8988;-0.9649;-1.6289;-8.323;-4.9238;-1.6116;0.9936;3.2682;-2.7177;-1.7199;0.2916;1.0;19.74;39.48;-4.92;88.54;79.72;147.39;5.0;990.11;58.568;;;;NaN;;;;;0 / 0;136515;2022-11-03 16:53:20:584
-1.1636;-9.1366;2.3559;-1.4169;-9.4115;-2.3635;3.6067;1.1904;-6.1484;3.2981;0.8854;0.065;1.0;22.44;37.14;-10.74;70.69;73.68;149.06;5.0;990.1;64.596;;;;NaN;;;;;0 / 0;137017;2022-11-03 16:53:21:086
-2.6097;-13.1612;-1.9201;-0.4431;-9.3575;2.9003;1.1265;-4.4923;-1.0607;-1.5742;-1.0589;0.2525;1.0;17.94;33.3;-23.88;222.69;72.59;8.69;5.0;990.1;59.011;;;;NaN;;;;;0 / 0;137515;2022-11-03 16:53:21:584
-0.3903;-2.1955;-1.7406;-1.9658;-8.1374;-5.1077;-9.3047;-4.519;-9.9962;3.5284;-2.084;-2.4616;1.0;15.48;40.74;-2.64;36.02;56.08;158.95;5.0;990.26;56.537;;;;NaN;;;;;0 / 0;138015;2022-11-03 16:53:22:084
-0.5291;-8.0257;-1.6352;-1.9401;-9.6095;0.252;0.7834;1.4101;-1.2207;1.3738;-1.872;-0.4744;1.0;20.82;33.78;-20.52;131.93;78.49;82.6;5.0;990.11;59.556;;;;NaN;;;;;0 / 0;138514;2022-11-03 16:53:22:583
-0.9505;-7.4918;-1.3408;-1.8856;-7.479;-6.0563;0.7759;0.7474;2.879;-2.058;-1.5879;-0.1891;1.0;19.38;39.84;0.06;82.36;74.16;151.67;5.0;990.15;61.405;;;;NaN;;;;;0 / 0;139015;2022-11-03 16:53:23:084
-1.9896;-10.0344;0.7398;-0.7022;-9.4022;-2.6973;-2.6345;0.4456;5.2813;1.584;1.0577;-0.2704;1.0;13.86;40.02;-2.4;41.26;62.83;160.59;5.0;990.14;61.472;;;;NaN;;;;;0 / 0;139515;2022-11-03 16:53:23:584
-2.8323;-14.3416;-2.3966;-0.4654;-9.6229;1.8313;-1.4402;-5.7407;-4.4153;-2.7611;-1.445;0.3057;1.0;16.08;30.78;-26.58;205.78;75.72;11.68;5.0;990.12;58.818;;;;NaN;;;;;0 / 0;140014;2022-11-03 16:53:24:083
-1.1444;-6.2109;-5.7991;-1.5114;-8.5849;-4.4928;-5.2137;3.2692;-1.3137;-0.6823;-2.3204;-0.7945;1.0;15.18;40.02;0.66;44.15;61.09;161.41;5.0;990.17;60.436;;;;NaN;;;;;0 / 0;140514;2022-11-03 16:53:24:583
-0.1245;-8.5356;-0.2251;-1.491;-9.6925;0.0585;1.1313;2.4367;-0.832;1.6988;-1.8262;0.112;1.0;23.46;32.58;-17.28;138.77;81.25;87.75;5.0;990.08;62.433;;;;NaN;;;;;0 / 0;141015;2022-11-03 16:53:25:084
-2.1237;-10.2164;-1.5826;-0.9866;-9.5164;-2.1531;-0.1431;0.6479;2.6487;-3.1191;0.6839;0.4315;1.0;22.44;37.5;-1.2;86.73;76.02;155.38;5.0;990.12;58.158;;;;NaN;;;;;0 / 0;141515;2022-11-03 16:53:25:584
-2.6719;-7.8509;1.6305;-1.5708;-9.3346;-2.5627;-1.1054;2.2436;4.7591;2.3683;0.5605;0.0155;1.0;23.28;37.62;1.68;60.3;53.0;154.62;5.0;990.11;58.32;;;;NaN;;;;;0 / 0;142014;2022-11-03 16:53:26:083
-1.4916;-14.4373;-1.087;-1.1689;-9.5523;1.8859;-0.6696;-5.0646;-4.2176;-0.6164;1.8439;-0.2124;1.0;20.1;29.22;-27.12;210.19;72.4;15.15;5.0;990.06;58.19;;;;NaN;;;;;0 / 0;142515;2022-11-03 16:53:26:584
-1.3288;-3.8858;-3.8451;-2.1038;-8.3524;-4.6884;-6.3608;4.3427;-6.4904;-0.9468;0.0779;0.8646;1.0;20.52;39.06;1.2;56.66;58.4;155.83;5.0;990.13;56.712;;;;NaN;;;;;0 / 0;143015;2022-11-03 16:53:27:084
-0.4334;-8.6745;0.328;-1.9861;-9.6034;-0.0309;0.5822;1.8796;-0.4401;1.5773;0.8109;-0.9894;1.0;22.32;33.54;-18.06;128.1;78.31;90.89;5.0;990.08;61.433;;;;NaN;;;;;0 / 0;143515;2022-11-03 16:53:27:584
-1.5754;-10.2595;-2.0806;-1.2244;-9.189;-3.1991;-0.2668;1.3566;3.5817;-2.6005;-0.5263;0.3466;1.0;19.92;39.3;-0.6;67.72;69.56;159.06;5.0;990.09;57.331;;;;NaN;;;;;0 / 0;144015;2022-11-03 16:53:28:084
-1.8627;-13.9968;1.1756;-1.9096;-8.7339;-4.0302;-0.8275;-4.1802;5.2622;1.9566;-0.3125;-0.0816;1.0;17.88;40.38;-3.18;51.94;62.95;154.65;5.0;990.15;58.943;;;;NaN;;;;;0 / 0;144514;2022-11-03 16:53:28:583
-0.5148;-15.0266;-0.8978;-0.3944;-9.6042;1.9428;-0.7887;-5.0375;-3.9017;-0.3574;1.7993;0.2128;1.0;10.08;30.18;-29.76;210.86;72.34;-2.62;5.0;990.05;60.417;;;;NaN;;;;;0 / 0;145015;2022-11-03 16:53:29:084
-1.8866;-2.9233;-3.0023;-2.2913;-7.9749;-5.2269;0.7407;3.1324;4.0914;0.62;0.1518;-0.9692;1.0;20.1;37.56;7.86;44.27;46.0;154.77;5.0;990.13;57.109;;;;NaN;;;;;0 / 0;145514;2022-11-03 16:53:29:583
-0.3519;-8.5261;-0.0838;-1.8071;-9.6042;-0.8143;1.8263;-0.1372;1.6376;1.0696;-0.5018;-0.1745;1.0;18.54;36.66;-11.34;75.44;74.28;137.77;5.0;989.99;61.327;;;;NaN;;;;;0 / 0;146014;2022-11-03 16:53:30:083
-2.7725;-9.6825;1.8124;-0.7016;-9.4561;-2.502;-0.3642;0.4456;4.7327;-3.6536;-2.3839;0.4315;1.0;14.28;40.44;-3.9;53.77;74.63;164.34;5.0;990.01;58.852;;;;NaN;;;;;0 / 0;146515;2022-11-03 16:53:30:584
-1.5371;-11.3895;1.0175;-1.4161;-8.6206;-4.4553;0.5296;-2.1235;6.6048;2.8692;-0.2172;0.1914;1.0;13.62;40.44;-1.14;40.14;61.53;162.37;5.0;990.1;60.572;;;;NaN;;;;;0 / 0;147015;2022-11-03 16:53:31:084
-2.9784;-13.2642;-1.4676;-0.5404;-9.4455;2.5808;-2.6337;-4.5015;-2.4697;-1.2236;2.0265;-0.1128;1.0;9.42;30.06;-29.76;186.9;74.4;11.83;5.0;990.05;59.805;;;;NaN;;;;;0 / 0;147514;2022-11-03 16:53:31:583
-1.5467;-6.5006;-5.1718;-2.0449;-8.2424;-4.9041;1.0485;3.7572;3.0216;2.2181;-1.5525;-1.6803;1.0;10.2;40.56;6.96;20.87;49.31;162.2;5.0;990.17;60.185;;;;NaN;;;;;0 / 0;148014;2022-11-03 16:53:32:083
-0.7518;-9.2012;-0.2155;-1.551;-9.6809;0.2121;1.3835;1.3359;2.0398;2.3243;-2.1848;0.0192;1.0;15.18;38.76;-12.6;64.28;76.2;139.85;5.0;990.01;61.424;;;;NaN;;;;;0 / 0;148514;2022-11-03 16:53:32:583
-2.5019;-9.1078;0.9026;-0.9866;-9.2056;-3.2333;-1.375;-1.0083;3.2512;-1.5278;1.5977;0.4517;1.0;5.88;41.28;-13.02;53.97;83.09;134.75;5.0;989.99;59.924;;;;NaN;;;;;0 / 0;149014;2022-11-03 16:53:33:083
-3.948;-11.7271;4.5035;-1.8161;-8.867;-3.7745;0.85;0.5714;6.4808;1.1765;-0.6521;0.6569;1.0;8.1;42.78;-1.02;25.47;64.71;154.31;5.0;990.08;63.821;;;;NaN;;;;;0 / 0;149515;2022-11-03 16:53:33:584
-4.9204;-10.2092;-6.9794;-0.4049;-9.54;2.2348;0.3915;-5.7103;-3.9891;-0.8198;1.7602;-0.577;1.0;4.8;30.96;-30.3;178.91;76.61;10.27;5.0;990.02;60.244;;;;NaN;;;;;0 / 0;150014;2022-11-03 16:53:34:083
-0.0551;-4.3814;-3.6057;-2.0993;-7.1798;-6.3414;1.3554;4.7229;4.067;1.5498;0.0583;-1.26;1.0;7.74;41.34;7.86;13.9;47.07;161.68;5.0;990.02;59.029;;;;NaN;;;;;0 / 0;150515;2022-11-03 16:53:34:584
-0.7183;-8.2579;-0.5962;-1.1881;-9.7248;-0.431;0.7684;1.0974;0.3288;1.1466;-2.208;-0.2386;1.0;10.68;39.0;-14.52;37.39;73.65;158.67;5.0;989.98;61.182;;;;NaN;;;;;0 / 0;151014;2022-11-03 16:53:35:083
-2.6504;-9.5891;0.9313;-0.6164;-9.0477;-3.7323;-1.9305;-1.4771;3.7792;-1.4111;2.398;0.3063;1.0;1.92;40.86;-11.22;26.63;80.5;148.22;5.0;990.02;60.31;;;;NaN;;;;;0 / 0;151514;2022-11-03 16:53:35:583
-2.648;-13.4773;2.8922;-1.1087;-8.8995;-3.9674;-2.2623;-5.6857;9.5738;4.069;5.203;0.1035;1.0;4.2;42.72;5.28;3.18;51.32;152.32;5.0;990.06;62.729;;;;NaN;;;;;0 / 0;152015;2022-11-03 16:53:36:084
-4.0677;-13.0415;-5.7871;-0.4204;-9.5108;2.3534;-1.9391;-3.546;-4.3685;-2.5607;-1.1646;0.5109;1.0;-1.38;33.3;-28.92;162.65;75.89;10.13;5.0;989.96;59.099;;;;NaN;;;;;0 / 0;152515;2022-11-03 16:53:36:584
-0.8906;-5.167;0.1652;-1.7966;-7.28;-6.3201;0.1841;-0.4321;0.637;2.4764;-5.0772;-1.3925;1.0;-0.42;41.94;6.96;355.27;47.93;164.13;5.0;990.0;58.932;;;;NaN;;;;;0 / 0;153014;2022-11-03 16:53:37:083
-0.3041;-6.8022;-0.1987;-1.2368;-9.4666;-2.2415;1.0952;2.7165;0.7497;1.46;-1.8531;-0.1659;1.0;6.84;39.36;-16.5;34.14;74.87;151.11;5.0;989.95;61.762;;;;NaN;;;;;0 / 0;153514;2022-11-03 16:53:37:583
-1.8028;-7.4654;2.387;-0.801;-8.8676;-4.1103;-1.7388;-0.5879;4.7784;-1.1613;4.5067;0.787;1.0;-2.34;41.88;-8.7;8.93;76.22;149.09;5.0;989.95;61.476;;;;NaN;;;;;0 / 0;154014;2022-11-03 16:53:38:083
-3.2346;-7.4415;0.8068;-0.9774;-8.7445;-4.33;-1.2275;-2.6029;6.2613;1.8363;3.9453;-1.3693;1.0;-0.9;42.78;2.94;355.09;49.17;152.55;5.0;990.08;64.48;;;;NaN;;;;;0 / 0;154515;2022-11-03 16:53:38:584
-0.5171;-14.0136;-3.6488;-0.8367;-9.6121;1.7543;0.8709;-4.98;-4.7734;0.5498;1.2361;-0.2838;1.0;-6.66;33.42;-28.98;128.8;78.97;27.5;5.0;989.96;62.749;;;;NaN;;;;;0 / 0;155014;2022-11-03 16:53:39:083
-0.1125;-1.8292;-0.0335;-1.364;-7.0635;-6.6646;-8.6765;-8.1126;-9.6955;-0.8296;0.2673;0.8591;1.0;-6.06;42.6;9.9;341.56;46.08;168.43;5.0;990.01;62.193;;;;NaN;;;;;0 / 0;155514;2022-11-03 16:53:39:583
-1.1205;-8.5141;-0.3089;-1.8853;-9.4594;-1.7705;0.3865;1.8317;0.8688;3.0201;0.2947;-0.6094;1.0;-2.82;39.72;-19.02;25.08;74.71;133.2;5.0;989.94;63.744;;;;NaN;;;;;0 / 0;156014;2022-11-03 16:53:40:083
-2.6456;-6.7448;2.4732;-0.8585;-9.2038;-3.2746;-2.1925;0.6934;3.723;-3.5271;-1.6417;0.7791;1.0;-6.54;43.8;-4.14;344.3;69.81;165.31;5.0;989.89;59.737;;;;NaN;;;;;0 / 0;156514;2022-11-03 16:53:40:583
-3.0406;-11.0639;1.64;-1.3086;-9.0288;-3.597;-0.6096;0.9538;5.0229;1.8674;1.1787;0.1536;1.0;-5.52;44.16;2.76;345.62;54.01;150.6;5.0;989.95;59.835;;;;NaN;;;;;0 / 0;157015;2022-11-03 16:53:41:084
-2.4708;-12.2778;-2.9592;-1.207;-9.7284;0.2678;-1.239;-4.2742;-6.8577;-3.3292;-0.0156;-0.2759;1.0;-2.64;37.08;-26.4;109.79;76.99;45.31;5.0;989.93;58.859;;;;NaN;;;;;0 / 0;157514;2022-11-03 16:53:41:583
-2.0877;-7.2428;-4.9778;-2.4442;-7.9635;-5.1749;-3.2425;5.3183;2.3351;-1.317;-3.2813;0.0662;1.0;-5.28;43.5;6.48;347.26;42.75;160.92;5.0;990.04;60.346;;;;NaN;;;;;0 / 0;158015;2022-11-03 16:53:42:084
-0.5004;-8.1095;-1.1301;-2.1916;-9.5551;-0.2584;0.3512;0.7772;-5.5224;2.9939;0.6435;-0.6534;1.0;0.72;40.2;-19.08;35.77;70.46;124.05;5.0;989.85;62.932;;;;NaN;;;;;0 / 0;158515;2022-11-03 16:53:42:584
-3.3639;-8.4375;-4.2545;-0.9161;-8.5517;-4.7116;1.8607;1.4573;2.1157;-2.0989;-5.6325;0.3674;1.0;-2.82;44.28;-3.96;353.69;73.26;165.35;5.0;989.89;60.911;;;;NaN;;;;;0 / 0;159015;2022-11-03 16:53:43:084
-0.6752;-10.3313;-3.9624;-2.2349;-8.4718;-4.4051;0.5051;-0.9349;1.9097;3.295;0.7468;-0.2527;1.0;-4.14;43.8;3.3;350.67;46.74;139.76;5.0;990.0;62.318;;;;NaN;;;;;0 / 0;159516;2022-11-03 16:53:43:585
-0.0359;-14.3487;0.1867;-0.9407;-9.5416;-2.0599;1.3064;-4.6504;-0.4183;-2.9163;0.3705;-0.7359;1.0;-4.02;41.1;-15.42;91.85;77.58;37.62;5.0;989.92;60.018;;;;NaN;;;;;0 / 0;160014;2022-11-03 16:53:44:083
-11.6026;-6.8262;-15.5102;-3.7052;-7.1065;-5.6514;-9.1381;-6.8428;-11.5942;2.0262;0.4102;-0.3461;1.0;-1.5;41.52;14.34;337.91;51.21;155.14;5.0;989.99;59.807;;;;NaN;;;;;0 / 0;160514;2022-11-03 16:53:44:583
-1.2713;-8.1573;0.395;-1.5601;-9.6062;1.2071;-1.4797;-2.18;-2.2888;0.8998;-1.1176;-0.8507;1.0;-5.16;36.72;-23.52;32.93;73.23;122.56;5.0;989.93;63.702;;;;NaN;;;;;0 / 0;161015;2022-11-03 16:53:45:084
-3.0478;-5.9834;1.5874;-2.0807;-7.9019;-5.4221;2.6569;-0.4776;5.7116;-2.3976;-4.3674;0.3906;1.0;-2.7;43.32;3.6;343.2;69.36;170.88;5.0;989.89;62.538;;;;NaN;;;;;0 / 0;161514;2022-11-03 16:53:45:583
-3.0837;-12.036;1.6424;-1.6242;-9.0508;-3.4081;1.76;0.8478;1.6986;2.8185;4.0986;1.3704;1.0;-3.36;43.56;-3.54;358.96;53.88;149.35;5.0;989.89;63.756;;;;NaN;;;;;0 / 0;162014;2022-11-03 16:53:46:083
-1.9656;-11.5427;0.8523;-1.4359;-9.6971;0.2728;-0.3457;-2.6044;2.2494;-3.2736;-1.2294;0.214;1.0;-4.8;36.18;-25.68;107.94;77.72;44.47;5.0;989.91;63.821;;;;NaN;;;;;0 / 0;162514;2022-11-03 16:53:46:583
-1.7957;-6.4024;5.5333;-3.2102;-7.8664;-4.8973;-0.1981;6.5911;0.6278;2.372;5.608;0.1517;1.0;-3.96;43.14;10.86;334.68;55.75;155.67;5.0;990.03;60.28;;;;NaN;;;;;0 / 0;163014;2022-11-03 16:53:47:083
-4.0223;-9.7639;-8.7966;-2.1586;-9.4829;1.2588;-0.5187;0.55;-7.4296;0.4282;-0.9038;-0.1006;1.0;-0.96;35.64;-27.3;67.9;74.16;90.38;5.0;989.85;58.991;;;;NaN;;;;;0 / 0;163514;2022-11-03 16:53:47:583
-1.6376;-7.7288;-3.4285;-2.9523;-7.2555;-5.9001;-0.7054;1.9295;4.1682;-2.7257;0.0467;-0.72;1.0;-3.24;42.24;10.32;341.94;62.89;177.85;5.0;989.82;64.388;;;;NaN;;;;;0 / 0;164015;2022-11-03 16:53:48:084
-1.6281;-10.4103;0.261;-1.4937;-9.307;-2.7053;1.0192;0.5837;1.7054;2.2743;1.7297;0.6826;1.0;-6.0;42.9;-6.96;353.71;57.56;160.64;5.0;989.98;64.17;;;;NaN;;;;;0 / 0;164515;2022-11-03 16:53:48:584
-2.4948;-12.079;-2.6145;-1.0004;-9.7553;0.0608;-0.4115;-1.9092;2.567;-3.3817;-2.1072;-0.4726;1.0;-6.9;36.72;-23.76;95.48;76.0;46.55;5.0;989.84;59.745;;;;NaN;;;;;0 / 0;165015;2022-11-03 16:53:49:084
-3.5674;-9.2371;5.2508;-2.2681;-8.1082;-5.0282;-2.6469;2.4292;2.7196;-1.1918;-1.3241;0.4162;1.0;-5.82;42.42;6.06;343.96;45.67;159.68;5.0;990.02;64.844;;;;NaN;;;;;0 / 0;165516;2022-11-03 16:53:49:585
-0.8954;-10.4677;1.1875;-1.4196;-9.5739;1.5799;0.8645;-0.1245;0.9677;1.8912;-8.178;-0.092;1.0;-1.26;36.12;-25.44;38.23;76.61;128.21;5.0;989.92;64.826;;;;NaN;;;;;0 / 0;166014;2022-11-03 16:53:50:083
-1.2282;-7.7838;-2.0111;-2.6294;-7.2074;-6.1081;-0.1827;0.9453;3.5944;-2.0;-0.9203;-0.6161;1.0;-0.24;38.94;10.08;349.01;64.09;170.88;5.0;989.83;68.913;;;;NaN;;;;;0 / 0;166515;2022-11-03 16:53:50:584
-3.1316;-11.2435;-1.1899;-1.279;-9.2353;-3.0402;-0.1957;-2.9964;0.3298;0.9548;-0.5977;1.1212;2.0;-1.08;39.96;-6.96;4.23;51.71;153.55;5.0;989.81;62.294;;;;NaN;;;;;0 / 0;167015;2022-11-03 16:53:51:084
-3.0335;-13.9082;-1.8435;-1.1676;-9.709;0.7361;-1.2762;-1.0807;2.122;-3.697;-3.5171;-0.1659;2.0;-4.8;34.08;-25.98;92.13;77.02;59.73;5.0;989.85;58.316;;;;NaN;;;;;0 / 0;167514;2022-11-03 16:53:51:583
-1.2785;-4.6519;-2.2553;-1.9348;-8.2703;-4.9018;-8.5568;-7.0144;-9.2627;2.7629;-1.7987;-1.42;2.0;-4.44;43.62;6.36;347.16;47.79;156.12;5.0;989.94;62.276;;;;NaN;;;;;0 / 0;168014;2022-11-03 16:53:52:083
-1.3096;-9.4502;-0.1987;-2.0556;-9.5857;-0.245;-1.0504;0.2679;-6.9008;1.237;-5.6319;0.0772;1.0;6.66;37.86;-19.56;20.59;66.68;165.66;5.0;989.75;65.357;;;;NaN;;;;;0 / 0;168514;2022-11-03 16:53:52:583
-1.9824;-7.2667;-2.5977;-2.0287;-6.9371;-6.628;-1.2402;1.5343;3.5133;-2.689;-0.3387;0.0167;0.0;4.38;41.58;8.52;19.77;65.74;174.65;5.0;989.79;62.365;;;;NaN;;;;;0 / 0;169014;2022-11-03 16:53:53:083
-2.411;-11.1597;0.5578;-1.8164;-9.1769;-2.9419;-0.5008;-1.7904;5.3978;0.3494;2.8598;0.3771;0.0;1.56;41.46;-7.32;8.99;52.09;155.92;5.0;989.85;61.585;;;;NaN;;;;;0 / 0;169514;2022-11-03 16:53:53:583
-1.3671;-13.1516;-0.1939;-0.9444;-9.7134;-0.9635;1.0057;-5.6151;-1.1493;-3.1557;1.6484;-1.3718;0.0;5.1;37.86;-21.66;162.72;77.3;23.36;5.0;989.77;59.836;;;;NaN;;;;;0 / 0;170015;2022-11-03 16:53:54:084
-7.3505;-13.8508;-19.7073;-2.4498;-7.799;-5.4171;-1.6544;0.9257;8.9345;-2.1276;-0.1891;0.9685;0.0;-2.22;43.74;6.6;350.35;48.48;160.67;5.0;989.85;62.342;;;;NaN;;;;;0 / 0;170514;2022-11-03 16:53:54:583
-0.316;-8.131;-0.1077;-1.4967;-9.6504;-0.8947;0.0567;-0.7722;-0.5744;2.2455;0.3491;-0.3492;0.0;0.78;41.7;-15.54;17.7;71.84;152.27;5.0;989.78;61.376;;;;NaN;;;;;0 / 0;171014;2022-11-03 16:53:55:083
-2.569;-8.2723;-1.9417;-1.149;-8.9201;-3.9091;-0.6217;-0.3056;4.9572;-3.6597;-0.7981;0.3026;0.0;0.96;42.42;-4.74;24.7;81.13;134.73;5.0;989.74;59.902;;;;NaN;;;;;0 / 0;171514;2022-11-03 16:53:55:583
-2.4636;-12.6297;0.1915;-0.844;-9.186;-3.3279;-1.1245;-3.3572;4.7422;1.3781;2.5977;1.0906;0.0;2.52;42.42;-6.06;12.74;56.92;146.47;5.0;989.88;59.822;;;;NaN;;;;;0 / 0;172017;2022-11-03 16:53:56:086
-0.6129;-10.8221;-1.008;-1.148;-9.7037;0.8306;-0.7504;-6.1599;-1.3487;-0.449;1.7773;-0.7462;0.0;-0.3;34.32;-26.88;138.52;78.97;31.7;5.0;989.77;64.173;;;;NaN;;;;;0 / 0;172514;2022-11-03 16:53:56:583
-8.1957;-16.037;-14.3368;-2.5048;-8.0654;-4.9845;1.506;2.9016;3.726;1.1619;0.2208;-1.4573;0.0;0.36;42.42;7.56;352.35;43.87;154.9;5.0;989.8;61.787;;;;NaN;;;;;0 / 0;173015;2022-11-03 16:53:57:084
-0.5986;-8.4686;0.5459;-2.2813;-9.521;-0.5632;0.298;1.34;0.2702;2.4325;-0.8402;-1.4866;0.0;4.26;39.06;-17.94;30.06;68.2;140.67;5.0;989.75;62.489;;;;NaN;;;;;0 / 0;173515;2022-11-03 16:53:57:584
-2.1189;-7.542;-4.2617;-1.3658;-8.9392;-3.7942;-0.3239;0.8347;5.7764;-3.3915;-1.8628;0.0619;0.0;-2.28;42.9;-3.18;2.45;78.02;137.84;5.0;989.77;60.564;;;;NaN;;;;;0 / 0;174014;2022-11-03 16:53:58:083
-3.134;-8.5356;-0.9242;-1.8891;-8.0915;-5.2086;-1.4199;-3.5652;5.2743;2.9181;1.1487;0.1713;0.0;-2.64;42.3;6.9;347.3;44.8;151.63;5.0;989.82;65.856;;;;NaN;;;;;0 / 0;174517;2022-11-03 16:53:58:586
-2.0327;-14.5331;-1.9249;-0.9851;-9.7542;-0.2357;-2.773;-5.1995;-6.0931;-2.3097;-1.31;0.1731;0.0;-4.86;36.9;-21.06;108.5;76.39;34.52;5.0;989.76;60.216;;;;NaN;;;;;0 / 0;175014;2022-11-03 16:53:59:083
0.6895;-3.9241;-2.4995;-2.7587;-7.6512;-5.4789;-3.9702;-1.4976;-15.9297;-1.0605;-4.7125;-0.6131;0.0;-4.02;42.18;9.9;342.53;47.99;161.87;5.0;989.81;65.461;;;;NaN;;;;;0 / 0;175515;2022-11-03 16:53:59:584
-0.6297;-7.159;-0.5387;-1.5092;-9.688;0.189;-0.4897;0.8574;-1.1863;2.8747;-3.2764;-0.866;0.0;-1.68;38.22;-19.98;28.87;74.52;132.09;5.0;989.68;58.685;;;;NaN;;;;;0 / 0;176014;2022-11-03 16:54:00:083
-1.3623;-6.4934;-3.6081;-1.0169;-8.981;-3.8049;-0.5085;1.0672;6.2895;-2.9853;-1.6325;0.4816;0.0;-0.06;42.06;-5.7;13.47;77.69;146.46;5.0;989.76;59.201;;;;NaN;;;;;0 / 0;176514;2022-11-03 16:54:00:583
-1.2522;-11.1429;1.2594;-1.8757;-8.463;-4.5859;1.0894;-3.321;4.1502;2.6035;1.051;1.4205;0.0;2.04;42.6;1.8;1.78;49.89;151.31;5.0;989.77;66.397;;;;NaN;;;;;0 / 0;177015;2022-11-03 16:54:01:084
-1.9417;-14.8949;-0.3208;-0.1455;-9.5265;2.3228;0.8234;-6.1144;-1.9356;-3.0843;0.7633;0.6422;0.0;-8.94;31.86;-29.94;99.29;81.2;54.93;5.0;989.7;65.653;;;;NaN;;;;;0 / 0;177514;2022-11-03 16:54:01:583
-1.6233;-4.1539;-2.8994;-3.1857;-7.305;-5.7147;-7.9882;-4.7336;-18.4001;-1.9884;-2.0644;-0.2337;0.0;-2.22;41.16;12.06;342.83;48.78;160.61;5.0;989.79;63.917;;;;NaN;;;;;0 / 0;178014;2022-11-03 16:54:02:083
-0.3639;-8.2842;-0.2801;-1.6909;-9.622;0.8538;2.3462;3.0455;-1.1166;3.306;-1.3039;-0.1445;0.0;-2.82;37.5;-21.96;34.56;77.14;125.78;5.0;989.69;62.377;;;;NaN;;;;;0 / 0;178515;2022-11-03 16:54:02:584
-0.9625;-5.5668;1.6424;-1.0978;-8.2262;-5.2243;0.5952;1.1266;4.5091;-2.0666;-1.7315;-0.0926;0.0;-1.44;42.18;1.44;353.6;73.07;156.33;5.0;989.69;60.475;;;;NaN;;;;;0 / 0;179015;2022-11-03 16:54:03:084
-1.1779;-10.8173;0.6369;-1.3845;-8.4732;-4.739;0.2405;-1.3679;3.1599;2.8051;0.3974;0.685;0.0;-2.22;42.12;3.48;351.4;56.74;147.45;5.0;989.68;61.153;;;;NaN;;;;;0 / 0;179515;2022-11-03 16:54:03:584
-2.6815;-13.3983;-5.1837;-1.3344;-9.5408;1.8336;0.2773;-1.3882;-1.6561;-3.6762;-0.5165;-0.0645;0.0;-1.26;32.82;-28.32;134.48;77.65;32.32;5.0;989.66;60.759;;;;NaN;;;;;0 / 0;180014;2022-11-03 16:54:04:083
-8.0855;-13.1828;-28.4081;-1.714;-8.1043;-5.2491;-8.219;-4.8926;-14.1463;-1.7758;-0.1384;1.0589;0.0;-1.86;41.1;9.18;347.28;47.24;159.67;5.0;989.83;61.628;;;;NaN;;;;;0 / 0;180514;2022-11-03 16:54:04:583
-0.9553;-8.8828;0.091;-1.4756;-9.4806;2.0274;1.8206;1.6148;-0.7171;2.2193;-2.084;-0.1898;0.0;0.0;34.32;-26.1;45.32;76.03;122.37;5.0;989.66;62.884;;;;NaN;;;;;0 / 0;181014;2022-11-03 16:54:05:083
-3.0167;-7.3649;-0.8116;-2.3915;-7.7631;-5.494;-1.7674;2.0677;6.4553;-3.1423;-3.0626;0.7009;0.0;1.56;41.7;6.24;2.57;70.84;164.75;5.0;989.69;62.014;;;;NaN;;;;;0 / 0;181514;2022-11-03 16:54:05:583
0.2083;-8.9139;-1.7358;-1.638;-9.3502;-2.4617;-0.5611;-1.7238;4.7866;3.0965;2.9441;0.6581;0.0;1.86;41.22;-7.92;10.93;58.41;154.94;5.0;989.75;64.445;;;;NaN;;;;;0 / 0;182015;2022-11-03 16:54:06:084
-1.0942;-12.4382;1.2665;-1.5432;-9.6789;-0.329;-0.2184;-1.8628;2.962;-1.9395;1.4621;-0.2203;0.0;-1.5;38.28;-20.4;101.79;73.82;42.33;5.0;989.69;59.63;;;;NaN;;;;;0 / 0;182515;2022-11-03 16:54:06:584
-4.4245;-4.889;-1.0989;-2.9288;-7.6382;-5.4082;0.1517;-5.9132;1.5894;2.1808;0.0107;0.3002;0.0;-2.52;41.16;11.58;340.23;49.52;161.07;5.0;989.8;60.506;;;;NaN;;;;;0 / 0;183015;2022-11-03 16:54:07:084
-4.0606;-11.1884;-7.1949;-1.6021;-9.5257;1.6926;-0.4059;-0.1827;-5.1253;0.5101;0.7981;-0.1415;0.0;0.84;35.7;-24.48;56.68;75.52;107.89;5.0;989.65;62.538;;;;NaN;;;;;0 / 0;183514;2022-11-03 16:54:07:583
-1.2977;-5.6315;-1.5993;-1.8888;-7.7078;-5.7613;2.9358;1.0343;6.438;-1.3708;-0.0718;-0.8825;0.0;-2.88;41.1;12.3;331.66;57.74;158.3;5.0;989.58;61.334;;;;NaN;;;;;0 / 0;184014;2022-11-03 16:54:08:083
-0.6871;-10.609;0.3041;-1.5076;-9.5878;-1.404;0.9852;1.1596;2.1792;1.8546;2.2092;1.1969;0.0;7.5;40.5;-11.82;22.38;67.96;168.57;5.0;989.66;65.225;;;;NaN;;;;;0 / 0;184515;2022-11-03 16:54:08:584
-0.5315;-9.6322;0.1987;-1.8211;-9.3874;-2.1751;0.6957;0.8066;4.2652;-2.4832;1.5953;0.0473;0.0;0.36;41.52;-10.74;113.41;82.52;39.05;5.0;989.71;59.764;;;;NaN;;;;;0 / 0;185014;2022-11-03 16:54:09:083
-2.0183;-11.6265;3.2274;-3.2643;-8.1778;-4.3172;-0.9572;2.6629;5.2985;1.0085;4.6844;-0.3632;0.0;0.6;41.46;8.4;347.55;47.18;159.48;5.0;989.74;61.052;;;;NaN;;;;;0 / 0;185514;2022-11-03 16:54:09:583
-0.7302;-12.1652;-1.4653;-0.8949;-9.571;1.9404;1.1902;-6.3911;-1.8516;-0.1106;1.489;-0.3437;0.0;-6.9;34.38;-25.56;85.82;81.92;68.85;5.0;989.67;63.383;;;;NaN;;;;;0 / 0;186015;2022-11-03 16:54:10:084
0.3831;-3.9863;-0.0144;-2.1877;-7.3302;-6.1362;1.8463;5.354;4.5926;3.0513;-1.288;-1.1635;0.0;1.44;40.8;10.5;351.13;62.74;167.47;5.0;989.75;63.92;;;;NaN;;;;;0 / 0;186514;2022-11-03 16:54:10:583
-0.249;-7.4104;-0.261;-1.9185;-9.6169;0.0683;2.6947;1.5447;0.8846;0.7092;-2.0033;-0.4029;0.0;-1.02;41.04;-18.12;29.12;75.0;131.76;5.0;989.61;66.155;;;;NaN;;;;;0 / 0;187014;2022-11-03 16:54:11:083
-1.7286;-11.7463;0.9577;-0.233;-9.2402;-3.2763;-1.7143;-1.4794;2.785;-1.7752;2.5623;-0.3761;0.0;-1.68;42.36;-7.44;18.22;80.98;129.59;5.0;989.58;62.544;;;;NaN;;;;;0 / 0;187514;2022-11-03 16:54:11:583
-3.9313;-10.3456;0.5507;-0.777;-8.9;-4.0443;-0.9578;-0.3956;3.6467;1.5021;1.5666;0.5964;0.0;-1.8;43.02;0.48;356.4;51.63;149.73;5.0;989.68;66.331;;;;NaN;;;;;0 / 0;188015;2022-11-03 16:54:12:084
-2.0063;-14.1668;-1.221;-0.9726;-9.5832;1.8401;0.4617;-3.9574;-0.2371;-3.5339;-1.3076;-0.453;0.0;-2.7;34.26;-27.9;145.58;76.09;17.98;5.0;989.61;58.902;;;;NaN;;;;;0 / 0;188514;2022-11-03 16:54:12:583
-8.5284;-12.0;-27.448;-1.2727;-8.4378;-4.8325;-5.46;-5.3626;-10.4868;-2.8369;-1.2324;1.2916;0.0;-1.98;42.72;7.44;350.27;50.79;164.13;5.0;989.63;61.587;;;;NaN;;;;;0 / 0;189015;2022-11-03 16:54:13:084
-0.6321;-8.6362;1.2402;-1.6687;-9.6626;-0.1408;0.1923;0.8926;-1.2174;3.1686;2.6313;-0.4469;0.0;0.54;40.56;-16.8;17.21;73.7;155.25;5.0;989.59;64.945;;;;NaN;;;;;0 / 0;189514;2022-11-03 16:54:13:583
-2.9066;-8.04;-0.7446;-2.0785;-7.7968;-5.5731;-1.3753;3.4205;6.4278;-2.2058;-2.7968;0.8298;0.0;4.56;42.06;6.6;39.14;72.44;177.89;5.0;989.55;63.034;;;;NaN;;;;;0 / 0;190014;2022-11-03 16:54:14:083
-3.2537;-10.5276;2.4134;-1.7655;-9.2815;-2.6283;0.5194;0.5374;5.4615;2.2657;2.076;1.3228;0.0;7.02;42.06;-4.92;21.5;63.4;160.73;5.0;989.51;62.311;;;;NaN;;;;;0 / 0;190515;2022-11-03 16:54:14:584
-1.4676;-12.6058;1.2641;-1.1083;-9.7358;-0.3944;-1.2966;-3.1776;-6.0649;-2.8876;-0.8347;0.0051;0.0;4.08;38.88;-19.5;132.98;72.78;31.14;5.0;989.59;58.952;;;;NaN;;;;;0 / 0;191014;2022-11-03 16:54:15:083
-7.87;-5.1981;1.9369;-2.5673;-7.9342;-5.1601;0.426;-6.2571;-2.4201;1.1277;1.15;0.6606;0.0;0.84;42.42;7.2;355.46;53.66;159.33;5.0;989.69;58.673;;;;NaN;;;;;0 / 0;191514;2022-11-03 16:54:15:583
-2.5283;-11.7917;-1.5323;-1.8812;-9.4022;2.0566;-0.6154;-1.469;-1.4526;-0.0348;-2.8097;-0.6473;0.0;7.38;34.56;-27.3;84.37;75.06;90.9;5.0;989.58;61.171;;;;NaN;;;;;0 / 0;192014;2022-11-03 16:54:16:083
-0.3759;-6.8334;0.6943;-2.0008;-8.4302;-4.5933;2.957;1.417;5.5671;-1.1949;1.0663;-1.417;0.0;3.24;42.66;1.32;14.28;72.92;-166.31;5.0;989.55;60.94;;;;NaN;;;;;0 / 0;192515;2022-11-03 16:54:16:584
-0.4381;-8.4997;-0.1053;-1.8281;-9.5681;-1.131;1.3304;1.8716;1.6851;1.2608;1.3412;0.9226;0.0;10.38;39.9;-13.38;35.41;72.11;157.32;5.0;989.58;67.382;;;;NaN;;;;;0 / 0;193014;2022-11-03 16:54:17:083
-1.8004;-13.3049;0.8571;0.5743;-9.3426;-2.9252;-2.7949;-3.3742;2.6719;-1.9053;2.4334;-0.9051;0.0;1.02;42.12;-7.5;36.03;83.1;127.42;5.0;989.55;65.868;;;;NaN;;;;;0 / 0;193515;2022-11-03 16:54:17:584
-1.8292;-12.091;2.1476;-2.4003;-8.7156;-3.8009;-0.609;-3.3333;3.914;1.6066;6.9807;1.1468;0.0;2.58;42.9;1.68;4.51;54.6;152.93;5.0;989.66;62.492;;;;NaN;;;;;0 / 0;194015;2022-11-03 16:54:18:084
-2.3056;-13.8699;-1.5179;-0.9877;-9.5189;2.1411;-1.7032;-4.0341;-5.2998;-3.769;-1.6869;0.5323;0.0;1.32;33.24;-29.4;154.71;76.64;20.19;5.0;989.55;59.284;;;;NaN;;;;;0 / 0;194515;2022-11-03 16:54:18:584
-3.3998;-8.3752;-10.281;-1.7219;-8.1341;-5.2001;-3.5054;-9.7916;-5.4459;-0.8839;-3.0088;-0.1311;0.0;-0.42;42.66;9.66;351.22;49.48;161.32;5.0;989.56;63.471;;;;NaN;;;;;0 / 0;195015;2022-11-03 16:54:19:084
0.1365;-7.7192;0.7685;-2.2314;-9.4892;-1.0707;-0.6151;1.4875;-12.0719;0.9517;-3.605;-0.0987;1.0;13.98;38.34;-13.8;39.39;67.47;159.07;5.0;989.55;58.118;;;;NaN;;;;;0 / 0;195515;2022-11-03 16:54:19:584
-4.2832;-8.2962;0.4956;-1.837;-7.7294;-5.7491;-0.9516;2.619;3.7635;-2.7012;-2.8903;0.685;1.0;2.4;43.14;6.42;9.74;69.2;176.6;5.0;989.57;59.994;;;;NaN;;;;;0 / 0;196014;2022-11-03 16:54:20:083
-2.7701;-8.9498;1.6185;-0.485;-9.2345;-3.2647;-0.7636;-3.9665;4.3629;0.3067;3.5195;1.4156;1.0;8.52;42.18;-4.26;27.64;67.33;169.46;5.0;989.48;63.458;;;;NaN;;;;;0 / 0;196515;2022-11-03 16:54:20:584
-3.8547;-16.2764;-0.8452;-0.8126;-9.5768;-1.9479;-2.149;-3.1529;-1.2697;-3.9315;0.5501;0.6313;0.0;3.3;40.86;-15.18;121.5;76.35;35.68;5.0;989.53;60.119;;;;NaN;;;;;0 / 0;197015;2022-11-03 16:54:21:084
-6.4215;-8.9666;8.1621;-5.9931;-4.2301;-6.5084;-0.2286;5.7088;-2.6089;-0.5687;-0.5452;-1.4322;0.0;19.2;34.62;22.02;8.36;19.26;146.02;5.0;989.66;63.316;;;;NaN;;;;;0 / 0;197514;2022-11-03 16:54:21:583
-0.0862;-6.4646;0.4884;-1.6154;-9.6705;0.2038;0.5366;0.9451;-1.6897;2.0623;0.7187;-0.7096;0.0;6.72;37.74;-19.74;54.71;78.54;127.99;5.0;989.49;61.058;;;;NaN;;;;;0 / 0;198015;2022-11-03 16:54:22:084
-1.8771;-6.0528;-1.1947;-1.0293;-8.679;-4.448;1.659;0.9976;5.0007;-2.0574;-2.2275;-0.0761;0.0;0.66;43.32;-0.84;5.36;77.52;-178.09;5.0;989.45;59.179;;;;NaN;;;;;0 / 0;198514;2022-11-03 16:54:22:583
-1.1756;-11.3728;0.8164;-1.3544;-9.5273;-1.8887;0.2002;2.6779;3.4865;0.2847;3.8378;1.2128;1.0;12.0;41.4;-7.74;37.85;70.98;164.55;5.0;989.48;62.247;;;;NaN;;;;;0 / 0;199016;2022-11-03 16:54:23:085
-0.6823;-13.2211;0.7015;0.6107;-9.4778;-2.443;-5.36;-6.1105;3.2306;-1.7623;2.0907;-0.7768;1.0;3.3;42.9;-10.62;81.81;84.4;92.02;5.0;989.48;59.602;;;;NaN;;;;;0 / 0;199514;2022-11-03 16:54:23:583
-1.5323;-7.4942;3.4692;-2.5105;-8.6617;-3.8526;-5.3103;-3.7602;11.9742;2.8485;2.0546;2.17;1.0;7.92;43.98;-1.86;24.23;63.91;155.68;5.0;989.59;58.672;;;;NaN;;;;;0 / 0;200014;2022-11-03 16:54:24:083
-0.7733;-13.9106;-1.7071;-1.9742;-9.2753;2.4983;-0.24;-1.7906;-5.8361;-2.6108;1.0424;-0.3669;1.0;15.18;30.54;-29.88;153.04;73.27;45.55;5.0;989.52;59.088;;;;NaN;;;;;0 / 0;200514;2022-11-03 16:54:24:583
0.2753;-2.4349;-0.6728;-2.069;-7.4717;-6.0052;-1.4406;-0.9792;0.6101;3.0727;-3.4914;-1.4542;0.0;7.86;43.44;10.8;14.36;56.03;158.23;5.0;989.52;62.09;;;;NaN;;;;;0 / 0;201015;2022-11-03 16:54:25:084
-1.0415;-9.9003;-0.8452;-1.803;-9.562;-1.2199;2.2367;1.3386;1.2307;3.2064;-6.2006;-0.7047;0.0;16.44;40.74;-11.34;42.92;70.02;164.0;5.0;989.44;62.547;;;;NaN;;;;;0 / 0;201515;2022-11-03 16:54:25:584
-3.2346;-6.3569;1.2546;-2.3935;-8.0812;-5.0134;-0.8818;5.0289;4.2284;-2.2578;-6.269;0.0925;1.0;6.36;45.0;3.06;27.22;71.32;-172.92;5.0;989.45;59.184;;;;NaN;;;;;0 / 0;202014;2022-11-03 16:54:26:083
-0.8068;-9.194;0.6345;-0.6655;-9.3501;-2.8815;-1.9356;-1.7522;6.2682;1.8357;4.616;1.0466;1.0;8.04;43.8;-5.7;23.59;62.9;157.24;5.0;989.48;58.076;;;;NaN;;;;;0 / 0;202514;2022-11-03 16:54:26:583
-0.814;-13.5347;0.9697;-1.353;-9.7058;0.369;0.0355;-3.4738;-8.6998;-1.7984;0.3222;-0.8037;0.0;11.94;36.12;-24.72;157.82;73.45;38.92;5.0;989.5;58.756;;;;NaN;;;;;0 / 0;203014;2022-11-03 16:54:27:083
-14.5307;-7.8461;-11.3799;-1.66;-8.918;-3.7261;-5.3359;4.6494;13.1924;0.6127;3.0791;0.2904;0.0;-2.7;45.42;-1.92;355.94;49.92;161.56;5.0;989.56;62.389;;;;NaN;;;;;0 / 0;203515;2022-11-03 16:54:27:584
-2.6384;-9.886;-8.222;-1.6557;-9.5666;1.3817;-0.0024;-0.7278;-0.1961;0.215;1.0431;-0.0108;1.0;14.94;36.72;-22.68;49.46;72.27;146.33;5.0;989.46;60.592;;;;NaN;;;;;0 / 0;204014;2022-11-03 16:54:28:083
-1.7142;-5.8589;-0.9984;-1.4421;-8.1184;-5.3087;0.8109;1.0316;4.0953;-1.733;-2.5892;-0.1934;0.0;6.84;44.16;3.48;28.84;72.05;-154.71;5.0;989.47;60.552;;;;NaN;;;;;0 / 0;204515;2022-11-03 16:54:28:584
-0.1197;-12.7614;0.2394;-1.603;-9.2147;-2.9477;2.3953;1.8732;4.1118;-0.1075;3.5934;0.6954;0.0;18.06;40.68;-6.18;58.48;67.95;148.18;5.0;989.48;61.496;;;;NaN;;;;;0 / 0;205014;2022-11-03 16:54:29:083
-1.4006;-15.9005;-0.4501;0.7473;-9.5722;-1.9964;1.0242;-2.389;1.1756;-3.1942;2.5213;-2.7242;0.0;11.94;40.74;-11.7;169.5;76.39;49.26;5.0;989.57;59.151;;;;NaN;;;;;0 / 0;205514;2022-11-03 16:54:29:583
-1.8244;-18.321;-4.6017;-2.213;-8.7033;-3.9402;-0.3483;-1.2609;7.1516;1.9114;5.4321;0.9104;0.0;4.08;44.16;-0.9;17.4;72.05;158.33;5.0;989.57;60.454;;;;NaN;;;;;0 / 0;206014;2022-11-03 16:54:30:083
-0.2394;-13.6042;1.1779;-1.9257;-9.3986;2.0318;1.5088;-5.3111;-2.9553;-0.733;1.9001;-0.8458;0.0;14.82;30.6;-29.58;115.12;77.01;79.8;5.0;989.55;63.893;;;;NaN;;;;;0 / 0;206514;2022-11-03 16:54:30:583
-0.4956;-3.9552;-4.2832;-2.3721;-8.1607;-4.8935;-1.8282;-3.7434;-0.4165;2.182;-1.2642;-1.0175;0.0;9.06;43.92;1.86;21.4;55.88;170.89;5.0;989.5;56.028;;;;NaN;;;;;0 / 0;207014;2022-11-03 16:54:31:083
-5.7584;-8.8517;-6.1295;-1.7731;-9.6436;0.1633;2.1312;2.466;-6.0077;1.5583;1.9099;1.5995;0.0;17.34;36.06;-20.7;35.32;78.61;175.4;5.0;989.51;60.78;;;;NaN;;;;;0 / 0;207515;2022-11-03 16:54:31:584
0.6632;-7.6665;-0.3017;-2.5085;-7.7263;-5.4938;-0.5161;0.6618;0.1866;-2.7617;-7.2464;0.5488;0.0;15.9;41.88;1.68;43.14;64.18;-177.37;5.0;989.53;62.69;;;;NaN;;;;;0 / 0;208015;2022-11-03 16:54:32:084
3.2082;-8.5261;0.6225;-3.4443;-8.8018;-2.6143;7.8195;-6.5238;5.2824;1.1063;-2.0485;-0.3516;0.0;13.74;42.0;-9.0;36.92;59.39;150.21;5.0;989.52;62.03;;;;NaN;;;;;0 / 0;208515;2022-11-03 16:54:32:584
-1.9704;-11.5499;-2.1189;-2.0004;-9.5882;-0.4849;-1.0519;-5.1687;-0.6719;-3.598;-0.8543;-1.183;0.0;17.64;37.92;-19.68;144.83;73.91;62.88;5.0;989.53;59.002;;;;NaN;;;;;0 / 0;209014;2022-11-03 16:54:33:083
-12.929;-5.732;1.549;-1.639;-9.0978;-3.2732;-4.1549;-3.9971;8.0627;1.3628;4.3454;2.1572;0.0;-1.14;45.0;-8.28;5.29;58.79;152.88;5.0;989.56;61.278;;;;NaN;;;;;0 / 0;209514;2022-11-03 16:54:33:583
-1.391;-10.3456;-0.4621;-2.3464;-9.3266;1.9183;-1.1165;-1.7123;-8.4378;-0.9652;0.0785;0.4846;0.0;21.9;30.9;-25.68;97.93;73.96;106.98;5.0;989.6;60.448;;;;NaN;;;;;0 / 0;210015;2022-11-03 16:54:34:084
-1.1516;-6.6921;0.8595;-2.3319;-8.4937;-4.3115;2.9304;2.8322;4.1152;-0.6359;0.048;-1.8452;0.0;13.74;43.38;-1.74;39.98;70.63;-178.0;5.0;989.53;57.127;;;;NaN;;;;;0 / 0;210515;2022-11-03 16:54:34:584
-0.0168;-4.8147;0.0455;-2.2409;-9.5406;-0.3541;2.149;1.0393;1.8348;0.9536;0.9875;0.0503;0.0;20.46;38.34;-15.84;76.86;72.33;127.78;5.0;989.56;58.915;;;;NaN;;;;;0 / 0;211014;2022-11-03 16:54:35:083
-2.0135;-4.027;1.0989;-0.1444;-8.9865;-3.9234;-5.3081;-3.5877;2.4029;-2.248;-0.2049;-0.1238;0.0;14.16;44.22;-0.66;96.96;82.32;144.08;5.0;989.54;57.932;;;;NaN;;;;;0 / 0;211515;2022-11-03 16:54:35:584
0.7135;-12.9457;4.2018;-2.7362;-8.7018;-3.6003;2.598;-4.1229;2.593;1.6762;4.7315;0.3075;0.0;11.04;44.28;-2.34;31.4;62.72;155.8;5.0;989.66;62.889;;;;NaN;;;;;0 / 0;212014;2022-11-03 16:54:36:083
-0.9242;-16.2285;-0.0718;-1.7953;-9.4335;1.9892;1.8577;-1.4735;1.3026;-2.9322;1.8598;-1.0108;0.0;19.32;33.06;-28.92;182.21;74.06;31.68;5.0;989.59;57.526;;;;NaN;;;;;0 / 0;212514;2022-11-03 16:54:36:583
-3.5506;-17.938;-5.2436;-0.8493;-9.3159;-2.9433;-13.201;1.0674;-7.9609;-2.3708;-1.6325;0.9092;0.0;2.52;45.36;-4.98;10.9;58.1;150.86;5.0;989.53;57.699;;;;NaN;;;;;0 / 0;213014;2022-11-03 16:54:37:083
-0.8308;-9.3712;-0.3304;-0.8015;-9.7694;-0.2935;-0.7157;0.8821;-11.2513;-0.5486;0.1542;-0.2081;0.0;8.64;42.06;-17.04;61.1;75.46;118.12;5.0;989.63;60.053;;;;NaN;;;;;0 / 0;213514;2022-11-03 16:54:37:583
-1.5251;-3.2034;1.0822;-2.1586;-8.0634;-5.147;1.7405;3.213;2.6091;-2.499;-2.7443;0.4199;0.0;15.18;43.14;0.96;48.59;67.8;169.75;5.0;989.59;60.471;;;;NaN;;;;;0 / 0;214015;2022-11-03 16:54:38:084
0.395;-14.7752;1.7358;-1.5677;-9.4831;-1.9451;2.5131;1.7642;3.9901;0.8063;3.0259;0.6062;0.0;20.58;40.86;-9.0;65.3;71.38;149.74;5.0;989.59;61.224;;;;NaN;;;;;0 / 0;214514;2022-11-03 16:54:38:583
-5.0999;-11.8731;0.7278;0.6311;-9.5602;-2.0914;-3.5207;5.2699;4.2519;-1.8076;-2.6563;-0.2795;0.0;12.0;44.64;-10.74;157.91;76.59;55.03;5.0;989.6;60.919;;;;NaN;;;;;0 / 0;215015;2022-11-03 16:54:39:084
-1.4748;-12.7925;0.8021;-1.4113;-9.223;-3.0192;1.2656;-4.2703;7.8322;1.4361;1.7101;1.8359;0.0;3.72;47.52;-4.8;17.09;71.21;156.99;5.0;989.6;59.108;;;;NaN;;;;;0 / 0;215514;2022-11-03 16:54:39:583
-0.7805;-16.4943;-0.656;-0.8476;-9.606;1.7821;-1.0444;-3.1697;-6.5696;-3.2791;-1.4157;0.5317;0.0;6.84;39.06;-28.32;169.62;75.75;20.66;5.0;989.57;59.821;;;;NaN;;;;;0 / 0;216016;2022-11-03 16:54:40:085
-8.732;-15.0362;-25.6117;-1.2789;-9.1367;-3.325;-10.1566;-1.0187;-7.2039;-1.3354;-2.3008;0.0076;0.0;-4.02;46.74;0.78;344.76;72.13;157.83;5.0;989.66;56.827;;;;NaN;;;;;0 / 0;216515;2022-11-03 16:54:40:584
0.182;-7.9634;2.2745;-0.7343;-9.2884;3.0588;-6.4289;-0.3289;-29.5173;-2.2608;-6.0802;0.6685;0.0;2.16;34.44;-29.58;90.65;81.16;83.02;5.0;989.58;57.972;;;;NaN;;;;;0 / 0;217016;2022-11-03 16:54:41:085
1.7478;-1.9489;2.648;-3.2315;-8.4397;-3.8078;1.558;7.377;6.717;0.2541;-5.7162;1.0876;0.0;10.56;43.74;0.3;29.04;65.04;-173.53;5.0;989.63;62.459;;;;NaN;;;;;0 / 0;217517;2022-11-03 16:54:41:586
0.0096;-8.0041;0.7709;-2.5455;-9.3586;-1.4517;1.4337;-1.0934;-0.7573;3.8882;-4.4596;-0.304;0.0;22.98;37.92;-8.22;68.66;69.39;150.69;5.0;989.58;65.513;;;;NaN;;;;;0 / 0;218016;2022-11-03 16:54:42:085
-3.0167;-3.6919;1.9154;-0.3665;-9.278;-3.1549;-2.0788;5.6044;4.7913;-0.617;-3.9722;0.0289;0.0;11.04;43.56;-3.54;87.14;80.12;122.11;5.0;989.6;58.393;;;;NaN;;;;;0 / 0;218516;2022-11-03 16:54:42:585
-3.0311;-15.369;2.9233;-2.097;-8.9919;-3.3043;-1.5932;-2.5585;2.3975;1.6402;8.4052;1.1089;0.0;6.84;44.82;-1.98;18.9;60.51;150.47;5.0;989.67;55.551;;;;NaN;;;;;0 / 0;219016;2022-11-03 16:54:43:085
-1.2163;-13.9705;0.6009;-1.8481;-9.4784;1.7071;1.3294;-2.896;1.2418;-3.0;2.0388;-2.4432;0.0;14.22;32.7;-27.9;162.36;73.02;38.11;5.0;989.59;56.914;;;;NaN;;;;;0 / 0;219514;2022-11-03 16:54:43:583
-5.3202;-17.9547;-9.1438;-1.8285;-8.5305;-4.4786;-11.4701;3.9152;-7.2508;-2.8234;-0.5256;0.6209;0.0;-1.08;45.06;4.38;351.67;69.34;167.88;5.0;989.62;57.486;;;;NaN;;;;;0 / 0;220020;2022-11-03 16:54:44:089
-1.1875;-12.3065;-0.7111;-0.5743;-9.6057;1.8895;0.5735;0.6902;-1.2422;2.8802;2.1579;-0.9222;0.0;4.26;35.34;-29.64;120.43;84.37;61.41;5.0;989.64;59.141;;;;NaN;;;;;0 / 0;220514;2022-11-03 16:54:44:583
-1.6879;-6.5772;-0.0359;-2.7578;-8.2793;-4.4741;1.6649;1.6594;3.5368;1.0989;-0.2495;-1.5819;0.0;3.9;45.0;2.7;9.87;62.56;163.61;5.0;989.6;58.988;;;;NaN;;;;;0 / 0;221014;2022-11-03 16:54:45:083
1.415;-6.2516;-0.1365;-3.4804;-9.0733;-1.316;4.0108;1.7231;1.924;0.2749;0.0681;-1.1922;1.0;4.32;43.68;-12.06;18.79;63.45;151.11;5.0;989.6;62.349;;;;NaN;;;;;0 / 0;221515;2022-11-03 16:54:45:584
-1.1277;-11.0376;0.8332;-0.6631;-9.774;-0.4473;-5.0634;-3.7675;3.2706;-2.3488;2.5097;-0.5673;0.0;5.94;40.44;-21.54;196.75;76.25;5.87;5.0;989.59;60.222;;;;NaN;;;;;0 / 0;222014;2022-11-03 16:54:46:083
-6.9004;-2.8491;-2.5187;-1.5166;-8.7379;-4.1855;-5.7263;-7.7229;6.4379;2.7067;1.6362;1.2213;0.0;-4.26;45.18;-0.72;352.48;58.5;158.92;5.0;989.65;56.764;;;;NaN;;;;;0 / 0;222515;2022-11-03 16:54:46:584
-1.494;-9.7974;-0.3208;-1.6556;-9.5024;1.7703;0.3304;0.2802;-6.992;1.1154;0.8164;0.2959;0.0;6.9;35.1;-27.66;151.11;79.51;36.37;5.0;989.58;56.595;;;;NaN;;;;;0 / 0;223014;2022-11-03 16:54:47:083
-2.241;-6.3545;-2.2314;-1.5216;-8.2918;-5.01;2.336;3.5187;2.8352;0.7288;1.2538;-0.5074;0.0;0.48;45.06;7.08;354.07;52.68;160.92;5.0;989.57;57.877;;;;NaN;;;;;0 / 0;223515;2022-11-03 16:54:47:584
-4.0486;-9.1629;-14.1189;-1.5519;-9.6808;-0.2098;1.2043;1.3708;-0.4686;1.9395;-0.7608;-1.0975;1.0;8.22;42.18;-16.86;30.1;70.55;154.3;5.0;989.56;59.553;;;;NaN;;;;;0 / 0;224014;2022-11-03 16:54:48:083
-1.0295;-3.96;0.8763;0.4064;-9.0401;-3.779;-1.1658;4.7824;3.9887;-2.0366;-4.9049;0.1224;1.0;0.3;45.0;-5.34;25.8;82.61;124.08;5.0;989.58;57.072;;;;NaN;;;;;0 / 0;224515;2022-11-03 16:54:48:584
-1.4988;-8.945;2.5139;-1.1146;-9.2088;-3.1823;1.3409;-3.3329;6.7284;0.7801;2.2813;1.0833;1.0;1.38;45.54;-4.2;6.14;66.71;160.22;5.0;989.58;59.16;;;;NaN;;;;;0 / 0;225014;2022-11-03 16:54:49:083
0.2945;-14.7178;-0.7638;-1.3115;-9.7174;-0.149;-1.2459;-6.1576;-5.8361;-2.7532;1.7791;0.131;1.0;9.18;39.3;-22.08;149.59;75.93;40.17;5.0;989.73;60.053;;;;NaN;;;;;0 / 0;225515;2022-11-03 16:54:49:584
-0.8475;-5.1814;-2.1093;-1.1932;-9.1661;-3.2756;-0.9119;-0.6925;0.983;4.7312;-1.9276;-2.0162;1.0;-6.12;45.96;-3.24;351.51;52.78;161.28;5.0;989.68;57.748;;;;NaN;;;;;0 / 0;226014;2022-11-03 16:54:50:083
-1.0894;-10.6521;-0.0359;-0.9982;-9.7212;0.8196;-4.0097;-0.4841;-14.9239;0.2773;2.4138;-0.2912;1.0;4.2;40.26;-25.02;36.4;74.78;139.23;5.0;989.71;60.79;;;;NaN;;;;;0 / 0;226515;2022-11-03 16:54:50:584
-2.1284;-6.4359;0.9266;-0.4382;-8.1473;-5.4406;1.2505;1.5965;2.2516;-1.1949;-4.861;-0.8196;1.0;-1.86;46.98;5.64;8.14;70.95;-149.16;5.0;989.68;60.222;;;;NaN;;;;;0 / 0;227014;2022-11-03 16:54:51:083
1.5826;-6.2037;1.6041;-1.3403;-9.3272;-2.7159;3.3423;5.0347;3.8308;0.7666;-1.2117;0.192;1.0;7.98;44.58;-6.06;22.98;64.34;161.71;5.0;989.64;62.977;;;;NaN;;;;;0 / 0;227514;2022-11-03 16:54:51:583
0.3328;-13.4581;0.4788;-1.2125;-9.7111;-0.6287;-3.3497;-7.1117;2.5135;-2.2553;1.0223;-2.1506;0.0;10.5;38.58;-20.58;162.93;76.84;37.96;5.0;989.69;59.259;;;;NaN;;;;;0 / 0;228015;2022-11-03 16:54:52:084
-11.0184;-4.2904;-8.9115;-1.3;-8.962;-3.7633;-8.4125;-5.8181;10.7449;1.9175;1.3186;2.4174;0.0;-6.06;44.1;-2.82;350.49;53.26;164.84;5.0;989.66;59.529;;;;NaN;;;;;0 / 0;228515;2022-11-03 16:54:52:584
-0.9768;-8.9881;2.0638;-1.553;-9.4863;1.9412;-0.5335;-1.4717;-0.9736;1.1503;2.2342;0.0045;0.0;9.12;33.54;-29.7;136.16;80.48;52.96;5.0;989.61;61.743;;;;NaN;;;;;0 / 0;229015;2022-11-03 16:54:53:084
-1.6281;-5.8445;1.8196;-2.5291;-7.5688;-5.6997;4.952;2.6063;2.8373;-1.2859;-2.3857;-1.2093;0.0;7.5;43.92;7.14;13.12;51.65;156.91;5.0;989.66;59.357;;;;NaN;;;;;0 / 0;229514;2022-11-03 16:54:53:583
-0.6943;-8.2747;-0.7374;-2.0333;-9.3205;-2.2725;-0.0816;-0.0415;-5.1599;0.6921;-3.4572;-0.9539;0.0;6.18;43.8;-10.92;26.14;67.17;146.74;5.0;989.66;60.46;;;;NaN;;;;;0 / 0;230015;2022-11-03 16:54:54:084
-2.5905;-6.0385;0.8523;0.3044;-9.08;-3.6921;-1.4064;5.7055;6.7248;-1.8802;-2.6325;0.0485;0.0;-2.04;45.36;-8.4;22.55;80.37;123.15;5.0;989.6;55.832;;;;NaN;;;;;0 / 0;230514;2022-11-03 16:54:54:583
-1.154;-7.4822;4.5011;-2.5319;-8.4397;-4.3047;3.8958;-5.0813;6.2498;3.0488;2.5171;1.1633;0.0;-6.18;45.06;3.48;342.18;61.97;156.48;5.0;989.66;60.286;;;;NaN;;;;;0 / 0;231015;2022-11-03 16:54:55:084
-1.5682;-15.0314;-0.4836;-0.3934;-9.4723;-2.508;2.2139;-4.0215;0.9682;-3.2321;1.9471;-0.4793;0.0;-2.52;43.74;-13.38;68.01;77.71;57.87;5.0;989.7;57.67;;;;NaN;;;;;0 / 0;231515;2022-11-03 16:54:55:584
-7.2595;-12.6489;-17.5932;-2.0834;-8.9464;-3.4339;-5.9069;-7.0362;-15.3741;-0.5382;-3.291;-0.9552;0.0;-13.5;43.08;9.06;313.7;64.1;163.4;5.0;989.69;62.123;;;;NaN;;;;;0 / 0;232014;2022-11-03 16:54:56:083
-3.4572;-14.7728;-25.164;-1.9492;-9.5523;1.0604;1.7686;-0.1481;-0.4542;-0.5944;1.5128;-0.4897;0.0;-5.76;38.34;-23.76;56.87;78.7;94.8;5.0;989.87;64.66;;;;NaN;;;;;0 / 0;232514;2022-11-03 16:54:56:583
1.221;-3.0861;-2.1739;-2.2693;-7.392;-6.0314;3.3243;0.7837;6.8319;-1.4856;1.0681;-1.1299;0.0;-5.7;41.76;17.94;318.92;52.03;154.86;5.0;989.74;59.546;;;;NaN;;;;;0 / 0;233015;2022-11-03 16:54:57:084
-0.4166;-9.4239;0.2993;-1.3926;-9.2479;-2.9507;1.7885;2.0826;4.778;7.4489;-4.941;-0.1763;0.0;-6.24;44.52;-5.7;354.3;66.77;152.25;5.0;989.67;62.183;;;;NaN;;;;;0 / 0;233514;2022-11-03 16:54:57:583
-3.2968;-5.7799;2.1308;1.1164;-8.864;-4.0438;-4.3246;3.711;6.6849;-1.6622;-7.2403;1.2281;0.0;-6.78;44.28;-6.48;19.74;80.18;95.14;5.0;989.66;60.363;;;;NaN;;;;;0 / 0;234015;2022-11-03 16:54:58:084
1.1851;-15.3857;7.4415;-2.669;-8.0333;-4.951;4.1023;-1.9328;6.2749;3.2064;4.5207;0.4468;0.0;-10.62;43.2;12.66;315.27;63.68;137.86;5.0;989.68;62.719;;;;NaN;;;;;0 / 0;234515;2022-11-03 16:54:58:584
0.6536;-14.1285;-0.0766;-0.9646;-9.4414;-2.4696;-3.4037;-0.8883;-22.7847;-4.6334;-0.5794;0.3454;0.0;0.78;42.78;-16.5;54.36;78.57;103.81;5.0;989.69;58.525;;;;NaN;;;;;0 / 0;235014;2022-11-03 16:54:59:083
-12.2945;-9.3329;-2.8563;-1.7389;-8.9834;-3.5277;-5.2582;-3.131;-0.0315;2.6505;-4.0589;-1.307;0.0;-14.76;43.56;1.8;334.6;49.35;160.03;5.0;989.76;59.253;;;;NaN;;;;;0 / 0;235515;2022-11-03 16:54:59:584
-0.3831;-6.4168;1.2953;-1.9821;-9.6042;0.004;0.4304;-0.818;-19.0139;1.3457;1.4432;-0.4567;0.0;13.74;35.76;-26.1;78.49;74.11;110.41;5.0;989.74;61.282;;;;NaN;;;;;0 / 0;236014;2022-11-03 16:55:00:083
-0.6967;-7.1422;0.3735;-3.4744;-8.1878;-4.1301;2.6468;0.8715;3.8913;1.1503;-2.0919;-2.7016;0.0;-3.24;45.12;3.0;350.9;59.52;174.23;5.0;989.73;65.702;;;;NaN;;;;;0 / 0;236514;2022-11-03 16:55:00:583
2.2625;-6.8405;2.3415;-3.7756;-8.6817;-2.5578;3.5249;2.5296;1.523;-0.1478;1.3784;-0.2417;0.0;-3.84;44.94;1.62;348.12;64.1;139.4;5.0;989.69;60.642;;;;NaN;;;;;0 / 0;237014;2022-11-03 16:55:01:083
-1.3408;-12.4214;-0.2322;-0.5764;-8.6372;-4.6083;-0.2624;-1.0131;1.8609;-2.3188;-3.861;0.2605;0.0;-2.16;44.82;-4.5;357.15;75.01;163.62;5.0;989.73;68.58;;;;NaN;;;;;0 / 0;237515;2022-11-03 16:55:01:584
-3.0263;-30.7927;-25.4608;-1.5885;-8.9529;-3.6733;2.3473;-3.5272;11.8585;0.9322;3.7498;1.7986;0.0;2.64;44.4;-7.8;12.12;65.28;162.53;5.0;989.77;68.173;;;;NaN;;;;;0 / 0;238015;2022-11-03 16:55:02:084
-1.336;-11.2195;-6.8477;0.0791;-9.5049;-2.4127;-0.287;-1.3583;-1.9676;-3.0018;3.3149;0.0241;0.0;2.4;40.62;-18.24;138.08;84.34;39.52;5.0;989.76;64.169;;;;NaN;;;;;0 / 0;238515;2022-11-03 16:55:02:584
-3.5769;-15.9675;-9.6489;-1.5657;-8.7463;-4.1499;-8.2836;-7.0033;2.7636;-0.7501;-1.5195;-0.2032;0.0;-8.82;43.32;1.38;338.41;60.79;162.81;5.0;989.76;59.582;;;;NaN;;;;;0 / 0;239014;2022-11-03 16:55:03:083
-1.4174;-11.9929;0.3448;-0.8461;-9.7667;0.2581;-4.5898;-7.1619;-18.184;-5.5094;-0.6692;0.2727;0.0;8.52;36.24;-26.34;132.31;83.3;60.08;5.0;989.75;58.852;;;;NaN;;;;;0 / 0;239514;2022-11-03 16:55:03:583
-6.7543;-12.0695;-12.7231;-0.8178;-8.542;-4.7471;-5.6632;-2.2111;-5.1948;-1.6286;-1.3027;0.3588;0.0;-0.42;44.16;1.44;359.48;41.81;163.07;5.0;989.8;68.513;;;;NaN;;;;;0 / 0;240015;2022-11-03 16:55:04:084
-0.4908;-10.0488;-1.075;-1.5677;-9.6633;0.5769;1.2553;3.4748;-1.7847;1.0763;-2.0717;-0.4634;0.0;16.86;33.84;-27.54;122.58;80.44;79.89;5.0;989.81;60.257;;;;NaN;;;;;0 / 0;240514;2022-11-03 16:55:04:583
-0.6919;-3.0263;1.2474;-0.2359;-9.0442;-3.7838;0.4074;2.1659;0.9501;1.0806;-1.7413;-2.1531;0.0;-0.78;44.52;-5.94;0.12;55.94;169.92;5.0;989.74;62.186;;;;NaN;;;;;0 / 0;241014;2022-11-03 16:55:05:083
1.585;-7.4702;1.3743;-0.6272;-9.7784;0.4006;0.9766;1.0365;2.9105;2.5033;-1.6246;-0.5948;0.0;9.36;38.34;-23.1;28.95;70.59;159.29;5.0;989.84;60.43;;;;NaN;;;;;0 / 0;241514;2022-11-03 16:55:05:583
-1.9489;-7.5516;-2.7222;-1.979;-7.9502;-5.3896;0.5038;1.5567;5.5816;0.1802;-1.0821;0.426;0.0;7.86;44.76;-0.84;24.04;73.14;-161.88;5.0;989.79;61.286;;;;NaN;;;;;0 / 0;242014;2022-11-03 16:55:06:083
2.229;-5.5046;0.7542;-2.0127;-9.3243;-2.2751;3.6206;3.8097;3.161;0.4013;-0.0638;-0.7988;0.0;7.92;41.16;-14.46;22.62;65.39;164.63;5.0;989.8;57.955;;;;NaN;;;;;0 / 0;242514;2022-11-03 16:55:06:583
-3.8834;-17.7009;2.1859;0.5433;-9.6001;-1.927;-4.0162;-1.3303;3.9058;-1.8289;-1.0363;0.3112;0.0;14.28;39.6;-12.96;239.02;79.99;6.88;5.0;989.82;59.104;;;;NaN;;;;;0 / 0;243014;2022-11-03 16:55:07:083
-4.2976;-15.6587;1.4413;0.0694;-9.0805;-3.7028;-2.3084;-5.0267;4.3033;1.573;4.2446;1.0479;0.0;1.74;43.44;-8.22;5.71;67.9;177.46;5.0;989.82;58.257;;;;NaN;;;;;0 / 0;243515;2022-11-03 16:55:07:584
-0.5818;-9.886;-1.8196;-0.181;-9.7092;-1.3672;-1.6147;-5.5341;-8.6102;-4.3213;1.5623;0.3655;0.0;24.3;36.96;-13.02;246.69;76.63;12.59;5.0;989.9;59.705;;;;NaN;;;;;0 / 0;244014;2022-11-03 16:55:08:083
-10.7718;-14.1405;5.2915;-1.1874;-9.1358;-3.3611;-5.1339;-9.019;-4.6442;-0.0421;-7.4602;-1.2856;0.0;-2.52;44.16;-9.84;357.03;59.82;172.17;5.0;989.87;66.774;;;;NaN;;;;;0 / 0;244515;2022-11-03 16:55:08:584
-1.2163;-11.4589;-0.5363;-0.3969;-9.6505;1.697;-1.8482;-0.6015;-11.6874;0.5302;3.3026;-0.9491;0.0;15.18;32.58;-28.92;91.11;84.86;111.02;5.0;989.82;60.886;;;;NaN;;;;;0 / 0;245016;2022-11-03 16:55:09:085
0.079;-6.5413;-6.8693;-1.0108;-8.1558;-5.3508;-6.0638;-7.4924;-3.625;1.0214;-3.0589;-1.753;0.0;14.04;43.8;4.62;30.86;52.2;162.96;5.0;989.88;64.0;;;;NaN;;;;;0 / 0;245515;2022-11-03 16:55:09:584
0.2969;-10.2188;-0.3974;-0.9096;-9.7316;-0.7997;-1.4586;2.7905;-20.9999;0.7648;4.8084;0.0137;0.0;20.76;38.34;-13.14;59.15;78.53;164.14;5.0;989.85;61.108;;;;NaN;;;;;0 / 0;246015;2022-11-03 16:55:10:084
-1.4317;-4.7022;-0.5267;-1.5463;-8.3148;-4.9642;3.3274;2.5458;4.3402;-2.656;-1.4212;-0.1097;0.0;17.4;43.02;-2.64;39.75;74.61;-164.12;5.0;989.85;62.862;;;;NaN;;;;;0 / 0;246514;2022-11-03 16:55:10:583
1.5203;-15.8742;0.4262;-1.2898;-9.419;-2.4059;3.8991;-0.3939;2.1145;0.7275;3.9257;-0.3467;0.0;19.86;39.36;-12.36;55.28;63.79;146.06;5.0;989.82;60.097;;;;NaN;;;;;0 / 0;247014;2022-11-03 16:55:11:083
-1.5754;-10.8676;2.2697;0.3622;-9.2891;-3.1228;-2.2538;-10.6682;3.1442;-1.6921;1.5214;-1.6375;0.0;18.84;41.82;-5.52;121.19;86.64;125.16;5.0;989.89;63.136;;;;NaN;;;;;0 / 0;247514;2022-11-03 16:55:11:583
1.7095;-8.641;1.9704;-1.307;-9.1084;-3.391;1.038;-0.0086;4.5622;1.0134;2.1921;0.6911;0.0;15.0;42.84;-6.72;40.81;66.34;161.73;5.0;989.93;67.954;;;;NaN;;;;;0 / 0;248014;2022-11-03 16:55:12:083
-0.0215;-13.9369;0.2729;-0.5899;-9.7158;1.1939;-2.0012;-5.9087;2.6546;-2.9541;2.4224;-2.5953;0.0;20.46;32.76;-24.3;246.97;76.02;-12.61;5.0;989.94;61.831;;;;NaN;;;;;0 / 0;248515;2022-11-03 16:55:12:584
-8.1502;-13.3863;-5.3753;-0.5196;-9.1931;-3.3745;-13.173;-2.9782;7.1245;-0.3537;0.6747;0.0748;0.0;4.68;44.64;-9.18;16.15;56.71;152.98;5.0;989.94;64.046;;;;NaN;;;;;0 / 0;249014;2022-11-03 16:55:13:083
-1.968;-9.7016;-1.0942;0.2384;-9.6633;1.6535;-1.8749;0.5459;-0.5138;0.7532;-3.6783;-0.4158;0.0;12.6;33.96;-28.92;184.42;82.49;20.38;5.0;990.02;62.144;;;;NaN;;;;;0 / 0;249514;2022-11-03 16:55:13:583
-0.7709;-7.0823;-2.2218;-0.2838;-8.4657;-4.9418;1.2206;4.6889;3.9905;1.3696;1.7223;-0.9998;0.0;9.96;45.18;0.24;21.18;53.19;166.36;5.0;989.95;61.926;;;;NaN;;;;;0 / 0;250015;2022-11-03 16:55:14:084
-1.1325;-11.4877;-0.6536;-0.4043;-9.7572;-0.8965;0.4603;-0.4933;2.5441;0.5223;-1.2654;0.046;0.0;17.34;40.08;-13.62;40.69;75.72;173.51;5.0;990.06;58.045;;;;NaN;;;;;0 / 0;250514;2022-11-03 16:55:14:583
-3.6248;-5.1861;0.1796;0.8689;-8.7771;-4.2869;-0.4236;0.6839;1.4018;-1.7697;-2.2306;0.6685;0.0;14.82;43.32;0.36;24.94;77.31;-129.87;5.0;989.94;58.89;;;;NaN;;;;;0 / 0;251014;2022-11-03 16:55:15:083
1.9345;-13.8723;0.6991;-0.3603;-9.3682;-2.8769;2.0833;4.0113;2.4483;0.2334;0.0736;1.0326;0.0;21.36;40.5;-2.82;54.06;63.74;162.96;5.0;989.95;62.038;;;;NaN;;;;;0 / 0;251515;2022-11-03 16:55:15:584
-0.6345;-13.3312;1.1564;-0.2861;-9.7491;-1.0214;-4.6484;-6.4577;2.9607;-1.248;1.8634;-1.5043;0.0;23.94;38.04;-14.82;238.4;80.33;11.15;5.0;990.04;56.113;;;;NaN;;;;;0 / 0;252014;2022-11-03 16:55:16:083
-10.0919;-8.3058;6.9698;-1.4782;-8.7003;-4.2765;-7.5223;-12.7486;4.7657;0.4374;0.8366;1.178;0.0;13.8;43.32;-3.72;35.87;63.29;167.46;5.0;990.02;58.069;;;;NaN;;;;;0 / 0;252514;2022-11-03 16:55:16:583
-1.0774;-9.783;-1.1349;-0.5982;-9.5776;2.0204;-2.3325;-1.4968;-5.5956;-0.6695;1.8659;0.8909;0.0;20.58;33.66;-25.26;218.31;80.02;8.61;5.0;989.98;59.226;;;;NaN;;;;;0 / 0;253015;2022-11-03 16:55:17:084
-5.4327;-15.7137;-9.3497;-0.2028;-9.1364;-3.5573;0.7187;4.0223;4.4421;1.0727;0.7498;-2.6302;0.0;8.94;44.7;-4.74;20.06;56.28;166.12;5.0;989.97;62.754;;;;NaN;;;;;0 / 0;253515;2022-11-03 16:55:17:584
-0.4908;-9.7926;-1.8627;-0.6056;-9.7811;0.3656;-2.5679;1.2873;-2.013;1.1057;0.7804;0.1279;0.0;16.86;37.2;-21.0;43.44;75.34;162.49;5.0;989.94;63.705;;;;NaN;;;;;0 / 0;254015;2022-11-03 16:55:18:084
-0.4286;-6.0935;0.34;-1.5695;-8.366;-4.87;-0.4873;2.3615;4.6225;-0.6658;0.8311;-1.2514;0.0;17.22;42.6;-1.08;38.79;67.59;-168.37;5.0;989.97;58.389;;;;NaN;;;;;0 / 0;254515;2022-11-03 16:55:18:584
-0.1915;-5.6219;0.6273;-1.0952;-9.4154;-2.5142;-0.0212;1.0907;2.4828;1.2834;2.4664;-0.0639;0.0;18.9;40.26;-11.28;39.98;62.78;169.14;5.0;989.97;58.948;;;;NaN;;;;;0 / 0;255014;2022-11-03 16:55:19:083
-8.3824;-16.4966;0.3639;1.7391;-9.2065;-2.8958;-7.4182;2.4307;1.0467;-1.846;-1.8781;0.1872;0.0;17.04;42.12;1.08;15.55;78.71;-109.35;5.0;990.05;59.978;;;;NaN;;;;;0 / 0;255514;2022-11-03 16:55:19:583
-2.478;-11.6385;4.1085;-0.4739;-9.4401;-2.6133;1.5989;-1.7057;5.157;1.642;5.4608;0.7149;0.0;22.32;40.02;-1.44;61.69;64.89;161.12;5.0;990.03;63.484;;;;NaN;;;;;0 / 0;256014;2022-11-03 16:55:20:083
-0.4405;-11.2914;0.5866;-1.2724;-9.489;2.1237;1.0426;-3.9404;-1.7813;0.5895;-3.2318;-0.1904;0.0;25.68;31.38;-23.82;177.25;75.5;49.35;5.0;990.08;59.805;;;;NaN;;;;;0 / 0;256514;2022-11-03 16:55:20:583
-12.5794;-12.1293;6.3761;-1.2565;-8.8577;-4.0165;-1.9421;-10.9094;2.2592;0.3311;3.6594;0.9501;0.0;9.9;43.56;-6.0;25.39;67.86;177.16;5.0;990.11;62.995;;;;NaN;;;;;0 / 0;257015;2022-11-03 16:55:21:084
-0.7302;-6.9626;-0.0814;-0.9845;-9.5572;1.9648;-0.9284;-2.4644;-3.0973;-0.1943;-2.9007;-0.1653;0.0;30.42;30.84;-19.08;189.67;77.26;50.07;5.0;990.16;62.43;;;;NaN;;;;;0 / 0;257514;2022-11-03 16:55:21:583
-0.7494;-3.4979;0.7685;0.3379;-9.005;-3.8685;-1.3794;3.8261;4.5413;0.8302;-1.8781;-1.1506;0.0;16.8;43.02;0.12;36.63;63.39;-168.16;5.0;990.06;59.517;;;;NaN;;;;;0 / 0;258014;2022-11-03 16:55:22:083
1.7454;-8.4375;-6.0145;-1.3765;-9.7086;0.1396;1.2927;-0.1415;-1.3821;1.7233;-3.0259;0.0479;0.0;29.46;33.12;-16.86;151.35;81.89;84.21;5.0;990.17;60.775;;;;NaN;;;;;0 / 0;258514;2022-11-03 16:55:22:583
-3.2082;-5.8254;-0.3376;1.2107;-9.0286;-3.6316;-3.4253;6.814;5.0609;-1.2449;-6.9049;0.5353;0.0;19.92;42.24;0.9;42.1;67.02;-161.56;5.0;990.08;60.387;;;;NaN;;;;;0 / 0;259014;2022-11-03 16:55:23:083
3.158;-9.1342;0.9074;-1.7578;-8.4982;-4.5673;4.729;-5.2974;11.8627;2.3463;1.0718;0.7901;0.0;21.42;40.02;-9.84;47.15;60.06;158.95;5.0;990.08;64.812;;;;NaN;;;;;0 / 0;259515;2022-11-03 16:55:23:584
-3.4141;-16.3841;1.2186;1.1011;-9.538;-1.996;-6.644;-6.2619;3.0159;-1.6035;2.368;-2.0285;0.0;26.82;37.38;-12.6;179.73;84.1;64.52;5.0;990.12;61.271;;;;NaN;;;;;0 / 0;260014;2022-11-03 16:55:24:083
-6.0888;-1.2258;-1.7573;-0.2762;-9.0139;-3.8526;-4.3063;-5.3444;6.1055;-2.3024;-0.2062;1.1615;0.0;10.32;44.1;-9.9;19.09;73.69;-170.04;5.0;990.06;59.785;;;;NaN;;;;;0 / 0;260515;2022-11-03 16:55:24:584
-0.2514;-8.1549;0.8811;-1.1268;-9.3458;2.7488;0.6551;-1.0094;-4.5157;0.4276;0.6716;0.1859;0.0;29.22;33.0;-19.32;225.55;77.44;20.52;5.0;990.17;62.248;;;;NaN;;;;;0 / 0;261015;2022-11-03 16:55:25:084
-2.071;-6.7448;1.0989;-2.337;-7.3204;-6.0926;1.8055;4.354;6.7414;2.3482;1.0846;-2.2471;0.0;22.8;40.68;3.78;47.53;48.29;159.01;5.0;990.12;59.367;;;;NaN;;;;;0 / 0;261515;2022-11-03 16:55:25:584
1.731;-6.2611;2.0303;-1.81;-9.4667;-1.8097;3.1364;2.9686;2.1712;1.9639;-0.7443;-2.6784;0.0;20.22;38.34;-17.34;73.26;74.87;135.0;5.0;990.07;58.398;;;;NaN;;;;;0 / 0;262015;2022-11-03 16:55:26:084
-1.0367;-3.9169;0.5555;1.4163;-9.4174;-2.3403;-8.9871;-8.1303;3.6403;-3.5277;-3.6551;-0.2789;0.0;17.46;43.08;1.2;37.5;73.8;-148.82;5.0;990.08;57.904;;;;NaN;;;;;0 / 0;262515;2022-11-03 16:55:26:584
-1.6735;-8.8588;3.9073;-0.5577;-9.0337;-3.775;1.6495;1.4271;10.0936;-1.295;1.9887;0.426;0.0;13.86;44.04;-6.36;33.64;64.41;170.45;5.0;990.07;58.785;;;;NaN;;;;;0 / 0;263014;2022-11-03 16:55:27:083
-1.0487;-10.5707;-0.7302;-0.5683;-9.6121;1.8585;1.8014;-2.5507;-1.7627;-1.0562;-1.5611;0.5421;0.0;18.9;33.42;-27.72;220.31;81.34;-0.35;5.0;990.15;64.147;;;;NaN;;;;;0 / 0;263514;2022-11-03 16:55:27:583
-0.3065;-1.4317;-3.735;0.1783;-9.0379;-3.8019;-4.1024;-1.4346;-3.3164;3.0525;1.9832;-1.8092;0.0;15.0;42.96;2.76;35.34;54.64;164.29;5.0;990.12;61.133;;;;NaN;;;;;0 / 0;264014;2022-11-03 16:55:28:083
0.3687;-10.7407;1.5778;-0.63;-9.6162;1.8173;-1.6253;-0.8276;-25.08;0.4038;1.4413;0.0051;0.0;32.04;32.04;-15.6;233.01;78.69;19.12;5.0;990.24;64.059;;;;NaN;;;;;0 / 0;264515;2022-11-03 16:55:28:584
-4.4676;-5.8493;0.5794;1.6891;-9.1208;-3.1824;-4.531;7.4185;3.7618;-1.9175;-6.5195;0.8615;0.0;20.94;41.7;1.98;40.34;68.45;-152.04;5.0;990.16;60.863;;;;NaN;;;;;0 / 0;265015;2022-11-03 16:55:29:084
1.0558;-5.2891;1.1756;-0.3803;-9.1561;-3.4917;0.9645;-7.4292;11.2133;0.1002;-0.7181;1.1083;0.0;26.4;37.26;-2.76;62.87;69.01;173.78;5.0;990.14;62.349;;;;NaN;;;;;0 / 0;265514;2022-11-03 16:55:29:583
-0.6321;-15.2708;1.6712;1.2099;-9.4376;-2.3744;-5.6105;-8.3088;2.9227;-3.4899;1.8873;-1.5123;0.0;26.52;35.64;-13.74;223.1;81.51;26.7;5.0;990.22;57.511;;;;NaN;;;;;0 / 0;266015;2022-11-03 16:55:30:084
-8.4734;-21.0552;-11.2914;-0.2535;-8.8207;-4.278;-1.4918;2.7559;0.251;-1.0837;-1.2465;1.3625;0.0;8.7;43.92;-8.46;18.65;54.4;169.2;5.0;990.27;58.898;;;;NaN;;;;;0 / 0;266515;2022-11-03 16:55:30:584
-1.1372;-9.4287;-0.996;-1.5199;-9.6598;0.741;0.7394;2.8384;1.4138;-0.2352;2.6136;-0.7756;0.0;34.2;29.94;-13.14;189.48;84.07;60.45;5.0;990.2;64.294;;;;NaN;;;;;0 / 0;267015;2022-11-03 16:55:31:084
-2.8012;-3.9145;2.7916;-0.5842;-8.2891;-5.2076;-2.15;2.2674;8.3033;-2.5223;-6.9373;-0.0242;0.0;17.16;42.0;4.44;36.18;70.04;-140.93;5.0;990.15;60.968;;;;NaN;;;;;0 / 0;267514;2022-11-03 16:55:31:583
1.9561;-11.7008;-0.0503;-1.4375;-9.3288;-2.6604;3.6019;3.4363;3.6947;1.2175;2.4126;0.167;0.0;24.42;38.4;-9.54;70.36;72.04;151.62;5.0;990.16;58.704;;;;NaN;;;;;0 / 0;268014;2022-11-03 16:55:32:083
-9.4263;-18.3665;0.7518;-0.3967;-9.7171;-1.2614;1.3903;-1.2367;2.0778;-1.3677;1.4236;-0.8409;0.0;19.68;41.22;-6.54;73.68;82.25;162.54;5.0;990.2;60.894;;;;NaN;;;;;0 / 0;268515;2022-11-03 16:55:32:584
3.79;-7.3361;-5.0473;-0.953;-8.6843;-4.4547;0.1509;1.76;9.6912;0.7117;6.4498;1.9715;0.0;13.02;43.56;-6.96;34.04;66.14;166.14;5.0;990.21;61.319;;;;NaN;;;;;0 / 0;269016;2022-11-03 16:55:33:085
-0.1556;-11.0783;-0.5171;-0.5739;-9.7193;1.1731;2.0822;-2.525;0.0384;-0.6096;2.4511;1.3374;0.0;18.72;35.04;-23.34;266.5;78.45;-33.02;5.0;990.27;61.31;;;;NaN;;;;;0 / 0;269514;2022-11-03 16:55:33:583
-0.6393;-5.7368;-0.9074;-0.5213;-8.4193;-5.0014;0.1646;4.6317;2.7388;-0.8369;-0.8347;-1.18;0.0;22.68;40.98;-0.24;51.92;58.92;170.02;5.0;990.2;59.339;;;;NaN;;;;;0 / 0;270014;2022-11-03 16:55:34:083
-0.0263;-7.463;0.5986;-0.2368;-9.8028;-0.1407;-1.7576;-0.6961;-2.9765;1.7385;-1.0143;-0.7792;0.0;23.7;35.22;-19.26;109.16;88.39;120.72;5.0;990.23;63.986;;;;NaN;;;;;0 / 0;270514;2022-11-03 16:55:34:583
-2.5067;-4.7645;0.1221;0.2168;-8.4685;-4.9404;-3.1306;6.1677;5.3594;-2.2364;-2.8359;1.2971;0.0;22.26;40.2;4.8;53.06;59.72;-177.49;5.0;990.2;60.731;;;;NaN;;;;;0 / 0;271014;2022-11-03 16:55:35:083
2.3583;-8.3345;7.9155;-1.6195;-9.103;-3.2685;2.9028;-4.9872;6.8886;1.0867;2.4774;0.2409;0.0;26.76;37.26;-9.78;69.07;68.16;153.64;5.0;990.23;59.403;;;;NaN;;;;;0 / 0;271514;2022-11-03 16:55:35:583
-1.5514;-13.9609;0.5507;1.0515;-9.5114;-2.1443;-7.6239;-7.7658;-5.7186;-2.802;1.3234;-1.7762;0.0;25.98;37.38;-11.16;237.78;82.16;18.29;5.0;990.26;57.418;;;;NaN;;;;;0 / 0;272015;2022-11-03 16:55:36:084
-13.4054;-16.9851;6.2659;-2.1297;-8.4487;-4.5005;-0.5542;-4.7317;4.9147;-0.1936;1.189;0.5439;0.0;12.66;42.96;-8.04;34.61;67.4;166.83;5.0;990.29;56.425;;;;NaN;;;;;0 / 0;272514;2022-11-03 16:55:36:583
-1.5419;-11.6289;0.0551;-0.7163;-9.513;2.2716;1.1832;-3.744;-2.748;-0.3775;3.6233;0.7803;0.0;21.96;31.56;-26.22;207.27;81.93;16.67;5.0;990.26;56.218;;;;NaN;;;;;0 / 0;273014;2022-11-03 16:55:37:083
-1.221;-2.8395;-6.0026;-1.1584;-8.3785;-4.9627;0.5;4.1049;3.6196;1.9267;2.0272;-1.4121;0.0;18.66;42.54;0.0;41.2;57.58;174.86;5.0;990.21;60.031;;;;NaN;;;;;0 / 0;273514;2022-11-03 16:55:37:583
1.6305;-4.5945;1.2402;-1.2887;-9.5559;-1.7872;1.7986;4.0058;2.3331;3.8546;-0.1903;-1.1006;0.0;26.58;37.26;-9.12;78.02;73.5;151.96;5.0;990.22;64.244;;;;NaN;;;;;0 / 0;274015;2022-11-03 16:55:38:084
-5.1502;-18.74;0.747;1.6696;-9.445;-2.0434;-5.2321;-3.5367;-1.9382;-2.0305;-3.8634;0.0296;0.0;20.34;41.88;1.08;208.09;85.53;69.26;5.0;990.24;58.195;;;;NaN;;;;;0 / 0;274515;2022-11-03 16:55:38:584
0.9697;-15.6204;1.0894;-1.7766;-9.2783;-2.6318;2.9952;0.7523;2.7276;3.2858;3.7748;0.5518;0.0;23.52;37.98;-10.8;57.86;61.02;150.71;5.0;990.33;57.052;;;;NaN;;;;;0 / 0;275014;2022-11-03 16:55:39:083
-0.4405;-19.5828;0.6009;-0.1674;-9.7702;-0.8274;-0.0194;-3.3072;1.979;-3.6695;2.4273;-0.0297;0.0;26.7;36.3;-12.48;252.82;75.39;11.37;5.0;990.3;61.296;;;;NaN;;;;;0 / 0;275514;2022-11-03 16:55:39:583
-8.9331;-15.0721;-15.8957;-0.8346;-8.6259;-4.5898;-8.108;4.3188;3.5819;-2.2797;-5.4712;0.1523;0.0;13.86;42.96;-5.46;29.25;62.71;-177.78;5.0;990.32;60.014;;;;NaN;;;;;0 / 0;276014;2022-11-03 16:55:40:083
-0.3926;-8.7343;0.0599;-0.4617;-9.5304;2.2647;-0.3117;-0.0563;-2.8776;-0.0837;2.8451;0.3576;0.0;23.88;31.98;-25.74;181.51;83.49;41.37;5.0;990.24;62.758;;;;NaN;;;;;0 / 0;276515;2022-11-03 16:55:40:584
-1.4006;-6.4215;-1.743;-2.0137;-7.4692;-6.0271;2.483;0.7915;1.5428;1.7196;0.9184;-1.0303;0.0;24.9;39.18;5.58;53.02;66.81;-157.35;5.0;990.25;60.926;;;;NaN;;;;;0 / 0;277015;2022-11-03 16:55:41:084
-0.012;-7.657;0.3424;-0.8058;-9.5174;-2.2225;1.5097;2.7439;2.493;4.1808;-5.2177;-0.8189;0.0;27.9;37.8;-4.44;67.63;68.9;167.36;5.0;990.27;62.593;;;;NaN;;;;;0 / 0;277514;2022-11-03 16:55:41:583
-1.4868;-4.6783;1.2163;-0.9269;-8.2377;-5.2393;-0.7945;4.1604;2.7062;-3.3243;-6.6545;0.1749;0.0;22.62;41.34;3.48;53.54;76.22;-155.5;5.0;990.29;61.109;;;;NaN;;;;;0 / 0;278014;2022-11-03 16:55:42:083
-0.6081;-5.5884;4.2306;-0.5116;-9.1825;-3.4044;0.2889;-2.9061;10.3574;-0.6567;1.3039;0.8127;0.0;18.36;41.34;-4.5;44.67;65.68;173.21;5.0;990.34;64.029;;;;NaN;;;;;0 / 0;278515;2022-11-03 16:55:42:584
1.2641;-11.4398;-0.51;-1.4423;-9.4218;2.3063;-1.0716;-3.5167;-10.9568;0.6322;-0.9814;0.4034;0.0;31.26;29.52;-21.3;209.54;75.06;33.08;5.0;990.28;63.661;;;;NaN;;;;;0 / 0;279015;2022-11-03 16:55:43:084
-0.1915;-2.9616;-2.4732;0.1016;-8.9648;-3.9738;-1.5334;-0.5189;2.9778;-1.4001;-2.0907;-0.0963;0.0;16.44;42.18;-0.96;34.02;52.26;165.6;5.0;990.3;65.177;;;;NaN;;;;;0 / 0;279515;2022-11-03 16:55:43:584
-0.1772;-10.3361;0.7254;-0.2967;-9.8017;0.0924;-0.297;-0.1489;0.432;0.8332;0.4945;-0.4127;0.0;25.14;37.02;-11.7;60.84;73.46;164.54;5.0;990.31;65.323;;;;NaN;;;;;0 / 0;280015;2022-11-03 16:55:44:084
-2.1739;-9.4047;-5.6339;0.751;-8.7377;-4.3885;-3.3152;4.2797;5.9495;-1.3628;-3.5867;0.1139;0.0;20.46;40.56;4.86;66.8;82.28;-156.9;5.0;990.3;61.592;;;;NaN;;;;;0 / 0;280514;2022-11-03 16:55:44:583
1.0582;-9.9291;-0.1484;-0.3804;-9.4277;-2.6729;0.7826;4.208;3.281;1.5785;5.0454;0.4669;0.0;27.24;37.86;-3.06;65.93;61.76;158.48;5.0;990.35;62.577;;;;NaN;;;;;0 / 0;281014;2022-11-03 16:55:45:083
-1.7286;-13.1062;-4.5203;0.1144;-9.7845;-0.6478;-1.041;1.7493;1.8185;-3.0684;-0.8671;0.1707;0.0;24.54;36.9;-14.34;247.98;81.97;2.68;5.0;990.32;68.048;;;;NaN;;;;;0 / 0;281514;2022-11-03 16:55:45:583
-4.5681;-16.5326;-18.6873;-0.1864;-9.261;-3.2201;-12.4241;-0.9434;-16.1736;3.1808;-0.828;-1.7884;0.0;10.38;42.9;-10.92;21.82;56.28;166.26;5.0;990.32;59.437;;;;NaN;;;;;0 / 0;282014;2022-11-03 16:55:46:083
-2.1763;-9.4933;-6.467;0.0406;-9.6864;1.5305;-2.1618;0.3822;-6.0891;1.4209;0.5831;-0.4854;0.0;22.14;34.08;-22.92;70.61;78.1;141.28;5.0;990.32;63.306;;;;NaN;;;;;0 / 0;282514;2022-11-03 16:55:46:583
-1.4293;-2.4421;0.9625;-1.4403;-8.02;-5.4567;1.0524;3.4854;4.2788;0.7697;-0.3803;-0.359;0.0;23.94;40.26;2.82;51.93;72.36;-157.43;5.0;990.3;61.612;;;;NaN;;;;;0 / 0;283014;2022-11-03 16:55:47:083
2.9401;-13.154;1.1372;-1.6497;-9.4433;-2.0669;5.5834;-0.8736;4.2768;0.4771;-0.7114;-0.2655;0.0;24.78;37.86;-12.0;48.13;62.75;169.8;5.0;990.32;64.04;;;;NaN;;;;;0 / 0;283515;2022-11-03 16:55:47:584
-1.1444;-4.4077;-0.5411;-1.0514;-8.2965;-5.1218;-0.3516;5.3995;4.2072;-2.1845;-4.3216;-0.0047;0.0;22.56;40.2;1.44;51.12;71.85;-162.93;5.0;990.45;62.637;;;;NaN;;;;;0 / 0;284015;2022-11-03 16:55:48:084
0.6273;-7.7288;6.321;-0.9831;-9.3233;-2.8773;0.6479;-5.0111;4.0863;1.6518;1.7376;1.0662;0.0;23.52;39.42;-5.58;59.76;65.87;162.02;5.0;990.38;59.245;;;;NaN;;;;;0 / 0;284517;2022-11-03 16:55:48:586
-0.9936;-16.0681;-4.64;-0.6285;-9.7828;0.2668;0.1018;-3.5172;0.1641;-1.5388;-0.2361;-0.8269;0.0;27.42;32.7;-18.6;218.65;78.1;24.28;5.0;990.42;66.659;;;;NaN;;;;;0 / 0;285014;2022-11-03 16:55:49:083
-3.7397;-12.431;-11.8708;-0.1785;-9.2079;-3.3694;-9.5398;-5.6128;-16.0314;0.3604;3.1114;1.0137;0.0;10.68;42.72;-9.54;22.92;57.15;169.47;5.0;990.44;61.82;;;;NaN;;;;;0 / 0;285514;2022-11-03 16:55:49:583
-1.2115;-10.8772;-7.3074;-0.5676;-9.7337;1.0503;0.2515;3.7551;-1.3041;1.6127;-4.1829;-0.373;0.0;27.3;33.84;-15.42;68.48;77.04;159.39;5.0;990.47;64.408;;;;NaN;;;;;0 / 0;286014;2022-11-03 16:55:50:083
-1.9585;-3.5267;0.5267;-1.3827;-8.5498;-4.5998;0.0036;2.8561;3.6517;-1.036;0.1347;-0.5123;0.0;24.36;39.0;0.42;60.36;60.67;163.27;5.0;990.38;63.066;;;;NaN;;;;;0 / 0;286514;2022-11-03 16:55:50:583
-0.0575;-6.9435;-0.0096;-0.7385;-9.614;-1.7878;1.2796;3.3073;1.8333;0.7019;2.7639;0.5164;0.0;24.9;37.8;-7.98;67.67;71.05;158.6;5.0;990.42;60.704;;;;NaN;;;;;0 / 0;287014;2022-11-03 16:55:51:083
-4.5298;-14.4541;1.7406;1.1426;-9.565;-1.8372;-7.2386;-2.3297;4.059;-1.6787;0.9954;-2.0944;0.0;25.86;37.38;-10.14;191.78;84.81;58.63;5.0;990.4;58.857;;;;NaN;;;;;0 / 0;287514;2022-11-03 16:55:51:583
5.5022;-12.7398;-6.9626;-1.8703;-8.7901;-3.9251;2.9812;-0.6051;10.5478;1.2688;5.087;2.9275;0.0;13.44;41.4;-6.96;35.08;70.95;176.11;5.0;990.48;63.799;;;;NaN;;;;;0 / 0;288014;2022-11-03 16:55:52:083
-2.1356;-11.5858;-0.996;-0.6286;-9.5339;2.2093;-0.9133;-2.1334;-6.5164;-4.259;0.8971;1.0283;0.0;26.58;31.32;-19.38;229.58;76.45;15.88;5.0;990.47;65.597;;;;NaN;;;;;0 / 0;288515;2022-11-03 16:55:52:584
-0.9673;-4.2042;-0.2442;-0.3791;-8.8297;-4.25;-1.2705;1.891;4.5134;-1.2669;-6.8334;0.0717;0.0;14.46;41.64;-11.52;28.27;64.21;174.9;5.0;990.38;64.39;;;;NaN;;;;;0 / 0;289014;2022-11-03 16:55:53:083
0.0814;-8.7415;0.3687;-0.9986;-9.732;0.6792;-3.1051;1.2083;-12.1022;0.8961;-0.3125;-0.337;0.0;30.06;32.4;-16.5;187.01;82.93;55.78;5.0;990.46;65.876;;;;NaN;;;;;0 / 0;289514;2022-11-03 16:55:53:583
-1.5083;-9.206;-3.5147;-2.1559;-7.5203;-5.9132;2.5486;2.7271;3.9117;-3.0617;-4.3026;0.1267;0.0;22.26;40.56;0.6;56.64;68.41;-179.06;5.0;990.38;58.773;;;;NaN;;;;;0 / 0;290015;2022-11-03 16:55:54:084
2.1476;-12.3424;0.7159;-1.1013;-9.6316;-1.4795;1.5562;3.5908;2.5688;2.5278;5.1291;0.3643;0.0;20.22;39.78;-10.8;54.61;66.41;151.75;5.0;990.41;57.338;;;;NaN;;;;;0 / 0;290514;2022-11-03 16:55:54:583
-0.4549;-11.8588;1.2833;0.6675;-9.6124;-1.8239;-6.6844;-7.8324;2.4727;-3.3213;1.5635;-1.6729;0.0;27.66;34.68;-14.94;210.75;76.72;39.24;5.0;990.4;57.85;;;;NaN;;;;;0 / 0;291014;2022-11-03 16:55:55:083
-12.2849;-10.3648;-20.6937;-0.3986;-9.1289;-3.56;-9.2503;3.9979;6.7443;-0.1032;2.1524;1.4889;0.0;13.2;41.94;-7.2;33.79;68.57;173.61;5.0;990.49;60.237;;;;NaN;;;;;0 / 0;291514;2022-11-03 16:55:55:583
-1.6975;-10.6138;-1.7645;-0.6811;-9.4753;2.434;-0.1186;0.1065;-1.6487;-0.5131;1.2373;1.0644;0.0;24.72;30.84;-25.5;218.52;75.06;15.63;5.0;990.47;63.476;;;;NaN;;;;;0 / 0;292015;2022-11-03 16:55:56:084
-1.0391;-2.7749;-0.2562;-1.6598;-8.5616;-4.485;2.4092;3.2533;4.6382;1.0;2.3106;-2.2771;0.0;21.12;40.92;-0.12;55.31;60.81;159.69;5.0;990.48;63.146;;;;NaN;;;;;0 / 0;292514;2022-11-03 16:55:56:583
-4.4317;-8.8995;-12.2873;-1.3267;-9.6493;1.1409;1.7984;0.4863;-7.7109;4.8014;1.9203;-1.3412;0.0;24.84;37.44;-12.0;85.1;75.08;138.68;5.0;990.47;63.862;;;;NaN;;;;;0 / 0;293014;2022-11-03 16:55:57:083
-0.6369;-4.1204;-1.4892;0.4369;-8.8899;-4.117;-2.7329;6.6249;5.496;-2.7196;-3.3405;-0.2056;0.0;18.3;41.76;0.06;42.05;79.82;-147.75;5.0;990.45;59.161;;;;NaN;;;;;0 / 0;293515;2022-11-03 16:55:57:584
1.5586;-11.2028;6.9698;-1.4598;-9.4327;-2.2501;3.3967;-7.5715;5.1758;1.2126;1.7981;1.2091;0.0;18.36;42.12;-4.44;50.7;67.93;165.13;5.0;990.49;58.491;;;;NaN;;;;;0 / 0;294014;2022-11-03 16:55:58:083
-0.498;-14.4182;-4.5969;-1.1292;-9.5759;1.788;-0.1684;-6.4898;-2.9899;-2.6402;0.7608;-2.8385;0.0;27.78;37.02;-9.84;230.94;77.55;32.27;5.0;990.44;62.626;;;;NaN;;;;;0 / 0;294514;2022-11-03 16:55:58:583
-1.336;-8.8588;-1.7119;0.1349;-9.4995;-2.4311;-5.922;-9.6523;-9.5929;-2.4386;-0.244;0.6911;0.0;10.56;43.08;-10.56;25.34;75.62;-176.82;5.0;990.45;68.37;;;;NaN;;;;;0 / 0;295015;2022-11-03 16:55:59:084
-1.312;-10.7934;-2.5163;-1.6585;-9.4475;2.0404;1.3353;0.6414;-9.3766;-0.1203;-2.6105;0.0955;0.0;31.08;31.68;-16.5;212.15;74.45;39.1;5.0;990.51;65.155;;;;NaN;;;;;0 / 0;295515;2022-11-03 16:55:59:584
1.652;-5.6961;-0.5986;-0.7721;-8.5261;-4.7832;0.1305;6.2995;3.6411;-3.2614;-2.7822;-0.7982;0.0;21.96;39.72;-5.46;53.31;69.73;174.8;5.0;990.46;57.081;;;;NaN;;;;;0 / 0;296014;2022-11-03 16:56:00:083
0.3256;-7.9874;0.4621;-1.0172;-9.7015;-1.0076;0.8855;0.735;1.3883;0.9481;0.4016;-0.7304;0.0;26.28;37.32;-8.7;86.57;72.86;140.05;5.0;990.46;61.253;;;;NaN;;;;;0 / 0;296514;2022-11-03 16:56:00:583
-3.2082;-17.6674;0.3065;0.8877;-9.4945;-2.2885;-2.6713;-0.4154;0.9836;-0.9511;1.4291;-1.8727;0.0;25.14;39.36;-1.38;169.97;85.35;96.44;5.0;990.53;58.561;;;;NaN;;;;;0 / 0;297015;2022-11-03 16:56:01:084
1.719;-19.2093;-8.483;-0.95;-9.0703;-3.605;-0.3835;0.7933;7.9433;3.1172;2.4236;1.2446;0.0;19.74;41.28;-5.94;52.11;67.66;165.24;5.0;990.5;59.292;;;;NaN;;;;;0 / 0;297515;2022-11-03 16:56:01:584
0.8236;-12.7805;1.0582;-1.6946;-9.1141;3.1987;1.6012;-0.7886;-3.7997;-3.6676;1.9196;-0.7731;0.0;32.46;30.18;-18.78;226.41;68.34;27.91;5.0;990.51;59.548;;;;NaN;;;;;0 / 0;298015;2022-11-03 16:56:02:084
-0.2969;-2.1165;0.4286;-0.6035;-8.661;-4.5598;1.1493;5.2278;3.5734;0.3311;-7.4431;-0.3235;0.0;12.12;43.5;-6.0;27.37;62.03;172.46;5.0;990.5;61.305;;;;NaN;;;;;0 / 0;298516;2022-11-03 16:56:02:585
-0.9146;-9.0576;-1.7861;-1.4027;-9.1731;3.1712;-1.5254;-0.1885;-9.7699;2.3708;0.3925;-0.7194;0.0;31.14;30.6;-17.16;194.89;80.46;48.71;5.0;990.49;59.846;;;;NaN;;;;;0 / 0;299014;2022-11-03 16:56:03:083
-0.6297;-4.6088;-1.743;-1.8492;-8.4325;-4.6523;1.2435;1.8529;5.0497;-1.8552;-3.6405;1.3551;0.0;20.04;41.94;0.96;45.41;74.62;-155.3;5.0;990.5;60.681;;;;NaN;;;;;0 / 0;299515;2022-11-03 16:56:03:584
2.0327;-10.3983;-0.6105;-1.6555;-9.5509;-1.4863;3.3529;4.7506;2.4512;2.7049;2.8463;1.4504;0.0;21.6;39.78;-6.6;54.77;67.87;165.59;5.0;990.51;64.469;;;;NaN;;;;;0 / 0;300014;2022-11-03 16:56:04:083
-0.589;-13.9609;0.9313;-0.2983;-9.7971;0.3113;0.0996;-2.2987;0.7158;-1.9267;1.7553;-0.9533;0.0;20.34;41.16;-5.88;212.19;87.48;43.77;5.0;990.54;63.077;;;;NaN;;;;;0 / 0;300515;2022-11-03 16:56:04:584
-4.8914;-20.708;-7.3146;0.3839;-9.4045;-2.7528;-13.5092;2.3437;-11.2009;1.1661;6.7846;3.4272;0.0;5.04;43.86;-7.26;11.39;73.54;-172.06;5.0;990.61;57.905;;;;NaN;;;;;0 / 0;301015;2022-11-03 16:56:05:084
-1.8483;-9.862;-10.8269;-1.5471;-9.2361;2.9105;0.2854;-0.7241;-3.6048;0.4606;-2.4157;0.9306;0.0;28.62;30.3;-22.08;216.0;70.36;27.99;5.0;990.61;60.409;;;;NaN;;;;;0 / 0;301515;2022-11-03 16:56:05:584
0.103;-3.9289;-1.2234;0.2172;-8.7765;-4.3698;-0.9092;3.442;2.1839;1.5272;2.6105;-0.8611;0.0;20.82;40.74;4.08;51.52;55.7;164.13;5.0;990.54;59.649;;;;NaN;;;;;0 / 0;302014;2022-11-03 16:56:06:083
-0.2394;-6.9986;2.0925;-0.6859;-9.7588;0.6823;-0.3316;-2.3322;-0.7924;0.4423;2.3485;-0.3382;0.0;29.4;37.14;-4.38;104.59;81.19;146.47;5.0;990.55;62.034;;;;NaN;;;;;0 / 0;302514;2022-11-03 16:56:06:583
