sep=;
ACCELEROMETER X (m/s²);ACCELEROMETER Y (m/s²);ACCELEROMETER Z (m/s²);GRAVITY X (m/s²);GRAVITY Y (m/s²);GRAVITY Z (m/s²);LINEAR ACCELERATION X (m/s²);LINEAR ACCELERATION Y (m/s²);LINEAR ACCELERATION Z (m/s²);GYROSCOPE X (rad/s);GYROSCOPE Y (rad/s);GYROSCOPE Z (rad/s);LIGHT (lux);MAGNETIC FIELD X (μT);MAGNETIC FIELD Y (μT);MAGNETIC FIELD Z (μT);ORIENTATION Z (azimuth °);ORIENTATION X (pitch °);ORIENTATION Y (roll °);PROXIMITY (i);ATMOSPHERIC PRESSURE (hPa);SOUND LEVEL (dB);LOCATION Latitude : ;LOCATION Longitude : ;LOCATION Altitude ( m);LOCATION Altitude-google ( m);LOCATION Altitude-atmospheric pressure ( m);LOCATION Speed ( Kmh);LOCATION Accuracy ( m);LOCATION ORIENTATION (°);Satellites in range;Time since start in ms ;YYYY-MO-DD HH-MI-SS_SSS
1.0032;4.5346;8.0879;0.1291;4.7834;8.56;1.9251;0.1562;-0.5032;0.4099;0.0272;-0.2631;1134.0;-23.34;-21.24;-32.04;97.63;-28.34;-1.95;2.0;991.0;57.021;;;;NaN;;;;;0 / 0;11;2022-11-03 14:48:29:264
-0.0958;3.5817;7.3577;-0.3746;5.5671;8.0646;-0.8943;-2.2726;-1.7388;0.4319;0.2636;-0.7908;1177.0;-19.44;-27.72;-28.32;114.61;-32.6;-3.42;2.0;991.06;57.063;;;;NaN;;;;;0 / 0;511;2022-11-03 14:48:29:764
2.3846;2.7653;13.4437;-0.3868;5.5692;8.0626;-2.5101;0.5794;-0.4343;-0.5681;-0.2434;1.2311;1181.0;-19.8;-27.48;-29.7;106.89;-33.65;4.45;2.0;991.02;62.36;;;;NaN;;;;;0 / 0;1010;2022-11-03 14:48:30:263
-1.5945;4.5035;12.4214;0.2365;6.1469;7.6374;2.1601;-0.4077;0.0483;0.6732;-0.434;0.3264;1088.0;-23.22;-23.7;-31.38;87.59;-38.88;-0.7;2.0;991.05;62.378;;;;NaN;;;;;0 / 0;1510;2022-11-03 14:48:30:763
-0.5339;6.8501;10.8604;-0.7974;5.8279;7.8467;-0.1746;1.683;3.3848;-0.3183;-0.2569;0.3466;864.0;-19.02;-24.36;-32.16;92.01;-38.05;7.22;2.0;991.0;61.45;;;;NaN;;;;;0 / 0;2010;2022-11-03 14:48:31:263
-0.0287;5.4687;7.2499;-0.0128;6.359;7.4655;0.4222;-0.8544;1.1563;-0.0385;-0.3656;-0.9991;558.0;-22.74;-25.74;-28.26;93.05;-40.55;-1.41;2.0;991.02;55.09;;;;NaN;;;;;0 / 0;2511;2022-11-03 14:48:31:764
-1.6592;4.2545;5.2197;-0.4568;5.6036;8.035;0.3155;-0.8296;-2.1115;0.0562;-0.0919;-0.563;463.0;-16.62;-30.06;-26.64;120.51;-33.54;0.61;2.0;991.04;59.785;;;;NaN;;;;;0 / 0;3011;2022-11-03 14:48:32:264
0.9792;5.3298;7.4606;-0.4619;5.7034;7.9641;2.0924;-1.5399;3.6696;-0.0745;0.7052;0.3973;643.0;-20.1;-27.48;-29.04;110.76;-32.08;6.58;2.0;991.05;62.917;;;;NaN;;;;;0 / 0;3511;2022-11-03 14:48:32:764
0.8978;4.865;8.7607;-0.365;5.5978;8.0437;2.1822;-0.0645;6.9733;-0.8308;0.4975;-0.6094;422.0;-19.5;-27.6;-28.56;96.28;-41.86;3.35;2.0;991.05;62.624;;;;NaN;;;;;0 / 0;4011;2022-11-03 14:48:33:264
-1.2091;6.3114;11.9713;-0.4264;5.5039;8.1053;-1.3237;0.1755;2.1829;-0.0397;0.0644;1.0112;536.0;-19.44;-28.02;-28.32;108.29;-36.17;4.11;2.0;991.08;64.276;;;;NaN;;;;;0 / 0;4511;2022-11-03 14:48:33:764
1.2258;6.2061;8.2699;0.4115;5.5159;8.0979;0.4528;0.3238;1.0411;-0.2169;-0.0687;-0.3645;923.0;-25.62;-24.78;-28.86;98.87;-33.92;-3.07;2.0;991.09;58.284;;;;NaN;;;;;0 / 0;5011;2022-11-03 14:48:34:264
-0.3783;3.3303;8.4614;-0.251;4.1576;8.8782;0.0619;-0.0132;-0.2348;-0.1362;0.0724;-0.4683;1241.0;-19.56;-24.66;-31.44;108.26;-29.34;0.57;2.0;991.03;52.295;;;;NaN;;;;;0 / 0;5510;2022-11-03 14:48:34:763
-0.4717;3.5865;8.0975;-0.3874;3.653;9.0926;2.0107;-0.3131;-0.0135;0.1998;0.0608;0.0473;1905.0;-20.58;-18.84;-35.28;97.77;-24.63;2.41;2.0;991.03;64.406;;;;NaN;;;;;0 / 0;6010;2022-11-03 14:48:35:263
1.494;3.6248;8.4135;0.2214;4.4183;8.7522;1.6843;-0.8868;1.3852;0.452;0.1249;-0.957;1929.0;-22.08;-23.46;-29.88;109.12;-25.89;-1.82;2.0;991.03;53.147;;;;NaN;;;;;0 / 0;6511;2022-11-03 14:48:35:764
-0.8164;2.3774;10.6665;-0.4891;3.4888;9.152;-0.1094;-1.4777;5.3165;0.0617;0.6802;0.6374;2180.0;-18.9;-22.2;-32.88;111.41;-22.09;6.47;2.0;991.07;61.629;;;;NaN;;;;;0 / 0;7010;2022-11-03 14:48:36:263
-0.0096;4.1228;11.447;0.1544;3.369;9.2085;0.9469;-1.6284;5.8301;-0.0806;0.3198;-0.329;2321.0;-22.38;-18.9;-33.0;102.9;-22.34;0.67;2.0;991.05;57.197;;;;NaN;;;;;0 / 0;7511;2022-11-03 14:48:36:764
-0.2801;4.1372;9.6202;-0.7383;4.3408;8.7626;0.2642;0.5195;-0.0666;0.3916;0.004;0.0265;2411.0;-18.12;-24.3;-31.14;113.77;-25.6;3.53;2.0;991.05;55.396;;;;NaN;;;;;0 / 0;8010;2022-11-03 14:48:37:263
-0.3711;3.6727;8.6362;0.084;3.8917;9.001;0.5505;-0.377;-0.8867;-0.1814;-0.6686;0.0216;2172.0;-21.42;-20.46;-31.5;103.93;-24.76;1.22;2.0;991.04;63.193;;;;NaN;;;;;0 / 0;8510;2022-11-03 14:48:37:763
2.0159;3.0119;6.4096;0.2741;4.6973;8.6041;1.026;-0.7085;-0.8035;-0.2327;1.1762;-0.5654;2355.0;-22.56;-22.98;-27.84;107.34;-27.84;-3.26;2.0;991.07;59.756;;;;NaN;;;;;0 / 0;9010;2022-11-03 14:48:38:263
-1.0415;3.2202;11.0136;-0.1168;3.6015;9.1206;-0.5704;-1.4707;4.7253;0.6561;0.602;0.3289;2352.0;-19.44;-21.0;-31.26;110.27;-23.28;0.35;2.0;991.06;60.565;;;;NaN;;;;;0 / 0;9510;2022-11-03 14:48:38:763
0.1077;3.6895;10.0392;0.1735;3.6338;9.1069;0.5759;0.0294;-0.6766;-0.4136;-0.3186;-0.2844;2656.0;-21.54;-18.24;-30.84;100.93;-23.37;0.48;2.0;991.03;59.825;;;;NaN;;;;;0 / 0;10011;2022-11-03 14:48:39:264
-0.0575;4.0654;7.4008;-1.0037;3.9013;8.9411;-0.6244;0.6764;-0.099;0.3189;0.0125;-0.0059;2775.0;-15.6;-22.2;-30.9;114.88;-23.15;4.91;2.0;991.05;64.01;;;;NaN;;;;;0 / 0;10510;2022-11-03 14:48:39:763
-0.7829;3.6655;8.6386;-0.5966;3.5259;9.1314;1.0874;-0.0519;-0.409;0.1246;-0.1921;0.4052;2515.0;-18.24;-19.2;-31.8;105.08;-23.1;5.3;2.0;991.02;55.719;;;;NaN;;;;;0 / 0;11010;2022-11-03 14:48:40:263
1.64;1.9968;6.9052;0.1845;4.1098;8.902;-0.5843;-1.4474;-1.7742;0.1533;-0.2563;-0.8171;2549.0;-19.8;-22.62;-27.0;119.79;-22.23;-2.56;2.0;991.11;58.958;;;;NaN;;;;;0 / 0;11510;2022-11-03 14:48:40:763
-1.9848;3.7397;11.107;-0.7173;4.7632;8.5421;-1.2005;0.1596;-1.1725;-0.4527;-0.3198;0.5176;2767.0;-14.88;-24.78;-26.22;120.08;-28.62;7.02;2.0;991.04;57.94;;;;NaN;;;;;0 / 0;12011;2022-11-03 14:48:41:264
-0.4381;4.0438;10.6808;-0.3815;4.8196;8.5321;-0.478;1.4583;1.1384;-0.0373;-1.4988;-0.4866;2371.0;-15.78;-23.16;-25.26;117.09;-28.41;1.75;2.0;991.19;64.006;;;;NaN;;;;;0 / 0;12511;2022-11-03 14:48:41:764
16.3554;3.158;3.1388;6.8621;3.9117;5.8121;1.1492;-2.5542;-2.7284;-1.2071;-1.0156;1.4284;2712.0;-36.24;-11.46;-1.86;86.35;-23.51;-49.74;2.0;990.94;58.535;;;;NaN;;;;;0 / 0;13011;2022-11-03 14:48:42:264
13.0391;-5.653;0.2059;8.2345;-4.9434;1.9817;3.2891;0.1765;-2.3432;0.3659;0.5892;-0.4689;374.0;-32.22;16.8;10.2;94.45;31.71;-80.04;0.0;991.03;66.321;;;;NaN;;;;;0 / 0;13510;2022-11-03 14:48:42:763
3.9768;0.6871;-3.2777;9.6642;0.635;-1.5395;-0.7455;-0.3189;-2.1068;2.3726;-0.2813;-0.8373;55.0;-31.86;0.0;18.9;90.79;0.38;-95.19;0.0;991.45;55.067;;;;NaN;;;;;0 / 0;14010;2022-11-03 14:48:43:263
6.728;0.3184;-1.1803;9.759;0.947;-0.1852;-1.5011;1.2125;-0.5546;0.5021;1.2043;-0.1635;1.0;-34.56;6.54;15.84;47.72;-5.37;-97.26;0.0;991.09;57.198;;;;NaN;;;;;0 / 0;14510;2022-11-03 14:48:43:763
9.716;-3.0047;-3.2226;9.6363;-1.5985;-0.8696;5.2131;0.466;-0.4999;0.4423;-1.8659;1.5585;1.0;-31.8;7.92;21.96;82.89;9.38;-95.16;0.0;990.89;57.219;;;;NaN;;;;;0 / 0;15010;2022-11-03 14:48:44:263
1.1756;-4.5945;8.0496;8.634;-4.2563;-1.8726;-0.1415;0.7943;15.2685;4.1655;-2.2122;0.8347;1.0;-22.98;22.68;23.28;63.31;25.72;-102.24;0.0;991.55;56.65;;;;NaN;;;;;0 / 0;15511;2022-11-03 14:48:44:764
3.6536;-14.8925;0.3017;3.5417;-8.9297;1.9714;9.5094;-5.6464;-5.1437;-3.7251;-0.8885;-1.1732;1.0;-9.78;36.9;9.42;48.34;65.59;-60.9;0.0;991.33;60.747;;;;NaN;;;;;0 / 0;16010;2022-11-03 14:48:45:263
-3.4668;-13.2426;-15.0649;0.8713;-9.1457;-3.4303;-13.6184;-1.6956;-5.8834;-1.069;-6.1346;0.0155;1.0;12.6;33.66;16.74;91.21;65.0;-176.52;0.0;990.76;68.485;;;;NaN;;;;;0 / 0;16510;2022-11-03 14:48:45:763
0.0958;-7.214;-2.8419;-0.3905;-9.717;1.2638;7.99;-3.3365;0.2901;-0.2285;-0.1707;0.4016;1.0;13.98;38.1;6.72;76.94;85.11;-151.99;0.0;990.85;55.776;;;;NaN;;;;;0 / 0;17010;2022-11-03 14:48:46:263
3.6847;-9.8165;-20.2579;-2.428;-8.3824;-4.4733;3.5173;-0.9505;8.146;-0.2694;1.1243;0.5201;1.0;22.02;28.44;21.9;135.43;64.93;160.47;0.0;991.05;53.972;;;;NaN;;;;;0 / 0;17511;2022-11-03 14:48:46:764
0.4741;-11.842;3.45;-2.502;-9.103;-2.6544;5.0805;-1.9202;4.5745;0.9798;1.0718;-0.5074;1.0;26.58;28.14;15.48;151.03;68.16;136.69;0.0;991.12;55.934;;;;NaN;;;;;0 / 0;18010;2022-11-03 14:48:47:263
2.3918;-14.6839;-4.051;-0.5952;-9.6395;1.7015;0.2672;-4.453;-2.8148;-3.3097;2.9184;-1.6613;1.0;18.54;37.32;12.18;298.25;79.41;19.28;0.0;991.13;56.643;;;;NaN;;;;;0 / 0;18510;2022-11-03 14:48:47:763
-16.0633;-8.866;2.0231;-0.5797;-9.4464;-2.5691;-4.2015;-6.0375;-18.3113;0.361;-2.2978;1.0381;1.0;25.56;33.6;12.36;108.62;74.42;167.28;0.0;991.09;57.461;;;;NaN;;;;;0 / 0;19011;2022-11-03 14:48:48:264
-6.2037;-12.4334;-13.9513;1.4335;-9.3377;2.631;-7.4217;-3.7708;-4.9749;2.1954;-5.74;-2.2673;1.0;17.04;37.44;12.36;189.29;81.24;118.54;0.0;991.17;62.307;;;;NaN;;;;;0 / 0;19511;2022-11-03 14:48:48:764
-0.5818;-7.5349;-1.142;-2.1112;-8.006;-5.2551;1.8765;2.1591;5.1091;-1.9438;-2.4034;0.5146;1.0;17.64;23.58;31.08;146.79;67.62;172.84;0.0;991.15;62.983;;;;NaN;;;;;0 / 0;20011;2022-11-03 14:48:49:264
2.3296;-6.467;1.2402;-1.7722;-9.3826;-2.2349;2.1146;2.4487;2.278;1.2278;2.2923;0.1407;1.0;26.64;28.44;19.86;148.26;67.55;146.44;0.0;991.11;68.549;;;;NaN;;;;;0 / 0;20514;2022-11-03 14:48:49:767
0.1844;-11.9498;-0.0646;0.3445;-9.6569;-1.6723;-2.2288;-6.2843;2.0098;-1.2523;0.0681;0.6429;1.0;5.1;31.5;28.32;152.71;79.97;-168.36;0.0;991.14;55.881;;;;NaN;;;;;0 / 0;21012;2022-11-03 14:48:50:265
-13.3935;-6.4527;-5.9906;-1.6034;-9.1108;-3.2545;-6.5827;1.3892;6.8195;0.1979;5.0473;2.0784;1.0;26.94;29.1;19.56;137.9;68.29;153.77;0.0;991.14;54.478;;;;NaN;;;;;0 / 0;21511;2022-11-03 14:48:50:764
0.8811;-13.403;3.6248;-0.1279;-9.5635;2.1665;-0.3438;-2.9346;-2.7196;-2.2181;6.426;0.9318;1.0;11.82;40.2;10.8;326.21;77.21;3.38;0.0;991.17;57.571;;;;NaN;;;;;0 / 0;22010;2022-11-03 14:48:51:263
-0.0263;-3.8188;-1.2594;-0.6503;-9.0478;-3.7261;-0.3577;-1.6354;1.1691;1.2211;3.2605;-1.5245;1.0;26.88;20.94;27.84;159.77;56.01;146.93;0.0;991.15;59.72;;;;NaN;;;;;0 / 0;22511;2022-11-03 14:48:51:764
-0.7063;-9.0647;1.4269;-0.6098;-9.6319;-1.7393;-0.5346;0.445;2.3737;0.4569;1.9282;-0.7774;1.0;13.74;31.2;27.6;194.44;71.83;144.12;0.0;991.11;65.822;;;;NaN;;;;;0 / 0;23010;2022-11-03 14:48:52:263
-2.4828;-9.6298;2.8898;-0.4676;-9.1118;-3.5954;-1.0239;2.4987;1.7447;-1.7978;0.9038;0.4266;1.0;4.2;32.7;29.28;195.29;80.53;159.86;0.0;991.18;56.641;;;;NaN;;;;;0 / 0;23511;2022-11-03 14:48:52:764
-4.4843;-14.3296;3.3662;-2.7693;-8.7182;-3.5346;3.727;0.2951;6.9727;1.879;4.5305;0.5244;1.0;28.38;26.82;20.58;152.8;62.75;141.92;0.0;991.18;56.842;;;;NaN;;;;;0 / 0;24011;2022-11-03 14:48:53:264
-1.8268;-12.5028;-0.6321;-0.3865;-9.6444;1.7337;0.4559;-6.8091;-1.0849;-3.2626;1.8702;-0.2264;1.0;9.72;40.32;14.94;326.27;79.56;12.57;0.0;991.14;57.77;;;;NaN;;;;;0 / 0;24511;2022-11-03 14:48:53:764
-13.3336;-9.9099;-13.9848;-0.9992;-8.9553;-3.8696;0.3767;2.201;2.0405;-1.3164;-2.7523;-0.3321;1.0;20.7;29.34;26.28;139.09;65.95;165.52;0.0;991.16;60.312;;;;NaN;;;;;0 / 0;25014;2022-11-03 14:48:54:267
-4.4843;-13.9274;-23.6433;-0.4343;-9.5245;2.2946;0.0225;-1.5298;-1.9163;5.3304;-5.8402;-0.4304;1.0;6.78;37.32;21.72;206.76;78.46;144.39;0.0;991.29;63.237;;;;NaN;;;;;0 / 0;25511;2022-11-03 14:48:54:764
-2.1859;-6.0528;1.166;-1.2891;-9.0908;-3.4446;3.5985;1.7745;3.4437;-0.854;-6.1163;0.079;1.0;5.64;28.5;33.48;142.55;73.02;-163.05;0.0;991.17;60.284;;;;NaN;;;;;0 / 0;26014;2022-11-03 14:48:55:267
1.4293;-5.5525;2.1859;-1.9472;-9.174;-2.8664;3.5447;-4.6406;5.3524;2.9767;3.4266;0.8133;1.0;24.84;26.1;25.98;153.64;62.19;151.01;0.0;991.14;63.629;;;;NaN;;;;;0 / 0;26511;2022-11-03 14:48:55:764
0.3903;-9.7351;-0.7159;-0.7654;-9.6956;1.2565;0.7884;-0.6303;0.5584;-3.7214;-0.2862;-0.8696;1.0;6.0;37.56;20.64;321.73;81.37;31.35;0.0;991.21;62.514;;;;NaN;;;;;0 / 0;27011;2022-11-03 14:48:56:264
-7.1638;-16.6882;-13.9058;-1.2505;-9.2667;-2.9553;-10.3265;3.4317;0.4993;-1.0159;-1.4352;0.5787;1.0;23.46;30.06;24.48;148.81;70.9;157.06;0.0;991.29;58.196;;;;NaN;;;;;0 / 0;27511;2022-11-03 14:48:56:764
-1.1181;-8.9259;-0.9744;-0.3731;-9.7932;-0.351;-4.7826;1.8332;-10.8154;0.1668;-1.4175;-2.2307;1.0;11.16;39.84;13.5;189.75;87.01;133.24;0.0;991.2;59.331;;;;NaN;;;;;0 / 0;28011;2022-11-03 14:48:57:264
-1.7813;-5.4112;1.0463;-2.7005;-7.8884;-5.1624;-1.959;2.7555;5.2508;-3.0953;-4.8549;1.4865;1.0;1.02;25.68;34.86;179.41;70.8;178.78;0.0;991.16;56.509;;;;NaN;;;;;0 / 0;28511;2022-11-03 14:48:57:764
0.0287;-9.4358;4.6448;-1.6187;-9.3225;-2.5769;1.162;-4.7894;4.2593;1.8008;3.2043;0.5689;1.0;11.4;27.18;33.3;201.78;64.91;148.78;0.0;991.16;57.107;;;;NaN;;;;;0 / 0;29011;2022-11-03 14:48:58:264
-1.9992;-15.2373;0.7805;-0.3504;-9.7976;-0.2331;0.5794;-3.5764;-2.0199;-3.6542;2.9532;-2.2502;1.0;3.42;41.88;13.32;342.61;75.03;17.95;0.0;991.18;57.066;;;;NaN;;;;;0 / 0;29511;2022-11-03 14:48:58:764
-9.443;-3.7828;5.1742;-1.9243;-9.104;-3.0958;-2.7851;-4.451;6.3385;-1.2107;-1.8335;0.7039;1.0;22.26;27.6;27.78;170.14;68.18;148.14;0.0;991.31;59.668;;;;NaN;;;;;0 / 0;30014;2022-11-03 14:48:59:267
-6.5101;-10.6114;-6.5628;0.3451;-9.749;1.0038;-6.7897;-1.5183;-3.7528;1.5675;2.1823;-3.5801;1.0;1.38;43.08;14.1;11.24;83.79;-18.97;0.0;991.22;66.014;;;;NaN;;;;;0 / 0;30511;2022-11-03 14:48:59:764
-2.2817;-7.0704;2.1931;-1.6915;-8.5887;-4.4206;1.4668;1.9431;4.0503;-0.069;-5.437;0.0974;1.0;17.82;25.68;33.6;167.43;61.14;159.06;0.0;991.18;59.245;;;;NaN;;;;;0 / 0;31011;2022-11-03 14:49:00:264
0.4764;-9.9865;1.6233;-1.2741;-9.2271;-3.0673;2.0791;1.2856;5.8633;1.711;0.7382;0.7253;1.0;-4.74;29.94;33.24;209.68;69.34;169.72;0.0;991.18;63.882;;;;NaN;;;;;0 / 0;31511;2022-11-03 14:49:00:764
-3.8906;-14.9883;-9.1031;-1.0356;-9.6742;-1.2276;0.5807;-1.1138;0.1575;-3.0103;3.3246;0.1945;0.0;-1.32;41.34;15.9;1.19;76.9;1.72;0.0;991.23;63.084;;;;NaN;;;;;0 / 0;32011;2022-11-03 14:49:01:264
-4.8339;-1.7526;-0.0766;-1.6269;-8.9647;-3.6272;-4.966;-8.9494;-19.2901;-0.9163;-0.6949;0.3423;0.0;4.86;31.02;33.18;199.18;62.69;162.35;0.0;991.25;62.79;;;;NaN;;;;;0 / 0;32511;2022-11-03 14:49:01:764
-6.0576;-12.0862;-26.8854;-0.6888;-9.557;2.0877;-0.2318;-1.4842;-3.8332;2.6414;-9.3447;-0.417;0.0;1.02;43.62;11.7;347.16;77.05;18.26;0.0;991.16;59.287;;;;NaN;;;;;0 / 0;33015;2022-11-03 14:49:02:268
-0.5195;-6.6825;0.4334;-2.6061;-8.37;-4.3956;3.3628;3.207;5.0295;-1.3408;-1.6448;0.3301;0.0;14.52;22.02;37.62;195.75;58.59;149.34;0.0;991.14;62.91;;;;NaN;;;;;0 / 0;33510;2022-11-03 14:49:02:763
1.415;-6.6155;1.0942;-2.3687;-9.3866;-1.5654;3.8471;2.6189;2.6996;1.4587;3.685;0.0686;0.0;5.94;34.86;27.18;245.13;73.17;123.46;0.0;991.17;63.635;;;;NaN;;;;;0 / 0;34010;2022-11-03 14:49:03:263
-1.0965;-13.6879;0.9936;0.7121;-9.4116;-2.6615;-0.1675;-2.8501;1.9575;-1.3292;1.3192;0.5482;0.0;-9.78;37.08;22.32;320.56;85.6;68.08;0.0;991.19;63.745;;;;NaN;;;;;0 / 0;34510;2022-11-03 14:49:03:763
-6.1079;-3.3064;-0.395;-1.8452;-9.0468;-3.3046;-8.9769;6.0002;-3.3849;0.7941;6.3539;0.5879;0.0;12.84;27.66;33.48;187.21;68.56;153.86;0.0;991.27;63.457;;;;NaN;;;;;0 / 0;35011;2022-11-03 14:49:04:264
-1.8483;-11.1573;0.0551;-1.0265;-9.4337;2.4742;0.5906;-1.1741;-0.4981;0.2199;0.9551;0.4993;0.0;-6.3;42.96;9.18;4.28;76.83;25.64;0.0;991.19;61.874;;;;NaN;;;;;0 / 0;35511;2022-11-03 14:49:04:764
-0.2442;-8.6529;0.1101;-1.4745;-8.4184;-4.8089;0.6643;3.4631;2.0955;2.2706;2.7938;-1.026;0.0;0.0;29.1;35.1;216.53;59.14;162.95;0.0;991.15;60.077;;;;NaN;;;;;0 / 0;36012;2022-11-03 14:49:05:265
0.6105;-9.8046;1.2115;-1.6038;-9.4699;-1.9795;1.641;-0.3437;0.6141;1.2504;0.2984;-0.6699;0.0;-4.26;37.98;23.16;254.27;74.94;140.98;0.0;991.19;60.201;;;;NaN;;;;;0 / 0;36511;2022-11-03 14:49:05:764
-1.3743;-7.724;1.9513;-0.1977;-9.3913;-2.8169;-1.1029;-1.1003;5.1433;-1.5553;2.7461;0.0906;0.0;-10.5;30.42;31.5;209.88;73.26;175.98;0.0;991.21;63.048;;;;NaN;;;;;0 / 0;37010;2022-11-03 14:49:06:263
-3.8834;-6.9866;0.8547;-2.066;-8.9955;-3.3141;7.4281;1.9776;-6.6127;3.5638;2.3448;0.8951;0.0;7.8;28.32;33.18;202.03;69.41;151.93;0.0;991.18;63.353;;;;NaN;;;;;0 / 0;37511;2022-11-03 14:49:06:764
-0.2849;-10.8365;-1.2282;-1.1037;-9.6694;1.2064;0.6189;-1.5646;-3.7939;-1.9682;-1.3583;-0.7194;0.0;-4.44;44.34;8.04;6.19;73.19;11.81;0.0;991.31;63.733;;;;NaN;;;;;0 / 0;38011;2022-11-03 14:49:07:264
0.7398;-5.902;-3.0335;-0.4767;-9.2927;-3.0967;0.9715;4.4449;1.9476;-0.4111;-3.696;-0.0535;0.0;4.02;28.5;33.9;222.42;59.69;152.88;0.0;991.26;62.27;;;;NaN;;;;;0 / 0;38510;2022-11-03 14:49:07:763
-0.2705;-9.4789;-3.201;-1.0964;-9.5664;1.858;0.0449;-3.338;-24.6251;0.7672;0.9074;0.2372;0.0;-12.24;42.78;3.48;26.17;77.29;30.54;0.0;991.19;63.183;;;;NaN;;;;;0 / 0;39011;2022-11-03 14:49:08:264
-0.9553;-7.4271;0.0527;-0.7593;-8.8464;-4.1634;-0.0194;0.6028;5.2864;-1.1558;-5.3814;1.1676;0.0;-4.2;30.84;31.74;213.95;64.43;169.66;0.0;991.18;62.555;;;;NaN;;;;;0 / 0;39511;2022-11-03 14:49:08:764
0.486;-9.2156;-0.589;-1.2462;-9.4186;-2.4305;1.3319;-1.6225;1.4831;1.7477;3.1469;0.6984;0.0;-11.7;38.46;20.34;266.39;73.83;152.85;0.0;991.19;62.079;;;;NaN;;;;;0 / 0;40011;2022-11-03 14:49:09:264
0.5986;-13.4294;-0.0982;-0.042;-9.4751;-2.528;0.5796;-2.4939;0.0545;-2.0415;0.8708;-0.4811;0.0;-17.58;40.86;6.78;51.4;81.28;3.0;0.0;991.21;59.287;;;;NaN;;;;;0 / 0;40510;2022-11-03 14:49:09:763
-6.2707;-15.1272;-6.6705;-1.9782;-9.3542;-2.181;-3.9564;-6.1163;-4.7115;-0.0269;-6.999;-2.1103;0.0;2.7;32.88;30.36;219.91;67.91;152.3;0.0;991.26;61.227;;;;NaN;;;;;0 / 0;41011;2022-11-03 14:49:10:264
-0.0383;-8.1813;0.723;-1.2082;-9.5075;2.0779;1.0938;1.0318;1.2544;4.7825;-1.6625;0.6758;0.0;-16.8;39.96;12.24;287.51;76.66;152.52;0.0;991.26;61.711;;;;NaN;;;;;0 / 0;41511;2022-11-03 14:49:10:764
0.5004;-7.0369;-1.2522;-2.3691;-8.3303;-4.6004;1.8532;-0.6053;4.5352;-0.1429;-1.3192;-0.5679;0.0;-8.58;29.64;32.82;256.4;58.15;152.75;0.0;991.19;61.304;;;;NaN;;;;;0 / 0;42011;2022-11-03 14:49:11:264
0.0144;-7.2619;0.7063;-1.1036;-9.4289;-2.4593;1.2918;0.3185;3.101;0.3396;1.0229;0.8334;0.0;-15.6;39.78;10.02;294.51;74.05;155.83;0.0;991.19;61.033;;;;NaN;;;;;0 / 0;42511;2022-11-03 14:49:11:764
-2.6456;-14.2865;-0.0646;-1.1364;-9.7308;0.4364;-0.7157;-2.7911;1.4436;-2.6267;-0.8922;-1.1525;0.0;-18.0;39.54;5.94;2.05;82.87;68.99;0.0;991.26;60.936;;;;NaN;;;;;0 / 0;43011;2022-11-03 14:49:12:264
-11.004;-5.0736;-4.8554;-2.92;-8.7445;-3.3434;-12.9694;1.2476;-6.6437;-0.0293;-0.3961;0.8371;0.0;-2.1;33.06;28.86;232.71;71.76;149.64;0.0;991.25;60.78;;;;NaN;;;;;0 / 0;43511;2022-11-03 14:49:12:764
-4.7046;-11.5499;-11.0878;-0.0172;-9.4359;2.6709;-2.2619;-0.7684;-4.1781;1.1551;1.0595;-0.756;0.0;-18.06;40.44;1.56;49.98;79.48;16.0;0.0;991.3;61.818;;;;NaN;;;;;0 / 0;44010;2022-11-03 14:49:13:263
-2.4229;-7.6378;-0.7997;-3.0381;-8.2087;-4.4223;-0.3887;1.1987;3.834;-1.2639;-4.7418;0.3747;0.0;-7.32;30.72;29.52;227.63;66.11;166.47;0.0;991.23;60.217;;;;NaN;;;;;0 / 0;44512;2022-11-03 14:49:13:765
1.4653;-5.3011;1.6879;-2.54;-9.4042;-1.131;3.659;4.598;1.5078;0.6701;1.5666;-1.0505;0.0;-2.52;38.4;18.6;287.87;73.53;114.0;0.0;991.18;61.241;;;;NaN;;;;;0 / 0;45010;2022-11-03 14:49:14:263
-0.3783;-14.3799;1.3695;-0.5026;-9.7935;0.0607;0.9333;-4.9935;2.8475;-2.1295;1.2501;-0.161;0.0;-13.5;37.92;15.78;319.49;87.04;83.12;0.0;991.14;62.32;;;;NaN;;;;;0 / 0;45511;2022-11-03 14:49:14:764
-3.9552;-2.4301;0.3184;-1.1518;-9.3082;-2.8638;-7.8815;4.9618;-1.6351;1.8033;0.8451;0.0387;0.0;-0.78;29.82;30.36;219.39;69.02;157.92;0.0;991.27;61.603;;;;NaN;;;;;0 / 0;46014;2022-11-03 14:49:15:267
-0.407;-10.5563;0.8859;-1.2142;-9.2959;2.8779;-0.514;-0.7976;-6.9677;0.8558;1.2361;0.0613;0.0;-12.0;40.62;-0.54;37.5;72.44;19.04;0.0;991.22;60.6;;;;NaN;;;;;0 / 0;46510;2022-11-03 14:49:15:763
0.6871;-8.2292;-0.1437;-1.8678;-8.2784;-4.9143;3.5992;-0.7831;4.4809;-0.9884;0.6417;-1.1445;0.0;-1.02;27.06;33.24;239.96;58.81;150.01;0.0;991.2;63.266;;;;NaN;;;;;0 / 0;47011;2022-11-03 14:49:16:264
1.2139;-5.4806;0.9002;-1.9997;-9.5361;-1.1108;3.3567;2.3701;2.2585;0.2053;-0.6582;0.4327;0.0;-11.52;39.0;11.52;293.07;76.87;140.8;0.0;991.15;62.735;;;;NaN;;;;;0 / 0;47511;2022-11-03 14:49:16:764
-2.2098;-5.1095;0.6967;0.4034;-9.4478;-2.5975;-1.3601;2.0156;1.4209;-1.876;-6.2568;0.7284;0.0;-15.42;32.34;22.2;218.13;74.45;-171.17;0.0;991.16;60.207;;;;NaN;;;;;0 / 0;48011;2022-11-03 14:49:17:264
-0.7566;-11.6744;1.8603;-1.7552;-9.1766;-2.9799;0.5316;-1.5948;3.4001;2.0024;3.4798;0.9116;0.0;-6.24;34.26;23.88;255.43;69.35;149.5;0.0;991.18;60.059;;;;NaN;;;;;0 / 0;48510;2022-11-03 14:49:17:763
-0.3232;-14.1069;-4.9946;-0.7589;-9.3404;2.8897;1.8471;-7.5678;-2.9024;-3.7568;0.9478;-0.3645;0.0;-12.3;40.38;1.02;35.34;72.26;14.72;0.0;991.17;59.373;;;;NaN;;;;;0 / 0;49011;2022-11-03 14:49:18:264
-8.5811;-20.4423;-7.8054;-2.1918;-8.7017;-3.9557;-5.0111;-3.6263;-13.6894;-0.5516;0.4401;0.1975;0.0;-0.6;31.44;29.52;213.32;64.94;165.44;0.0;991.26;62.45;;;;NaN;;;;;0 / 0;49511;2022-11-03 14:49:18:764
0.0311;-6.8334;0.2658;-0.9729;-9.4228;2.5367;1.8089;2.0061;-1.5116;2.9004;-4.8463;-1.0156;0.0;-9.3;43.14;1.38;357.02;76.7;89.81;0.0;991.18;60.889;;;;NaN;;;;;0 / 0;50011;2022-11-03 14:49:19:264
-2.6217;-3.3758;1.3838;-2.6108;-8.1957;-4.7099;-1.9373;5.6614;5.3037;-1.9597;-7.1346;1.0479;0.0;-14.94;32.52;26.94;206.22;71.39;-167.22;0.0;991.19;61.406;;;;NaN;;;;;0 / 0;50511;2022-11-03 14:49:19:764
0.6943;-5.9212;0.7207;-1.6107;-9.2979;-2.6693;2.7969;4.2548;3.3326;2.1295;-0.7535;-0.5575;0.0;-11.34;38.1;18.42;278.68;71.46;148.89;0.0;991.17;63.476;;;;NaN;;;;;0 / 0;51015;2022-11-03 14:49:20:268
-5.0042;-14.1165;1.3527;0.0937;-9.7096;-1.3731;-5.9897;-6.5711;4.2756;-2.0201;-1.5036;-0.3015;0.0;-22.44;35.46;14.82;241.45;81.93;-176.1;0.0;991.2;61.111;;;;NaN;;;;;0 / 0;51510;2022-11-03 14:49:20:763
-2.7294;-10.6952;0.838;-1.9706;-8.3642;-4.7251;-5.0151;-6.3278;5.8612;1.6958;3.4401;0.109;0.0;-0.24;31.08;31.5;233.82;58.53;157.36;0.0;991.23;58.696;;;;NaN;;;;;0 / 0;52010;2022-11-03 14:49:21:263
-0.1173;-11.8396;-3.0981;-0.6862;-9.5122;2.2842;-0.2655;0.0098;-6.4036;-0.6817;0.4383;0.3209;1.0;-15.6;42.24;-1.5;50.82;76.48;14.67;0.0;991.27;60.939;;;;NaN;;;;;0 / 0;52511;2022-11-03 14:49:21:764
0.6536;-4.7477;0.2346;-1.3498;-9.1547;-3.2464;3.2729;2.9071;4.5959;0.8283;0.8628;-2.0602;0.0;2.28;28.56;34.32;245.79;57.54;143.23;0.0;991.21;61.16;;;;NaN;;;;;0 / 0;53012;2022-11-03 14:49:22:265
0.7039;-6.9531;0.9768;-1.5289;-9.6652;-0.645;3.2238;4.3208;2.125;0.7446;0.1139;-1.1348;0.0;-1.56;37.38;23.4;274.43;71.78;122.03;0.0;991.13;64.381;;;;NaN;;;;;0 / 0;53510;2022-11-03 14:49:22:763
-2.7916;-5.6889;2.7797;-0.3705;-8.9912;-3.8976;-0.7754;2.7482;6.2201;-2.08;-4.4132;0.8023;1.0;-5.4;27.78;32.94;203.64;66.47;174.57;0.0;991.16;60.149;;;;NaN;;;;;0 / 0;54015;2022-11-03 14:49:23:268
0.7661;-13.2546;0.7398;-2.2682;-8.8567;-3.5473;3.0427;-3.0444;4.3942;1.5705;2.894;0.6575;1.0;-0.9;34.62;26.58;251.9;64.57;147.4;0.0;991.18;66.78;;;;NaN;;;;;0 / 0;54511;2022-11-03 14:49:23:764
0.5578;-11.2004;-1.2354;-0.2347;-9.6133;1.9232;1.1161;-2.9154;-3.0708;-3.5748;0.9392;-0.5679;1.0;-11.1;41.7;11.82;23.98;78.61;6.96;0.0;991.22;65.145;;;;NaN;;;;;0 / 0;55011;2022-11-03 14:49:24:264
-8.2866;-20.4974;-17.1383;-2.467;-8.5218;-4.1788;-5.1997;-11.5357;-9.6871;-1.2431;0.42;0.8554;1.0;8.94;27.78;33.48;181.9;65.64;163.66;0.0;991.24;60.264;;;;NaN;;;;;0 / 0;55511;2022-11-03 14:49:24:764
-0.2155;-7.5827;-0.0838;-0.4977;-9.5388;2.221;0.5588;0.3511;-2.0621;1.6469;1.2507;-0.9106;1.0;-5.58;41.76;12.6;328.87;82.37;67.34;0.0;991.23;63.164;;;;NaN;;;;;0 / 0;56011;2022-11-03 14:49:25:264
-1.6376;-4.6136;-2.1979;-2.6943;-7.4082;-5.8335;-0.266;3.6779;6.1122;-2.7214;-2.0302;0.8151;1.0;-2.4;27.48;34.08;203.91;64.01;169.87;0.0;991.22;58.704;;;;NaN;;;;;0 / 0;56511;2022-11-03 14:49:25:764
0.2945;-7.8078;0.0814;-2.173;-9.4351;-1.5578;2.661;2.6577;0.873;1.7471;-1.8463;-0.4359;1.0;-2.46;39.48;18.9;275.32;74.18;125.64;0.0;991.16;64.644;;;;NaN;;;;;0 / 0;57011;2022-11-03 14:49:26:264
-3.699;-7.2308;2.1117;0.7542;-9.508;-2.2801;-6.3311;-1.4654;6.2562;-2.8815;-5.5683;0.0149;1.0;-17.94;34.02;22.86;208.3;75.82;-161.7;0.0;991.18;58.374;;;;NaN;;;;;0 / 0;57512;2022-11-03 14:49:26:765
-0.8452;-11.8755;4.209;-2.9938;-8.5806;-3.685;1.5933;-0.2286;6.2551;3.9609;4.3686;0.8047;1.0;10.02;27.54;32.7;222.23;61.04;140.91;0.0;991.2;60.454;;;;NaN;;;;;0 / 0;58011;2022-11-03 14:49:27:264
-1.2929;-13.7071;-5.3657;-1.2242;-9.7292;0.1165;2.4343;-3.4239;-6.1667;-2.4887;-0.6228;-0.0694;1.0;-8.4;43.56;4.02;14.0;75.22;32.18;0.0;991.22;64.397;;;;NaN;;;;;0 / 0;58510;2022-11-03 14:49:27:763
0.8092;-8.5237;-0.7494;-1.5082;-9.3592;-2.5101;2.5768;2.5906;3.0326;-0.5718;-4.6948;-2.3718;1.0;10.92;31.86;30.48;229.36;57.38;142.07;0.0;991.19;65.274;;;;NaN;;;;;0 / 0;59012;2022-11-03 14:49:28:265
0.3519;-9.6322;0.9912;-0.5295;-9.6958;1.3717;2.2134;-0.5806;1.3287;3.2975;3.1481;-1.9478;1.0;11.7;38.7;21.72;250.07;72.35;109.78;0.0;991.17;59.355;;;;NaN;;;;;0 / 0;59511;2022-11-03 14:49:28:764
-0.5555;-5.6506;0.9649;-2.104;-7.8471;-5.4924;2.0253;0.8333;7.3083;0.2743;0.0388;-0.3913;1.0;8.28;19.26;39.96;198.21;53.15;159.04;0.0;991.23;62.767;;;;NaN;;;;;0 / 0;60011;2022-11-03 14:49:29:264
0.7302;-9.0504;0.1293;-1.8342;-9.2131;-2.815;2.7357;-1.7014;2.3233;0.6952;1.0058;0.9312;1.0;1.98;35.64;27.72;231.74;69.96;146.91;0.0;991.19;64.752;;;;NaN;;;;;0 / 0;60511;2022-11-03 14:49:29:764
-1.0415;-12.5627;0.3496;-1.2166;-9.7295;0.1621;-0.5276;-1.425;2.1604;-3.3781;1.9581;-2.1952;1.0;-7.56;38.46;22.14;306.77;82.81;82.41;0.0;991.2;61.235;;;;NaN;;;;;0 / 0;61011;2022-11-03 14:49:30:264
-10.6425;-4.4532;-6.4072;-2.2751;-8.6326;-4.0587;-11.5554;-1.8505;-14.6988;-0.7385;0.4279;0.6038;1.0;14.04;24.96;32.64;182.66;65.84;155.34;0.0;991.27;63.115;;;;NaN;;;;;0 / 0;61512;2022-11-03 14:49:30:765
-1.4269;-9.1557;0.3089;-0.7898;-9.7322;0.9109;0.0309;0.3916;-0.6752;2.4093;-1.0577;-0.318;1.0;-5.64;37.92;15.66;302.95;83.51;89.67;0.0;991.24;64.041;;;;NaN;;;;;0 / 0;62010;2022-11-03 14:49:31:263
-1.6233;-5.5094;-0.9194;-2.6599;-7.6538;-5.5239;0.9795;0.9367;5.2804;-1.1356;-1.6417;-0.1653;1.0;4.86;20.64;35.16;205.19;54.87;159.46;0.0;991.23;63.408;;;;NaN;;;;;0 / 0;62511;2022-11-03 14:49:31:764
-2.6719;-8.7415;-2.1189;-0.7115;-9.5759;-1.9915;-1.8502;1.2987;-1.8031;-0.6347;1.9074;-0.0883;1.0;1.62;34.74;23.52;202.19;77.55;160.34;0.0;991.21;65.458;;;;NaN;;;;;0 / 0;63011;2022-11-03 14:49:32:264
-2.0806;-3.6919;2.9712;-4.469;-6.2883;-6.0544;1.8072;5.9106;2.3432;-0.5724;4.0235;-1.5642;1.0;17.4;16.62;34.62;211.75;39.88;143.57;0.0;991.29;63.628;;;;NaN;;;;;0 / 0;63513;2022-11-03 14:49:32:766
-3.1268;-18.9627;0.1293;-1.8132;-9.1408;-3.0541;11.4406;-11.2775;-7.3322;-0.0727;-4.0882;2.0277;1.0;5.94;32.82;25.02;145.12;72.93;-172.44;0.0;991.2;66.357;;;;NaN;;;;;0 / 0;64012;2022-11-03 14:49:33:265
-2.5019;-4.7573;-3.3495;-3.949;-6.4578;-6.2348;1.605;-0.1529;1.2402;1.73;-0.2227;-0.9588;1.0;18.36;19.32;33.84;169.07;41.58;155.35;0.0;991.32;65.466;;;;NaN;;;;;0 / 0;64511;2022-11-03 14:49:33:764
-1.9513;-18.7616;3.5243;-1.3714;-9.1242;-3.3225;0.2031;-14.4857;2.3576;1.9389;2.8249;1.9672;1.0;4.68;39.0;24.78;161.9;80.53;-177.93;0.0;991.26;66.106;;;;NaN;;;;;0 / 0;65010;2022-11-03 14:49:34:263
-3.9911;-18.266;-8.313;-1.8574;-7.1548;-6.4442;0.531;-12.9259;0.8415;-2.1234;-1.9856;0.1248;1.0;2.76;31.26;39.78;195.92;61.28;167.56;0.0;991.47;65.687;;;;NaN;;;;;0 / 0;65510;2022-11-03 14:49:34:763
4.7477;-22.7168;-12.0934;-0.3694;-9.2304;-3.2915;-6.3586;-17.2959;5.8509;-2.0256;5.9923;1.3484;1.0;-3.12;40.86;30.3;242.5;71.07;148.65;0.0;991.34;65.999;;;;NaN;;;;;0 / 0;66011;2022-11-03 14:49:35:264
-2.0111;-15.0027;-0.3448;-0.16;-9.7709;0.8208;-1.7458;-3.4047;-0.0977;-1.8002;0.0938;-0.4078;1.0;-17.94;43.56;6.36;32.2;79.44;26.65;0.0;991.32;62.36;;;;NaN;;;;;0 / 0;66511;2022-11-03 14:49:35:764
-7.2475;-11.4661;-25.9157;-1.6949;-8.9037;-3.7445;2.2935;1.898;-1.2621;-0.1454;-2.602;-0.8574;0.0;-25.86;34.38;43.32;270.83;47.96;157.63;0.0;991.4;62.94;;;;NaN;;;;;0 / 0;67012;2022-11-03 14:49:36:265
1.5443;-16.7456;-3.3423;-0.2377;-9.7654;0.8664;0.3694;0.2936;-3.1361;-0.3818;0.467;0.3649;0.0;-36.9;47.04;24.9;61.25;86.82;-8.19;0.0;991.37;63.686;;;;NaN;;;;;0 / 0;67515;2022-11-03 14:49:36:768
-8.459;-19.2212;-10.9753;-0.5319;-8.9498;-3.9734;1.3459;5.5596;4.3637;2.0433;-1.8433;-1.9442;0.0;-12.3;29.7;37.02;264.44;49.6;155.88;0.0;991.3;64.221;;;;NaN;;;;;0 / 0;68010;2022-11-03 14:49:37:263
-0.1413;-5.9619;1.2474;-0.7932;-9.7514;-0.671;1.3271;1.0123;-4.1006;-0.4691;-1.3778;-0.5893;0.0;-12.12;41.4;15.72;270.16;72.22;167.82;0.0;991.32;62.855;;;;NaN;;;;;0 / 0;68511;2022-11-03 14:49:37:764
0.4094;-4.3048;0.1891;-2.2439;-8.8965;-3.4624;2.5647;1.9769;2.9117;-3.6212;-6.0528;-1.0584;0.0;5.58;32.94;30.12;230.99;58.58;150.74;0.0;991.32;63.284;;;;NaN;;;;;0 / 0;69015;2022-11-03 14:49:38:268
2.569;-10.0512;-5.1957;-2.3085;-9.3197;-1.9961;4.8391;1.7034;-2.0764;0.6573;0.1542;-0.216;0.0;9.66;35.52;25.8;179.73;72.02;159.11;0.0;991.35;60.186;;;;NaN;;;;;0 / 0;69510;2022-11-03 14:49:38:763
-0.3735;-8.969;-0.2346;-0.9969;-9.6012;-1.7302;0.7551;-0.6367;1.4693;-0.6005;0.2581;1.1285;1.0;1.74;38.04;24.42;189.86;81.5;167.78;0.0;991.33;66.758;;;;NaN;;;;;0 / 0;70011;2022-11-03 14:49:39:264
-0.2203;-10.5108;-0.7063;-1.6644;-9.6463;0.591;-0.002;-0.618;-0.1097;0.6109;4.164;0.7779;2.0;15.9;40.38;12.72;270.83;81.47;55.18;0.0;991.34;64.635;;;;NaN;;;;;0 / 0;70511;2022-11-03 14:49:39:764
-0.8188;-1.2905;-2.6504;-3.7411;-6.9346;-5.8383;4.6461;5.0312;8.9077;-0.5602;-5.853;-2.5055;0.0;28.14;17.88;32.16;176.42;62.69;141.3;0.0;991.42;67.486;;;;NaN;;;;;0 / 0;71010;2022-11-03 14:49:40:263
-0.7925;-7.0105;0.996;-2.9126;-9.364;0.0464;3.808;5.0449;-0.4869;2.0843;-2.0595;-0.4518;0.0;28.44;33.96;11.64;136.71;68.06;137.14;0.0;991.31;66.351;;;;NaN;;;;;0 / 0;71511;2022-11-03 14:49:40:764
2.9473;2.4277;4.9443;-5.4018;-6.3783;-5.1291;6.9748;7.3958;5.0477;-1.6542;-2.5378;-3.1427;1.0;41.46;19.68;9.24;125.48;46.99;129.55;0.0;991.31;65.172;;;;NaN;;;;;0 / 0;72011;2022-11-03 14:49:41:264
0.6871;-5.4878;2.5426;-3.9484;-8.8838;1.288;6.2062;2.06;0.3951;5.2504;4.2886;1.5323;1.0;22.32;34.74;13.86;146.19;78.36;147.02;0.0;991.31;69.988;;;;NaN;;;;;0 / 0;72511;2022-11-03 14:49:41:764
1.9537;3.1244;2.9616;-5.2369;-7.2822;-3.9642;6.2951;9.7602;4.6393;-7.5344;10.5261;-3.0022;1.0;36.84;17.52;18.0;162.25;45.38;123.28;0.0;991.35;68.511;;;;NaN;;;;;0 / 0;73010;2022-11-03 14:49:42:263
-0.5507;-9.7806;0.3424;-4.3736;-8.6288;1.6079;7.6057;-2.7439;-2.3166;-2.7135;-1.9447;0.1139;3.0;11.94;39.66;9.42;274.61;70.96;98.45;0.0;991.35;71.892;;;;NaN;;;;;0 / 0;73510;2022-11-03 14:49:42:763
1.7119;-0.1508;0.5124;-4.0898;-6.1654;-6.4367;2.773;6.91;10.9162;1.8937;-2.7382;2.0509;2.0;16.14;12.72;35.7;167.46;56.91;164.34;0.0;991.35;63.585;;;;NaN;;;;;0 / 0;74011;2022-11-03 14:49:43:264
0.2203;-8.3944;-2.4852;-3.4264;-9.1507;-0.8331;0.7568;1.4052;0.5266;2.1912;-4.3943;1.371;2.0;11.88;34.92;17.22;234.28;65.96;129.12;0.0;991.45;64.3;;;;NaN;;;;;0 / 0;74510;2022-11-03 14:49:43:763
0.3735;-1.9752;4.604;-4.3012;-6.1349;-6.3271;4.6125;4.4542;8.0318;3.8521;-1.9477;-2.2917;2.0;16.8;13.5;35.58;172.35;42.02;157.86;0.0;991.4;65.74;;;;NaN;;;;;0 / 0;75010;2022-11-03 14:49:44:263
-0.3783;-4.9898;0.5219;-3.8327;-8.9939;-0.7681;0.737;2.2204;-4.825;1.4306;0.6881;0.0277;2.0;13.98;36.0;18.36;265.43;61.34;116.56;0.0;991.29;68.096;;;;NaN;;;;;0 / 0;75510;2022-11-03 14:49:44:763
-4.2952;-3.4644;-2.636;-2.7361;-5.7475;-7.4599;-3.0103;0.4847;5.7863;-0.6738;1.1011;0.5928;2.0;8.7;14.52;40.26;208.45;53.92;149.81;0.0;991.43;61.771;;;;NaN;;;;;0 / 0;76011;2022-11-03 14:49:45:264
-2.569;-9.4622;-0.0814;-3.1421;-8.2812;-4.2095;0.0967;1.7471;2.3611;4.1282;0.8189;-0.4451;2.0;13.26;24.9;32.94;242.68;43.37;142.06;0.0;991.3;67.729;;;;NaN;;;;;0 / 0;76511;2022-11-03 14:49:45:764
-2.2721;-12.0767;1.7071;-3.3782;-9.2064;-0.0147;-0.6345;-3.0642;-9.3948;-3.8558;2.7901;-0.2154;2.0;9.12;40.74;11.28;304.19;69.48;75.69;0.0;991.34;62.257;;;;NaN;;;;;0 / 0;77011;2022-11-03 14:49:46:264
-8.483;-2.8706;-8.6218;-5.3285;-5.575;-6.0577;0.7293;-0.9088;-13.1635;-1.7941;-1.3265;0.9147;2.0;18.12;14.46;36.78;210.63;31.24;146.46;0.0;991.49;67.656;;;;NaN;;;;;0 / 0;77511;2022-11-03 14:49:46:764
-2.0877;-8.2531;-0.9002;-2.4304;-9.0317;-2.9482;1.3315;0.6157;2.3258;1.4459;-0.0528;-0.3962;2.0;-0.66;35.88;23.16;282.95;60.53;136.39;0.0;991.34;70.319;;;;NaN;;;;;0 / 0;78011;2022-11-03 14:49:47:264
-5.4471;-12.5794;-8.368;-1.8667;-8.8576;-3.772;-0.4557;1.1767;3.5254;-2.6292;1.4566;-0.1635;2.0;-6.72;38.52;18.12;292.71;73.87;120.09;0.0;991.31;65.138;;;;NaN;;;;;0 / 0;78511;2022-11-03 14:49:47:764
-3.7924;-6.2109;-4.3694;-3.4801;-7.3547;-5.4742;-1.5696;0.7919;-1.3974;-0.8021;-0.3552;-0.3076;2.0;1.32;31.56;30.36;292.78;42.2;150.62;0.0;991.38;64.426;;;;NaN;;;;;0 / 0;79011;2022-11-03 14:49:48:264
-1.1061;-10.0966;0.4022;-2.6102;-9.0817;-2.6231;0.1058;-2.2504;1.9096;-0.1619;-0.6997;0.4517;2.0;-4.02;39.48;16.74;299.0;63.39;143.39;0.0;991.32;68.592;;;;NaN;;;;;0 / 0;79511;2022-11-03 14:49:48:764
-2.2936;-9.4957;-1.8364;-1.4926;-9.0044;-3.5866;-2.7834;0.0833;7.0845;-3.1038;-0.0589;0.1236;2.0;-8.46;41.1;9.84;325.03;73.64;104.11;0.0;991.41;62.727;;;;NaN;;;;;0 / 0;80010;2022-11-03 14:49:49:263
-7.4798;-8.3201;2.2793;-3.1197;-7.45;-5.562;-3.2372;-5.3928;-10.8102;-0.4728;-1.3357;0.3722;2.0;-2.52;33.3;27.06;286.49;49.44;150.71;0.0;991.36;67.684;;;;NaN;;;;;0 / 0;80511;2022-11-03 14:49:49:764
-1.7957;-10.6473;-0.2729;-1.8365;-9.5035;-1.5751;0.4431;-0.0545;-1.5637;0.1362;-0.1946;-0.1891;2.0;-8.16;39.78;12.42;302.36;72.16;138.01;0.0;991.29;67.636;;;;NaN;;;;;0 / 0;81011;2022-11-03 14:49:50:264
-1.6352;-9.9578;-0.2897;-1.6914;-9.6542;0.3254;0.4344;-1.1679;-0.0788;0.5046;0.0974;0.0418;2.0;-11.34;41.94;-1.68;5.42;82.24;92.19;0.0;991.74;63.826;;;;NaN;;;;;0 / 0;81511;2022-11-03 14:49:50:764
-2.964;-8.72;-2.5977;-2.9883;-7.2473;-5.8921;2.7321;1.5703;3.5865;-0.2853;-1.7223;-2.5233;2.0;-3.72;35.88;25.2;265.45;61.11;155.67;0.0;992.88;64.787;;;;NaN;;;;;0 / 0;82010;2022-11-03 14:49:51:263
-1.7262;-6.7879;-4.3694;-3.3027;-8.2124;-4.2211;-3.0279;-0.4956;2.5596;0.1075;-1.1555;0.0552;2.0;-1.98;33.9;26.34;294.47;48.6;142.52;0.0;990.83;65.778;;;;NaN;;;;;0 / 0;82511;2022-11-03 14:49:51:764
-2.2625;-9.8429;-2.0542;-2.7693;-9.0435;-2.5914;-0.0798;0.3571;0.8221;0.4282;0.9716;-0.2411;2.0;-1.08;37.02;22.74;277.03;65.03;132.6;0.0;990.99;62.304;;;;NaN;;;;;0 / 0;83011;2022-11-03 14:49:52:264
0.2753;-10.3073;-5.9762;-2.4915;-9.4363;-0.9583;-0.2403;0.2279;0.8099;0.2077;-0.613;0.3991;2.0;-5.16;40.62;13.98;305.31;75.1;109.71;0.0;991.26;65.488;;;;NaN;;;;;0 / 0;83511;2022-11-03 14:49:52:764
-8.2747;-7.0967;-3.0909;-2.3255;-9.1371;-2.6973;-2.3935;1.8513;3.892;-0.0385;-0.8146;-0.0224;2.0;3.12;33.36;27.18;246.64;65.27;139.45;0.0;991.31;61.775;;;;NaN;;;;;0 / 0;84010;2022-11-03 14:49:53:263
-1.7262;-10.4055;-0.8906;-2.3222;-9.5122;-0.5432;0.4738;0.2081;-0.8431;0.1808;0.7315;-0.0218;2.0;1.8;39.18;17.88;279.81;73.78;111.5;0.0;991.34;65.942;;;;NaN;;;;;0 / 0;84511;2022-11-03 14:49:53:764
-0.5722;-9.3209;-0.2394;-2.9665;-9.3418;-0.3175;2.648;-0.2736;-2.3257;-1.7385;-1.1426;0.1438;2.0;3.18;38.28;15.84;288.27;74.83;97.3;0.0;991.34;70.339;;;;NaN;;;;;0 / 0;85011;2022-11-03 14:49:54:264
-10.9226;-15.4193;-28.1256;-3.4209;-8.4632;-3.5837;1.4433;6.4903;4.0409;4.0213;-0.2324;-2.5569;2.0;16.68;25.02;31.08;228.57;42.46;141.85;0.0;991.42;66.742;;;;NaN;;;;;0 / 0;85512;2022-11-03 14:49:54:765
-3.4931;-7.5971;-5.5788;-1.8906;-9.4148;1.9895;-1.174;0.4266;-4.0677;0.8473;3.0638;0.01;2.0;6.9;42.42;9.54;292.63;72.4;121.73;0.0;991.38;65.113;;;;NaN;;;;;0 / 0;86010;2022-11-03 14:49:55:263
-0.6488;-5.586;0.0311;-3.4449;-7.2748;-5.6017;1.8264;1.5907;6.2506;-1.9047;-1.1952;0.3026;2.0;10.68;21.84;35.76;215.1;66.0;138.39;0.0;991.4;63.266;;;;NaN;;;;;0 / 0;86511;2022-11-03 14:49:55:764
1.3647;-4.2617;-4.525;-3.5668;-9.1345;0.0992;0.1526;2.0354;-7.0762;0.182;-1.0198;-0.8605;2.0;18.66;34.32;17.34;217.45;62.14;120.99;0.0;991.34;65.639;;;;NaN;;;;;0 / 0;87011;2022-11-03 14:49:56:264
-4.2306;-10.8029;-3.5171;-4.539;-5.6565;-6.6008;-0.3141;-4.907;5.217;-2.1728;-2.1426;0.2843;2.0;20.16;10.92;35.52;192.66;64.43;140.95;0.0;991.43;69.441;;;;NaN;;;;;0 / 0;87514;2022-11-03 14:49:56:767
-13.5012;-22.1015;-5.8948;-3.4659;-8.8068;-2.5687;-1.2339;-2.7192;2.7363;3.1692;3.153;0.7687;2.0;19.2;25.74;23.94;202.95;43.8;139.72;0.0;991.42;68.503;;;;NaN;;;;;0 / 0;88010;2022-11-03 14:49:57:263
-6.6682;-10.0248;0.5698;-1.6968;-9.2484;-2.7852;-0.7165;-5.6561;5.5553;-1.3677;0.7077;-1.194;2.0;7.74;28.2;26.64;291.96;68.28;71.34;0.0;991.35;62.667;;;;NaN;;;;;0 / 0;88511;2022-11-03 14:49:57:764
-1.8124;-10.8149;3.2082;-4.7192;-7.0877;-4.8645;-4.19;-5.7455;4.0528;2.9957;5.8585;0.8078;2.0;28.92;14.16;29.34;180.46;50.18;134.75;0.0;991.38;62.363;;;;NaN;;;;;0 / 0;89011;2022-11-03 14:49:58:264
-2.0494;-14.7417;-0.2705;-2.9331;-9.2618;1.336;1.6067;-3.0997;-2.7247;-1.3977;2.1206;-0.4536;2.0;6.78;41.58;10.44;307.94;73.96;66.17;0.0;991.35;60.758;;;;NaN;;;;;0 / 0;89511;2022-11-03 14:49:58:764
-16.5948;-11.344;-12.9362;-1.4974;-8.4448;-4.7553;16.2223;-10.9991;19.4516;-0.27;7.1957;0.2678;2.0;-3.54;28.86;33.36;250.95;60.54;145.8;0.0;991.45;64.289;;;;NaN;;;;;0 / 0;90012;2022-11-03 14:49:59:265
-0.1867;-10.6114;-4.1037;-2.7509;-9.241;1.7907;1.2042;-5.0024;-4.556;-0.2535;2.6264;-0.6455;2.0;-5.7;44.22;1.98;0.15;74.26;71.13;0.0;991.37;57.748;;;;NaN;;;;;0 / 0;90510;2022-11-03 14:49:59:763
1.561;-1.6041;0.6416;-3.2937;-8.2403;-4.1735;-6.5228;-11.4957;-45.1749;-2.2559;-3.2367;2.1169;2.0;-1.38;33.12;29.4;289.32;46.29;144.16;0.0;991.36;58.561;;;;NaN;;;;;0 / 0;91013;2022-11-03 14:50:00:266
-1.9154;-13.9776;-1.142;-2.5984;-9.2468;1.9787;1.6168;2.6457;-1.2939;1.8656;3.2098;-0.0993;2.0;-6.6;44.4;-0.18;359.28;72.0;92.09;0.0;991.46;59.433;;;;NaN;;;;;0 / 0;91510;2022-11-03 14:50:00:763
-0.7278;-7.8341;-2.1165;-2.8968;-7.8307;-5.1437;2.418;3.2842;7.3248;1.6426;-0.2526;-1.4555;2.0;-3.78;31.26;31.5;249.02;57.54;155.39;0.0;991.42;59.026;;;;NaN;;;;;0 / 0;92011;2022-11-03 14:50:01:264
-0.5602;-8.0855;-0.4884;-1.563;-9.4864;1.9327;0.2773;0.0027;-2.8616;-0.0568;-5.9483;0.5476;1.0;-11.46;42.24;-2.88;354.37;75.96;115.74;0.0;991.37;65.621;;;;NaN;;;;;0 / 0;92512;2022-11-03 14:50:01:765
-2.5786;-7.2667;-1.7047;-2.9366;-7.2654;-5.8958;1.3804;0.7863;6.5829;0.0079;-0.2813;-0.0761;1.0;-4.5;31.44;29.4;237.38;62.48;160.25;0.0;991.39;55.939;;;;NaN;;;;;0 / 0;93011;2022-11-03 14:50:02:264
-3.7948;-13.9489;1.0989;-1.8169;-9.5598;-1.2163;0.1002;-1.813;0.9792;2.4936;1.4591;0.258;1.0;-9.78;41.04;8.1;327.42;58.4;150.2;0.0;991.54;71.411;;;;NaN;;;;;0 / 0;93510;2022-11-03 14:50:02:763
-2.1404;-12.6704;-1.7813;-1.1667;-9.4718;-2.2569;-0.8971;-8.3297;4.2154;-2.5559;0.0687;-0.7664;1.0;-11.28;41.1;7.68;5.26;72.81;44.26;0.0;991.36;54.681;;;;NaN;;;;;0 / 0;94011;2022-11-03 14:50:03:264
-12.024;-11.4566;-0.0168;-3.1532;-7.4495;-5.5436;10.8843;-7.6393;24.705;2.3915;-6.4119;-2.0621;1.0;-3.6;27.24;32.16;251.19;60.51;144.67;0.0;991.73;56.808;;;;NaN;;;;;0 / 0;94510;2022-11-03 14:50:03:763
-2.0997;-13.6568;-5.2173;-2.8395;-9.1682;2.013;1.0917;-1.0841;-4.0409;-0.0611;0.3674;0.0625;1.0;-6.54;42.48;-4.26;24.3;73.44;58.36;0.0;991.36;45.842;;;;NaN;;;;;0 / 0;95010;2022-11-03 14:50:04:263
-10.0416;-18.0002;-15.9699;-2.2738;-8.7688;-3.756;2.834;6.7098;5.4775;-1.5119;-3.6191;-1.3174;1.0;-3.9;34.14;25.8;294.87;47.89;148.92;0.0;991.47;45.328;;;;NaN;;;;;0 / 0;95511;2022-11-03 14:50:04:764
-1.5155;-10.9633;-10.8724;-2.056;-9.4546;1.598;-0.3813;-2.6269;-2.5772;0.2126;0.3656;0.2904;1.0;-9.96;41.64;-1.92;18.18;78.82;68.99;0.0;991.31;57.318;;;;NaN;;;;;0 / 0;96011;2022-11-03 14:50:05:264
0.8188;-5.0162;1.2546;-3.038;-7.6932;-5.2683;4.7331;5.0955;6.645;3.7287;0.7352;-1.5343;1.0;-4.2;29.46;30.12;282.96;44.73;146.33;0.0;991.46;59.851;;;;NaN;;;;;0 / 0;96511;2022-11-03 14:50:05:764
-0.1149;-7.554;-2.6671;-2.1817;-9.5491;-0.4744;1.0134;-1.5435;0.0027;1.4056;-6.2714;-0.0737;1.0;-10.32;40.38;1.44;330.39;75.32;143.25;0.0;991.39;69.757;;;;NaN;;;;;0 / 0;97011;2022-11-03 14:50:06:264
-2.9975;-6.1462;-0.9242;-2.674;-8.1812;-4.6997;0.1936;2.4708;4.1682;-4.4135;-3.5134;0.451;1.0;-5.7;38.46;18.3;265.71;73.35;149.58;0.0;991.34;40.776;;;;NaN;;;;;0 / 0;97510;2022-11-03 14:50:06:763
-0.7829;-9.0121;-0.6177;-2.9928;-8.9198;-2.7658;-0.8308;-1.433;4.7315;3.9578;3.4633;0.0167;1.0;-0.06;39.24;22.14;311.01;49.54;136.58;0.0;991.35;54.625;;;;NaN;;;;;0 / 0;98011;2022-11-03 14:50:07:264
-6.6274;-20.404;2.2051;-2.256;-9.4901;-1.0095;-0.7176;-1.921;-4.6005;-3.8436;0.9869;-1.4976;1.0;-5.94;44.76;3.9;0.85;71.37;53.81;0.0;991.39;54.835;;;;NaN;;;;;0 / 0;98511;2022-11-03 14:50:07:764
-6.9578;-11.3201;6.163;-3.2785;-8.3086;-4.0483;-0.4229;1.6596;5.8033;4.6133;1.3705;-0.0401;1.0;-0.24;34.44;28.32;308.52;46.7;171.9;0.0;991.78;62.842;;;;NaN;;;;;0 / 0;99010;2022-11-03 14:50:08:263
-1.7526;-12.5603;-1.5658;-2.4422;-9.4968;-0.1309;-0.7516;-4.7562;-5.6274;-4.0042;2.974;-0.5734;1.0;-5.46;44.58;-2.76;17.5;71.45;56.41;0.0;991.36;52.501;;;;NaN;;;;;0 / 0;99511;2022-11-03 14:50:08:764
-4.9419;-13.1732;-12.261;-2.7606;-8.1563;-4.6929;-5.4471;-6.0464;-10.4941;-1.835;-3.1554;0.517;1.0;0.18;37.14;28.26;267.85;57.98;148.19;0.0;991.42;54.671;;;;NaN;;;;;0 / 0;100011;2022-11-03 14:50:09:264
-2.4062;-10.8843;-2.2027;-2.3213;-9.3494;1.8358;0.2599;1.2758;-3.0928;0.025;-1.9258;-0.1348;1.0;-3.6;46.56;-2.22;7.26;73.44;87.35;0.0;991.4;54.99;;;;NaN;;;;;0 / 0;100512;2022-11-03 14:50:09:765
-0.7638;-3.474;-0.4357;-2.9612;-8.0212;-4.8023;1.9795;2.3826;5.5852;-0.4899;0.379;-1.0254;1.0;-3.18;30.78;32.46;227.99;63.51;160.34;0.0;991.35;58.521;;;;NaN;;;;;0 / 0;101011;2022-11-03 14:50:10:264
-3.1556;-10.4965;-15.6419;-2.2116;-9.4733;-1.2391;1.0695;2.4891;1.9933;4.2162;-6.3521;0.1303;1.0;-19.32;36.78;13.26;302.88;68.03;142.87;0.0;991.45;65.665;;;;NaN;;;;;0 / 0;101510;2022-11-03 14:50:10:763
-1.7645;-4.446;-0.0168;-2.674;-7.7582;-5.3693;0.5479;2.7349;4.0789;-3.0097;-1.6466;0.0705;0.0;-18.48;28.98;22.32;249.21;70.9;170.32;0.0;991.38;63.621;;;;NaN;;;;;0 / 0;102011;2022-11-03 14:50:11:264
-7.0512;-16.4631;3.5841;-1.5646;-9.548;-1.5992;3.322;-4.432;2.3031;3.9285;0.1219;0.2043;0.0;-21.18;35.88;4.14;320.69;59.8;148.99;0.0;991.43;68.956;;;;NaN;;;;;0 / 0;102511;2022-11-03 14:50:11:764
-1.2665;-13.2953;-3.6488;-0.5769;-9.6037;-1.8989;0.1244;1.1567;2.0066;-2.1502;1.9355;-1.9044;0.0;-17.22;39.66;0.6;22.12;74.37;51.4;0.0;991.37;60.174;;;;NaN;;;;;0 / 0;103011;2022-11-03 14:50:12:264
0.7853;-5.6578;5.2173;-3.1942;-8.5951;-3.4774;-5.5713;-3.3882;9.8438;-0.54;5.1719;1.8059;0.0;2.82;38.1;22.08;230.53;69.93;151.52;0.0;991.51;60.462;;;;NaN;;;;;0 / 0;103510;2022-11-03 14:50:12:763
-3.3806;-16.4703;-5.5788;-2.5245;-9.2724;1.9545;1.5429;-0.9009;-3.6592;-0.3806;-0.6075;-0.0682;0.0;-5.58;43.32;-6.6;36.3;73.52;51.64;0.0;991.47;63.303;;;;NaN;;;;;0 / 0;104011;2022-11-03 14:50:13:264
-10.8508;-18.3115;-13.2642;-1.8744;-8.787;-3.9301;1.7954;5.4063;3.3699;4.9926;-3.7962;-1.8654;0.0;-5.58;33.18;26.58;271.12;57.41;150.9;0.0;991.55;66.472;;;;NaN;;;;;0 / 0;104511;2022-11-03 14:50:13:764
-2.0686;-8.775;-4.4508;-2.0114;-9.3894;1.9909;-0.7563;-0.2619;-0.643;0.9053;0.7364;0.1554;1.0;-9.78;41.4;-3.78;25.25;75.23;62.68;0.0;991.46;67.109;;;;NaN;;;;;0 / 0;105011;2022-11-03 14:50:14:264
-1.7861;-5.2556;0.079;-2.2196;-8.2244;-4.8583;1.9969;3.764;5.1097;0.9639;0.3638;-1.3064;1.0;-7.32;33.24;25.98;254.92;60.83;163.05;0.0;991.52;67.309;;;;NaN;;;;;0 / 0;105511;2022-11-03 14:50:14:764
-0.395;-5.3202;0.1365;-2.0668;-9.5807;-0.3302;2.2511;1.6795;0.5289;2.7489;-4.7308;-0.26;1.0;-10.68;42.0;3.9;325.98;70.94;144.37;0.0;991.48;64.727;;;;NaN;;;;;0 / 0;106011;2022-11-03 14:50:15:264
-2.5786;-2.818;2.0566;-0.5046;-9.1011;-3.6174;-3.1585;-0.749;-0.4192;-2.5827;-4.0919;-0.3913;1.0;-18.12;38.1;12.36;304.11;77.38;130.39;0.0;991.46;61.081;;;;NaN;;;;;0 / 0;106510;2022-11-03 14:50:15:763
0.1341;-7.1087;-0.0239;-2.8818;-8.8752;-3.0158;3.6;-2.5526;9.2674;2.3457;3.8995;0.4193;1.0;-3.36;35.94;25.02;278.56;58.91;144.98;0.0;991.51;63.513;;;;NaN;;;;;0 / 0;107011;2022-11-03 14:50:16:264
-0.5267;-16.5709;1.3862;-2.3424;-9.5082;-0.5264;-2.1395;-4.1869;-15.5177;-3.1026;2.7132;0.1505;0.0;-9.24;41.16;2.88;9.46;75.38;52.07;0.0;991.45;61.038;;;;NaN;;;;;0 / 0;107511;2022-11-03 14:50:16:764
-1.9704;-9.7543;12.0719;-3.1835;-8.0582;-4.5935;-10.8947;-14.7424;-2.0794;1.4954;-0.1579;0.0234;0.0;0.72;29.04;31.44;231.97;63.51;149.84;0.0;991.49;60.505;;;;NaN;;;;;0 / 0;108011;2022-11-03 14:50:17:264
0.2705;-9.5436;0.5291;-2.083;-9.5488;0.8073;1.6233;-2.1831;-2.7035;-3.1649;1.6839;-0.2252;0.0;-8.88;43.2;-3.96;20.67;77.99;74.96;0.0;991.49;63.62;;;;NaN;;;;;0 / 0;108511;2022-11-03 14:50:17:764
-1.4772;-5.5884;-1.8555;-1.5697;-9.2846;-2.7392;-1.8038;-1.2311;0.0098;-1.1099;-2.1634;-0.1586;0.0;-10.8;38.04;19.68;304.83;52.08;153.99;0.0;991.48;64.943;;;;NaN;;;;;0 / 0;109010;2022-11-03 14:50:18:263
-1.5131;-8.6721;-1.5419;-1.3869;-9.7055;0.2244;0.2329;-0.2044;-1.1605;1.8338;0.2654;0.1065;0.0;-12.66;43.02;3.9;330.62;80.91;116.2;0.0;991.47;64.016;;;;NaN;;;;;0 / 0;109511;2022-11-03 14:50:18:764
-2.1141;-7.8317;-3.5458;-2.0189;-8.798;-3.8326;-1.2611;-1.3728;2.7097;-2.5107;-3.1719;0.0851;0.0;-9.42;39.3;21.54;278.65;76.53;126.21;0.0;991.43;61.206;;;;NaN;;;;;0 / 0;110010;2022-11-03 14:50:19:263
-5.0856;-9.546;1.5969;-2.4493;-9.0681;-2.818;-4.8533;-9.8443;9.6202;0.3268;6.4645;-1.1458;0.0;1.08;36.9;24.6;266.89;62.64;141.01;0.0;991.52;61.755;;;;NaN;;;;;0 / 0;110511;2022-11-03 14:50:19:764
-1.0463;-11.4637;-2.3774;-2.8331;-9.1951;-1.8955;2.7254;-2.6421;1.9362;-2.6493;-0.4285;-0.731;0.0;0.66;38.58;19.92;315.94;72.72;64.14;0.0;991.47;64.426;;;;NaN;;;;;0 / 0;111011;2022-11-03 14:50:20:264
-7.894;-11.4374;-12.5842;-3.9758;-7.7653;-4.4792;2.2807;6.9991;-5.3014;1.4056;0.5092;-1.9252;0.0;17.16;21.78;33.24;191.77;62.82;145.42;0.0;991.52;65.543;;;;NaN;;;;;0 / 0;111511;2022-11-03 14:50:20:764
-0.826;-6.5437;-0.7135;-1.9897;-9.5477;1.0256;-0.2896;-0.2688;0.9591;1.3781;-1.883;0.459;1.0;5.4;40.5;13.74;299.76;80.12;64.78;0.0;991.43;64.065;;;;NaN;;;;;0 / 0;112011;2022-11-03 14:50:21:264
-0.3591;-6.2492;-0.51;-2.3919;-7.7373;-5.5302;1.8915;0.9327;4.187;0.0702;-0.0284;-0.7847;1.0;12.12;21.18;35.64;171.55;56.51;166.05;0.0;991.48;61.448;;;;NaN;;;;;0 / 0;112510;2022-11-03 14:50:21:763
-2.4038;-7.5708;-11.9019;-1.855;-9.5222;-1.4341;2.1878;0.7543;1.2114;2.7568;-6.2605;-0.2264;2.0;7.56;34.02;24.66;183.06;63.57;161.28;0.0;991.48;63.088;;;;NaN;;;;;0 / 0;113011;2022-11-03 14:50:22:264
-2.5187;-3.8235;1.6472;-3.1596;-7.2418;-5.8089;2.1492;1.6726;3.9941;-0.9713;-0.1891;-0.3932;0.0;18.9;20.82;34.02;148.11;58.2;169.68;0.0;991.49;61.271;;;;NaN;;;;;0 / 0;113515;2022-11-03 14:50:22:768
-1.3384;-9.8189;0.7398;-1.3838;-8.9668;-3.7217;0.3543;3.4216;4.0641;1.0953;1.905;0.6514;0.0;6.42;30.78;30.06;227.53;61.16;147.64;0.0;991.49;63.173;;;;NaN;;;;;0 / 0;114010;2022-11-03 14:50:23:263
-2.6935;-20.0089;0.5363;0.0538;-8.9765;-3.9483;-9.5352;-8.7555;4.1183;-1.0855;-3.7272;-0.7408;1.0;-2.94;30.36;31.44;267.18;74.33;114.11;0.0;991.53;60.841;;;;NaN;;;;;0 / 0;114510;2022-11-03 14:50:23:763
7.7623;-20.5836;-0.6823;-3.2462;-8.3278;-4.0349;-0.5821;7.1043;6.6877;1.9444;5.7858;2.3288;1.0;30.54;26.58;21.36;184.58;55.32;122.22;0.0;991.58;61.642;;;;NaN;;;;;0 / 0;115011;2022-11-03 14:50:24:264
-1.2809;-18.3234;0.6345;-2.3447;-9.4314;-1.3117;1.818;-5.9567;-0.5079;-4.0519;2.6906;-0.3883;1.0;18.24;36.18;17.7;295.64;76.11;36.96;0.0;991.51;57.876;;;;NaN;;;;;0 / 0;115511;2022-11-03 14:50:24:764
-10.5779;-19.3529;7.0393;-3.6742;-7.8324;-4.6178;-2.9198;-9.1982;-2.0862;-2.0879;-2.525;1.0699;1.0;31.98;24.12;20.4;118.85;53.43;154.67;0.0;991.51;68.574;;;;NaN;;;;;0 / 0;116010;2022-11-03 14:50:25:263
-1.7909;-12.1964;-1.2785;-2.1862;-9.5183;0.8906;1.2142;-3.0468;-2.0685;-3.496;2.8805;-0.4494;2.0;18.42;38.4;9.84;269.17;75.39;58.66;0.0;991.64;61.753;;;;NaN;;;;;0 / 0;116511;2022-11-03 14:50:25:764
0.7398;-3.4333;0.7853;-2.4863;-8.7249;-3.7234;1.2653;0.2324;-0.9237;-1.0452;-0.164;-0.0712;2.0;24.66;28.2;23.64;138.05;55.3;150.87;0.0;991.53;65.702;;;;NaN;;;;;0 / 0;117010;2022-11-03 14:50:26:263
-1.5682;-9.2299;-1.1157;-1.7319;-9.6284;0.6822;0.1015;3.1374;-7.2977;1.4997;1.0498;-0.2673;1.0;19.14;36.36;12.36;143.83;71.05;138.71;0.0;991.52;68.357;;;;NaN;;;;;0 / 0;117511;2022-11-03 14:50:26:764
4.7022;-5.562;16.25;-3.5528;-8.1542;-4.13;-1.0632;6.2675;5.217;-0.507;6.1621;1.0754;0.0;32.76;25.32;16.56;139.22;67.61;145.87;0.0;991.55;65.994;;;;NaN;;;;;0 / 0;118011;2022-11-03 14:50:27:264
-0.8068;-7.8485;0.0982;-1.764;-9.5652;-1.2514;1.9125;5.586;-0.8819;0.8473;-3.0717;0.3179;0.0;12.18;33.72;21.66;187.58;68.82;148.03;0.0;991.52;64.173;;;;NaN;;;;;0 / 0;118510;2022-11-03 14:50:27:763
-3.304;-4.6711;0.5291;-3.43;-8.2062;-4.1308;-8.934;5.7546;0.312;-6.1258;-7.357;-1.9338;1.0;24.12;25.62;24.18;140.94;70.73;163.08;0.0;991.59;63.228;;;;NaN;;;;;0 / 0;119011;2022-11-03 14:50:28:264
-0.2155;-4.4365;-0.8475;-2.1354;-9.0342;-3.1611;-0.764;-10.278;3.6902;4.1759;1.6735;-0.3999;1.0;21.6;25.38;25.02;201.7;46.02;134.18;0.0;991.55;67.885;;;;NaN;;;;;0 / 0;119510;2022-11-03 14:50:28:763
-2.0853;-3.9911;1.5036;-1.319;-8.1693;-5.2623;-5.2845;4.8893;4.6829;-1.7123;-5.1548;-1.6002;0.0;21.48;23.46;27.66;137.61;64.81;171.34;0.0;991.53;59.462;;;;NaN;;;;;0 / 0;120010;2022-11-03 14:50:29:263
0.565;-6.9243;0.5914;-1.0292;-9.4095;-2.5636;0.8114;0.1245;3.0879;3.0305;-2.4853;-1.7194;0.0;25.98;25.62;21.12;97.63;61.3;-174.65;0.0;991.54;66.35;;;;NaN;;;;;0 / 0;120511;2022-11-03 14:50:29:764
-8.3417;-15.3953;2.6695;-0.3084;-8.7004;-4.5142;-2.3755;3.0785;5.5413;-2.3305;-2.7816;0.2317;1.0;16.68;21.24;33.96;187.66;70.31;147.64;0.0;991.5;61.639;;;;NaN;;;;;0 / 0;121010;2022-11-03 14:50:30:263
-2.6408;-4.7645;-3.7445;-2.5159;-8.7918;-3.5418;0.3516;-8.8493;5.6582;3.1319;-5.302;-2.45;1.0;26.04;20.04;28.5;154.17;57.01;153.02;0.0;991.71;65.259;;;;NaN;;;;;0 / 0;121511;2022-11-03 14:50:30:764
-2.5714;-9.953;0.7254;-0.1736;-9.4451;-2.6326;-3.5206;-9.4984;0.7387;-1.7575;-0.1848;-0.5263;1.0;3.72;35.76;24.9;288.32;81.88;73.51;0.0;992.08;66.772;;;;NaN;;;;;0 / 0;122010;2022-11-03 14:50:31:263
-1.6759;-12.2442;-3.0191;-1.1054;-8.256;-5.1756;-6.451;-17.2144;-1.0137;1.5595;1.0424;-0.4952;1.0;15.06;35.76;30.06;190.16;59.85;150.11;0.0;991.7;71.712;;;;NaN;;;;;0 / 0;122511;2022-11-03 14:50:31:764
-7.1781;-15.5605;-1.257;-0.8451;-9.0576;-3.6627;-7.1423;-12.2059;5.8103;-2.6176;-0.8146;1.1157;1.0;16.5;38.82;19.2;236.91;82.09;91.75;0.0;991.87;62.99;;;;NaN;;;;;0 / 0;123011;2022-11-03 14:50:32:264
-4.9084;-16.3147;-5.3729;-1.3878;-8.5634;-4.573;-9.1398;-5.7638;20.8207;0.1631;-1.8512;0.6404;1.0;17.82;28.2;27.9;129.97;58.07;170.72;0.0;991.85;71.672;;;;NaN;;;;;0 / 0;123510;2022-11-03 14:50:32:763
13.8891;-15.8263;3.5769;-0.8515;-9.7426;-0.7256;-3.8627;-3.5718;-10.6639;-3.6872;3.9043;1.5763;1.0;16.08;38.22;13.5;299.17;82.06;24.32;0.0;991.18;57.0;;;;NaN;;;;;0 / 0;124012;2022-11-03 14:50:33:265
-9.2659;-22.882;3.462;-2.5104;-8.06;-4.9903;-16.3039;-13.5315;-19.8767;0.6133;7.5879;-0.048;1.0;30.06;25.02;21.54;135.79;62.99;154.2;0.0;991.51;59.063;;;;NaN;;;;;0 / 0;124511;2022-11-03 14:50:33:764
4.0223;-15.5078;-8.1861;-1.2533;-9.6233;1.4112;-1.7634;-1.6561;-4.6075;0.295;2.3485;1.1047;1.0;18.48;39.48;6.84;231.56;84.29;68.91;0.0;991.5;64.484;;;;NaN;;;;;0 / 0;125011;2022-11-03 14:50:34:264
-15.9651;-24.3065;-38.069;-2.1897;-8.6719;-4.0216;2.2304;6.7661;5.4964;1.507;-1.2495;-3.0358;1.0;26.52;27.84;27.0;120.49;59.28;169.52;0.0;991.63;61.812;;;;NaN;;;;;0 / 0;125511;2022-11-03 14:50:34:764
-1.6735;-10.3145;-3.7541;-1.221;-9.646;1.2782;1.4341;-4.2814;-3.3755;-1.6738;0.4542;0.1383;1.0;19.8;41.22;7.68;276.68;83.73;27.06;0.0;991.64;67.932;;;;NaN;;;;;0 / 0;126011;2022-11-03 14:50:35:264
2.0853;-1.257;2.1332;-1.695;-8.8319;-3.9108;2.4181;2.1877;2.7592;-0.6909;-3.4309;0.594;1.0;29.34;31.38;19.8;121.59;50.33;141.2;0.0;991.58;65.532;;;;NaN;;;;;0 / 0;126511;2022-11-03 14:50:35:764
-1.3216;-8.1645;0.4142;0.1348;-9.5714;2.1309;-3.8386;-2.1605;-1.4557;0.4203;-6.6209;0.5415;1.0;19.62;42.18;4.98;120.93;72.71;129.43;0.0;991.61;63.494;;;;NaN;;;;;0 / 0;127010;2022-11-03 14:50:36:263
-6.8238;-12.0527;-30.7377;0.4779;-8.4998;-4.8678;-0.1427;6.8933;5.8829;4.05;-0.8445;-0.6668;0.0;18.36;27.48;31.86;124.84;54.1;176.16;0.0;991.9;65.644;;;;NaN;;;;;0 / 0;127516;2022-11-03 14:50:36:769
-1.0558;-11.1309;-0.2682;-1.2245;-9.6918;0.8603;-0.8034;2.6501;-0.9178;1.5748;5.2128;0.1212;1.0;27.6;38.64;7.98;162.24;76.03;117.54;0.0;991.68;63.718;;;;NaN;;;;;0 / 0;128010;2022-11-03 14:50:37:263
0.2298;-3.7804;-0.3711;-2.3285;-8.3792;-4.5318;1.038;2.6879;1.8287;-1.3115;-0.7486;-1.0211;1.0;31.8;26.82;25.5;113.43;63.66;176.32;0.0;991.74;62.059;;;;NaN;;;;;0 / 0;128512;2022-11-03 14:50:37:765
-0.5291;-7.3505;0.0311;-0.8113;-9.7352;0.8594;0.275;3.2011;-1.3886;2.4551;0.0614;-0.1384;1.0;22.74;40.2;13.14;159.86;77.62;132.74;0.0;991.73;70.502;;;;NaN;;;;;0 / 0;129011;2022-11-03 14:50:38:264
-2.2984;-3.3351;1.4964;-2.7437;-8.0635;-4.8602;1.4628;4.3022;3.9815;-1.5864;-1.1768;0.0601;1.0;31.8;22.92;28.44;115.05;64.67;-179.3;0.0;991.67;67.181;;;;NaN;;;;;0 / 0;129510;2022-11-03 14:50:38:763
-3.383;-13.0631;0.6273;-1.6858;-9.5288;-1.5905;0.2373;2.4728;1.2075;-0.2798;1.7694;-0.8745;1.0;32.04;32.34;14.82;82.99;51.87;169.4;0.0;991.72;66.337;;;;NaN;;;;;0 / 0;130011;2022-11-03 14:50:39:264
-3.2801;-2.6767;0.0838;0.5495;-8.6529;-4.582;-4.3228;0.6488;4.7807;-1.4313;0.1475;-0.3614;1.0;10.5;26.58;37.32;186.93;76.9;157.79;0.0;991.68;60.923;;;;NaN;;;;;0 / 0;130511;2022-11-03 14:50:39:764
-2.0949;-10.8772;-0.261;-1.9044;-8.6622;-4.1845;1.0855;-1.6763;4.3593;2.9425;-1.6906;-0.4604;1.0;29.22;23.34;29.28;138.8;53.52;156.33;0.0;991.76;69.273;;;;NaN;;;;;0 / 0;131011;2022-11-03 14:50:40:264
-3.1364;-18.5557;1.6592;0.6428;-9.2724;-3.1272;-8.9438;-6.9202;4.5972;-1.9053;-4.7828;-0.8336;1.0;8.34;29.22;33.96;240.18;78.03;115.86;0.0;991.68;60.492;;;;NaN;;;;;0 / 0;131512;2022-11-03 14:50:40:765
1.9154;-13.5922;2.3487;-0.6952;-8.623;-4.6184;-2.197;0.1353;6.9719;3.3946;3.8707;0.3332;1.0;23.22;22.92;31.92;175.83;54.98;146.31;0.0;991.79;66.687;;;;NaN;;;;;0 / 0;132011;2022-11-03 14:50:41:264
1.8387;-16.523;-10.2571;-0.7763;-9.4973;-2.3172;-1.029;-6.5182;4.7832;-1.1655;6.2385;-3.0052;1.0;21.72;31.8;25.38;287.56;76.27;43.5;0.0;991.77;67.091;;;;NaN;;;;;0 / 0;132511;2022-11-03 14:50:41:764
-10.2595;-20.6338;-16.2261;-3.4561;-7.827;-4.7921;-5.6206;-3.9265;0.5112;0.9737;2.0687;0.4352;1.0;39.24;20.88;19.62;137.14;61.73;147.02;0.0;991.91;66.377;;;;NaN;;;;;0 / 0;133011;2022-11-03 14:50:42:264
-0.4142;-16.0226;1.391;-1.9602;-9.558;0.9859;1.23;-4.1635;-0.9045;-2.5675;0.6716;0.316;1.0;33.0;35.52;8.22;228.11;80.35;63.58;0.0;991.84;59.865;;;;NaN;;;;;0 / 0;133510;2022-11-03 14:50:42:763
-6.6131;-2.3128;-11.4566;-2.3131;-8.4696;-4.3687;-4.2377;-5.0388;-15.2189;-1.1222;-2.0461;2.3246;0.0;38.28;26.52;20.7;151.04;60.43;135.83;0.0;991.75;61.329;;;;NaN;;;;;0 / 0;134011;2022-11-03 14:50:43:264
-1.9154;-10.925;1.3719;-1.458;-9.6515;0.945;-6.6395;-0.0693;-35.516;-0.5724;4.6068;-0.2667;2.0;32.7;36.24;13.14;140.22;75.28;140.72;0.0;991.85;65.686;;;;NaN;;;;;0 / 0;134510;2022-11-03 14:50:43:763
0.0814;-2.9185;-0.6177;-1.7445;-8.9485;-3.6128;-0.8101;0.5852;5.26;-1.843;-1.1255;0.4113;0.0;34.14;25.08;26.82;138.8;59.29;153.55;0.0;991.74;59.612;;;;NaN;;;;;0 / 0;135011;2022-11-03 14:50:44:264
-1.1013;-9.2946;-0.4717;-0.7667;-9.6647;1.4749;-0.9068;0.8825;-2.3871;0.7636;-2.8311;-0.566;1.0;29.46;35.7;13.86;108.16;76.09;171.9;0.0;991.71;66.676;;;;NaN;;;;;0 / 0;135511;2022-11-03 14:50:44:764
-3.0215;-5.4184;2.083;-2.2062;-8.431;-4.4968;-0.4705;3.87;5.1336;-2.3311;-3.2128;1.0161;2.0;31.74;17.7;30.78;115.38;70.59;-169.91;0.0;991.76;61.821;;;;NaN;;;;;0 / 0;136010;2022-11-03 14:50:45:263
-0.34;-5.9762;0.0862;-0.9203;-9.3483;-2.8166;-0.7101;-4.1314;4.9761;0.777;2.3057;0.6416;2.0;23.76;21.3;32.1;158.77;65.76;158.11;0.0;991.74;59.981;;;;NaN;;;;;0 / 0;136511;2022-11-03 14:50:45:764
-6.1845;-14.2865;-0.5171;-0.0782;-9.5986;-2.0079;-0.4366;-3.1197;2.3551;-2.5986;4.2024;-2.1628;0.0;19.32;27.96;30.54;299.95;75.51;37.59;0.0;991.85;62.214;;;;NaN;;;;;0 / 0;137011;2022-11-03 14:50:46:264
-0.8715;-6.9411;4.2737;-1.6503;-8.6382;-4.3391;-5.8271;4.2927;6.8722;2.4502;3.5531;1.5121;0.0;38.88;19.5;22.38;127.94;64.48;159.32;0.0;991.85;60.954;;;;NaN;;;;;0 / 0;137512;2022-11-03 14:50:46:765
-3.1843;-12.1293;-8.1765;-1.7022;-9.5087;-1.6901;-0.273;-6.5785;2.3293;-3.0574;3.0021;-1.2258;0.0;32.1;28.98;24.0;275.54;76.92;40.84;0.0;991.8;68.419;;;;NaN;;;;;0 / 0;138010;2022-11-03 14:50:47:263
-6.2851;-12.419;-10.3696;-2.7003;-8.4832;-4.1127;-7.1091;-4.8385;-7.9974;-1.8894;-0.6417;0.5659;0.0;44.7;22.44;11.64;108.39;57.47;157.13;0.0;991.85;65.844;;;;NaN;;;;;0 / 0;138516;2022-11-03 14:50:47:769
-2.2913;-11.8899;-0.7063;-0.5783;-9.3875;2.7768;-9.1377;-4.7434;-20.8393;-0.8906;8.1682;0.109;1.0;33.54;36.54;0.96;175.67;81.0;95.23;0.0;991.91;63.219;;;;NaN;;;;;0 / 0;139011;2022-11-03 14:50:48:264
-14.8782;-22.9275;-15.3977;-2.0725;-8.8943;-3.5729;3.4156;6.6222;5.1052;-5.3127;-6.4669;-2.7975;0.0;42.0;17.94;24.3;146.56;59.71;143.25;0.0;991.91;65.413;;;;NaN;;;;;0 / 0;139512;2022-11-03 14:50:48:765
-2.1548;-12.5555;-5.9259;-1.6203;-9.6539;-0.5898;-0.3286;-0.0525;1.1069;6.9608;-2.9123;-0.1952;1.0;31.44;28.26;27.0;178.93;68.97;131.79;0.0;991.84;67.7;;;;NaN;;;;;0 / 0;140015;2022-11-03 14:50:49:268
0.2562;-3.0718;2.6719;-3.2656;-8.2139;-4.247;2.1212;6.3249;6.2127;-0.5999;-0.8036;0.3955;1.0;38.34;15.12;30.66;123.84;69.17;178.13;0.0;991.82;64.3;;;;NaN;;;;;0 / 0;140510;2022-11-03 14:50:49:763
-0.9098;-7.5037;0.2059;-1.3349;-9.6302;1.2833;-0.2621;0.5511;-0.2609;4.3732;-7.2641;-0.2343;1.0;23.34;33.36;27.84;167.12;73.51;149.65;0.0;991.8;64.246;;;;NaN;;;;;0 / 0;141011;2022-11-03 14:50:50:264
-3.8188;-2.217;2.1763;-3.3049;-8.4069;-3.8172;1.2938;6.7334;8.0574;-1.0849;-3.043;0.7559;0.0;37.68;17.04;28.56;113.4;67.99;-175.16;0.0;991.84;63.776;;;;NaN;;;;;0 / 0;141510;2022-11-03 14:50:50:763
0.4046;-13.5491;4.1204;-1.87;-9.2157;-2.7827;2.2387;1.8102;5.4786;1.0037;-0.6264;0.831;0.0;18.18;23.34;36.24;169.24;63.34;160.32;0.0;991.83;68.303;;;;NaN;;;;;0 / 0;142014;2022-11-03 14:50:51:267
-2.8874;-4.4005;-2.7174;0.639;-9.559;-2.0947;-6.4356;-10.2057;4.4027;-1.0788;4.6533;-0.2197;0.0;3.54;30.3;35.04;304.31;77.81;57.23;0.0;991.85;63.328;;;;NaN;;;;;0 / 0;142510;2022-11-03 14:50:51:763
-0.2562;-16.444;3.9385;-4.0019;-8.1272;-3.7554;-0.2813;-3.6023;8.2829;2.832;1.2837;-0.2081;0.0;39.6;13.38;26.34;152.99;57.34;142.3;0.0;991.88;65.597;;;;NaN;;;;;0 / 0;143011;2022-11-03 14:50:52:264
-0.5914;-15.8215;2.0686;-1.8774;-9.4231;1.9623;2.7057;-3.5466;-6.0205;-3.1936;3.3979;0.1768;2.0;18.78;39.84;17.82;308.48;73.85;23.78;0.0;991.86;58.523;;;;NaN;;;;;0 / 0;143510;2022-11-03 14:50:52:763
-9.0863;-3.0047;-4.5179;-3.2336;-8.0943;-4.494;-8.5054;-6.1204;10.2284;1.8784;3.4199;1.3625;2.0;35.82;15.06;27.24;154.62;62.53;145.85;0.0;991.97;64.055;;;;NaN;;;;;0 / 0;144010;2022-11-03 14:50:53:263
-2.9736;-9.8069;1.8771;-1.4081;-9.2823;2.833;0.5223;-3.8693;-2.7253;-2.1753;-3.8598;0.2183;2.0;11.34;40.32;16.86;320.22;74.98;25.3;0.0;991.94;68.828;;;;NaN;;;;;0 / 0;144511;2022-11-03 14:50:53:764
0.9194;-1.3671;1.7478;-3.2398;-8.3324;-4.0305;2.5933;1.5781;4.6266;-1.1912;-7.3991;-1.3583;0.0;24.06;19.68;33.72;175.34;61.07;147.78;0.0;991.87;68.057;;;;NaN;;;;;0 / 0;145012;2022-11-03 14:50:54:265
-2.3415;-11.0471;0.7039;-1.4301;-9.553;1.6929;0.0055;2.0899;-1.6809;0.7343;1.8372;0.145;1.0;17.04;36.66;17.82;227.84;72.65;109.93;0.0;991.96;64.588;;;;NaN;;;;;0 / 0;145515;2022-11-03 14:50:54:768
-0.5483;-3.3567;1.4293;-3.2364;-7.9044;-4.8182;1.8214;2.4046;4.4902;-1.328;-0.701;-0.3461;0.0;27.84;15.12;32.94;156.73;68.47;158.58;0.0;991.9;58.521;;;;NaN;;;;;0 / 0;146011;2022-11-03 14:50:55:264
-0.2897;-7.8269;0.328;-2.8405;-9.1908;1.9053;2.2108;-0.063;1.5759;2.3372;8.9904;-0.0706;0.0;22.5;34.56;18.66;192.88;67.86;123.28;0.0;991.89;65.434;;;;NaN;;;;;0 / 0;146512;2022-11-03 14:50:55:765
-1.5993;-5.3178;-2.7773;-2.9896;-7.2833;-5.8469;1.7901;1.173;7.4941;-1.3995;-1.42;-0.2386;1.0;24.72;12.18;36.54;161.4;65.01;160.82;0.0;991.91;63.839;;;;NaN;;;;;0 / 0;147011;2022-11-03 14:50:56:264
-0.6728;-14.0016;2.4756;-1.8311;-9.3076;-2.487;1.7186;1.4902;4.7304;1.2639;0.0889;0.3906;1.0;10.86;27.54;33.54;196.95;65.49;152.05;0.0;991.92;61.862;;;;NaN;;;;;0 / 0;147511;2022-11-03 14:50:56:764
-1.7837;-13.6856;1.8651;-0.6942;-9.5078;-2.2998;-2.0854;-10.4173;5.4553;-1.8564;2.8885;-0.9704;1.0;9.96;31.8;29.94;300.67;74.0;54.19;0.0;992.01;63.766;;;;NaN;;;;;0 / 0;148011;2022-11-03 14:50:57:264
1.3671;-4.5418;5.6674;-4.9444;-7.1837;-4.4852;-1.853;6.4487;4.6312;0.0312;1.2294;-0.136;1.0;36.0;9.96;27.0;158.82;52.33;141.04;0.0;991.97;65.419;;;;NaN;;;;;0 / 0;148511;2022-11-03 14:50:57:764
-0.1556;-14.0519;-3.565;-1.8262;-9.4352;1.9526;0.4112;-0.9895;-0.5304;0.8839;-0.6417;0.0925;1.0;11.1;38.1;17.94;279.28;76.69;73.89;0.0;991.91;65.269;;;;NaN;;;;;0 / 0;149011;2022-11-03 14:50:58:264
0.2682;-5.9906;0.8691;-3.1608;-7.4246;-5.5726;4.4346;4.5372;7.9668;2.8069;-0.1854;-1.6595;1.0;21.9;9.48;36.18;167.46;52.15;156.89;0.0;992.03;68.051;;;;NaN;;;;;0 / 0;149510;2022-11-03 14:50:58:763
-4.7429;-8.4925;-9.9482;-1.1867;-9.4881;2.1767;-0.5707;0.579;-2.3515;1.8192;-0.5483;-0.9808;1.0;11.94;36.72;15.0;261.18;73.36;95.16;0.0;992.01;65.81;;;;NaN;;;;;0 / 0;150011;2022-11-03 14:50:59:264
-0.0694;-5.313;0.5746;-3.538;-7.1091;-5.7544;1.9602;1.7434;9.7264;0.157;-2.0064;0.5885;1.0;22.5;10.8;35.88;169.68;59.1;154.94;0.0;991.92;58.699;;;;NaN;;;;;0 / 0;150511;2022-11-03 14:50:59:764
1.4605;-8.1597;1.9728;-3.087;-9.1248;-1.838;3.889;4.0871;2.7095;0.449;-1.3271;-0.2496;1.0;18.66;26.4;28.32;186.24;65.05;142.2;0.0;991.9;64.864;;;;NaN;;;;;0 / 0;151010;2022-11-03 14:51:00:263
-3.6751;-4.13;1.0367;-0.5997;-9.3449;-2.9126;-6.2336;-8.0831;4.974;-2.4239;-4.4804;0.8011;0.0;7.14;29.22;31.32;270.54;78.7;87.24;0.0;991.94;58.895;;;;NaN;;;;;0 / 0;151511;2022-11-03 14:51:00:764
-0.0479;-8.8349;3.0143;-2.3468;-8.7317;-3.7974;-12.7158;-16.0827;11.5573;1.8528;5.85;1.1083;0.0;24.18;21.54;29.88;176.45;54.99;143.08;0.0;991.94;60.542;;;;NaN;;;;;0 / 0;152010;2022-11-03 14:51:01:263
-1.3886;-12.3424;0.4477;-1.4659;-9.5324;-1.7764;1.6382;-5.5445;3.5984;-2.5626;1.4145;-1.7633;1.0;10.44;32.94;26.64;307.9;71.75;47.33;0.0;991.91;59.325;;;;NaN;;;;;0 / 0;152511;2022-11-03 14:51:01:764
-12.5387;-18.0409;-12.7566;-3.4375;-8.3858;-3.7459;-4.253;4.7753;-1.6293;0.2627;-4.6093;0.8762;1.0;33.9;21.66;21.96;139.79;59.94;148.39;0.0;991.99;59.735;;;;NaN;;;;;0 / 0;153011;2022-11-03 14:51:02:264
-4.9228;-11.933;-0.5004;-1.604;-9.5144;1.7533;-0.6609;-1.3556;-4.6743;-0.4404;2.3082;1.1792;2.0;18.18;39.18;12.12;281.81;80.09;39.65;0.0;991.95;65.308;;;;NaN;;;;;0 / 0;153510;2022-11-03 14:51:02:763
-0.8332;-6.2348;0.2705;-3.3194;-7.424;-5.4805;2.1893;2.2714;7.3959;1.3689;-0.42;-0.6668;2.0;29.82;13.02;32.76;163.73;52.72;147.93;0.0;991.98;58.005;;;;NaN;;;;;0 / 0;154012;2022-11-03 14:51:03:265
-1.6664;-10.135;0.7542;-1.4527;-9.4452;-2.2019;0.7368;2.2;3.7198;1.471;-0.0675;-0.1812;2.0;11.04;31.08;30.54;187.17;71.06;155.87;0.0;991.93;62.065;;;;NaN;;;;;0 / 0;154516;2022-11-03 14:51:03:769
-4.3838;-10.1541;1.1444;-0.8769;-9.3234;-2.9113;-3.3225;-7.372;4.5848;-2.7159;-2.6038;0.0882;1.0;9.06;31.2;31.08;288.23;76.88;67.37;0.0;991.95;59.419;;;;NaN;;;;;0 / 0;155010;2022-11-03 14:51:04:263
-2.3703;-9.9817;1.2282;-3.0546;-8.7503;-3.2051;6.0545;4.9626;12.1717;-0.3427;-1.7895;0.7192;1.0;7.44;27.18;34.14;232.56;63.16;136.38;0.0;991.89;65.07;;;;NaN;;;;;0 / 0;155511;2022-11-03 14:51:04:764
-0.6033;-13.1852;-3.067;-1.9927;-9.5758;-0.7097;0.3072;-4.9118;0.5086;-2.9535;1.9875;-1.9552;1.0;12.18;36.9;22.38;295.97;73.9;56.85;0.0;991.96;63.24;;;;NaN;;;;;0 / 0;156011;2022-11-03 14:51:05:264
-3.0478;-8.5715;-2.9353;-2.8047;-8.384;-4.2441;-7.6511;-16.3658;-25.9166;-3.8692;-2.2013;1.2311;1.0;22.5;24.12;31.26;168.3;54.84;148.84;0.0;992.13;63.609;;;;NaN;;;;;0 / 0;156511;2022-11-03 14:51:05:764
-1.0606;-9.2611;-0.2634;-2.1784;-9.3375;2.0581;1.1106;0.584;-3.1547;1.1961;-2.3833;-0.2258;1.0;11.7;40.74;14.64;270.91;75.83;83.0;0.0;992.0;64.58;;;;NaN;;;;;0 / 0;157010;2022-11-03 14:51:06:263
0.0096;-0.3256;1.4198;-3.1007;-7.305;-5.7613;5.143;1.1971;7.5402;0.0623;-1.1182;-0.362;1.0;18.78;14.82;38.7;182.95;64.24;151.81;0.0;992.0;57.949;;;;NaN;;;;;0 / 0;157511;2022-11-03 14:51:06:764
-1.2641;-8.7703;-0.2083;-1.2608;-9.6469;-1.232;0.5521;4.6739;2.0891;2.5876;-2.2086;0.4639;1.0;1.5;34.62;28.68;205.99;69.37;162.38;0.0;991.88;61.952;;;;NaN;;;;;0 / 0;158010;2022-11-03 14:51:07:263
-3.213;-5.0209;1.5347;-2.6317;-7.9396;-5.1192;5.0427;4.2693;6.2134;-1.6127;0.4682;-0.7273;0.0;15.24;21.48;36.9;174.29;72.8;162.5;0.0;991.92;60.189;;;;NaN;;;;;0 / 0;158512;2022-11-03 14:51:07:765
-1.154;-12.1988;2.5642;-1.8684;-9.3329;-2.3613;-0.0972;-2.7126;2.9718;2.193;-4.6801;0.8567;0.0;3.18;31.98;31.44;233.28;65.24;145.35;0.0;992.01;63.636;;;;NaN;;;;;0 / 0;159011;2022-11-03 14:51:08:264
0.4477;-14.1955;-0.0718;-0.8132;-9.6034;-1.8119;-5.7328;-8.9211;4.0194;-0.6976;0.2343;0.1371;1.0;4.02;34.98;28.74;310.11;70.96;58.38;0.0;991.94;61.587;;;;NaN;;;;;0 / 0;159510;2022-11-03 14:51:08:763
-4.5226;-2.3032;-6.8429;-3.413;-8.2007;-4.1558;1.2343;-6.0835;-4.1356;2.8937;5.4706;0.7314;1.0;32.28;19.2;27.12;163.53;60.82;141.0;0.0;992.07;68.994;;;;NaN;;;;;0 / 0;160011;2022-11-03 14:51:09:264
-1.2689;-14.2075;-0.5986;-2.6475;-9.2584;1.8556;2.8008;-7.7147;-1.1948;-1.5296;2.5042;-1.2447;1.0;18.96;39.9;12.66;303.64;73.7;24.33;0.0;991.92;60.154;;;;NaN;;;;;0 / 0;160510;2022-11-03 14:51:09:763
-10.463;-14.3152;-13.4677;-1.9768;-8.7259;-4.0151;-0.7526;2.8957;-9.3735;-0.3958;-2.335;3.5316;1.0;19.32;26.04;31.44;173.47;53.47;150.97;0.0;992.02;60.004;;;;NaN;;;;;0 / 0;161011;2022-11-03 14:51:10:264
-4.4125;-9.194;-0.2274;-0.73;-9.6978;1.2613;0.2535;-0.3797;0.1585;2.6774;4.1566;-2.3376;1.0;17.64;39.66;14.52;301.64;81.45;30.06;0.0;991.92;61.803;;;;NaN;;;;;0 / 0;161511;2022-11-03 14:51:10:764
0.4932;-4.0989;0.0982;-2.3106;-8.3063;-4.673;2.6195;6.841;6.7296;4.0335;-0.1579;-2.6069;0.0;18.24;18.24;37.98;193.66;54.84;146.78;0.0;991.9;60.54;;;;NaN;;;;;0 / 0;162011;2022-11-03 14:51:11:264
0.3926;-4.2736;0.9625;-2.572;-9.4077;1.0248;2.0285;1.4826;-0.3616;3.7287;-5.9831;-0.8134;0.0;10.14;38.1;22.5;223.87;72.95;132.25;0.0;991.93;62.895;;;;NaN;;;;;0 / 0;162511;2022-11-03 14:51:11:764
-2.8371;-7.9203;1.8316;-1.8957;-8.9083;-3.6357;-1.1808;4.9411;4.0403;-2.6823;-5.0289;1.5359;0.0;6.66;27.12;36.48;180.89;80.22;168.23;0.0;991.96;57.959;;;;NaN;;;;;0 / 0;163011;2022-11-03 14:51:12:264
1.0175;-5.6243;0.0742;-3.234;-8.9784;-2.2581;3.2316;-5.4014;3.7114;1.2046;2.9716;0.1468;0.0;23.88;27.3;29.88;206.26;58.23;128.28;0.0;991.95;65.269;;;;NaN;;;;;0 / 0;163511;2022-11-03 14:51:12:764
-5.3585;-12.1892;1.0965;-0.6864;-9.6193;-1.78;-0.4437;-7.3299;3.7217;-2.1289;2.1579;-1.3589;1.0;7.68;34.92;28.44;317.48;72.9;39.4;0.0;991.98;59.563;;;;NaN;;;;;0 / 0;164011;2022-11-03 14:51:13:264
-1.743;-13.2019;1.1109;-1.5544;-9.3825;-2.3921;1.1019;-1.4587;6.6778;1.2853;3.3704;0.842;1.0;9.42;30.18;32.58;218.57;60.49;146.43;0.0;991.96;61.224;;;;NaN;;;;;0 / 0;164510;2022-11-03 14:51:13:763
-1.8507;-14.9476;-6.7089;-1.9751;-9.5958;-0.435;0.28;-4.3962;0.9809;-2.6139;2.8958;-2.723;1.0;11.46;37.62;22.26;309.26;67.73;50.28;0.0;992.06;60.973;;;;NaN;;;;;0 / 0;165010;2022-11-03 14:51:14:263
-16.6571;-18.5197;-34.1733;-2.939;-8.336;-4.2477;-12.0756;-4.933;-11.4349;-0.0379;0.2398;0.8463;1.0;31.98;22.74;26.4;137.97;57.64;154.02;0.0;992.05;59.782;;;;NaN;;;;;0 / 0;165511;2022-11-03 14:51:14:764
-3.9696;-9.1438;-5.2316;-0.0141;-9.441;2.6529;-6.8408;-1.6109;-5.253;0.0635;1.0571;0.9947;1.0;14.1;42.48;8.52;283.88;79.77;44.86;0.0;992.0;61.994;;;;NaN;;;;;0 / 0;166010;2022-11-03 14:51:15:263
0.2753;-2.7485;-1.1732;-2.3638;-7.9638;-5.2116;3.422;0.4984;5.4534;0.1649;0.4536;-1.1067;1.0;26.1;18.3;34.74;154.82;65.86;162.43;0.0;991.99;63.425;;;;NaN;;;;;0 / 0;166510;2022-11-03 14:51:15:763
-1.6783;-7.6594;-5.5836;-1.7368;-9.6506;-0.1387;2.6419;1.4526;0.8282;2.4679;-3.0241;0.0271;1.0;10.32;35.58;25.98;180.08;75.07;158.91;0.0;991.98;63.232;;;;NaN;;;;;0 / 0;167011;2022-11-03 14:51:16:264
-3.5769;-3.158;0.7542;-0.3614;-9.4068;-2.7479;-7.4631;-1.7959;4.5388;-3.3518;-4.3717;0.2061;1.0;4.74;32.22;30.96;251.38;82.04;107.38;0.0;991.95;59.355;;;;NaN;;;;;0 / 0;167511;2022-11-03 14:51:16:764
-1.5203;-14.7465;1.4796;-2.4995;-9.0658;-2.7808;2.1188;-1.9262;3.2333;2.5473;-2.4303;1.5573;1.0;7.08;28.98;35.28;218.87;65.71;144.93;0.0;991.99;62.039;;;;NaN;;;;;0 / 0;168011;2022-11-03 14:51:17:264
-1.0319;-10.6234;0.5938;-1.1596;-9.5879;-1.7023;0.3671;-5.805;2.2482;-2.0763;0.8268;-1.6638;1.0;16.44;34.62;26.04;292.39;72.4;54.53;0.0;991.96;59.715;;;;NaN;;;;;0 / 0;168511;2022-11-03 14:51:17:764
-14.7968;-20.8421;-16.1998;-3.2042;-7.9862;-4.7036;-4.3115;6.023;-2.4171;2.4685;-0.3845;-0.6748;1.0;35.28;21.48;24.9;138.93;60.47;153.09;0.0;992.04;61.29;;;;NaN;;;;;0 / 0;169012;2022-11-03 14:51:18:265
-2.6983;-7.9969;-4.3814;-1.0852;-9.5522;1.9361;-2.1901;-1.0999;-3.5211;0.3476;0.4523;0.5366;1.0;20.58;40.74;9.96;248.07;81.78;61.24;0.0;992.0;62.881;;;;NaN;;;;;0 / 0;169510;2022-11-03 14:51:18:763
-0.7973;-3.9002;-0.5387;-2.3594;-7.4832;-5.8826;2.9053;1.9595;5.7437;0.9627;-0.4175;-0.5917;1.0;25.5;16.14;35.22;148.31;61.01;166.22;0.0;991.98;61.369;;;;NaN;;;;;0 / 0;170011;2022-11-03 14:51:19:264
-0.6081;-8.4303;-0.0383;-1.3664;-9.5839;-1.5657;1.1461;1.769;2.6239;2.1264;1.4865;0.1358;1.0;16.92;33.78;26.22;148.35;67.05;163.17;0.0;991.95;63.578;;;;NaN;;;;;0 / 0;170511;2022-11-03 14:51:19:764
-4.0199;-4.5298;0.5578;-1.6024;-8.238;-5.0732;-1.1102;3.4831;3.6367;-2.8191;-3.9105;0.8481;1.0;13.32;23.7;36.78;155.48;77.94;-178.37;0.0;991.96;59.585;;;;NaN;;;;;0 / 0;171011;2022-11-03 14:51:20:264
-2.1715;-6.6274;2.4708;-0.9401;-9.1981;-3.2683;-3.0247;-4.3031;6.0;2.1344;0.4682;0.4138;1.0;10.08;27.48;33.96;209.09;60.67;148.5;0.0;991.96;63.558;;;;NaN;;;;;0 / 0;171511;2022-11-03 14:51:20:764
-1.7741;-13.4174;-5.6147;-1.7103;-9.6513;0.3124;-1.1484;-1.901;-2.1224;-3.5332;0.5122;-0.7389;1.0;11.28;39.24;16.32;310.54;72.77;41.3;0.0;992.01;57.858;;;;NaN;;;;;0 / 0;172010;2022-11-03 14:51:21:263
-11.6457;-14.3296;-35.749;-3.1947;-8.0335;-4.6288;-12.2964;-10.9579;-12.4352;-1.733;0.3296;1.8939;1.0;28.74;22.74;26.94;137.78;50.74;152.22;0.0;991.97;63.216;;;;NaN;;;;;0 / 0;172512;2022-11-03 14:51:21:765
-0.893;-14.0423;-2.1141;-1.4296;-9.5797;1.5349;0.3713;-1.4172;-2.0138;1.5663;1.5409;-0.7719;1.0;14.04;41.22;11.88;200.38;78.49;119.51;0.0;991.95;66.299;;;;NaN;;;;;0 / 0;173011;2022-11-03 14:51:22:264
0.9601;-2.2601;0.407;-3.0808;-7.5536;-5.4425;4.3521;1.4362;8.6244;-0.6176;-0.3271;-1.4903;1.0;23.46;17.88;35.4;145.06;65.17;172.96;0.0;992.02;63.717;;;;NaN;;;;;0 / 0;173512;2022-11-03 14:51:22:765
-0.4501;-8.7559;0.9457;-1.6085;-9.5671;1.4329;0.0044;0.4569;-12.0682;-0.1527;1.2385;-0.1873;1.0;14.7;40.44;15.0;187.89;77.28;130.57;0.0;992.0;60.879;;;;NaN;;;;;0 / 0;174010;2022-11-03 14:51:23:263
-1.8555;-4.4077;3.1316;-2.5465;-7.2847;-6.0513;2.2065;2.4412;6.2644;-1.4453;-1.0907;0.2757;1.0;18.48;17.64;38.34;168.98;71.43;163.62;0.0;992.05;61.93;;;;NaN;;;;;0 / 0;174511;2022-11-03 14:51:23:764
-3.541;-13.9322;1.1444;-1.2205;-9.407;-2.4877;0.1958;-1.0751;2.8588;2.0317;3.0534;0.514;1.0;12.78;31.86;29.52;198.68;58.28;150.15;0.0;991.98;61.131;;;;NaN;;;;;0 / 0;175011;2022-11-03 14:51:24:264
-0.8547;-14.581;1.6257;-0.5708;-9.5971;-1.934;-3.8656;-8.0296;4.5604;-2.2907;1.2599;-0.6626;1.0;9.3;36.36;25.02;312.96;75.93;40.55;0.0;991.94;60.257;;;;NaN;;;;;0 / 0;175510;2022-11-03 14:51:24:763
-0.8739;-7.8198;1.98;-2.8841;-8.1115;-4.6963;-1.0376;-3.6611;10.3278;3.3207;6.6477;0.426;1.0;29.46;20.58;28.32;151.62;58.05;150.85;0.0;992.08;65.188;;;;NaN;;;;;0 / 0;176011;2022-11-03 14:51:25:264
-1.7286;-11.8851;-0.6009;-0.9944;-9.6892;-1.1403;0.2282;-3.6851;2.2225;-2.7892;0.4224;-1.709;1.0;13.02;36.72;21.84;310.14;74.13;36.21;0.0;991.95;64.593;;;;NaN;;;;;0 / 0;176511;2022-11-03 14:51:25:764
-12.1054;-13.4725;-16.8821;-3.4055;-7.6927;-5.0394;-1.1603;6.2226;3.1887;2.3243;0.2184;0.2299;1.0;31.5;19.02;28.38;143.56;58.86;155.18;0.0;991.98;64.115;;;;NaN;;;;;0 / 0;177010;2022-11-03 14:51:26:263
-2.9784;-7.4846;-11.2028;-1.7134;-9.5304;1.5512;-1.7199;-2.4457;-1.3093;0.7282;0.197;0.7284;1.0;16.44;40.44;10.5;255.94;76.86;76.69;0.0;991.97;63.162;;;;NaN;;;;;0 / 0;177511;2022-11-03 14:51:26:764
1.075;-4.4532;0.5986;-3.1047;-7.1796;-5.9147;3.5165;4.9099;6.0775;1.4771;0.6399;-1.8721;1.0;27.78;15.48;34.32;157.51;47.89;152.42;0.0;991.95;60.571;;;;NaN;;;;;0 / 0;178012;2022-11-03 14:51:27:265
0.4381;-5.4232;1.1444;-2.1739;-9.4375;-1.5422;2.6623;4.9843;1.5254;3.1912;-5.8347;-1.1647;1.0;18.36;33.54;25.98;194.25;68.16;137.72;0.0;991.97;64.004;;;;NaN;;;;;0 / 0;178510;2022-11-03 14:51:27:763
-1.3886;-2.3056;2.5307;-0.0506;-9.1329;-3.5717;-3.5168;3.0083;5.3889;-2.3769;-3.2073;0.1273;1.0;2.76;31.26;33.36;205.81;80.61;153.12;0.0;991.96;60.571;;;;NaN;;;;;0 / 0;179011;2022-11-03 14:51:28:264
-2.047;-10.937;2.1021;-0.3286;-9.5759;-1.843;0.4955;2.2039;2.7265;1.9725;0.2587;0.4309;1.0;9.72;34.02;28.38;150.85;67.39;175.0;0.0;991.99;66.827;;;;NaN;;;;;0 / 0;179512;2022-11-03 14:51:28:765
-2.8539;-19.226;1.4796;0.2933;-9.4866;-2.4674;-9.0133;-8.6524;3.5568;-2.5052;-2.8952;0.3252;1.0;-1.26;35.22;29.4;306.17;81.19;64.12;0.0;991.97;62.015;;;;NaN;;;;;0 / 0;180010;2022-11-03 14:51:29:263
-10.1421;-12.9098;11.2435;-2.9217;-8.4449;-4.0395;2.9672;-0.5337;4.9349;1.0085;0.9612;-1.0132;1.0;25.98;23.16;31.08;160.64;57.87;150.74;0.0;992.0;64.638;;;;NaN;;;;;0 / 0;180511;2022-11-03 14:51:29:764
-4.6902;-13.0726;-5.0281;-0.9237;-9.4888;2.2979;1.4552;-4.8935;-7.4003;0.3757;2.5867;-0.1635;1.0;11.7;43.56;9.18;299.96;82.26;26.83;0.0;991.95;66.124;;;;NaN;;;;;0 / 0;181012;2022-11-03 14:51:30:265
0.5052;-0.9457;1.8124;-2.9745;-6.8148;-6.3938;3.9633;8.4165;6.4441;2.9804;-1.1365;-2.8922;1.0;24.72;10.44;38.4;150.64;44.48;163.46;0.0;991.99;65.434;;;;NaN;;;;;0 / 0;181510;2022-11-03 14:51:30:763
-1.5443;-7.0823;0.4022;-1.4429;-9.699;-0.1311;1.0263;1.2783;-0.8529;1.2278;0.6228;-1.0633;1.0;19.08;37.62;19.38;172.19;73.49;139.36;0.0;991.95;66.714;;;;NaN;;;;;0 / 0;182011;2022-11-03 14:51:31:264
2.9951;-5.9738;1.6017;-1.1117;-7.8659;-5.7499;1.6576;5.127;6.5687;0.8821;0.0156;-0.7792;1.0;17.22;20.22;38.04;169.04;64.87;163.61;0.0;991.96;59.898;;;;NaN;;;;;0 / 0;182510;2022-11-03 14:51:31:763
0.0024;-7.6929;-0.1724;-1.2615;-9.718;-0.3727;0.9167;1.6684;0.2506;1.2468;-0.8763;-0.9014;1.0;18.3;37.02;21.42;153.01;70.13;152.94;0.0;991.91;66.848;;;;NaN;;;;;0 / 0;183015;2022-11-03 14:51:32:268
-3.7685;-13.743;2.1261;-0.5421;-9.218;-3.3021;-4.2248;-0.6248;4.856;-2.8808;-1.4364;0.4144;1.0;12.24;32.4;30.3;221.2;82.28;122.31;0.0;991.93;62.107;;;;NaN;;;;;0 / 0;183510;2022-11-03 14:51:32:763
-3.7421;-15.3426;7.0129;-0.7367;-8.737;-4.3923;-4.9906;-3.7299;4.2247;0.2804;2.2862;0.1933;1.0;20.64;27.24;31.62;159.36;50.97;153.8;0.0;992.03;64.018;;;;NaN;;;;;0 / 0;184012;2022-11-03 14:51:33:265
-2.818;-11.921;-3.0335;-0.4232;-9.616;1.8769;-3.192;-2.779;-5.7268;-0.6634;1.6448;0.1352;1.0;15.72;42.78;9.54;288.47;80.49;34.49;0.0;991.96;65.475;;;;NaN;;;;;0 / 0;184510;2022-11-03 14:51:33:763
-14.7824;-16.8318;-19.0082;-2.3782;-7.659;-5.6438;1.7581;6.0597;4.8202;2.6542;-3.569;-2.9539;1.0;28.5;19.08;32.52;140.01;48.57;159.14;0.0;991.97;65.01;;;;NaN;;;;;0 / 0;185011;2022-11-03 14:51:34:264
-1.2378;-10.3863;0.2849;-0.7215;-9.7706;0.4308;0.6233;1.4241;-1.027;2.5076;-0.8176;-0.2044;1.0;16.26;39.06;17.76;123.15;73.46;170.68;0.0;991.9;65.976;;;;NaN;;;;;0 / 0;185510;2022-11-03 14:51:34:763
-0.5028;-7.3242;-1.6735;-2.5277;-6.6881;-6.7119;1.2229;1.5978;7.1955;0.8131;-0.9252;0.2159;1.0;24.54;13.68;37.02;143.29;57.38;171.96;0.0;991.91;64.428;;;;NaN;;;;;0 / 0;186011;2022-11-03 14:51:35:264
0.9361;-7.3816;1.5371;-1.9013;-9.3318;-2.3395;2.9284;2.3859;2.4066;0.9096;-1.3497;-0.6003;1.0;19.02;31.14;28.62;153.93;69.32;163.29;0.0;991.91;65.044;;;;NaN;;;;;0 / 0;186511;2022-11-03 14:51:35:764
-1.0295;-11.0759;-4.0438;-1.6362;-9.6652;-0.2789;0.6953;2.2285;-1.6293;-3.3213;-0.3674;-0.2734;1.0;19.32;38.1;16.02;278.23;79.14;48.6;0.0;991.94;66.507;;;;NaN;;;;;0 / 0;187012;2022-11-03 14:51:36:265
-1.8555;-4.6376;-2.4828;-1.9358;-8.2549;-4.9274;-7.3348;-7.83;-19.4988;-1.397;-0.6503;1.1236;1.0;25.8;26.34;29.1;122.53;44.43;155.57;0.0;992.05;67.066;;;;NaN;;;;;0 / 0;187510;2022-11-03 14:51:36:763
-0.1844;-8.1957;-2.5426;-0.2844;-9.8006;-0.1948;-1.6238;-0.5858;-1.9935;1.5718;2.3882;-0.0444;1.0;21.66;39.48;23.1;155.53;75.91;152.96;0.0;991.91;60.154;;;;NaN;;;;;0 / 0;188011;2022-11-03 14:51:37:264
-1.336;-6.4934;-4.707;-0.1676;-8.8823;-4.1529;-2.0734;1.345;1.6366;-2.9163;-2.7846;0.7571;1.0;16.14;27.18;34.8;172.86;85.81;162.19;0.0;991.93;68.061;;;;NaN;;;;;0 / 0;188511;2022-11-03 14:51:37:764
-4.6711;-18.7328;4.8914;-0.1502;-9.1431;-3.5427;-0.7141;5.7745;7.9385;2.4893;1.7211;0.2776;1.0;9.72;28.92;34.98;202.1;60.56;153.2;0.0;992.01;66.85;;;;NaN;;;;;0 / 0;189011;2022-11-03 14:51:38:264
0.7207;-13.9393;-2.8515;-0.9982;-9.7401;0.5507;-1.1709;-4.7068;-3.699;-3.6554;1.4346;-1.2563;1.0;9.0;42.78;16.08;319.8;75.07;33.14;0.0;991.92;63.421;;;;NaN;;;;;0 / 0;189511;2022-11-03 14:51:38:764
-4.4724;-8.2507;-10.3145;-1.8206;-8.2342;-5.0054;-7.4668;-11.9376;-10.6198;-1.6316;0.2728;1.3307;1.0;14.16;24.0;37.2;172.12;50.63;162.35;0.0;991.9;62.067;;;;NaN;;;;;0 / 0;190012;2022-11-03 14:51:39:265
-0.2011;-10.1972;0.3543;-1.4527;-9.6352;1.1053;1.2683;1.9807;-0.5858;2.0757;1.4768;0.0821;1.0;4.38;42.42;17.46;235.3;80.77;130.47;0.0;991.92;63.139;;;;NaN;;;;;0 / 0;190511;2022-11-03 14:51:39:764
0.5746;-3.3016;-0.2179;-2.3559;-8.264;-4.725;2.2027;3.6624;1.6916;-2.7862;-1.8958;-0.0431;1.0;13.74;24.9;37.2;148.06;74.06;-175.11;0.0;991.88;60.105;;;;NaN;;;;;0 / 0;191011;2022-11-03 14:51:40:264
-0.2993;-7.1374;0.3089;-0.5118;-9.4081;-2.7194;0.2316;-0.8561;1.1632;0.7666;1.9196;0.4217;1.0;3.12;32.64;32.04;246.88;60.08;142.88;0.0;991.86;58.821;;;;NaN;;;;;0 / 0;191516;2022-11-03 14:51:40:769
-3.7373;-14.3799;2.3367;-0.4678;-9.2365;-3.2616;-3.133;-1.8657;4.8011;-2.8259;2.1579;0.0766;1.0;-0.42;33.18;32.64;290.93;84.12;74.48;0.0;991.91;62.919;;;;NaN;;;;;0 / 0;192011;2022-11-03 14:51:41:264
-4.0055;-25.3339;-11.854;-2.9933;-8.3103;-4.2601;4.5136;-0.2157;13.8611;0.0269;-2.2752;0.4816;1.0;26.76;23.34;31.98;155.56;60.32;154.78;0.0;991.95;58.496;;;;NaN;;;;;0 / 0;192511;2022-11-03 14:51:41:764
-1.8268;-9.8477;-3.6799;-1.7718;-9.4347;2.0042;2.9162;-4.3227;-2.7009;0.055;1.0504;1.1144;0.0;9.36;43.98;12.72;318.65;79.38;26.13;0.0;991.9;61.152;;;;NaN;;;;;0 / 0;193010;2022-11-03 14:51:42:263
0.8116;-4.0318;-1.4485;-2.3624;-8.1711;-4.8809;2.6497;4.1871;4.7779;0.3335;-3.8775;-0.4158;0.0;20.58;20.58;38.04;175.4;51.28;153.27;0.0;991.93;56.675;;;;NaN;;;;;0 / 0;193513;2022-11-03 14:51:42:766
0.8763;-6.2755;0.091;-0.9882;-9.6419;-1.4923;0.0305;-0.1746;1.9783;4.0568;-4.7913;0.5457;1.0;-3.6;37.62;28.44;222.88;71.85;163.65;0.0;991.82;58.86;;;;NaN;;;;;0 / 0;194010;2022-11-03 14:51:43:263
-4.3431;-5.641;0.6728;-0.6824;-9.5943;-1.9115;-3.0981;-2.5111;2.6273;-1.3451;-1.3314;0.2837;1.0;-8.64;37.8;24.48;347.98;76.23;36.45;0.0;991.85;58.799;;;;NaN;;;;;0 / 0;194512;2022-11-03 14:51:43:765
-1.403;-4.0821;-4.2497;-1.6034;-8.9196;-3.7469;-2.2369;-3.3366;9.6035;0.7275;-0.4102;-0.6302;1.0;9.78;27.12;36.6;194.96;54.89;158.62;0.0;991.99;62.958;;;;NaN;;;;;0 / 0;195010;2022-11-03 14:51:44:263
-1.5778;-9.704;-4.3981;-0.5702;-9.3882;2.7762;-2.0346;-2.6813;-7.3779;1.992;-4.288;-0.0847;1.0;-6.12;45.18;8.1;347.21;83.78;55.79;0.0;991.92;60.917;;;;NaN;;;;;0 / 0;195511;2022-11-03 14:51:44:764
-0.2442;-6.3952;-0.5291;-2.4249;-7.6344;-5.6574;2.4057;0.2887;6.3996;1.248;0.1597;-0.7939;1.0;7.98;21.9;39.84;183.02;69.5;166.43;0.0;991.88;55.71;;;;NaN;;;;;0 / 0;196011;2022-11-03 14:51:45:264
0.5555;-12.8045;1.4533;-1.97;-9.3539;-2.1895;3.1456;2.8845;3.5685;2.1637;0.5837;-0.4036;1.0;-2.22;37.14;28.5;243.25;68.28;148.89;0.0;991.85;63.431;;;;NaN;;;;;0 / 0;196510;2022-11-03 14:51:45:763
-2.8204;-8.6889;6.1989;-0.3244;-9.4973;-2.4219;-3.5303;-6.7264;3.789;1.2358;-4.8261;-0.8367;1.0;-10.26;37.8;23.58;351.83;75.95;33.44;0.0;991.88;57.968;;;;NaN;;;;;0 / 0;197011;2022-11-03 14:51:46:264
-1.549;-7.0752;1.3048;-2.2146;-8.8189;-3.6731;2.2745;2.2968;7.1304;0.507;7.065;0.0332;1.0;11.34;27.06;35.94;196.42;63.19;153.57;0.0;991.85;57.31;;;;NaN;;;;;0 / 0;197511;2022-11-03 14:51:46:764
-0.3711;-11.1118;-1.5323;-1.3945;-9.5383;1.8015;2.1367;-3.2805;-2.2564;-0.1643;0.4438;0.7039;1.0;-1.32;45.48;10.44;349.1;80.1;24.83;0.0;991.84;64.412;;;;NaN;;;;;0 / 0;198010;2022-11-03 14:51:47:263
-1.9106;-4.9778;-0.2897;-2.0511;-8.1334;-5.0804;-0.8961;3.2154;4.41;0.8687;0.1628;-0.1134;1.0;8.94;23.28;40.26;198.1;51.11;159.45;0.0;991.92;55.39;;;;NaN;;;;;0 / 0;198510;2022-11-03 14:51:47:763
1.1277;-8.447;-0.3328;-1.4872;-9.6153;-1.2264;0.6157;0.0095;0.8505;0.0751;-1.4041;-0.9845;1.0;-0.66;39.24;27.3;221.52;71.06;160.72;0.0;991.85;63.661;;;;NaN;;;;;0 / 0;199011;2022-11-03 14:51:48:264
-1.2617;-8.5691;-0.8667;-0.2732;-9.3571;-2.9222;-3.658;-6.2896;2.089;-0.9627;-2.5439;0.3704;1.0;-8.64;36.18;28.32;302.67;84.65;80.56;0.0;991.81;59.524;;;;NaN;;;;;0 / 0;199510;2022-11-03 14:51:48:763
-7.0057;-18.922;6.2683;-2.6713;-8.5153;-4.065;-5.1149;1.5072;-6.8122;3.4489;6.1548;0.4352;1.0;12.84;27.78;35.16;188.22;61.05;155.4;0.0;991.94;63.369;;;;NaN;;;;;0 / 0;200010;2022-11-03 14:51:49:263
-1.8986;-15.6395;0.3639;-0.7575;-9.4651;-2.4512;1.4446;-0.6339;2.5517;-2.4355;2.1988;1.3936;1.0;1.38;36.66;27.48;316.89;88.04;42.81;0.0;991.87;60.563;;;;NaN;;;;;0 / 0;200511;2022-11-03 14:51:49:764
-4.0845;-15.5988;-4.0247;-1.7462;-9.4479;-1.964;-4.6753;0.5484;3.1682;-0.4942;-2.5281;-0.8196;1.0;20.88;35.22;21.6;173.74;68.75;139.56;0.0;991.82;58.859;;;;NaN;;;;;0 / 0;201011;2022-11-03 14:51:50:264
-1.0032;-8.9618;0.4621;-1.0744;-9.7429;0.3018;-0.7093;0.2376;0.0358;0.1344;-4.7406;-0.6412;1.0;20.64;40.38;12.06;196.6;80.13;108.03;0.0;991.84;60.328;;;;NaN;;;;;0 / 0;201510;2022-11-03 14:51:50:763
-1.221;-9.3473;-0.5602;-1.9005;-9.514;-1.4294;-0.8265;-1.5595;-0.1532;-2.7067;-2.2495;0.5915;1.0;26.76;36.12;12.66;170.47;76.97;122.42;0.0;991.86;57.562;;;;NaN;;;;;0 / 0;202012;2022-11-03 14:51:51:265
-4.8411;-3.383;-5.9116;-4.0235;-6.8588;-5.7392;-4.4714;1.359;-5.4349;0.7789;-1.2129;-1.3956;1.0;37.74;23.88;17.76;105.47;39.36;142.13;0.0;992.01;67.076;;;;NaN;;;;;0 / 0;202511;2022-11-03 14:51:51:764
0.0335;-8.9594;0.1556;-1.946;-9.4812;-1.5777;2.9061;1.2832;3.3614;2.3433;-2.6808;-0.2973;1.0;20.34;36.96;21.3;176.37;76.93;138.89;0.0;991.81;65.544;;;;NaN;;;;;0 / 0;203011;2022-11-03 14:51:52:264
-1.5562;-6.649;-2.7701;-2.8223;-6.756;-6.5238;4.2541;-2.5122;5.4536;-3.1264;-3.9544;1.1059;1.0;28.86;21.0;34.32;131.3;61.86;174.39;0.0;991.81;55.861;;;;NaN;;;;;0 / 0;203511;2022-11-03 14:51:52:764
-1.3695;-11.842;-1.4341;-2.1316;-9.225;-2.5547;1.6217;0.5002;0.9841;2.2077;0.2776;-0.0523;1.0;27.66;32.82;21.66;121.23;56.6;152.54;0.0;991.89;59.328;;;;NaN;;;;;0 / 0;204011;2022-11-03 14:51:53:264
-2.1955;-10.3361;-3.8738;-1.622;-9.615;-1.0441;1.1073;-4.5518;1.0585;-3.0812;0.2202;-0.0798;1.0;24.06;39.42;14.64;281.69;75.48;40.36;0.0;991.83;57.66;;;;NaN;;;;;0 / 0;204510;2022-11-03 14:51:53:763
-7.4534;-11.0543;-16.4943;-4.6658;-4.7396;-7.2067;-3.9273;-4.2054;-5.8324;-1.5388;-2.2507;0.1218;1.0;36.3;19.2;30.12;115.03;39.16;159.73;0.0;991.97;58.515;;;;NaN;;;;;0 / 0;205012;2022-11-03 14:51:54:265
0.6273;-7.5875;-1.1444;-2.0169;-9.1281;-2.963;3.1062;0.0131;1.9144;0.9035;-1.2562;-0.7114;1.0;12.66;25.2;32.34;174.39;62.14;160.95;0.0;991.78;58.657;;;;NaN;;;;;0 / 0;205511;2022-11-03 14:51:54:764
-1.0104;-9.2587;-9.9674;-2.0729;-8.2241;-4.9232;0.7992;-5.5573;4.2648;-1.6041;5.9624;0.6691;1.0;30.36;16.62;38.52;184.35;81.16;138.37;0.0;991.78;55.257;;;;NaN;;;;;0 / 0;206010;2022-11-03 14:51:55:263
-1.2857;-4.8219;0.5962;-1.6121;-8.7301;-4.1661;0.1229;1.3078;4.5923;1.5351;2.2801;-0.4378;1.0;38.46;24.9;8.16;97.06;50.75;151.51;0.0;991.82;64.56;;;;NaN;;;;;0 / 0;206511;2022-11-03 14:51:55:764
-2.739;-13.8747;-1.2761;-0.1399;-9.8048;-0.1262;-6.6958;-4.666;-3.9655;1.0311;0.2068;-1.3437;1.0;25.68;34.08;-4.68;126.42;82.67;124.85;0.0;991.75;57.135;;;;NaN;;;;;0 / 0;207011;2022-11-03 14:51:56:264
-3.2944;-0.0192;-1.6305;-3.9639;-5.892;-6.7633;3.2432;7.6804;1.4407;1.4056;-0.5721;-0.6015;1.0;22.98;10.62;22.32;108.69;27.55;155.22;0.0;991.87;58.951;;;;NaN;;;;;0 / 0;207510;2022-11-03 14:51:56:763
-1.415;-7.0847;-2.8299;-0.133;-9.8021;-0.2662;-1.3754;1.7094;0.0077;-0.4319;-0.3809;-0.0328;1.0;-8.58;27.42;10.5;267.83;83.31;144.33;0.0;991.65;53.149;;;;NaN;;;;;0 / 0;208012;2022-11-03 14:51:57:265
-1.6017;-7.5133;0.9553;-0.6461;-9.534;-2.2037;-1.128;1.9704;4.143;-3.9144;-2.4951;0.6642;0.0;14.7;34.26;28.56;181.11;83.75;151.67;0.0;991.66;55.914;;;;NaN;;;;;0 / 0;208510;2022-11-03 14:51:57:763
-1.5993;-7.5157;2.6432;-2.4502;-8.5177;-4.1971;1.2507;0.5016;7.7884;0.7477;2.9813;0.1615;0.0;24.42;25.14;29.22;148.8;64.61;160.37;0.0;991.82;60.584;;;;NaN;;;;;0 / 0;209011;2022-11-03 14:51:58:264
1.2641;-11.1693;0.4932;-0.2161;-9.7494;1.0355;1.4778;-1.3815;-1.0115;0.4514;-0.0944;0.36;1.0;10.38;41.88;8.16;339.81;86.0;-26.67;0.0;991.64;64.292;;;;NaN;;;;;0 / 0;209511;2022-11-03 14:51:58:764
-1.798;-7.6091;-3.5458;-3.5309;-4.9113;-7.7189;1.6682;-3.677;2.0563;-1.8167;1.3943;1.6044;0.0;26.64;4.08;44.58;161.27;49.4;162.54;0.0;991.72;58.585;;;;NaN;;;;;0 / 0;210011;2022-11-03 14:51:59:264
-4.5873;-12.3544;-3.1771;-1.9593;-7.9752;-5.3597;0.8628;1.829;3.6838;2.2834;3.5116;-1.1806;0.0;35.46;24.6;38.58;126.88;36.72;153.15;0.0;991.76;58.893;;;;NaN;;;;;0 / 0;210511;2022-11-03 14:51:59:764
-1.4868;-9.6992;-1.1253;0.2941;-9.796;0.3495;-0.1456;-3.449;-4.537;0.438;-0.8842;-0.2514;0.0;24.54;50.16;13.5;200.91;88.32;99.4;0.0;991.59;57.614;;;;NaN;;;;;0 / 0;211012;2022-11-03 14:52:00:265
0.4573;-11.1262;-6.2707;-3.3832;-4.7562;-7.8805;3.2659;-1.8688;7.8829;0.3732;-1.4383;-0.7988;0.0;38.94;-8.76;38.34;153.97;53.77;158.3;0.0;991.75;63.247;;;;NaN;;;;;0 / 0;211512;2022-11-03 14:52:00:765
-0.1556;-9.2683;-0.5914;-1.574;-9.5512;-1.5704;3.2428;3.3548;-0.4527;0.9352;0.0535;-0.6265;0.0;33.0;25.62;21.06;122.42;72.74;168.94;0.0;991.64;66.182;;;;NaN;;;;;0 / 0;212010;2022-11-03 14:52:01:263
-1.8986;-10.6401;2.241;0.0085;-9.7901;-0.5688;0.6307;0.5937;0.0229;-2.8307;-2.2813;1.4529;0.0;37.26;28.8;20.22;12.52;86.47;-64.89;0.0;991.6;57.39;;;;NaN;;;;;0 / 0;212511;2022-11-03 14:52:01:764
-16.5613;-18.5772;-1.8962;-2.8583;-8.0497;-4.8169;-0.745;-1.4963;2.3413;4.2364;0.6161;-0.5667;0.0;35.4;14.7;31.08;152.96;55.17;149.32;0.0;991.74;62.002;;;;NaN;;;;;0 / 0;213010;2022-11-03 14:52:02:263
-2.1165;-11.3249;-2.1787;0.3269;-9.7901;0.4652;-0.6094;-3.8092;-4.8825;0.5797;-1.7743;-0.8189;0.0;23.82;37.38;18.6;198.46;84.41;112.13;0.0;991.59;57.28;;;;NaN;;;;;0 / 0;213511;2022-11-03 14:52:02:764
0.8882;-8.7918;-3.122;-4.1513;-4.1367;-7.8628;3.9981;0.8136;7.9299;1.6811;-0.5898;-1.6296;0.0;-3.24;-0.3;29.88;205.93;48.07;165.83;0.0;991.58;59.023;;;;NaN;;;;;0 / 0;214011;2022-11-03 14:52:03:264
1.1803;-6.4024;-1.3408;-1.0522;-9.706;-0.9253;2.1847;2.9469;1.2652;0.2969;-0.8268;-0.4903;0.0;-30.12;19.38;35.94;237.43;77.43;167.35;0.0;991.53;63.903;;;;NaN;;;;;0 / 0;214511;2022-11-03 14:52:03:764
0.5578;-9.9985;-12.692;-1.8938;-8.7804;-3.9354;-0.9217;-1.1007;7.9648;-4.3072;4.3637;0.5152;0.0;35.22;21.12;37.86;49.64;85.17;-93.69;0.0;991.51;59.583;;;;NaN;;;;;0 / 0;215010;2022-11-03 14:52:04:263
-0.3496;-13.4701;-2.1811;-0.6637;-9.5417;-2.1645;0.6518;-1.0122;-0.3447;1.5565;0.7223;-0.3852;0.0;9.72;18.06;22.62;168.09;65.23;163.77;0.0;991.51;65.248;;;;NaN;;;;;0 / 0;215511;2022-11-03 14:52:04:764
-1.2905;-23.4853;2.1715;0.4278;-9.6668;1.5937;-2.0175;-10.4427;-2.573;3.047;4.0345;-0.2398;6.0;7.5;31.62;20.76;119.21;83.3;-148.61;0.0;991.5;57.523;;;;NaN;;;;;0 / 0;216011;2022-11-03 14:52:05:264
-3.5075;-5.0808;-2.6719;-3.815;-3.84;-8.1774;-0.1522;-0.9101;4.8662;-3.2736;-0.7535;1.5408;0.0;36.6;-6.84;31.2;141.15;43.01;163.03;0.0;991.64;62.198;;;;NaN;;;;;0 / 0;216510;2022-11-03 14:52:05:763
-3.8618;-9.5388;-2.7533;-0.7234;-9.2611;-3.143;-0.8783;0.3137;2.2619;2.1063;-0.5085;-0.6852;0.0;33.84;30.18;23.64;107.05;52.33;162.79;0.0;991.55;62.084;;;;NaN;;;;;0 / 0;217011;2022-11-03 14:52:06:264
-2.8874;-8.368;-0.6608;1.1297;-9.4293;2.4457;-2.1281;-1.5627;-5.8167;-0.5174;3.5445;0.8017;0.0;6.48;41.52;12.06;17.47;82.06;-51.35;0.0;991.41;57.511;;;;NaN;;;;;0 / 0;217510;2022-11-03 14:52:06:763
-3.802;-4.8052;-4.051;-2.8024;-6.0391;-7.2004;-0.2215;-1.9554;3.2643;-2.3353;-1.1115;0.7039;0.0;38.88;9.78;21.84;116.87;62.68;173.99;0.0;991.57;59.312;;;;NaN;;;;;0 / 0;218010;2022-11-03 14:52:07:263
0.0239;-6.7926;-0.8787;-0.3512;-8.7583;-4.3976;-1.4086;-4.458;0.9595;0.8583;0.5721;0.3191;0.0;44.58;31.08;27.84;101.64;39.18;150.81;0.0;991.47;62.221;;;;NaN;;;;;0 / 0;218512;2022-11-03 14:52:07:765
-3.5051;-12.3664;-1.2522;0.5615;-9.7886;-0.1952;-1.3779;-8.6761;1.6916;-0.5479;2.062;0.1762;1.0;26.52;55.5;14.28;39.68;84.93;-108.13;0.0;991.43;58.192;;;;NaN;;;;;0 / 0;219010;2022-11-03 14:52:08:263
-2.4373;-5.2675;-2.5067;-3.8272;-4.9778;-7.5328;0.6597;1.6858;5.4666;-0.9358;-0.8048;0.3509;1.0;96.0;23.1;13.14;101.61;41.42;155.57;0.0;991.51;66.716;;;;NaN;;;;;0 / 0;219511;2022-11-03 14:52:08:764
0.1269;-8.0927;-0.3591;-0.399;-9.6881;-1.467;-0.3887;1.7366;-0.3669;1.609;-2.1646;-0.8458;1.0;48.48;61.38;-15.84;63.71;71.54;168.16;0.0;991.4;63.38;;;;NaN;;;;;0 / 0;220012;2022-11-03 14:52:09:265
-0.5291;-10.3385;-0.7805;0.2488;-9.8034;0.0251;-2.3916;-3.6786;-3.4488;-0.5339;-0.7217;0.5329;1.0;30.54;56.22;-8.58;39.44;86.67;-149.25;0.0;991.42;57.79;;;;NaN;;;;;0 / 0;220510;2022-11-03 14:52:09:763
-2.3415;2.3487;-2.387;-4.8963;-4.0761;-7.4553;2.7032;0.5685;6.2127;1.4655;-0.2001;-1.3027;1.0;50.1;5.82;28.74;129.07;47.12;158.48;0.0;991.54;63.258;;;;NaN;;;;;0 / 0;221011;2022-11-03 14:52:10:264
-0.3567;-8.6745;-0.5555;-1.262;-9.6652;-1.0775;2.8302;3.8662;-1.1227;1.077;0.2605;-0.4793;1.0;31.32;47.64;18.72;121.29;75.57;162.67;0.0;991.37;64.319;;;;NaN;;;;;0 / 0;221510;2022-11-03 14:52:10:763
-1.6664;-7.9299;-1.7382;-1.2947;-7.4943;-6.1911;0.2963;-2.758;2.9158;-2.6096;4.2666;2.1957;1.0;22.8;24.36;29.88;145.99;69.23;167.39;0.0;991.32;60.098;;;;NaN;;;;;0 / 0;222011;2022-11-03 14:52:11:264
0.1197;-7.1829;-0.067;-1.311;-9.0399;-3.568;1.8545;-2.7087;-2.2694;1.4227;1.2972;-0.0798;0.0;13.38;19.98;25.32;168.38;59.93;158.49;0.0;991.39;66.129;;;;NaN;;;;;0 / 0;222511;2022-11-03 14:52:11:764
-2.4229;-9.3688;-2.138;0.1099;-9.7723;-0.8121;-1.0389;2.1848;-0.0402;-0.4636;-0.9551;-0.4152;1.0;14.16;29.22;20.58;116.89;82.28;-158.76;0.0;991.32;59.736;;;;NaN;;;;;0 / 0;223011;2022-11-03 14:52:12:264
-2.6336;-9.5699;3.7733;-0.9346;-9.1572;-3.3827;-0.7725;-1.6817;5.0874;-3.4874;-4.2586;1.0613;3.0;15.12;27.66;14.4;92.03;85.4;-145.31;0.0;991.32;61.775;;;;NaN;;;;;0 / 0;223510;2022-11-03 14:52:12:763
-1.561;-6.0504;-1.8459;-2.1789;-6.8861;-6.6335;-8.557;-4.1467;-7.222;1.5119;1.1939;-0.6882;3.0;5.46;0.6;40.92;216.01;27.31;155.46;0.0;991.48;60.969;;;;NaN;;;;;0 / 0;224011;2022-11-03 14:52:13:264
-0.8595;-11.4111;-2.6384;-0.5181;-9.7855;-0.3826;-0.5377;1.4988;-1.1688;-0.0049;-2.4065;-0.8067;3.0;5.1;36.9;30.06;223.3;82.08;134.14;0.0;991.27;63.356;;;;NaN;;;;;0 / 0;224511;2022-11-03 14:52:13:764
-0.3232;-12.3855;-4.707;-4.5134;-4.6081;-7.3868;5.2005;-2.661;5.8856;-2.5449;-1.7468;2.1401;0.0;34.2;0.0;40.26;163.48;53.17;152.99;0.0;991.28;60.789;;;;NaN;;;;;0 / 0;225010;2022-11-03 14:52:14:263
0.8619;-6.1893;-3.6105;-1.0064;-9.6141;-1.6511;2.2849;3.1471;1.529;-0.0476;0.5727;0.3185;0.0;15.66;34.98;29.76;167.72;74.21;160.34;0.0;991.3;69.167;;;;NaN;;;;;0 / 0;225511;2022-11-03 14:52:14:764
-1.391;-14.5283;-1.1612;0.3417;-9.7978;0.236;-1.953;-7.4817;-2.4531;-0.3653;2.0681;-0.2863;2.0;13.02;41.88;17.4;145.04;86.07;173.07;0.0;991.28;58.604;;;;NaN;;;;;0 / 0;226011;2022-11-03 14:52:15:264
-5.392;-4.5801;-3.5913;-7.8867;-2.7133;-5.1583;5.2028;-2.1517;2.6995;-1.1118;0.1933;0.5647;0.0;42.9;-5.7;21.06;176.11;37.93;118.81;0.0;991.24;65.964;;;;NaN;;;;;0 / 0;226511;2022-11-03 14:52:15:764
-1.8627;-5.4615;-3.213;-5.0077;-6.7895;-4.9995;-3.0251;-6.1299;1.7386;1.9407;1.4633;-2.2172;0.0;34.68;9.18;26.4;168.66;25.05;129.32;0.0;991.26;68.235;;;;NaN;;;;;0 / 0;227011;2022-11-03 14:52:16:264
-2.4852;-14.883;-7.0991;1.0477;-9.545;1.9913;-2.5847;-7.3179;-0.2364;0.7318;-2.1646;-0.7047;0.0;2.52;38.22;13.02;3.11;86.9;-16.58;0.0;991.21;56.826;;;;NaN;;;;;0 / 0;227511;2022-11-03 14:52:16:764
-0.7135;-8.3369;-0.1915;-2.0306;-7.763;-5.6376;2.124;-0.1214;1.3807;-3.8295;-2.6099;0.9367;0.0;22.26;16.02;40.8;161.0;74.09;168.34;0.0;991.15;56.424;;;;NaN;;;;;0 / 0;228010;2022-11-03 14:52:17:263
0.4477;-13.7598;1.4102;-1.232;-9.5796;-1.6982;2.5512;0.6848;2.5482;1.3922;1.0968;0.3613;0.0;16.56;33.66;27.54;165.85;69.52;156.91;0.0;991.16;60.381;;;;NaN;;;;;0 / 0;228511;2022-11-03 14:52:17:764
-0.4549;-11.6696;-1.8028;-0.2076;-9.8012;-0.251;1.0719;-3.1924;1.3451;-2.8521;-0.5256;0.7656;0.0;8.7;41.04;19.8;341.63;75.34;2.18;0.0;991.18;59.302;;;;NaN;;;;;0 / 0;229012;2022-11-03 14:52:18:265
-5.2221;-15.8311;-5.2675;-2.3805;-9.1618;-2.5621;-8.2812;0.4921;-7.0892;0.9609;5.9795;-0.7536;0.0;34.56;30.48;16.08;109.61;58.81;156.12;0.0;991.16;56.275;;;;NaN;;;;;0 / 0;229511;2022-11-03 14:52:18:764
-2.9616;-8.6577;0.0335;0.7534;-9.7667;0.4629;-0.9904;2.0786;-4.6743;1.8607;1.2452;-1.8226;1.0;18.6;42.12;14.58;162.74;82.44;141.52;0.0;991.14;61.777;;;;NaN;;;;;0 / 0;230010;2022-11-03 14:52:19:263
-1.0271;-7.5301;-0.7757;-1.0452;-8.5675;-4.6556;0.3485;0.3575;4.2869;-0.54;-0.8842;0.9086;0.0;22.8;28.02;31.38;151.45;79.09;167.77;0.0;991.2;63.408;;;;NaN;;;;;0 / 0;230511;2022-11-03 14:52:19:764
-0.2705;-13.1133;1.9249;-0.763;-9.5956;-1.8743;0.8923;-2.0382;3.0595;1.6787;4.638;0.641;0.0;24.54;35.22;21.54;136.66;70.39;158.58;0.0;991.15;63.045;;;;NaN;;;;;0 / 0;231011;2022-11-03 14:52:20:264
-2.3296;-13.3575;-2.0375;0.5424;-9.5077;2.3407;-2.7283;-4.8219;-4.79;0.6842;0.4676;-0.5673;1.0;11.58;45.84;9.3;327.92;77.84;-1.43;0.0;991.17;64.493;;;;NaN;;;;;0 / 0;231510;2022-11-03 14:52:20:763
-0.9697;-3.4884;-0.7135;-1.7231;-7.8153;-5.6676;0.1597;4.6669;3.8935;0.2022;-0.0089;0.1242;1.0;22.5;18.36;38.7;155.65;51.71;163.0;0.0;991.22;63.19;;;;NaN;;;;;0 / 0;232012;2022-11-03 14:52:21:265
0.8212;-9.4837;-0.0407;-0.6331;-9.7673;-0.6069;1.4136;1.9883;1.2893;1.4911;0.3302;-0.3199;1.0;10.32;38.04;27.42;195.53;80.68;147.63;0.0;991.14;64.679;;;;NaN;;;;;0 / 0;232510;2022-11-03 14:52:21:763
0.158;-10.7766;1.0582;0.0748;-9.8028;-0.2623;0.1191;-1.3544;1.4451;-2.1441;-2.8964;0.2763;1.0;9.3;40.74;21.9;350.24;74.86;-8.43;0.0;991.17;61.972;;;;NaN;;;;;0 / 0;233011;2022-11-03 14:52:22:264
-2.1668;-11.2004;-5.155;-2.6911;-8.0906;-4.8445;-5.8421;1.7433;-1.6297;0.405;1.4615;-0.4964;1.0;28.74;20.46;33.78;143.54;54.44;161.06;0.0;991.27;63.941;;;;NaN;;;;;0 / 0;233511;2022-11-03 14:52:22:764
-0.1676;-11.2363;-3.213;0.9504;-9.3101;2.9306;-0.8163;-2.9916;-4.7287;0.5168;-0.9844;-0.0993;1.0;9.72;46.44;7.8;341.96;77.82;-20.08;0.0;991.07;65.356;;;;NaN;;;;;0 / 0;234012;2022-11-03 14:52:23:265
0.9529;-6.0744;0.3903;-2.2408;-7.3804;-6.0563;2.4419;3.7627;5.9485;-0.2248;-1.0663;0.4639;1.0;28.32;15.12;37.08;146.94;57.26;165.86;0.0;991.12;61.092;;;;NaN;;;;;0 / 0;234510;2022-11-03 14:52:23:763
0.7446;-8.9379;-2.9018;-0.2597;-9.7535;-0.9862;0.9277;0.6001;0.5576;2.1997;1.6386;-0.6314;1.0;19.08;36.6;25.2;139.2;72.89;168.95;0.0;991.1;59.111;;;;NaN;;;;;0 / 0;235011;2022-11-03 14:52:24:264
0.3519;-13.9968;1.1157;0.3352;-9.765;-0.8381;-0.9984;-2.3978;2.392;-3.0042;-0.0321;0.3881;1.0;12.9;39.72;23.58;350.95;75.35;-16.34;0.0;991.1;58.578;;;;NaN;;;;;0 / 0;235511;2022-11-03 14:52:24:764
-5.6482;-14.6313;-0.4812;-2.7722;-8.1985;-4.6119;3.2583;5.0429;5.153;1.2101;3.6521;0.0302;1.0;30.54;20.64;31.62;134.85;57.52;165.02;0.0;991.24;57.78;;;;NaN;;;;;0 / 0;236011;2022-11-03 14:52:25:264
-1.2186;-13.0056;-1.1947;-0.4973;-9.3464;2.9271;-1.9376;-1.8492;-10.5337;0.5473;2.1866;-0.899;1.0;9.54;44.1;10.68;291.33;80.51;53.52;0.0;991.09;60.067;;;;NaN;;;;;0 / 0;236510;2022-11-03 14:52:25:763
-0.6728;-2.1811;0.7829;-2.258;-8.1384;-4.9837;1.1279;5.2941;1.8377;-0.0305;-0.8934;0.0082;1.0;26.34;20.04;34.98;142.66;55.9;166.13;0.0;991.08;60.461;;;;NaN;;;;;0 / 0;237011;2022-11-03 14:52:26:264
-0.6895;-8.1262;0.9673;0.0565;-9.7751;0.7837;-0.5737;2.2762;-0.1157;1.1741;1.9496;-0.373;1.0;11.82;40.92;21.48;182.65;83.25;148.15;0.0;991.06;63.393;;;;NaN;;;;;0 / 0;237511;2022-11-03 14:52:26:764
-0.4357;-8.459;-4.9491;-0.3964;-8.7791;-4.3521;0.4035;1.4884;3.7655;-2.2681;0.2782;0.3967;1.0;13.38;28.2;37.56;143.56;82.51;-165.79;0.0;991.07;60.568;;;;NaN;;;;;0 / 0;238012;2022-11-03 14:52:27:265
-5.3154;-12.34;1.652;-0.5722;-9.4295;-2.6319;-2.0207;-4.9575;3.8314;1.6622;3.9343;0.7681;1.0;21.9;30.6;31.08;147.73;53.55;155.74;0.0;991.08;60.241;;;;NaN;;;;;0 / 0;238511;2022-11-03 14:52:27:764
-1.2641;-14.2195;-2.2386;-0.0379;-9.741;1.1318;0.1936;-5.6016;-1.3521;-2.8564;0.2563;-0.3425;1.0;8.22;43.92;17.1;353.81;71.66;-14.76;0.0;991.12;60.122;;;;NaN;;;;;0 / 0;239011;2022-11-03 14:52:28:264
1.1684;-6.3138;-4.0989;-1.7657;-8.2606;-4.9814;-3.1233;-9.742;7.4977;1.441;-2.6313;-1.2972;1.0;31.56;21.36;31.26;135.37;49.89;157.31;0.0;991.26;58.355;;;;NaN;;;;;0 / 0;239511;2022-11-03 14:52:28:764
-0.3352;-11.4015;-0.9194;0.2039;-9.5069;2.3973;-1.4417;-2.1507;-5.6486;1.5339;-2.189;-0.3095;1.0;13.98;44.52;10.98;282.04;83.39;42.69;0.0;991.04;59.184;;;;NaN;;;;;0 / 0;240011;2022-11-03 14:52:29:264
1.3001;-8.21;-0.5794;-1.6537;-7.6803;-5.8693;2.1014;1.7926;6.3769;-1.9816;-0.9056;0.5042;1.0;24.36;17.88;37.92;150.07;65.3;170.44;0.0;991.09;56.696;;;;NaN;;;;;0 / 0;240511;2022-11-03 14:52:29:764
-0.4501;-9.7806;-3.7373;-0.7082;-9.6629;-1.5157;1.4264;-0.077;0.4096;1.7507;1.2184;0.0754;1.0;19.26;33.12;28.32;152.51;63.27;158.82;0.0;991.08;60.47;;;;NaN;;;;;0 / 0;241011;2022-11-03 14:52:30:264
-0.2346;-14.0447;0.7733;0.5107;-9.7933;0.009;-2.0909;-3.0016;1.8561;-1.3781;1.3674;0.349;1.0;12.54;40.8;19.98;346.23;72.2;-12.68;0.0;990.99;57.916;;;;NaN;;;;;0 / 0;241511;2022-11-03 14:52:30:764
-7.0991;-9.613;-17.2365;-1.621;-8.0069;-5.4251;0.4;2.1001;5.0732;1.9303;4.8597;-0.2514;1.0;23.04;18.96;37.02;141.22;54.67;171.62;0.0;991.17;58.666;;;;NaN;;;;;0 / 0;242011;2022-11-03 14:52:31:264
-2.1021;-12.4118;-3.6966;0.1637;-9.6548;1.7113;-0.1086;0.5996;-1.6251;0.6188;-4.4938;-0.3541;1.0;8.58;42.9;18.84;244.99;89.55;90.51;0.0;991.02;58.567;;;;NaN;;;;;0 / 0;242511;2022-11-03 14:52:31:764
0.012;-4.8459;-0.5291;-1.5126;-7.6489;-5.9477;0.6004;4.965;5.9047;-0.4667;-0.0058;-0.5306;1.0;20.52;16.2;41.4;161.97;56.69;164.66;0.0;991.05;60.378;;;;NaN;;;;;0 / 0;243011;2022-11-03 14:52:32:264
0.4214;-8.7272;0.6512;-0.2331;-9.8036;0.0768;0.688;3.6837;0.2656;2.1044;0.0767;0.0357;1.0;14.1;37.98;23.64;141.75;76.27;175.47;0.0;990.97;64.8;;;;NaN;;;;;0 / 0;243511;2022-11-03 14:52:32:764
-3.8834;-13.3456;1.3503;0.7099;-9.5328;-2.189;-4.0068;0.504;0.3982;-1.7092;-3.6624;0.7082;1.0;3.24;34.74;31.44;358.64;85.98;-4.07;0.0;990.95;58.103;;;;NaN;;;;;0 / 0;244011;2022-11-03 14:52:33:264
-7.6115;-22.7407;0.328;-1.4327;-9.0091;-3.5991;0.8245;0.9044;5.7347;1.7733;1.8641;0.0118;1.0;28.8;25.86;28.92;148.25;57.7;151.91;0.0;991.06;61.142;;;;NaN;;;;;0 / 0;244510;2022-11-03 14:52:33:763
2.5618;-13.5754;-1.415;0.2589;-9.4789;2.5008;0.8831;-6.3642;-4.3827;-2.8338;0.3882;-0.3871;1.0;13.14;43.68;12.24;341.24;75.33;-17.38;0.0;991.03;57.58;;;;NaN;;;;;0 / 0;245010;2022-11-03 14:52:34:263
-11.7941;-12.1676;-11.368;-2.0721;-8.5443;-4.3441;1.5262;6.028;4.8589;-1.0452;0.2098;1.8927;1.0;30.84;22.68;27.42;124.88;62.53;169.67;0.0;991.15;58.934;;;;NaN;;;;;0 / 0;245510;2022-11-03 14:52:34:763
-0.6776;-8.9115;-4.1348;0.2083;-9.526;2.3198;-0.2777;-1.2625;-2.2815;0.9218;-2.2862;-0.271;1.0;13.98;41.7;12.66;256.24;86.71;63.71;0.0;990.95;58.598;;;;NaN;;;;;0 / 0;246011;2022-11-03 14:52:35:264
0.9218;-7.5971;0.2011;-1.405;-8.1813;-5.2212;3.0259;1.3624;6.2268;-2.9877;-1.3619;0.762;1.0;25.62;21.0;34.26;136.29;72.41;178.92;0.0;991.0;60.866;;;;NaN;;;;;0 / 0;246511;2022-11-03 14:52:35:764
0.34;-12.1772;1.3024;-0.2689;-9.5927;-2.0194;1.6959;0.0802;3.0848;2.6707;-1.77;-0.0737;1.0;14.34;31.5;30.42;162.53;68.95;165.33;0.0;990.98;63.827;;;;NaN;;;;;0 / 0;247011;2022-11-03 14:52:36:264
0.9864;-15.6635;1.1229;0.7571;-9.6907;-1.299;-1.3628;-7.1483;2.5799;-1.2474;0.2611;0.1902;1.0;12.72;36.78;25.32;348.98;74.94;-13.08;0.0;991.0;57.109;;;;NaN;;;;;0 / 0;247511;2022-11-03 14:52:36:764
-2.1476;-10.0871;2.0446;-1.5829;-8.9493;-3.6843;-4.9368;-2.3037;9.4116;-1.3708;-0.4218;0.1591;1.0;33.24;25.38;23.34;120.53;66.02;168.6;0.0;991.11;63.864;;;;NaN;;;;;0 / 0;248011;2022-11-03 14:52:37:264
0.5674;-13.1469;-0.6225;0.48;-9.4656;2.5182;-2.5725;-3.267;-6.6602;0.4539;1.533;-0.4091;1.0;16.56;43.62;6.72;325.22;73.81;-11.24;0.0;991.08;62.107;;;;NaN;;;;;0 / 0;248511;2022-11-03 14:52:37:764
-0.0551;-3.9361;-2.4205;-0.9445;-8.8635;-4.0886;-8.532;-10.183;-23.3858;1.4313;-0.453;-1.337;1.0;27.96;28.02;25.8;114.75;56.65;169.01;0.0;991.06;56.829;;;;NaN;;;;;0 / 0;249010;2022-11-03 14:52:38:263
-1.1756;-8.1286;-6.8956;0.2158;-9.7178;1.2991;-0.3403;2.0369;-2.3598;2.0055;-4.9599;-0.3651;1.0;23.1;39.48;7.62;106.51;82.24;170.46;0.0;991.0;62.294;;;;NaN;;;;;0 / 0;249511;2022-11-03 14:52:38:764
-2.3296;-5.7631;1.1061;-0.594;-8.7458;-4.3963;-0.5361;4.5943;4.6453;-2.6799;-5.2818;-0.296;1.0;24.72;30.12;27.66;111.99;78.2;-163.05;0.0;990.98;55.571;;;;NaN;;;;;0 / 0;250010;2022-11-03 14:52:39:263
-0.0718;-13.9178;1.3695;-0.4553;-9.232;-3.276;0.7881;-4.1088;3.4628;1.5223;1.9007;0.6422;1.0;30.9;31.74;17.64;122.36;56.39;144.7;0.0;991.0;64.409;;;;NaN;;;;;0 / 0;250510;2022-11-03 14:52:39:763
0.8859;-12.0958;-1.1779;0.934;-9.7401;-0.6541;-1.4033;-1.9511;0.6469;-2.6041;0.4835;-0.1281;1.0;21.84;40.26;12.96;334.85;78.23;-26.9;0.0;991.03;55.713;;;;NaN;;;;;0 / 0;251010;2022-11-03 14:52:40:263
-0.3328;-7.8581;1.1109;-0.8447;-8.5819;-4.6698;-8.3493;1.4637;-3.545;0.6408;0.8482;0.101;1.0;32.58;30.6;15.06;95.86;61.06;169.75;0.0;991.06;66.728;;;;NaN;;;;;0 / 0;251511;2022-11-03 14:52:40:764
-2.0279;-15.1966;0.1628;1.651;-9.5104;1.7313;-4.5001;-3.8113;-2.8206;0.5925;0.9942;-0.935;1.0;8.4;42.48;-3.96;318.25;81.38;-47.04;0.0;990.98;65.462;;;;NaN;;;;;0 / 0;252011;2022-11-03 14:52:41:264
-4.4963;-10.0296;-4.6974;-3.5779;-4.8934;-7.7086;-0.5952;-2.5864;4.7303;-1.6377;-0.3192;0.8866;1.0;35.34;18.3;27.54;123.04;44.55;158.42;0.0;991.09;63.697;;;;NaN;;;;;0 / 0;252510;2022-11-03 14:52:41:763
1.6233;-8.3656;-1.3815;0.1919;-9.6094;-1.9477;1.0028;4.1551;0.0539;1.3934;0.9288;0.1792;1.0;13.98;61.8;25.56;96.29;68.0;177.53;0.0;990.96;66.088;;;;NaN;;;;;0 / 0;253011;2022-11-03 14:52:42:264
-0.1006;-10.7814;-5.5548;0.8071;-9.6353;-1.6367;-0.9508;-2.1229;-6.6044;-0.9939;1.8683;2.1328;1.0;29.94;65.58;16.98;15.53;79.29;-81.21;0.0;990.97;60.873;;;;NaN;;;;;0 / 0;253511;2022-11-03 14:52:42:764
0.1676;-5.4615;0.1891;-2.4123;-7.8283;-5.3915;-7.2223;-7.0858;13.5369;1.3134;3.0015;-0.1274;1.0;61.92;16.86;18.72;99.85;27.63;148.55;0.0;991.04;53.964;;;;NaN;;;;;0 / 0;254011;2022-11-03 14:52:43:264
-1.3096;-7.2954;0.4884;1.2679;-9.7241;-0.0671;-2.6159;1.1645;-0.79;-0.1607;0.5489;-0.5679;1.0;45.12;38.22;15.24;39.86;84.51;-114.11;0.0;990.91;59.624;;;;NaN;;;;;0 / 0;254511;2022-11-03 14:52:43:764
-1.968;-9.5484;-2.7366;-1.8971;-8.3198;-4.8324;-0.8993;-1.7313;-1.2372;-2.0452;-0.6228;1.3704;0.0;38.4;28.44;11.94;94.31;73.23;-179.16;0.0;990.93;55.939;;;;NaN;;;;;0 / 0;255010;2022-11-03 14:52:44:263
-4.7956;-0.2083;-4.0055;-5.9124;-1.4613;-7.6862;0.4653;5.1005;0.4051;0.0;0.5;-0.5557;0.0;45.36;-4.32;18.66;109.59;5.41;140.51;0.0;991.01;65.819;;;;NaN;;;;;0 / 0;255511;2022-11-03 14:52:44:764
-0.6033;-8.1478;-2.1931;0.1554;-9.6185;-1.9055;0.0721;2.2057;-1.1231;1.9584;0.7633;-0.4756;0.0;30.24;45.54;22.62;105.84;64.14;165.75;0.0;990.89;64.609;;;;NaN;;;;;0 / 0;256010;2022-11-03 14:52:45:263
0.5962;-20.5764;0.9098;0.7377;-9.666;1.4812;-2.4974;-3.7753;-1.9576;-3.7971;-5.203;0.7931;9.0;23.4;55.86;6.3;351.99;81.98;-64.82;0.0;990.81;66.014;;;;NaN;;;;;0 / 0;256511;2022-11-03 14:52:45:764
-5.4567;-4.2832;-5.2436;-5.9218;-1.6556;-7.6395;2.5507;-2.9317;3.5047;-0.9939;-0.5098;0.3368;0.0;29.34;-5.52;25.26;152.52;32.01;150.0;0.0;990.89;65.548;;;;NaN;;;;;0 / 0;257010;2022-11-03 14:52:46:263
-2.3822;-8.2507;-3.6607;-0.4134;-9.2428;-3.2512;-1.5187;0.5012;0.2249;2.686;2.4493;-2.0266;0.0;12.24;10.14;27.6;188.97;49.64;151.85;0.0;990.74;63.839;;;;NaN;;;;;0 / 0;257511;2022-11-03 14:52:46:764
-1.0894;-16.7265;0.3065;1.3811;-9.6416;1.1414;-3.5431;-2.8517;-0.4303;1.2462;0.3027;-0.9906;0.0;8.52;21.96;21.0;92.01;87.27;-117.84;0.0;990.73;52.425;;;;NaN;;;;;0 / 0;258011;2022-11-03 14:52:47:264
-2.3679;-4.0941;-2.0063;-3.6324;-6.3556;-6.5254;1.6859;3.6526;5.0722;-0.3335;-0.7437;1.6893;0.0;38.16;7.56;23.58;125.28;44.77;159.87;0.0;990.85;54.728;;;;NaN;;;;;0 / 0;258511;2022-11-03 14:52:47:764
0.8523;-7.882;0.4357;-0.4216;-9.762;-0.8346;0.977;2.0284;0.9759;2.1228;1.3509;-0.0737;0.0;27.96;34.92;13.14;151.64;72.97;133.04;0.0;990.71;59.915;;;;NaN;;;;;0 / 0;259010;2022-11-03 14:52:48:263
0.5746;-14.3248;1.3767;0.7222;-9.6283;-1.716;-2.5489;-5.2595;3.2076;-2.2419;-3.9147;0.6618;0.0;23.1;34.8;21.9;329.58;79.76;-10.55;0.0;990.76;59.019;;;;NaN;;;;;0 / 0;259511;2022-11-03 14:52:48:764
-6.6203;-3.2729;-0.7254;-1.7379;-8.8675;-3.8101;-2.8973;-0.9993;6.336;0.9071;1.9166;0.7571;0.0;38.82;24.24;3.12;91.93;69.74;169.25;0.0;990.84;58.31;;;;NaN;;;;;0 / 0;260011;2022-11-03 14:52:49:264
2.6671;-17.2867;-0.8739;0.1843;-9.6515;1.7278;2.4182;-3.3541;-4.1986;-0.2077;2.0717;1.3948;1.0;26.94;36.12;-5.82;304.52;73.21;-29.63;0.0;990.73;59.544;;;;NaN;;;;;0 / 0;260511;2022-11-03 14:52:49:764
0.3376;-3.2082;-2.5067;-1.028;-8.72;-4.3674;-3.1547;-2.2409;-1.6471;1.6231;0.8635;-1.4542;1.0;30.42;35.58;16.74;80.98;48.91;158.45;0.0;990.75;58.09;;;;NaN;;;;;0 / 0;261010;2022-11-03 14:52:50:263
0.4453;-8.799;0.0239;-0.1544;-9.8046;0.1299;0.1855;1.7597;-0.1418;1.4227;-0.3674;-0.9179;1.0;29.46;39.42;7.68;124.63;78.23;147.47;0.0;990.73;59.711;;;;NaN;;;;;0 / 0;261511;2022-11-03 14:52:50:764
-2.0758;-9.3904;0.6177;-0.5784;-8.9009;-4.0755;-0.3841;0.8872;4.2479;-2.3305;-0.8445;0.7919;1.0;30.18;33.42;10.32;84.68;81.04;-165.61;0.0;990.75;55.562;;;;NaN;;;;;0 / 0;262011;2022-11-03 14:52:51:264
1.6783;-5.0616;12.182;-1.4245;-9.0172;-3.5821;2.6623;-1.86;6.5797;-0.8913;4.1224;0.1548;1.0;30.84;42.84;6.24;73.99;58.8;158.05;0.0;990.77;61.505;;;;NaN;;;;;0 / 0;262511;2022-11-03 14:52:51:764
-0.0934;-11.0878;0.6321;0.0135;-9.6093;1.9574;3.2809;-5.8124;-3.4107;-3.0513;0.442;0.0332;1.0;22.56;48.48;-5.04;313.27;77.09;-36.61;0.0;990.75;56.549;;;;NaN;;;;;0 / 0;263010;2022-11-03 14:52:52:263
-17.0401;-18.3737;-10.36;-1.8711;-8.8328;-3.8276;-3.6287;6.0196;5.9848;-0.2114;-1.8274;1.5121;1.0;32.46;30.48;3.54;83.34;61.63;164.82;0.0;990.85;56.018;;;;NaN;;;;;0 / 0;263511;2022-11-03 14:52:52:764
-1.1181;-7.8198;2.2098;-0.7344;-9.4653;2.4573;-0.4196;-3.8683;-4.6839;-0.1045;-2.4994;0.1505;1.0;23.34;36.18;8.7;144.35;87.45;144.82;0.0;990.76;69.054;;;;NaN;;;;;0 / 0;264013;2022-11-03 14:52:53:266
-2.1715;-7.4463;-1.6855;-2.9464;-7.4146;-5.7019;2.7932;0.5501;4.3157;-2.4459;-4.0784;0.9006;1.0;31.38;19.56;24.9;115.48;63.16;177.83;0.0;990.74;57.04;;;;NaN;;;;;0 / 0;264511;2022-11-03 14:52:53:764
-2.1476;-11.8755;-2.5666;-1.9527;-8.8866;-3.6585;-4.0115;-1.1645;5.5331;0.6799;1.9074;-0.7078;1.0;22.44;24.6;23.64;172.96;46.65;138.9;0.0;990.8;61.303;;;;NaN;;;;;0 / 0;265011;2022-11-03 14:52:54:264
-1.2761;-11.289;-5.5884;0.5497;-9.7853;0.3413;-0.9184;-1.5707;-1.1745;-0.675;-1.2526;-0.3681;1.0;11.58;41.16;22.92;178.42;87.92;153.93;0.0;990.75;53.831;;;;NaN;;;;;0 / 0;265510;2022-11-03 14:52:54:763
-0.3496;-5.9188;-2.2865;-3.7102;-5.3023;-7.3682;1.1149;3.205;6.389;0.4129;-0.8421;-0.5593;1.0;44.64;12.84;38.58;137.98;55.42;162.34;0.0;990.79;57.254;;;;NaN;;;;;0 / 0;266011;2022-11-03 14:52:55:264
-0.6153;-8.0759;-3.3088;0.6211;-9.7869;0.0094;-1.0305;0.2266;-1.2088;0.5076;-0.6069;-0.6754;1.0;13.74;58.38;15.9;148.33;85.64;164.16;0.0;990.67;54.646;;;;NaN;;;;;0 / 0;266510;2022-11-03 14:52:55:763
-3.6464;-13.3001;-3.1268;-2.5442;-7.5249;-5.7509;-0.0176;-6.1918;3.1148;-3.7104;3.8488;3.4925;2.0;46.02;36.6;46.8;131.9;74.61;176.17;0.0;990.69;54.945;;;;NaN;;;;;0 / 0;267011;2022-11-03 14:52:56:264
-1.2091;3.6152;-8.4016;-5.7603;-4.8151;-6.309;-4.3961;-4.6978;0.2888;1.7379;0.9752;-1.2527;0.0;60.3;5.22;29.1;136.43;29.41;137.6;0.0;990.74;67.334;;;;NaN;;;;;0 / 0;267511;2022-11-03 14:52:56:764
-0.6895;-7.4965;-2.9329;1.1515;-9.7088;0.7638;-1.123;1.7698;-1.5981;0.3134;0.9362;-0.2588;0.0;28.92;49.14;28.44;38.79;84.46;-88.89;0.0;990.59;61.354;;;;NaN;;;;;0 / 0;268011;2022-11-03 14:52:57:264
-2.7318;-6.4862;-3.2896;-2.0763;-8.7969;-3.8044;-2.4634;1.6826;0.0424;-1.4777;2.9086;2.178;3.0;38.46;30.84;19.38;114.25;77.83;173.61;0.0;990.63;53.938;;;;NaN;;;;;0 / 0;268511;2022-11-03 14:52:57:764
-13.1756;-25.8822;6.1845;-4.0665;-6.6758;-5.9217;1.8279;3.7615;4.4418;3.7202;1.5501;-2.4451;3.0;40.44;12.6;13.8;98.15;24.88;141.73;0.0;990.65;65.12;;;;NaN;;;;;0 / 0;269014;2022-11-03 14:52:58:267
0.5363;-9.522;-1.1636;0.5419;-9.7843;-0.3791;0.0852;-0.2672;-1.7703;0.6359;-0.9716;-0.1397;3.0;-4.02;22.44;-11.94;292.72;86.13;-124.98;0.0;990.54;54.771;;;;NaN;;;;;0 / 0;269510;2022-11-03 14:52:58:763
0.8332;-9.8429;-2.2003;0.5829;-9.7608;0.7465;-0.7453;2.1721;0.1642;-0.8815;-4.9306;0.2959;1.0;-39.78;23.4;34.32;85.21;84.46;-37.98;0.0;990.51;52.704;;;;NaN;;;;;0 / 0;270010;2022-11-03 14:52:59:263
-1.5299;-6.8094;-1.1636;-0.2722;-8.676;-4.5631;-0.8287;1.6718;2.4539;1.5595;0.0583;-0.698;0.0;5.94;19.98;38.34;171.37;62.22;176.59;0.0;990.6;53.851;;;;NaN;;;;;0 / 0;270510;2022-11-03 14:52:59:763
-0.4693;-13.3552;0.2155;1.1013;-9.6824;-1.099;-0.742;-0.1256;1.5128;0.5913;3.5146;-0.2099;0.0;5.4;29.28;26.28;159.04;75.75;-176.08;0.0;990.58;59.134;;;;NaN;;;;;0 / 0;271013;2022-11-03 14:53:00:266
0.8954;-9.3233;0.2873;-0.2249;-9.7539;0.9901;0.9431;-2.1043;-0.671;-0.0678;4.4718;0.346;1.0;-0.84;34.32;16.32;21.75;83.75;-22.97;0.0;990.52;55.927;;;;NaN;;;;;0 / 0;271515;2022-11-03 14:53:00:768
2.7414;-10.4199;-1.6903;-0.0633;-9.6008;1.9979;-1.5992;0.9424;-3.8569;0.1051;1.8757;0.7791;1.0;-12.24;34.02;12.78;74.6;80.67;-49.39;0.0;990.53;57.97;;;;NaN;;;;;0 / 0;272010;2022-11-03 14:53:01:263
-1.8387;-8.1597;-4.1348;-1.6896;-9.1665;-3.0479;-0.984;2.4552;-1.2005;-0.8173;-0.6142;-0.0615;1.0;8.04;22.02;30.18;200.37;69.18;151.0;0.0;990.69;59.289;;;;NaN;;;;;0 / 0;272511;2022-11-03 14:53:01:764
-0.0838;-10.5108;-0.3615;0.3514;-9.7089;-1.3354;0.08;0.2087;-0.7498;1.0018;-3.2568;-0.3535;1.0;-7.74;28.26;21.0;187.5;81.91;-165.26;0.0;990.61;59.671;;;;NaN;;;;;0 / 0;273010;2022-11-03 14:53:02:263
1.6759;-13.3743;-8.392;-0.0039;-9.11;3.6302;4.5128;-9.3941;-4.4717;-3.9938;0.5354;-0.0083;1.0;-6.9;29.52;5.1;23.94;68.27;0.06;0.0;990.57;58.526;;;;NaN;;;;;0 / 0;273511;2022-11-03 14:53:02:764
-13.8579;-16.2548;-11.1285;-1.3237;-8.8234;-4.07;-2.8349;6.0259;0.4831;-0.3134;2.3998;0.4321;1.0;10.08;0.36;27.36;177.44;64.12;161.98;0.0;990.68;62.316;;;;NaN;;;;;0 / 0;274012;2022-11-03 14:53:03:265
0.4621;-10.2978;-0.7661;1.5473;-9.4531;2.101;-3.1487;-0.7626;-8.4908;0.8876;-3.3698;-0.9124;1.0;26.82;12.18;39.24;10.42;85.54;-45.29;0.0;990.58;54.758;;;;NaN;;;;;0 / 0;274510;2022-11-03 14:53:03:763
-1.3743;-6.8238;-2.7126;-2.0659;-7.9134;-5.4111;2.1789;1.6969;5.669;-0.2755;-0.9154;0.6716;1.0;58.02;-8.28;18.9;119.39;59.15;168.63;0.0;990.55;55.005;;;;NaN;;;;;0 / 0;275011;2022-11-03 14:53:04:264
0.8763;-5.3968;1.245;0.0139;-9.6385;-1.8081;2.1578;-2.729;2.1153;0.0287;4.9984;-0.4732;1.0;76.86;15.0;-17.28;104.96;74.24;149.07;0.0;990.52;64.186;;;;NaN;;;;;0 / 0;275511;2022-11-03 14:53:04:764
-1.0606;-13.9298;1.7023;1.3858;-9.5117;-1.9437;-0.9698;0.8645;6.279;-0.8735;0.7517;1.214;1.0;57.06;27.24;8.28;57.64;75.91;-144.51;0.0;990.54;65.594;;;;NaN;;;;;0 / 0;276011;2022-11-03 14:53:05:264
-6.2324;-18.1415;1.9106;-1.1551;-8.7522;-4.2701;-1.2576;0.6415;4.2811;0.2382;2.9593;0.4291;1.0;35.7;25.32;18.66;114.35;63.19;164.86;0.0;990.58;57.321;;;;NaN;;;;;0 / 0;276510;2022-11-03 14:53:05:763
2.8276;-13.3887;-4.4843;1.0483;-9.3593;2.7341;0.7531;-4.1538;-5.6065;-1.4251;1.0608;-1.0578;1.0;11.58;40.44;9.06;341.65;72.63;-20.98;0.0;990.58;55.207;;;;NaN;;;;;0 / 0;277011;2022-11-03 14:53:06:264
0.0383;-1.2737;-1.8387;-0.8643;-9.0094;-3.7753;-0.3526;1.3163;-1.6984;3.1979;-2.5867;-2.1323;0.0;15.12;20.88;35.04;158.0;50.46;166.32;0.0;990.6;61.438;;;;NaN;;;;;0 / 0;277511;2022-11-03 14:53:06:764
2.1141;-9.941;0.0048;-0.1488;-9.4255;2.7033;2.1196;1.1118;-0.7382;2.8906;-0.7425;0.068;2.0;-7.8;37.44;22.08;196.53;84.13;-173.83;0.0;990.49;61.147;;;;NaN;;;;;0 / 0;278011;2022-11-03 14:53:07:264
0.7302;-6.218;-0.9697;-1.2469;-8.6004;-4.5439;4.417;2.1783;4.6465;-0.3855;1.1487;-1.0883;0.0;9.66;22.32;39.78;182.11;61.28;164.65;0.0;990.49;58.295;;;;NaN;;;;;0 / 0;278511;2022-11-03 14:53:07:764
1.5371;-6.8477;1.7741;-0.1348;-9.6274;-1.8615;1.9893;2.1689;1.7325;2.1796;-0.0877;0.7437;0.0;-20.04;37.26;19.62;242.53;79.03;175.86;0.0;990.6;61.622;;;;NaN;;;;;0 / 0;279010;2022-11-03 14:53:08:263
-3.0454;-17.6147;1.889;0.623;-9.7852;-0.1804;-4.1419;-1.847;2.8216;-1.7611;2.5751;0.4743;1.0;-25.02;35.16;18.66;157.23;86.21;-106.15;0.0;990.52;55.801;;;;NaN;;;;;0 / 0;279511;2022-11-03 14:53:08:764
-0.2418;-4.9419;1.5251;-1.0263;-9.5006;-2.2033;-4.3697;-8.3545;6.3325;2.0922;4.9526;-0.5331;1.0;1.86;31.32;33.66;239.42;63.71;142.07;0.0;990.55;64.052;;;;NaN;;;;;0 / 0;280012;2022-11-03 14:53:09:265
0.0455;-12.9505;-1.2067;-0.922;-9.5569;1.9962;1.9878;-5.6037;-6.6656;-1.0391;1.6625;-0.0804;0.0;-17.1;43.32;-0.18;45.75;68.41;2.62;0.0;990.53;55.833;;;;NaN;;;;;0 / 0;280510;2022-11-03 14:53:09:763
-0.4477;-1.8866;1.1923;-1.6972;-9.0321;-3.4219;-0.4589;2.6612;-2.1289;2.0171;-1.4914;-1.5685;0.0;-1.92;27.9;36.9;225.82;61.08;157.31;0.0;990.55;64.314;;;;NaN;;;;;0 / 0;281011;2022-11-03 14:53:10:264
0.0599;-10.8628;0.34;-0.2762;-9.5199;2.3377;-0.5099;-3.3392;-4.555;1.4062;-0.8036;-0.1763;0.0;-17.82;43.26;4.2;47.01;76.11;6.74;0.0;990.56;63.021;;;;NaN;;;;;0 / 0;281511;2022-11-03 14:53:10:764
2.4588;-6.3378;1.0032;-2.081;-8.7471;-3.915;2.9189;5.073;5.4438;0.2889;-0.412;-1.5337;0.0;-4.26;26.82;37.98;233.09;63.12;152.01;0.0;990.49;59.542;;;;NaN;;;;;0 / 0;282011;2022-11-03 14:53:11:264
1.1636;-5.2628;0.3089;-1.3435;-9.6505;-1.11;2.1057;2.1839;0.7439;2.0055;-0.1768;-0.6064;0.0;-15.12;40.08;18.0;287.09;79.76;129.56;0.0;990.5;59.306;;;;NaN;;;;;0 / 0;282510;2022-11-03 14:53:11:763
-1.0678;-13.1325;0.838;-0.2282;-9.7777;-0.7177;-1.5308;0.7747;3.6699;-1.5968;-1.3937;0.1829;0.0;-23.76;35.94;19.32;254.32;85.6;162.36;0.0;990.53;59.417;;;;NaN;;;;;0 / 0;283011;2022-11-03 14:53:12:264
-2.8946;-21.8884;-5.9236;-0.6825;-9.5447;-2.1456;0.6269;-4.46;8.2332;2.0751;6.6728;0.8127;0.0;-0.3;29.82;34.74;234.44;68.1;143.45;0.0;990.52;60.816;;;;NaN;;;;;0 / 0;283510;2022-11-03 14:53:12:763
0.8021;-14.0543;-0.0072;0.1391;-9.3949;2.8084;0.2155;-4.4705;-3.251;0.7251;1.5134;-0.888;1.0;-23.04;41.76;1.08;56.02;67.1;-4.76;0.0;990.57;56.463;;;;NaN;;;;;0 / 0;284011;2022-11-03 14:53:13:264
-2.2625;-9.1078;-12.0216;-1.2581;-9.1017;-3.4274;1.4778;9.7277;-7.1957;0.5498;-1.3143;-1.3547;0.0;-6.72;26.76;37.32;224.09;68.14;159.84;0.0;990.72;64.237;;;;NaN;;;;;0 / 0;284511;2022-11-03 14:53:13:764
0.2705;-11.0136;-2.9664;-0.1163;-9.3336;3.0068;-0.6653;0.4326;-2.2045;1.0989;1.7749;0.0412;0.0;-22.5;41.04;4.68;50.22;72.13;2.21;0.0;990.47;64.23;;;;NaN;;;;;0 / 0;285010;2022-11-03 14:53:14:263
1.1564;-5.9714;3.6464;-1.5306;-8.6633;-4.3329;0.392;6.4006;5.4467;0.6671;-0.037;-0.4585;1.0;-15.18;25.38;35.46;243.21;62.06;160.54;0.0;990.47;60.186;;;;NaN;;;;;0 / 0;285511;2022-11-03 14:53:14:764
0.2107;-6.4096;0.6225;-0.2731;-9.6809;1.5412;0.6195;1.3341;0.8452;3.3799;-1.8604;0.5928;1.0;-25.86;36.96;13.92;257.48;80.19;176.6;0.0;990.51;59.863;;;;NaN;;;;;0 / 0;286010;2022-11-03 14:53:15:263
-0.8452;-17.7249;1.731;0.2138;-9.5154;-2.3625;-3.5991;-4.0507;2.5032;-2.025;3.8555;0.4736;0.0;-24.9;35.82;17.64;43.54;87.59;8.79;0.0;990.47;59.341;;;;NaN;;;;;0 / 0;286511;2022-11-03 14:53:15:764
-4.0007;-16.3291;2.9904;-1.2294;-9.4317;-2.3877;0.827;-7.7766;5.3221;0.8882;5.7058;0.5402;0.0;-6.9;34.86;29.64;255.1;68.1;145.17;0.0;990.6;63.719;;;;NaN;;;;;0 / 0;287011;2022-11-03 14:53:16:264
1.6735;-18.7951;1.3048;-0.3046;-9.7275;1.2057;3.4537;-5.7516;-6.9687;-2.7104;-1.6167;-0.3223;1.0;-22.74;41.34;-4.14;67.7;69.17;-4.18;0.0;990.52;59.98;;;;NaN;;;;;0 / 0;287512;2022-11-03 14:53:16:765
-2.4732;-6.1773;3.644;-2.857;-8.9009;-2.9632;-4.4887;-7.8112;-5.7139;-2.1392;-1.8928;-1.3229;0.0;-1.2;32.28;33.12;252.38;65.18;136.05;0.0;990.65;65.184;;;;NaN;;;;;0 / 0;288010;2022-11-03 14:53:17:263
-1.9656;-11.9857;-2.5091;0.8793;-9.1066;3.5308;-0.6137;-2.8929;-2.6311;-1.3433;5.3527;1.1493;1.0;-23.88;40.74;3.42;62.44;68.22;-13.98;0.0;990.51;62.846;;;;NaN;;;;;0 / 0;288511;2022-11-03 14:53:17:764
0.3472;-6.2276;-0.9361;-2.2105;-8.6337;-4.0919;2.0789;3.1855;4.8202;1.0043;-0.087;-0.3425;1.0;-8.46;27.66;38.04;242.97;61.69;151.62;0.0;990.5;62.961;;;;NaN;;;;;0 / 0;289010;2022-11-03 14:53:18:263
1.6568;-9.3401;0.3424;-1.0484;-9.748;0.2162;2.6604;2.9094;0.9125;2.2107;-0.4511;-0.0486;1.0;-24.48;39.0;13.32;286.33;75.52;155.4;0.0;990.48;62.278;;;;NaN;;;;;0 / 0;289511;2022-11-03 14:53:18:764
-0.2777;-6.163;3.7876;-0.5078;-9.4804;-2.4563;-0.1295;-4.4061;2.4562;-2.4398;2.6075;0.1872;1.0;-21.84;37.68;20.16;337.52;86.72;71.78;0.0;990.51;58.689;;;;NaN;;;;;0 / 0;290011;2022-11-03 14:53:19:264
-0.6057;-6.9291;0.8906;-1.3689;-9.3233;-2.7153;0.0954;-0.6949;4.0091;0.6005;3.5226;-0.1525;1.0;-18.42;32.88;26.82;259.99;71.94;153.25;0.0;990.51;62.63;;;;NaN;;;;;0 / 0;290510;2022-11-03 14:53:19:763
3.7661;-15.5988;-1.0247;-0.4588;-9.3922;2.7832;3.0734;-1.9023;-2.5159;-2.802;0.0925;-0.1861;1.0;-17.28;42.78;5.94;37.37;73.28;9.36;0.0;990.48;54.878;;;;NaN;;;;;0 / 0;291011;2022-11-03 14:53:20:264
-1.0463;-6.0265;-2.1979;-1.5494;-8.7785;-4.0874;-8.391;-7.2946;-22.7495;-1.4618;-5.7327;-0.2624;1.0;-1.74;30.9;33.84;224.83;63.53;159.24;0.0;990.59;54.832;;;;NaN;;;;;0 / 0;291510;2022-11-03 14:53:20:763
0.3089;-7.9179;0.2993;1.172;-9.3008;2.8795;-0.6297;0.3237;-1.7647;2.7721;-3.9337;-0.7609;1.0;-10.14;43.08;15.06;306.68;86.61;93.46;0.0;990.48;57.787;;;;NaN;;;;;0 / 0;292011;2022-11-03 14:53:21:264
-2.1883;-7.0919;3.0191;-2.0534;-8.9161;-3.5293;-2.3414;4.2877;2.9837;-1.9572;-8.2024;0.7809;1.0;-9.24;32.16;32.64;177.25;75.24;-162.74;0.0;990.48;61.07;;;;NaN;;;;;0 / 0;292511;2022-11-03 14:53:21:764
1.2354;-5.6386;0.723;-0.5214;-9.6275;-1.7914;1.5168;-2.6467;3.1524;1.6952;4.5848;0.3277;1.0;7.86;32.52;32.7;203.01;68.03;153.13;0.0;990.54;60.451;;;;NaN;;;;;0 / 0;293011;2022-11-03 14:53:22:264
-2.1644;-15.776;1.0726;0.4645;-9.7498;-0.9466;-5.2739;-0.6528;3.179;-2.2364;2.781;0.3881;1.0;-11.4;34.44;28.8;173.88;83.83;-153.86;0.0;990.6;59.253;;;;NaN;;;;;0 / 0;293511;2022-11-03 14:53:22:764
-1.0487;-11.4182;2.6264;-2.7212;-8.566;-3.9228;2.792;2.5691;9.2527;1.9346;5.043;-0.1317;1.0;23.1;22.92;34.56;182.37;60.87;145.25;0.0;990.65;58.755;;;;NaN;;;;;0 / 0;294011;2022-11-03 14:53:23:264
1.5347;-12.2849;-2.5522;0.675;-9.3344;2.9298;2.0744;-3.8294;-6.8958;0.1271;1.7119;-0.4378;1.0;-3.6;44.94;10.02;15.46;72.15;-12.97;0.0;990.59;57.939;;;;NaN;;;;;0 / 0;294510;2022-11-03 14:53:23:763
0.6823;-3.2322;0.9697;-2.0849;-8.4434;-4.5312;1.1972;2.5534;0.8495;2.3579;-1.3711;-2.2056;1.0;11.22;25.2;37.8;195.69;59.43;155.29;0.0;990.49;61.474;;;;NaN;;;;;0 / 0;295012;2022-11-03 14:53:24:265
1.0511;-8.3824;0.0263;0.1563;-9.3792;2.8593;1.3755;1.8853;-0.2229;2.4141;-0.2282;-0.2392;1.0;-7.44;41.34;21.6;276.28;85.37;109.57;0.0;990.47;64.324;;;;NaN;;;;;0 / 0;295511;2022-11-03 14:53:24:764
2.1811;-4.5705;-1.0942;-1.7568;-8.845;-3.8536;-3.3723;6.2045;5.3973;-2.1557;-6.7675;1.098;1.0;-10.62;29.88;34.44;163.97;74.57;-150.14;0.0;990.46;60.382;;;;NaN;;;;;0 / 0;296011;2022-11-03 14:53:25:264
1.1995;-6.4527;0.3831;-0.2313;-9.6709;-1.6094;1.7683;2.7335;1.1063;1.4435;0.693;0.2977;1.0;-8.04;38.1;26.4;212.9;80.46;171.82;0.0;990.47;64.148;;;;NaN;;;;;0 / 0;296511;2022-11-03 14:53:25:764
-3.9145;-13.9561;0.5794;0.9887;-9.6743;-1.2653;-5.1757;2.741;3.3408;-1.8552;-4.0943;0.2091;1.0;-22.98;32.04;24.36;186.96;80.58;-141.99;0.0;990.51;55.616;;;;NaN;;;;;0 / 0;297011;2022-11-03 14:53:26:264
-4.5586;-19.2596;5.902;-1.3209;-8.9924;-3.6828;0.8132;0.0515;5.2223;1.752;5.6013;0.5952;1.0;-1.26;29.82;35.88;214.87;66.49;160.27;0.0;990.57;60.877;;;;NaN;;;;;0 / 0;297510;2022-11-03 14:53:26:763
3.1484;-12.7063;-1.798;-0.6321;-9.7794;0.3645;2.1139;-2.0007;-7.4718;-3.3475;-0.9117;-1.1244;1.0;-13.56;44.76;3.54;27.92;73.43;22.53;0.0;990.48;57.21;;;;NaN;;;;;0 / 0;298012;2022-11-03 14:53:27:265
0.3974;-6.8405;-1.9201;-0.7988;-9.0104;-3.7873;0.7003;-7.3266;-20.036;-3.1533;-2.7791;-0.4585;0.0;-16.98;35.4;25.98;253.98;67.1;167.52;0.0;990.59;57.298;;;;NaN;;;;;0 / 0;298511;2022-11-03 14:53:27:764
-1.561;-9.1461;-3.6105;-0.0984;-9.7341;1.1865;-1.0465;-0.0337;-4.6195;1.9438;-1.9141;-0.1971;1.0;-16.74;41.7;16.5;242.24;85.81;169.33;0.0;990.43;61.351;;;;NaN;;;;;0 / 0;299010;2022-11-03 14:53:28:263
-2.0638;-9.2539;-1.1444;-1.2252;-8.9102;-3.9085;1.9337;-0.0682;-1.395;-1.7006;-3.1683;-0.0859;1.0;-2.22;31.32;37.5;214.31;65.31;162.59;0.0;990.49;60.412;;;;NaN;;;;;0 / 0;299511;2022-11-03 14:53:28:764
-1.5874;-4.5514;5.5261;-1.2353;-9.0048;-3.6819;-0.5364;-0.1812;4.9082;3.0977;4.4376;-0.6565;0.0;-7.14;34.14;34.56;229.91;66.67;161.45;0.0;990.56;64.554;;;;NaN;;;;;0 / 0;300010;2022-11-03 14:53:29:263
-1.1612;-10.6665;-2.1572;0.4418;-9.4437;2.6059;-0.2578;-3.7753;-3.403;0.631;2.3839;-0.5422;0.0;-20.46;44.82;4.44;58.07;74.36;-9.62;0.0;990.47;58.976;;;;NaN;;;;;0 / 0;300513;2022-11-03 14:53:29:766
0.9673;-6.5915;-0.2801;-1.7161;-8.7316;-4.1211;1.4618;4.5343;4.5281;0.9456;0.0962;-0.0951;1.0;-8.34;30.18;38.1;242.74;58.61;156.81;0.0;990.54;57.176;;;;NaN;;;;;0 / 0;301011;2022-11-03 14:53:30:264
0.0527;-10.111;0.4094;-0.3891;-9.7966;0.2141;0.96;1.012;1.0031;2.2571;-0.6081;0.0192;1.0;-15.72;39.9;22.8;249.04;76.03;165.64;0.0;990.49;61.636;;;;NaN;;;;;0 / 0;301510;2022-11-03 14:53:30:763
