sep=;
ACCELEROMETER X (m/s²);ACCELEROMETER Y (m/s²);ACCELEROMETER Z (m/s²);GRAVITY X (m/s²);GRAVITY Y (m/s²);GRAVITY Z (m/s²);LINEAR ACCELERATION X (m/s²);LINEAR ACCELERATION Y (m/s²);LINEAR ACCELERATION Z (m/s²);GYROSCOPE X (rad/s);GYROSCOPE Y (rad/s);GYROSCOPE Z (rad/s);LIGHT (lux);MAGNETIC FIELD X (μT);MAGNETIC FIELD Y (μT);MAGNETIC FIELD Z (μT);ORIENTATION Z (azimuth °);ORIENTATION X (pitch °);ORIENTATION Y (roll °);PROXIMITY (i);ATMOSPHERIC PRESSURE (hPa);SOUND LEVEL (dB);LOCATION Latitude : ;LOCATION Longitude : ;LOCATION Altitude ( m);LOCATION Altitude-google ( m);LOCATION Altitude-atmospheric pressure ( m);LOCATION Speed ( Kmh);LOCATION Accuracy ( m);LOCATION ORIENTATION (°);Satellites in range;Time since start in ms ;YYYY-MO-DD HH-MI-SS_SSS
-1.1085;3.7637;6.9842;1.7096;8.0009;5.4068;-1.7527;-3.6027;-0.4289;0.4715;0.1261;-0.4917;144.0;-15.12;-61.38;-35.88;179.93;-52.79;-22.61;2.0;982.41;59.439;;;;NaN;;;;;0 / 0;10;2022-10-30 20:19:28:390
-1.1756;3.1412;10.0919;2.1618;7.3079;6.1718;-2.6286;-4.7724;4.2337;-0.2646;0.3332;0.4844;226.0;-11.28;-56.22;-36.84;166.44;-51.95;-15.08;2.0;982.56;59.149;;;;NaN;;;;;0 / 0;510;2022-10-30 20:19:28:890
2.6145;3.2489;15.3426;2.6632;7.4592;5.7825;-0.4079;-4.6963;2.564;0.4275;-0.3607;-0.5467;931.0;-11.94;-51.36;-33.42;199.53;-48.15;-24.59;2.0;982.31;62.037;;;;NaN;;;;;0 / 0;1010;2022-10-30 20:19:29:390
-1.0271;4.8964;13.5898;1.9738;8.556;4.3669;1.1889;-0.1784;3.5128;0.386;0.3589;0.1338;16.0;-11.64;-53.76;-30.12;255.28;-58.98;-22.77;2.0;982.35;58.298;;;;NaN;;;;;0 / 0;1511;2022-10-30 20:19:29:891
-1.0343;5.744;11.1693;1.4794;8.1841;5.1964;-2.7795;-3.0698;3.3512;0.0977;1.4328;-0.0165;79.0;-12.18;-51.06;-37.92;355.43;-56.48;-18.11;2.0;982.36;56.832;;;;NaN;;;;;0 / 0;2011;2022-10-30 20:19:30:391
-2.6336;2.8395;4.7597;4.7144;7.7418;3.743;-4.4894;-4.014;2.4464;0.9474;-0.6527;2.4826;546.0;-33.18;-57.12;-33.6;49.08;-60.0;-28.57;2.0;982.34;59.864;;;;NaN;;;;;0 / 0;2510;2022-10-30 20:19:30:890
8.9666;-4.7716;2.6312;7.0679;-6.7867;0.3932;1.3217;0.868;5.8607;-1.6115;-0.1909;2.1289;30.0;-46.5;32.46;-19.14;314.1;26.95;-74.89;2.0;982.38;60.221;;;;NaN;;;;;0 / 0;3011;2022-10-30 20:19:31:391
3.2034;-4.1348;-0.5028;9.3062;-2.4722;-1.8582;-4.5465;-1.3561;4.1327;0.857;-1.1976;0.3109;10.0;-68.58;10.68;5.76;213.06;20.85;-102.61;2.0;982.54;57.7;;;;NaN;;;;;0 / 0;3511;2022-10-30 20:19:31:891
7.3529;-7.9155;8.5141;8.9567;-3.2905;-2.2626;-0.8616;-4.1198;4.3576;1.3615;0.6619;-0.058;5.0;-73.56;1.62;9.18;217.72;12.98;-105.65;2.0;982.38;56.356;;;;NaN;;;;;0 / 0;4011;2022-10-30 20:19:32:391
7.3649;-3.0215;-5.677;7.6799;-4.9127;-3.6131;-3.4733;1.4435;1.8222;-0.6977;-0.3192;0.8198;0.0;-51.0;2.16;23.28;162.27;25.53;-107.01;2.0;982.53;59.524;;;;NaN;;;;;0 / 0;4510;2022-10-30 20:19:32:890
10.1637;-3.1556;1.3431;4.7018;-6.6341;-5.482;5.8689;2.0587;9.0111;2.1636;-0.9508;-0.7526;0.0;-19.26;-1.08;21.18;188.87;35.61;-143.31;2.0;982.58;61.625;;;;NaN;;;;;0 / 0;5010;2022-10-30 20:19:33:390
6.0265;-4.7788;-2.2458;2.0568;-8.7694;-3.8777;4.6999;1.0646;7.3325;-0.2261;0.6448;1.273;0.0;-14.28;1.98;5.46;221.94;61.35;-145.3;2.0;982.73;61.516;;;;NaN;;;;;0 / 0;5511;2022-10-30 20:19:33:891
-0.1867;-6.4359;-7.5229;-2.8924;-8.507;-3.9288;4.7862;-2.3534;-3.5605;1.6682;0.1005;-0.4007;0.0;2.64;-3.18;-7.2;66.66;52.96;156.75;2.0;982.5;63.844;;;;NaN;;;;;0 / 0;6011;2022-10-30 20:19:34:391
1.221;-8.4614;-1.5371;-5.9024;-7.7602;1.0537;1.9831;-1.4961;1.0053;1.1667;0.5024;0.4142;0.0;9.24;-2.22;-35.28;97.52;53.17;97.4;2.0;982.39;67.184;;;;NaN;;;;;0 / 0;6510;2022-10-30 20:19:34:890
-0.8643;-11.2985;-0.5148;-5.8385;-7.0754;-3.4671;4.5049;-0.6079;4.3171;-1.0978;-2.222;-0.4704;0.0;11.7;33.18;-16.86;48.83;51.39;115.9;2.0;982.4;66.558;;;;NaN;;;;;0 / 0;7010;2022-10-30 20:19:35:390
-2.6887;-8.1645;0.5124;-5.6141;-8.0272;-0.4643;7.7952;-4.5713;1.4842;1.8686;0.1836;-0.3073;0.0;1.26;47.1;-0.9;2.22;49.77;99.51;2.0;982.96;67.113;;;;NaN;;;;;0 / 0;7511;2022-10-30 20:19:35:891
-2.0231;-13.5323;2.6408;-5.3587;-7.8349;-2.4633;3.9078;-6.2289;-0.4864;-2.2768;0.2477;-0.9407;0.0;-8.52;36.48;2.88;354.76;53.5;87.7;2.0;982.4;62.045;;;;NaN;;;;;0 / 0;8011;2022-10-30 20:19:36:391
-2.6384;-4.4604;-6.1678;-5.6346;-7.9476;-1.1208;13.4137;-13.5122;11.8136;-0.5303;-3.572;0.6096;0.0;-12.96;10.86;-0.54;357.42;54.05;97.76;2.0;982.85;65.1;;;;NaN;;;;;0 / 0;8511;2022-10-30 20:19:36:891
2.7605;-10.2355;-0.9481;-5.8246;-7.6619;1.8816;13.1918;-6.2559;-1.4267;0.3426;0.3601;0.405;0.0;-1.86;7.98;-55.2;96.78;55.05;73.9;2.0;982.5;67.933;;;;NaN;;;;;0 / 0;9010;2022-10-30 20:19:37:390
-0.7207;-3.7014;0.5507;-5.4996;-8.0544;-1.0251;3.3353;5.392;-1.6707;-1.9103;-0.1518;0.5137;0.0;-24.18;40.02;21.06;320.67;48.59;115.78;2.0;982.58;65.298;;;;NaN;;;;;0 / 0;9510;2022-10-30 20:19:37:890
1.0367;-11.8731;0.8068;-5.131;-8.294;1.0256;5.9235;1.669;-1.66;1.2412;0.6613;0.4722;0.0;-39.78;20.94;-15.48;24.75;60.55;82.75;2.0;982.42;66.242;;;;NaN;;;;;0 / 0;10011;2022-10-30 20:19:38:391
-1.6376;-4.0079;0.8811;-5.5123;-7.7045;-2.5346;7.2984;-2.5669;3.3271;-1.2157;-2.324;-0.5308;0.0;-25.14;7.44;-14.28;13.78;54.57;105.99;2.0;982.35;62.856;;;;NaN;;;;;0 / 0;10510;2022-10-30 20:19:38:890
-3.565;-6.5796;-0.4741;-4.4206;-8.5603;1.8303;3.4175;0.5968;-1.6651;1.8276;-0.3839;-0.4368;0.0;-23.64;14.46;-26.16;50.98;61.85;80.91;2.0;982.48;67.046;;;;NaN;;;;;0 / 0;11010;2022-10-30 20:19:39:390
-2.8395;-15.5869;0.6847;-5.0594;-8.3612;-0.8143;4.6476;-5.9038;4.7408;-2.8553;0.4133;-0.7453;0.0;-16.26;23.34;-14.34;36.0;53.98;77.27;2.0;982.42;60.732;;;;NaN;;;;;0 / 0;11511;2022-10-30 20:19:39:891
0.589;-23.4973;-3.134;-4.5892;-8.6663;-0.059;2.286;6.988;6.6098;-1.2615;1.0455;-0.4496;0.0;-15.6;8.28;9.6;331.12;60.67;89.6;2.0;982.78;65.538;;;;NaN;;;;;0 / 0;12010;2022-10-30 20:19:40:390
8.0735;-12.6058;-0.5483;-5.6159;-7.3435;3.2717;4.2728;-6.7826;-9.8489;-3.2163;-0.5727;-0.5852;0.0;-14.28;8.16;-24.9;84.62;49.9;54.28;2.0;982.44;65.05;;;;NaN;;;;;0 / 0;12511;2022-10-30 20:19:40:891
-3.3806;-2.4229;-2.3439;-2.7597;-9.3289;1.2349;-3.5206;2.3591;-8.3387;-1.1876;-0.9752;0.3702;0.0;-23.28;27.06;16.02;322.26;67.4;104.21;2.0;982.67;64.933;;;;NaN;;;;;0 / 0;13010;2022-10-30 20:19:41:390
-1.5706;-11.1453;-3.0885;-2.9566;-7.9515;4.9195;2.8968;0.7806;-3.9523;0.8918;1.2147;0.4691;0.0;-29.1;35.82;-8.28;51.02;63.11;30.93;2.0;982.35;68.109;;;;NaN;;;;;0 / 0;13510;2022-10-30 20:19:41:890
-2.387;-4.9539;0.917;-1.1967;-9.724;-0.4272;0.7514;4.0135;1.1861;-0.4613;-1.9594;-0.9212;0.0;-10.56;6.84;9.12;0.53;69.83;50.12;2.0;982.37;65.529;;;;NaN;;;;;0 / 0;14011;2022-10-30 20:19:42:391
-5.2747;-8.9762;-0.1724;0.4075;-8.8908;4.1179;0.8207;-1.2441;-5.971;1.3005;-0.4664;-0.3946;0.0;2.82;3.0;-30.6;207.61;76.49;-20.82;2.0;982.68;65.129;;;;NaN;;;;;0 / 0;14511;2022-10-30 20:19:42:891
-0.5267;-14.9117;-3.0191;0.1316;-9.7217;1.2808;-1.1994;-2.7931;-3.6487;-3.0104;0.3271;-0.8094;0.0;21.42;22.08;-25.08;219.96;63.49;14.8;2.0;982.34;55.613;;;;NaN;;;;;0 / 0;15011;2022-10-30 20:19:43:391
-1.3312;-20.3968;-0.7997;1.4818;-9.6759;-0.5925;-3.3061;3.4555;5.86;2.6547;2.5244;-0.8155;0.0;13.74;35.04;-19.26;330.07;81.63;-107.76;2.0;982.67;64.876;;;;NaN;;;;;0 / 0;15511;2022-10-30 20:19:43:891
6.1869;-10.8149;-1.3096;-0.332;-7.5161;6.2904;3.1883;-5.3243;-8.9958;-3.2236;-0.5452;-0.4282;0.0;30.72;20.7;-38.76;242.63;52.79;-2.93;2.0;982.39;63.412;;;;NaN;;;;;0 / 0;16011;2022-10-30 20:19:44:391
-3.2082;-32.3537;-11.5404;1.985;-9.5639;-0.8729;-4.1542;7.4019;-2.1797;-1.8657;0.0541;0.7495;0.0;8.46;45.66;-0.12;23.77;75.4;-149.05;2.0;982.45;67.014;;;;NaN;;;;;0 / 0;16510;2022-10-30 20:19:44:890
1.7071;-9.0791;-2.9449;1.9819;-8.7628;3.9313;-1.8933;0.4403;-4.324;1.4605;1.1542;0.2266;0.0;3.24;52.44;-29.52;272.18;63.32;-26.75;2.0;982.35;67.96;;;;NaN;;;;;0 / 0;17011;2022-10-30 20:19:45:391
-1.0989;-6.254;0.2777;1.6478;-9.0701;-3.3447;-3.7691;3.8433;3.2537;-1.7954;-3.0986;-0.0837;0.0;7.02;37.8;39.36;83.15;75.89;-106.96;2.0;982.31;61.725;;;;NaN;;;;;0 / 0;17512;2022-10-30 20:19:45:892
0.4525;-11.4398;-1.0415;2.509;-9.4795;-0.1175;-4.8578;-0.5908;-1.6829;1.5253;1.3308;-0.7324;0.0;5.4;43.44;31.14;118.06;73.1;-149.6;2.0;982.47;67.12;;;;NaN;;;;;0 / 0;18011;2022-10-30 20:19:46:391
2.7318;-9.3784;-0.4334;3.0495;-9.267;0.9964;-3.2601;-1.3563;-0.6085;-2.2291;-1.3937;0.1729;0.0;-5.16;32.52;26.22;33.96;63.46;-38.92;2.0;982.4;55.723;;;;NaN;;;;;0 / 0;18511;2022-10-30 20:19:46:891
-3.7493;-7.4582;-5.9403;1.6218;-7.6108;-5.9678;-7.4663;-9.3168;-5.2062;-2.7984;-3.1921;0.5186;0.0;16.44;-9.12;25.14;132.89;45.0;-164.75;2.0;983.07;67.217;;;;NaN;;;;;0 / 0;19011;2022-10-30 20:19:47:391
-0.5171;-8.6362;-0.0048;3.4474;-8.8093;-2.585;-7.4385;2.924;5.427;0.4471;1.9404;0.1063;0.0;16.14;-4.56;4.86;93.64;56.78;-155.76;2.0;982.24;65.336;;;;NaN;;;;;0 / 0;19510;2022-10-30 20:19:47:890
-3.0095;-8.7942;-0.7757;4.2779;-8.8192;0.3006;-6.6434;-4.3803;-2.5656;-2.9243;0.6973;0.6616;0.0;18.18;-3.3;-1.2;345.24;64.67;-80.83;2.0;982.33;55.913;;;;NaN;;;;;0 / 0;20011;2022-10-30 20:19:48:391
-6.0121;-10.5707;-4.2617;0.2559;-8.0962;-5.5277;-10.3405;-3.2287;-1.32;1.3786;0.6515;-0.6402;0.0;19.32;10.5;-26.52;37.06;48.74;177.25;2.0;982.47;59.517;;;;NaN;;;;;0 / 0;20511;2022-10-30 20:19:48:891
-1.3072;-9.1581;0.4238;3.7865;-8.9728;-1.1495;-4.4066;0.5042;-0.3086;0.992;-0.1732;-0.2505;0.0;22.38;24.9;-31.8;346.3;63.48;-129.26;2.0;982.43;67.674;;;;NaN;;;;;0 / 0;21011;2022-10-30 20:19:49:391
0.7278;-11.8468;-1.1612;3.2517;-7.6753;-5.1658;-3.1536;-2.5458;4.2416;-1.201;-1.4639;-0.1289;0.0;22.44;37.44;18.6;44.86;63.09;-116.15;2.0;982.38;58.805;;;;NaN;;;;;0 / 0;21511;2022-10-30 20:19:49:891
1.4174;-14.6911;4.1061;2.0855;-7.5639;-5.8829;-10.1183;2.3921;6.0385;1.6706;3.2269;-0.8845;0.0;21.54;23.34;19.74;76.4;48.63;-160.29;2.0;982.67;67.334;;;;NaN;;;;;0 / 0;22010;2022-10-30 20:19:50:390
0.2873;-12.2921;-1.063;3.6168;-9.0764;0.8411;2.2756;-2.7896;-0.379;-1.5731;-0.1579;0.0983;0.0;13.98;25.02;-9.6;335.77;66.4;-89.12;2.0;982.43;63.938;;;;NaN;;;;;0 / 0;22510;2022-10-30 20:19:50:890
-2.4493;-6.2396;-5.2244;2.0498;-7.6503;-5.7829;-8.2511;-12.792;-1.5293;2.678;0.0883;0.0635;0.0;16.5;48.72;11.7;31.3;41.2;-166.62;2.0;982.6;63.452;;;;NaN;;;;;0 / 0;23011;2022-10-30 20:19:51:391
-0.4573;-9.5412;-1.7095;3.7207;-8.6425;-2.7628;-4.4557;-0.5276;2.9999;1.1942;1.2593;-0.2877;0.0;8.1;55.14;11.1;25.89;56.74;-143.9;2.0;982.41;59.092;;;;NaN;;;;;0 / 0;23511;2022-10-30 20:19:51:891
-2.6217;-7.7934;-0.5986;3.3435;-8.6768;-3.115;-4.8375;-2.1788;3.1677;-2.1656;1.2666;0.3903;0.0;4.32;44.82;31.86;71.89;67.18;-111.18;2.0;982.41;52.981;;;;NaN;;;;;0 / 0;24010;2022-10-30 20:19:52:390
-1.4892;-11.1238;-8.1406;2.6402;-8.0254;-4.9792;-2.4223;-3.2397;-6.6234;-0.1394;-0.4694;0.11;0.0;8.94;28.02;39.9;110.55;51.49;-157.62;2.0;982.53;60.301;;;;NaN;;;;;0 / 0;24510;2022-10-30 20:19:52:890
1.7478;-10.5228;-0.7039;4.1582;-8.7871;-1.2905;-2.7241;-0.6775;0.9481;0.9437;1.2459;0.1264;0.0;-9.06;28.32;22.86;111.66;61.49;-127.08;2.0;982.45;60.912;;;;NaN;;;;;0 / 0;25011;2022-10-30 20:19:53:391
-1.6281;-11.3177;-1.0487;3.121;-9.2939;-0.2305;-5.4697;0.2962;-0.6075;-1.6402;-1.5733;0.1326;0.0;-13.08;23.4;13.32;83.4;66.34;-70.76;2.0;982.47;57.633;;;;NaN;;;;;0 / 0;25510;2022-10-30 20:19:53:890
-0.5363;-7.7001;-6.661;2.4604;-9.395;-1.3602;-4.0741;-2.2411;-6.5385;-0.6726;-0.5745;0.1894;0.0;-3.66;13.92;19.56;118.95;73.34;-118.94;2.0;982.5;64.247;;;;NaN;;;;;0 / 0;26012;2022-10-30 20:19:54:392
2.4828;-9.3928;-0.9218;2.6857;-9.0793;2.5542;-1.9171;-0.8426;-4.2086;0.6499;1.5122;-0.2254;0.0;-4.68;11.28;5.34;84.14;71.37;-70.26;2.0;982.42;67.226;;;;NaN;;;;;0 / 0;26510;2022-10-30 20:19:54:890
-1.1971;-12.9601;-2.1859;0.6086;-9.7863;-0.1646;2.8846;-4.1698;0.3058;-3.6659;1.2764;0.8839;0.0;-1.14;0.48;-1.38;149.22;67.28;-16.21;2.0;982.38;58.97;;;;NaN;;;;;0 / 0;27010;2022-10-30 20:19:55:390
-7.2859;-9.9075;-11.0064;-1.1079;-8.0602;-5.4751;-4.2458;4.1935;-3.0174;1.6572;0.5128;0.2315;0.0;-9.0;-2.16;5.88;246.73;49.91;167.86;2.0;983.22;68.145;;;;NaN;;;;;0 / 0;27510;2022-10-30 20:19:55:890
0.8428;-9.1557;-2.569;0.58;-9.5274;2.2501;0.3298;1.0181;-4.472;0.5509;0.1494;-0.2773;0.0;-15.36;-3.66;-12.42;152.54;85.02;-23.49;2.0;982.12;63.465;;;;NaN;;;;;0 / 0;28011;2022-10-30 20:19:56:391
-0.8954;-12.7566;2.2529;0.0547;-9.7884;0.5946;-0.1145;-3.7128;0.8036;-2.209;-2.1176;-0.2089;0.0;-11.22;-0.36;-10.02;134.73;67.63;-4.7;2.0;982.16;56.685;;;;NaN;;;;;0 / 0;28511;2022-10-30 20:19:56:891
-6.8166;-5.1095;0.565;0.4291;-9.1946;-3.383;-3.2303;6.5777;0.9817;2.2962;0.2068;0.4759;0.0;-9.3;3.3;4.14;267.79;56.05;170.52;2.0;983.1;68.036;;;;NaN;;;;;0 / 0;29011;2022-10-30 20:19:57:391
-5.8038;-13.0415;-2.5426;1.2387;-9.2647;2.9667;-2.4119;-2.2757;-5.4614;0.3982;1.3766;0.5925;0.0;-12.66;3.48;-15.06;175.66;71.33;-37.01;2.0;982.17;64.337;;;;NaN;;;;;0 / 0;29511;2022-10-30 20:19:57:891
-2.7581;-1.7621;-5.4447;-0.7826;-8.5327;-4.7698;-3.0194;6.8975;-0.4331;1.1984;0.3167;-0.3231;0.0;-13.86;4.92;9.54;258.75;54.9;169.57;2.0;983.04;67.068;;;;NaN;;;;;0 / 0;30010;2022-10-30 20:19:58:390
-0.1844;-12.0312;-5.2197;0.5525;-9.3772;2.8166;-3.6961;-3.1472;-7.5427;0.7171;0.9551;0.0183;0.0;-20.76;3.42;-19.68;136.55;76.05;-4.8;2.0;982.16;68.659;;;;NaN;;;;;0 / 0;30511;2022-10-30 20:19:58:891
-3.3567;-2.4277;-3.1436;-1.2828;-8.3116;-5.044;-1.8991;5.3141;2.2835;0.2785;9.0E-4;-0.8137;0.0;-24.66;9.78;15.84;253.2;77.12;168.81;2.0;982.48;69.389;;;;NaN;;;;;0 / 0;31011;2022-10-30 20:19:59:391
0.3831;-8.4183;-0.3352;0.6289;-9.5992;1.9054;0.1708;1.1138;-2.2861;0.3359;-0.4701;-0.3018;0.0;-32.52;10.74;-7.38;116.26;78.19;-18.27;2.0;982.23;65.254;;;;NaN;;;;;0 / 0;31511;2022-10-30 20:19:59:891
-1.7549;-6.8597;5.0449;0.1165;-9.8059;0.0208;-3.0758;2.3309;1.6456;-5.4307;-0.6417;0.5669;0.0;-31.62;11.52;-4.08;92.94;70.73;-3.46;2.0;982.11;57.977;;;;NaN;;;;;0 / 0;32011;2022-10-30 20:20:00:391
-0.3974;-13.6137;-2.1189;0.9168;-9.7299;0.8118;-3.5456;3.677;-2.5428;1.8496;0.6429;-0.5473;0.0;-35.46;7.98;2.1;247.92;79.27;-158.54;2.0;982.62;65.393;;;;NaN;;;;;0 / 0;32511;2022-10-30 20:20:00:891
-1.2833;-10.1445;-1.889;0.8658;-9.2684;3.0851;0.8125;-5.339;-5.125;0.4575;0.0608;0.1839;0.0;-34.08;6.66;-7.68;120.75;73.57;-21.44;2.0;982.1;60.532;;;;NaN;;;;;0 / 0;33011;2022-10-30 20:20:01:391
-0.7566;-8.222;-4.4053;-0.7235;-8.707;-4.4536;-1.7402;3.4993;0.8552;-2.0453;-1.6771;-0.1295;0.0;-30.96;8.88;21.0;246.83;76.05;172.81;2.0;982.13;65.191;;;;NaN;;;;;0 / 0;33510;2022-10-30 20:20:01:890
1.743;-10.9203;-2.4086;1.1308;-9.6759;-1.126;-4.7556;0.9009;-2.8029;1.5173;0.8238;-0.234;0.0;-35.04;6.72;14.1;237.42;71.18;-164.77;2.0;982.23;62.338;;;;NaN;;;;;0 / 0;34011;2022-10-30 20:20:02:391
-0.6201;-10.9514;-2.3415;1.6326;-9.2986;2.6536;-3.0476;-0.9633;-3.4269;0.3188;0.5403;0.3684;0.0;-36.66;10.68;-3.06;120.04;71.48;-31.6;2.0;982.13;58.962;;;;NaN;;;;;0 / 0;34510;2022-10-30 20:20:02:890
-3.2753;-5.3466;-4.0917;0.0807;-8.2354;-5.3236;-2.4653;2.027;1.4737;-0.9909;-1.0583;0.2981;0.0;-21.06;6.72;30.36;198.92;75.02;-162.4;2.0;982.33;66.475;;;;NaN;;;;;0 / 0;35011;2022-10-30 20:20:03:391
-0.2298;-8.3106;-4.8004;1.4216;-9.6986;0.2945;-3.3729;0.6219;-1.5682;2.1001;0.6961;-0.2462;0.0;-29.34;17.94;8.1;237.39;76.34;-155.08;2.0;982.53;64.617;;;;NaN;;;;;0 / 0;35510;2022-10-30 20:20:03:890
5.0784;-14.3751;3.3567;0.6457;-9.615;1.8179;-0.3775;-0.8384;-5.1195;-0.8492;0.1506;0.2498;0.0;-30.54;20.88;-7.98;114.81;72.35;-22.23;2.0;981.97;58.456;;;;NaN;;;;;0 / 0;36010;2022-10-30 20:20:04:390
-2.5355;-3.1556;-7.1494;-1.531;-8.2028;-5.1517;-1.2607;5.8732;-1.763;0.7965;-0.0119;-0.6536;0.0;-18.42;15.18;32.94;243.6;56.99;162.13;2.0;982.43;67.959;;;;NaN;;;;;0 / 0;36510;2022-10-30 20:20:04:890
-0.5411;-8.8636;-0.8452;0.5537;-9.4985;2.3751;-1.0732;0.4506;-2.5284;0.8295;0.6735;-0.4985;0.0;-34.14;22.68;-9.12;144.72;86.97;-41.08;2.0;981.9;64.656;;;;NaN;;;;;0 / 0;37011;2022-10-30 20:20:05:391
4.8076;-15.6156;2.1069;-0.3537;-9.6202;1.8702;1.3258;-2.9449;-1.3267;-2.9756;-3.7064;-0.6652;0.0;-27.18;19.5;-17.52;108.06;63.79;-2.85;2.0;981.94;59.847;;;;NaN;;;;;0 / 0;37510;2022-10-30 20:20:05:890
-2.4636;-3.7373;-5.3777;-1.0236;-8.4228;-4.9171;-4.038;-0.8885;-3.7909;0.8881;0.0522;-0.9065;0.0;-19.62;14.52;24.78;260.14;52.45;161.62;2.0;982.98;66.541;;;;NaN;;;;;0 / 0;38011;2022-10-30 20:20:06:391
-2.1739;-9.6944;-2.3535;1.4246;-9.6666;0.8352;-0.5268;0.0679;-1.812;0.8606;0.3277;-0.1564;0.0;-32.64;19.44;-4.2;206.03;82.44;-107.03;2.0;982.06;60.487;;;;NaN;;;;;0 / 0;38511;2022-10-30 20:20:06:891
-0.5866;-9.8907;-2.9951;0.1148;-9.8051;0.1301;1.281;0.5536;0.9903;-2.603;-0.5513;0.4679;0.0;-30.0;22.26;-8.16;107.72;73.41;-15.06;2.0;981.85;57.843;;;;NaN;;;;;0 / 0;39010;2022-10-30 20:20:07:390
-2.1404;-2.636;-5.8829;-1.7044;-7.5678;-5.9994;-0.9316;4.7235;-1.2146;1.1404;0.3418;-1.0055;0.0;-22.68;12.78;33.24;250.18;49.18;164.94;2.0;982.31;64.566;;;;NaN;;;;;0 / 0;39510;2022-10-30 20:20:07:890
0.146;-9.364;-2.6647;1.1032;-9.7193;0.6985;-0.0378;-0.1954;-2.9395;0.5112;0.3357;-0.3238;0.0;-39.6;21.42;-1.86;238.05;82.6;-141.67;2.0;981.83;61.799;;;;NaN;;;;;0 / 0;40011;2022-10-30 20:20:08:391
-2.9305;-9.7088;-2.2936;0.7244;-9.5113;2.2761;-5.1201;-0.8128;-4.0622;-2.3611;-0.1634;0.7178;0.0;-39.78;20.22;-17.28;134.11;75.85;-26.68;2.0;981.88;58.981;;;;NaN;;;;;0 / 0;40511;2022-10-30 20:20:08:891
-3.6512;-4.5083;-5.0832;-1.9752;-7.4102;-6.1121;-2.1021;2.6625;1.1342;0.6022;0.1878;-0.4643;0.0;-21.48;11.4;35.4;235.27;55.32;169.29;2.0;982.59;63.924;;;;NaN;;;;;0 / 0;41010;2022-10-30 20:20:09:390
-0.4453;-7.2763;-2.1165;0.9849;-9.7065;0.9916;0.4947;0.3042;-2.1599;1.2412;1.3314;-0.0189;0.0;-40.14;19.74;-5.7;223.93;84.78;-123.49;2.0;981.97;62.222;;;;NaN;;;;;0 / 0;41510;2022-10-30 20:20:09:890
-2.7988;-8.9929;-3.1077;-0.6213;-9.7718;-0.5435;3.4871;-2.6328;4.367;-2.989;-2.0369;0.7123;0.0;-31.68;21.24;-9.42;96.37;76.73;0.65;2.0;981.84;62.6;;;;NaN;;;;;0 / 0;42010;2022-10-30 20:20:10:390
8.4279;-10.542;-5.7536;-1.2044;-8.6373;-4.4851;-5.5523;-10.1387;-6.1885;1.8814;1.6411;-0.6402;0.0;-26.7;13.08;17.22;275.78;52.86;158.39;2.0;982.69;66.042;;;;NaN;;;;;0 / 0;42511;2022-10-30 20:20:10:891
-0.091;-9.7639;0.1987;0.8402;-9.673;1.3774;-0.5936;-0.8211;-2.3518;0.4092;-0.7975;-0.0379;0.0;-35.94;12.54;-14.16;147.21;83.6;-37.29;2.0;981.84;61.887;;;;NaN;;;;;0 / 0;43010;2022-10-30 20:20:11:390
-0.8739;-9.1892;-1.9992;-0.0226;-9.73;-1.223;-0.0445;-0.3786;0.421;-3.2505;-1.3583;-0.2144;0.0;-34.08;14.28;-11.94;113.53;80.82;-7.65;2.0;981.86;55.331;;;;NaN;;;;;0 / 0;43511;2022-10-30 20:20:11:891
-3.6799;-4.2665;-7.6546;-2.6073;-7.313;-5.991;-0.6464;2.7784;-1.7282;1.3548;0.9068;-0.5907;0.0;-26.22;10.74;20.58;273.61;44.91;155.17;2.0;982.8;64.748;;;;NaN;;;;;0 / 0;44010;2022-10-30 20:20:12:390
1.1253;-9.9721;-1.7933;0.2144;-9.7486;1.0439;0.7337;-0.3265;-2.3894;0.5326;1.7926;0.0159;0.0;-31.38;8.16;-26.88;172.9;86.89;-41.93;2.0;981.75;62.891;;;;NaN;;;;;0 / 0;44511;2022-10-30 20:20:12:891
-2.1308;-8.5404;-3.3974;-1.2013;-9.6591;-1.1955;5.0823;-4.7783;3.6926;-2.6598;-2.5055;0.4887;0.0;-25.14;11.34;-24.06;102.62;81.04;28.26;2.0;981.8;57.151;;;;NaN;;;;;0 / 0;45011;2022-10-30 20:20:13:391
-7.9897;-12.8955;-8.6146;-1.5513;-8.1291;-5.2613;-0.4168;4.7389;-1.7373;0.8619;0.5287;-0.7123;0.0;-34.62;7.98;8.28;285.06;48.22;158.08;2.0;982.46;68.149;;;;NaN;;;;;0 / 0;45511;2022-10-30 20:20:13:891
0.4525;-9.9769;-1.6472;0.7304;-9.7417;0.8574;-1.9849;0.665;-3.2396;0.3402;0.1457;0.0953;0.0;-37.98;-0.48;-18.72;211.59;86.97;-94.99;2.0;981.77;65.135;;;;NaN;;;;;0 / 0;46010;2022-10-30 20:20:14:390
-2.6576;-7.6713;-2.7869;-0.3626;-9.5262;-2.2997;-1.2846;2.1422;-0.0107;-2.8211;-1.7584;0.0794;0.0;-37.44;3.84;-13.62;86.02;84.62;24.18;2.0;981.78;61.817;;;;NaN;;;;;0 / 0;46510;2022-10-30 20:20:14:890
-4.7645;-5.4375;-1.1133;-0.6681;-9.5;-2.3395;1.2523;-1.3747;-0.0931;2.488;0.7871;0.0904;0.0;-41.64;1.14;-3.3;286.92;61.03;165.63;2.0;982.4;66.237;;;;NaN;;;;;0 / 0;47011;2022-10-30 20:20:15:391
-1.1157;-10.1828;-1.8004;0.0821;-9.703;1.4197;-1.0206;-5.2997;-3.1388;0.5137;0.1927;0.234;0.0;-39.18;-4.5;-17.34;136.3;84.63;-22.53;2.0;981.67;57.991;;;;NaN;;;;;0 / 0;47510;2022-10-30 20:20:15:890
-0.51;-6.1845;-3.6081;-2.3779;-7.1469;-6.2799;0.1369;5.8971;2.1811;-1.7233;-1.5391;-0.0953;0.0;-34.92;4.56;13.02;270.48;57.63;163.92;2.0;981.91;66.617;;;;NaN;;;;;0 / 0;48010;2022-10-30 20:20:16:390
2.1213;-9.546;-0.577;0.1776;-9.7876;0.5844;0.0259;1.3382;-2.9259;0.5735;0.5354;-0.383;0.0;-38.76;1.8;-19.68;285.73;84.14;-168.4;2.0;981.88;68.137;;;;NaN;;;;;0 / 0;48511;2022-10-30 20:20:16:891
2.4181;-9.0983;-3.7709;-0.4259;-9.3006;3.0804;3.8256;-0.7219;-7.3875;-2.107;1.3827;0.1448;0.0;-29.52;-0.54;-29.52;150.16;76.69;-15.67;2.0;981.76;56.247;;;;NaN;;;;;0 / 0;49011;2022-10-30 20:20:17:391
-1.2761;-3.0813;-3.8786;-0.6273;-8.8883;-4.0956;-0.5482;5.9363;1.6296;2.5069;0.1585;-0.529;0.0;-19.02;22.8;5.4;291.5;66.17;170.32;2.0;981.67;63.32;;;;NaN;;;;;0 / 0;49510;2022-10-30 20:20:17:890
2.0327;-8.3034;0.3184;0.6087;-9.7673;0.6314;1.199;0.5182;0.1108;1.4135;2.8347;0.0519;0.0;-26.34;34.74;-15.18;292.81;80.12;-162.37;2.0;981.82;67.146;;;;NaN;;;;;0 / 0;50010;2022-10-30 20:20:18:390
1.1851;-12.4669;-1.2474;0.4871;-9.3744;-2.8379;-0.3004;3.276;3.4509;-3.3543;-3.1151;-0.0666;0.0;-28.26;34.2;18.48;93.93;88.45;-38.25;2.0;981.83;61.289;;;;NaN;;;;;0 / 0;50511;2022-10-30 20:20:18:891
5.6075;-13.8316;6.242;-0.4011;-9.4071;-2.7414;8.1155;-4.3551;4.8985;2.5326;1.3937;-1.2346;0.0;-7.8;12.0;32.82;210.6;68.71;168.58;2.0;982.11;68.623;;;;NaN;;;;;0 / 0;51011;2022-10-30 20:20:19:391
5.1526;-9.9123;-0.8571;-0.1689;-9.3176;3.0535;-1.3682;-3.0799;-3.7407;-0.6054;0.5782;0.0226;0.0;-17.76;13.08;4.38;68.12;73.82;-0.72;2.0;981.79;62.304;;;;NaN;;;;;0 / 0;51510;2022-10-30 20:20:19:890
-6.3473;-10.7431;-8.0759;-0.1187;-9.0453;-3.7866;-2.6131;2.6429;-3.0181;2.5216;0.3833;-0.9878;0.0;-9.96;-5.88;5.88;233.26;59.35;176.67;2.0;982.07;63.044;;;;NaN;;;;;0 / 0;52011;2022-10-30 20:20:20:391
0.9074;-9.2395;1.0582;1.5163;-9.6721;0.5663;-2.3543;0.593;0.4034;1.5295;2.1231;-0.0983;0.0;-10.08;-0.66;-17.28;288.48;79.67;-139.73;2.0;981.83;65.309;;;;NaN;;;;;0 / 0;52511;2022-10-30 20:20:20:891
-1.8986;-9.048;-0.146;-1.2574;-9.1243;-3.3669;-0.1791;0.4115;2.6606;-0.6659;-1.3601;0.2981;0.0;8.88;14.34;-13.38;36.84;81.06;173.43;2.0;981.73;60.303;;;;NaN;;;;;0 / 0;53011;2022-10-30 20:20:21:391
-3.8762;-6.5173;-4.0366;-2.8731;-8.9669;-2.7403;-2.6674;3.4552;2.0197;0.4214;-0.4823;-0.1936;0.0;13.32;12.6;-15.96;68.58;66.89;137.86;2.0;982.08;64.834;;;;NaN;;;;;0 / 0;53511;2022-10-30 20:20:21:891
-1.3431;-9.8165;-1.5203;-0.5303;-9.7658;0.7205;0.3148;0.2892;0.2923;0.8808;1.0027;-0.4423;0.0;13.32;5.94;-21.24;102.02;83.93;108.23;2.0;981.66;65.804;;;;NaN;;;;;0 / 0;54011;2022-10-30 20:20:22:391
-0.067;-9.3425;0.091;-0.7146;-9.4146;2.6503;0.7458;-1.3404;-3.1172;-1.7282;-0.7333;-0.0293;0.0;19.56;4.08;-23.46;212.45;71.4;11.24;2.0;981.73;61.25;;;;NaN;;;;;0 / 0;54511;2022-10-30 20:20:22:891
-8.0592;-18.4503;-6.6346;-1.5148;-9.1519;-3.1807;-4.9618;0.0034;-4.4762;2.0133;0.9252;-0.5748;0.0;15.9;16.8;-13.56;57.06;60.13;153.99;2.0;982.04;65.781;;;;NaN;;;;;0 / 0;55011;2022-10-30 20:20:23:391
-0.4741;-9.7112;-0.7063;0.3675;-9.7995;0.0683;-0.5566;0.4594;-1.0428;0.6933;0.869;-0.2517;0.0;15.72;18.66;-22.14;38.7;82.11;174.15;2.0;981.86;62.044;;;;NaN;;;;;0 / 0;55511;2022-10-30 20:20:23:891
1.4724;-11.1525;-1.4533;-1.0941;-9.1025;-3.4809;-1.2426;1.7305;1.5967;-1.5242;-1.2526;-0.2388;0.0;20.58;19.14;-0.96;96.69;80.0;161.38;2.0;981.82;54.43;;;;NaN;;;;;0 / 0;56011;2022-10-30 20:20:24:391
-1.0654;-5.4998;-6.4407;-1.2159;-9.0915;-3.4694;-0.8671;2.1552;-0.6175;-0.0874;-0.9209;-0.3109;0.0;15.54;18.9;-2.82;78.05;72.43;160.75;2.0;981.87;60.217;;;;NaN;;;;;0 / 0;56511;2022-10-30 20:20:24:891
1.4892;-9.9027;0.0407;0.1933;-9.7951;0.4339;-0.3728;0.5197;-1.3222;0.9205;1.2123;-0.3653;0.0;9.6;15.84;-14.58;55.42;86.98;156.1;2.0;981.83;61.714;;;;NaN;;;;;0 / 0;57011;2022-10-30 20:20:25:391
1.913;-12.5675;-0.5171;0.3268;-9.6496;-1.7171;1.409;-3.1716;0.6349;-1.388;-5.7547;-1.3897;0.0;5.94;11.22;-9.72;202.31;80.53;12.32;2.0;981.86;56.084;;;;NaN;;;;;0 / 0;57511;2022-10-30 20:20:25:891
0.6943;-12.2059;1.1253;-1.8496;-9.0025;-3.4211;4.0762;-4.1228;-1.698;-1.1027;-1.7584;-0.7911;0.0;-8.64;13.26;-6.36;336.35;70.14;155.59;2.0;982.11;66.765;;;;NaN;;;;;0 / 0;58010;2022-10-30 20:20:26:390
-0.6416;-9.7974;0.0814;1.1913;-9.6985;0.8302;-0.6263;0.2723;-1.4455;0.5259;0.6833;-0.2254;0.0;-14.58;12.0;-31.08;240.74;83.96;-84.59;2.0;981.88;59.911;;;;NaN;;;;;0 / 0;58511;2022-10-30 20:20:26:891
-0.5052;-12.0527;-0.2562;0.0486;-9.6898;-1.5087;-1.0422;-2.0804;0.5534;-2.0165;1.2055;-0.5773;0.0;6.3;26.88;-25.62;185.1;78.43;9.03;2.0;981.93;63.715;;;;NaN;;;;;0 / 0;59010;2022-10-30 20:20:27:390
-0.2298;-9.6944;-5.5477;-0.4895;-9.2884;-3.1075;11.0315;-6.9401;5.4587;1.7665;1.1738;-0.3512;0.0;0.66;31.26;-4.98;6.44;67.85;170.44;2.0;982.36;66.68;;;;NaN;;;;;0 / 0;59510;2022-10-30 20:20:27:890
5.3154;-12.364;-0.7398;-1.1101;-9.2053;3.1937;0.3726;-3.999;-3.7491;-1.2175;0.4609;-0.0055;0.0;10.86;20.34;-31.32;197.29;72.05;6.25;2.0;981.88;57.82;;;;NaN;;;;;0 / 0;60011;2022-10-30 20:20:28:391
-6.5772;-16.6451;-13.6903;-0.9959;-9.3642;-2.7369;-3.3233;-20.4278;-12.6943;0.0415;-2.6374;0.4777;0.0;2.1;23.82;-4.2;13.18;60.04;157.12;2.0;981.88;68.044;;;;NaN;;;;;0 / 0;60510;2022-10-30 20:20:28:890
-3.5745;-9.1438;-2.1739;-0.3907;-9.4221;2.6911;-0.1432;-0.3178;-4.9488;1.5289;2.9392;0.1668;0.0;5.7;16.2;-27.54;217.94;86.92;-24.74;2.0;981.83;64.637;;;;NaN;;;;;0 / 0;61010;2022-10-30 20:20:29:390
0.6129;-1.9513;0.7111;-1.7594;-8.5485;-4.4719;2.1185;7.6626;6.0425;-0.1131;-2.1683;-0.3146;0.0;8.88;21.78;-2.58;57.0;74.65;163.65;2.0;981.84;57.739;;;;NaN;;;;;0 / 0;61511;2022-10-30 20:20:29:891
-2.1069;-6.8956;0.0527;-0.3341;-9.5059;2.3867;1.4881;-0.1358;-5.1927;1.5888;1.2831;0.1081;0.0;6.06;15.3;-30.12;204.85;89.09;-13.35;2.0;981.82;68.531;;;;NaN;;;;;0 / 0;62011;2022-10-30 20:20:30:391
1.2402;-9.036;1.7693;-1.2831;-8.5318;-4.6617;1.1705;6.4034;7.5802;-0.8834;-2.6918;0.0751;0.0;4.08;23.7;-5.28;27.33;80.22;174.62;2.0;981.74;59.139;;;;NaN;;;;;0 / 0;62510;2022-10-30 20:20:30:890
7.2667;-18.0385;1.5275;-0.1051;-9.7709;-0.83;-1.4512;0.3829;0.8515;1.882;0.3949;-0.3726;0.0;-2.52;21.78;-21.3;14.15;66.66;153.04;2.0;981.94;65.079;;;;NaN;;;;;0 / 0;63011;2022-10-30 20:20:31:391
-2.1237;-12.7973;7.0273;-0.1597;-9.7037;-1.4081;0.0376;-2.3347;-2.3149;-2.9591;-4.8084;0.1729;0.0;8.94;21.06;-20.52;186.24;77.57;18.33;2.0;981.78;59.383;;;;NaN;;;;;0 / 0;63511;2022-10-30 20:20:31:891
0.4645;-14.5738;1.6712;-1.8572;-8.8615;-3.7674;0.8564;2.507;4.5934;2.3682;1.8195;-0.9407;0.0;3.12;25.56;-7.98;19.57;65.94;157.77;2.0;982.23;64.966;;;;NaN;;;;;0 / 0;64010;2022-10-30 20:20:32:390
0.4717;-13.1804;1.0678;-0.8859;-9.3781;2.7271;3.5794;-2.4137;-3.3735;-2.4063;-0.6289;-0.6072;0.0;11.7;12.24;-35.7;189.04;72.07;10.7;2.0;981.86;63.618;;;;NaN;;;;;0 / 0;64511;2022-10-30 20:20:32:891
-4.0845;6.9411;-11.0663;-1.2431;-8.4995;-4.7311;-8.8631;14.3967;13.1949;0.5534;0.7511;-0.9951;0.0;-1.74;26.34;-2.4;353.44;69.53;162.72;2.0;982.45;68.605;;;;NaN;;;;;0 / 0;65011;2022-10-30 20:20:33:391
0.4262;-4.5993;-2.648;0.0644;-9.6685;-1.6391;-6.3135;-2.0874;2.0389;-4.2132;0.9013;2.375;0.0;-2.4;23.04;-17.58;296.42;84.64;-116.74;2.0;981.82;64.67;;;;NaN;;;;;0 / 0;65511;2022-10-30 20:20:33:891
-6.0768;-14.4158;-6.1702;-0.3698;-9.6009;-1.9635;10.0427;-4.427;2.8565;1.2284;-0.7291;-0.9499;0.0;1.74;21.96;-11.76;14.05;75.44;169.49;2.0;981.85;69.175;;;;NaN;;;;;0 / 0;66010;2022-10-30 20:20:34:390
0.2059;-17.9667;-4.3024;-0.7495;-9.4435;-2.5355;-4.7048;-4.2301;3.6608;-1.7478;-0.4059;0.4954;0.0;6.84;17.94;-13.98;239.98;87.42;-30.82;2.0;981.9;64.509;;;;NaN;;;;;0 / 0;66511;2022-10-30 20:20:34:891
-4.2545;-12.5459;-6.3593;0.2298;-9.7011;-1.4164;-2.9257;-2.0164;1.8856;-1.2035;-2.6356;0.6231;0.0;1.86;18.3;-21.9;9.59;81.65;174.57;2.0;981.98;70.308;;;;NaN;;;;;0 / 0;67010;2022-10-30 20:20:35:390
-5.5094;-6.989;-2.9425;-1.4101;-8.5991;-4.4985;-2.9186;-1.7585;-1.461;-0.8034;-0.3894;-0.1924;0.0;8.94;22.8;-9.6;28.87;80.45;-174.43;2.0;981.9;60.54;;;;NaN;;;;;0 / 0;67510;2022-10-30 20:20:35:890
-0.3783;-10.5563;-4.4652;0.7193;-9.7505;0.7617;-1.3275;5.5176;-4.9874;0.0934;1.1707;0.2505;0.0;-1.32;15.12;-31.08;260.93;84.67;-80.19;2.0;982.13;69.267;;;;NaN;;;;;0 / 0;68011;2022-10-30 20:20:36:391
-0.9409;-3.4668;-1.0008;-1.2926;-8.8409;-4.042;-0.3115;7.7899;3.0125;2.2418;0.5366;-0.5565;0.0;-3.78;25.98;-8.22;355.72;60.01;163.37;2.0;982.08;66.167;;;;NaN;;;;;0 / 0;68511;2022-10-30 20:20:36:891
-2.2889;-7.7192;-1.2929;0.8492;-9.7243;0.9418;-0.5451;2.9604;-3.9369;1.4373;0.7688;-0.1307;0.0;-9.24;19.38;-29.76;280.08;83.81;-113.12;2.0;982.02;65.62;;;;NaN;;;;;0 / 0;69010;2022-10-30 20:20:37:390
-0.9122;-7.4032;0.2107;-0.8899;-8.1663;-5.3563;2.0942;5.1113;6.0961;0.262;-1.9245;-0.2034;0.0;-1.32;23.1;0.36;353.33;68.04;-175.83;2.0;981.93;47.082;;;;NaN;;;;;0 / 0;69511;2022-10-30 20:20:37:891
2.0566;-7.9802;-3.5698;0.7964;-9.7717;-0.2242;0.2187;1.1499;-1.1237;1.3084;1.6839;0.1668;0.0;-5.94;15.66;-25.98;338.02;80.48;-169.16;2.0;982.04;57.225;;;;NaN;;;;;0 / 0;70011;2022-10-30 20:20:38:391
1.8124;-2.794;-0.6895;-1.1204;-8.6155;-4.5484;2.3486;5.8526;2.9084;2.1618;0.321;-0.3952;0.0;-2.1;25.38;-8.16;359.46;58.29;167.29;2.0;982.08;64.493;;;;NaN;;;;;0 / 0;70510;2022-10-30 20:20:38:890
-2.0949;-6.2037;-3.6703;0.6759;-9.7815;-0.1894;-0.5083;-0.5115;-3.9118;-2.336;0.1927;0.0709;0.0;-6.72;22.92;-33.18;234.64;84.13;-63.2;2.0;982.24;70.236;;;;NaN;;;;;0 / 0;71011;2022-10-30 20:20:39:391
-5.2915;-8.2842;-7.0632;-0.0713;-9.6366;-1.8169;1.527;-2.3515;2.4586;2.0567;3.5201;-0.617;0.0;-9.78;30.48;-20.16;348.17;69.57;170.06;2.0;982.32;66.163;;;;NaN;;;;;0 / 0;71510;2022-10-30 20:20:39:890
1.6257;-7.8389;-3.6488;-0.6942;-9.2428;3.2028;0.7948;0.5061;-7.1724;-0.5126;0.5256;0.5632;0.0;4.08;20.22;-42.96;192.53;72.58;-4.93;2.0;982.32;66.817;;;;NaN;;;;;0 / 0;72011;2022-10-30 20:20:40:391
3.9887;0.5267;-9.3592;-1.0424;-9.0862;-3.539;-5.597;12.7182;-7.6901;-1.5401;0.1347;1.2425;0.0;-6.78;35.28;0.18;340.74;59.39;165.17;2.0;982.45;71.159;;;;NaN;;;;;0 / 0;72511;2022-10-30 20:20:40:891
9.9841;-12.692;-1.585;-0.0374;-9.2806;3.1683;5.7287;-1.8264;-6.8793;0.4813;0.3913;0.81;0.0;-0.72;19.14;-31.2;204.49;80.23;-23.55;2.0;982.09;66.704;;;;NaN;;;;;0 / 0;73010;2022-10-30 20:20:41:390
-8.4423;-8.5476;-10.0057;-0.6955;-9.0333;-3.7531;-2.0578;3.7035;-2.7714;2.5393;0.4988;-1.5553;0.0;-0.72;25.56;-3.36;357.01;63.44;175.28;2.0;982.2;67.87;;;;NaN;;;;;0 / 0;73511;2022-10-30 20:20:41:891
3.5027;-10.925;-6.1654;-0.7427;-9.3051;3.0055;6.118;-7.3352;-4.4085;0.1044;1.0663;-0.1491;0.0;7.38;13.92;-34.26;197.24;78.12;-3.84;2.0;982.11;68.863;;;;NaN;;;;;0 / 0;74012;2022-10-30 20:20:42:392
-0.2682;-0.34;0.8715;-0.839;-9.1955;-3.3029;-10.5673;-9.6427;-7.6006;0.3744;-1.2251;0.5602;0.0;-0.42;25.98;-7.92;4.43;58.47;168.68;2.0;982.07;63.318;;;;NaN;;;;;0 / 0;74512;2022-10-30 20:20:42:892
0.419;-8.3944;-0.4717;0.0415;-9.6988;1.4494;2.4892;-0.2446;-5.7279;2.138;0.8977;0.2156;0.0;2.4;19.44;-28.56;359.29;85.65;-175.32;2.0;982.07;64.137;;;;NaN;;;;;0 / 0;75011;2022-10-30 20:20:43:391
-0.5195;-2.1213;2.2649;-1.3047;-8.2898;-5.0742;0.0622;6.2188;7.8802;-1.1528;-2.1341;0.0947;0.0;3.96;26.04;-0.54;32.26;76.08;169.75;2.0;982.01;61.911;;;;NaN;;;;;0 / 0;75511;2022-10-30 20:20:43:891
1.901;-10.2451;-1.7023;0.1115;-9.7865;-0.6176;0.6714;-1.4186;-0.6297;2.2687;0.8641;-0.5486;0.0;-2.4;23.58;-19.98;10.25;66.23;159.97;2.0;982.18;66.358;;;;NaN;;;;;0 / 0;76011;2022-10-30 20:20:44:391
0.3352;-8.1358;0.6033;-0.6973;-9.4292;-2.6028;2.1075;-1.7951;1.8007;-4.9701;-1.9239;0.3213;0.0;7.62;23.1;-13.92;192.83;84.78;18.62;2.0;982.02;60.864;;;;NaN;;;;;0 / 0;76513;2022-10-30 20:20:44:893
6.3354;-13.2666;-1.2546;-1.5218;-8.9811;-3.6323;12.6767;-9.0574;8.5359;3.604;2.6246;-1.5986;0.0;1.32;25.62;-3.6;9.0;60.37;156.91;2.0;982.33;63.215;;;;NaN;;;;;0 / 0;77011;2022-10-30 20:20:45:391
-2.4588;-15.0194;-2.1644;-0.6579;-9.426;-2.6245;2.2069;-0.8407;2.2414;-4.1625;-1.8005;0.0476;0.0;5.22;23.1;-14.76;151.79;85.33;43.35;2.0;982.12;66.618;;;;NaN;;;;;0 / 0;77510;2022-10-30 20:20:45:890
17.0186;-26.8662;14.1644;-1.5801;-8.888;-3.8311;7.9106;-6.6893;4.3579;4.5576;3.9728;-1.9884;0.0;1.38;25.2;-3.6;9.23;59.53;156.4;2.0;982.6;64.457;;;;NaN;;;;;0 / 0;78011;2022-10-30 20:20:46:391
-1.6257;-15.4121;-1.2186;-0.0802;-9.7875;0.6069;-0.6955;-5.4139;3.5949;-2.0159;0.0528;-1.6005;0.0;6.54;18.78;-28.98;175.43;73.86;17.15;2.0;982.06;68.769;;;;NaN;;;;;0 / 0;78511;2022-10-30 20:20:46:891
3.8379;-20.5955;11.8731;-2.3707;-8.3634;-4.539;-4.671;9.4313;-5.2296;-1.5957;-5.0454;0.5327;0.0;1.98;24.36;-0.78;12.02;64.6;158.31;2.0;982.92;65.469;;;;NaN;;;;;0 / 0;79011;2022-10-30 20:20:47:391
-5.6458;-13.1205;-7.7001;-0.6519;-9.4049;2.7007;2.8091;-5.6098;-5.6144;0.4055;1.2654;-0.3574;0.0;5.46;12.96;-34.32;185.25;80.33;3.53;2.0;982.02;67.075;;;;NaN;;;;;0 / 0;79511;2022-10-30 20:20:47:891
-7.9634;-23.2052;-11.7415;-2.0697;-8.4123;-4.5955;1.5095;-18.6215;-0.2838;-1.6183;-3.8933;1.543;0.0;0.84;27.6;-0.84;5.51;62.92;160.0;2.0;982.48;69.374;;;;NaN;;;;;0 / 0;80011;2022-10-30 20:20:48:391
1.6089;-11.5116;-4.93;-0.8884;-9.3688;2.758;5.8543;-5.5261;-3.9072;0.05;0.745;-0.1582;0.0;4.56;13.26;-35.88;179.03;80.53;8.81;2.0;982.04;64.357;;;;NaN;;;;;0 / 0;80511;2022-10-30 20:20:48:891
-0.7207;-1.6568;1.0439;-1.4397;-8.704;-4.2822;-6.9715;-4.8068;-9.365;0.452;-0.4359;-0.5003;0.0;-1.14;26.34;-1.5;357.35;53.73;167.33;2.0;982.18;60.616;;;;NaN;;;;;0 / 0;81010;2022-10-30 20:20:49:390
-0.4357;-8.969;-7.4271;-0.1198;-9.7205;1.2914;0.0073;-0.1008;-3.8508;2.2723;0.0425;0.1069;0.0;0.48;22.14;-31.2;13.71;84.48;165.42;2.0;982.07;68.55;;;;NaN;;;;;0 / 0;81510;2022-10-30 20:20:49:890
-0.9337;-2.9281;2.1045;-1.6497;-7.8855;-5.5917;1.056;5.6326;7.4425;-1.3672;-1.3876;0.2743;0.0;7.8;41.88;5.1;49.04;73.14;165.87;2.0;982.03;59.554;;;;NaN;;;;;0 / 0;82011;2022-10-30 20:20:50:391
-0.0479;-10.6832;-1.1803;-0.6299;-9.7622;-0.6873;-1.465;2.201;0.4814;1.6749;0.1378;-0.7654;0.0;-4.2;29.82;-17.76;8.77;63.84;153.29;2.0;982.54;66.243;;;;NaN;;;;;0 / 0;82511;2022-10-30 20:20:50:891
2.0135;-9.2994;1.3647;-1.2647;-8.0505;-5.4553;1.054;5.6419;7.5741;-0.8803;-1.6771;0.3335;0.0;0.66;34.74;7.38;357.4;74.5;170.93;2.0;982.02;62.833;;;;NaN;;;;;0 / 0;83011;2022-10-30 20:20:51:391
-1.6448;-7.4032;-0.8188;-0.0092;-9.7982;-0.4075;-0.2014;0.1971;-0.8207;2.7568;3.5562;-0.5663;0.0;-8.64;27.6;-17.82;350.98;67.93;166.52;2.0;982.53;64.934;;;;NaN;;;;;0 / 0;83511;2022-10-30 20:20:51:891
-3.2106;-18.6059;-3.8595;-0.6904;-9.094;-3.6044;0.202;4.1664;5.2397;-4.6243;0.3351;0.0018;0.0;-2.34;31.8;-9.48;170.79;86.89;-5.06;2.0;981.88;61.812;;;;NaN;;;;;0 / 0;84011;2022-10-30 20:20:52:391
2.4636;-9.3688;0.747;-0.9777;-9.2499;-3.1072;5.9651;-2.992;1.5126;3.6718;3.0449;-1.3121;0.0;-4.26;32.22;-2.34;353.04;56.23;151.26;2.0;982.69;66.595;;;;NaN;;;;;0 / 0;84511;2022-10-30 20:20:52:891
-4.9731;-18.6826;-2.9209;-0.0696;-9.8053;0.1454;-3.9598;-9.0496;-1.4047;-1.7685;0.5678;-0.6322;0.0;2.04;22.56;-27.18;161.42;72.81;17.43;2.0;981.88;58.845;;;;NaN;;;;;0 / 0;85011;2022-10-30 20:20:53:391
4.1731;-15.776;3.6129;-2.2001;-8.1172;-5.044;9.9911;-25.1943;10.7162;-1.3531;-2.0846;0.5925;0.0;1.44;28.8;3.36;0.35;62.13;162.76;2.0;982.78;64.308;;;;NaN;;;;;0 / 0;85511;2022-10-30 20:20:53:891
-4.027;-13.403;-6.0959;0.2542;-9.7728;0.7729;-2.7274;-4.7603;4.1184;-2.176;0.6863;-1.1704;0.0;4.56;19.92;-28.74;183.49;72.41;7.17;2.0;982.06;67.352;;;;NaN;;;;;0 / 0;86011;2022-10-30 20:20:54:391
-5.4687;-28.0226;-12.9625;-2.4594;-8.1728;-4.8298;17.9289;-21.0517;12.4795;-1.7539;-3.211;0.9493;0.0;7.02;30.12;0.36;30.33;63.65;162.04;2.0;982.33;67.843;;;;NaN;;;;;0 / 0;86511;2022-10-30 20:20:54:891
-4.64;-9.0408;-2.6887;-0.6561;-9.3938;2.7379;-2.1619;-4.0906;-8.1228;-0.099;0.7663;-0.3054;0.0;10.62;14.82;-33.54;199.09;78.79;0.71;2.0;981.99;65.067;;;;NaN;;;;;0 / 0;87011;2022-10-30 20:20:55:391
-5.5692;-18.5628;-11.3919;-1.356;-8.7757;-4.1615;-8.1086;-18.1288;-6.0716;0.4721;-1.985;0.5791;0.0;10.62;30.24;-3.72;31.4;51.82;163.7;2.0;982.16;66.54;;;;NaN;;;;;0 / 0;87511;2022-10-30 20:20:55:891
1.5155;-9.9195;-1.7478;-0.3497;-9.515;2.3478;1.9011;1.2188;-8.2426;1.7452;1.8854;0.2254;0.0;13.68;20.52;-27.66;317.58;88.66;-110.41;2.0;981.99;69.42;;;;NaN;;;;;0 / 0;88011;2022-10-30 20:20:56:391
1.4676;-1.8316;-1.5443;-1.8783;-7.9864;-5.3721;1.9478;6.4038;5.6283;1.3298;-1.2428;-0.2004;0.0;19.68;35.94;7.68;70.89;63.34;171.53;2.0;981.91;64.906;;;;NaN;;;;;0 / 0;88511;2022-10-30 20:20:56:891
1.3216;-3.5889;0.6464;-0.5251;-9.5344;2.2337;-3.0782;-0.0762;-4.7452;1.24;1.9795;0.3916;0.0;17.04;20.76;-25.44;169.96;87.67;43.96;2.0;982.0;63.602;;;;NaN;;;;;0 / 0;89011;2022-10-30 20:20:57:391
0.1652;-1.3168;1.8268;-2.3357;-8.194;-4.8552;2.4314;7.6482;3.5144;1.9529;-0.5886;-0.7953;0.0;18.42;36.3;6.18;63.71;61.25;162.73;2.0;981.88;66.978;;;;NaN;;;;;0 / 0;89510;2022-10-30 20:20:57:890
-5.6722;-5.1407;-1.0223;-0.4369;-9.7755;0.6477;1.5957;4.7426;-0.7914;1.645;2.4193;0.3396;0.0;13.02;25.14;-21.12;46.65;76.14;155.65;2.0;982.08;69.217;;;;NaN;;;;;0 / 0;90011;2022-10-30 20:20:58:391
0.5315;-0.7949;2.6719;-1.2746;-8.4635;-4.7869;1.7582;8.2672;7.6839;-2.4209;-2.7816;-0.336;0.0;15.36;31.14;0.72;90.96;80.47;162.59;2.0;981.89;59.425;;;;NaN;;;;;0 / 0;90510;2022-10-30 20:20:58:890
0.3232;-8.5284;-0.9505;-0.5572;-9.6986;-1.3405;-2.6559;2.3936;-1.1758;2.3298;-1.1683;-0.2101;0.0;7.62;29.28;-14.46;30.85;59.45;153.48;2.0;982.19;68.47;;;;NaN;;;;;0 / 0;91011;2022-10-30 20:20:59:391
2.6815;-6.7735;0.7566;-0.7794;-9.3422;-2.8784;3.2454;-1.997;0.7116;-4.5828;-2.7657;-0.2059;0.0;14.76;26.34;-9.12;193.09;85.01;47.68;2.0;981.87;59.694;;;;NaN;;;;;0 / 0;91511;2022-10-30 20:20:59:891
5.2364;-10.5635;0.0096;-1.8058;-8.9562;-3.5632;8.6392;-6.5134;-0.2986;3.6669;3.2232;-1.3354;0.0;12.84;27.78;-4.14;46.51;56.37;147.02;2.0;982.45;66.601;;;;NaN;;;;;0 / 0;92011;2022-10-30 20:21:00:391
-1.6592;-15.2828;2.6121;-1.5025;-8.5948;-4.4769;1.5647;4.9149;5.4801;-2.2713;-1.9679;-0.2376;0.0;14.1;27.6;-3.48;83.91;85.67;165.55;2.0;982.0;63.869;;;;NaN;;;;;0 / 0;92510;2022-10-30 20:21:00:890
3.4357;-20.4088;0.3735;-1.2702;-9.36;-2.6358;-4.4666;2.6511;0.1339;2.8148;1.536;0.4239;0.0;6.6;28.56;-9.06;26.02;54.93;154.61;2.0;982.69;68.786;;;;NaN;;;;;0 / 0;93011;2022-10-30 20:21:01:391
-2.7677;-12.5028;1.5706;-0.2624;-9.7553;-0.9674;-6.2573;-5.925;2.5715;-4.592;-1.6105;-0.3268;0.0;11.46;23.76;-19.02;177.95;74.45;31.44;2.0;981.94;61.942;;;;NaN;;;;;0 / 0;93510;2022-10-30 20:21:01:890
0.0958;-12.0024;1.7549;-2.3787;-8.0299;-5.1022;-13.7421;8.8128;-1.5324;2.5955;2.0711;-0.482;0.0;14.64;27.42;1.2;62.92;59.62;149.51;2.0;982.44;62.585;;;;NaN;;;;;0 / 0;94011;2022-10-30 20:21:02:391
5.5046;-14.2889;6.2492;-1.2083;-9.5894;1.6592;5.4748;-4.5103;-3.17;-2.8626;-0.5061;-0.7184;0.0;17.22;16.14;-26.52;186.39;77.25;26.67;2.0;982.03;65.412;;;;NaN;;;;;0 / 0;94511;2022-10-30 20:21:02:891
-4.7573;-7.6857;-10.2978;-2.0405;-8.3953;-4.6396;1.0158;-4.8809;3.701;1.0524;-2.3088;0.3109;0.0;8.4;28.38;0.42;33.28;59.96;150.15;2.0;982.92;66.132;;;;NaN;;;;;0 / 0;95011;2022-10-30 20:21:03:391
7.8054;-15.2804;-2.4205;-0.9441;-9.6886;1.1878;4.7939;-6.1976;3.8762;-4.1735;-0.5226;-1.3164;0.0;15.6;17.52;-27.0;171.3;81.1;38.48;2.0;981.96;61.637;;;;NaN;;;;;0 / 0;95511;2022-10-30 20:21:03:891
-5.9858;-12.929;-15.1056;-2.4548;-8.3309;-4.5542;-6.3323;-5.2158;-3.6511;-1.0477;-1.8738;0.3622;0.0;11.52;27.9;-0.96;47.23;59.88;155.04;2.0;982.75;64.764;;;;NaN;;;;;0 / 0;96010;2022-10-30 20:21:04:390
-0.905;-13.9776;-5.0401;-1.2778;-9.4108;2.4443;6.8375;-6.2742;-3.8904;0.2266;1.2007;0.1869;0.0;15.84;16.02;-29.7;172.45;83.2;35.15;2.0;981.93;61.831;;;;NaN;;;;;0 / 0;96510;2022-10-30 20:21:04:890
-5.2149;-27.041;-12.2107;-1.9875;-8.6299;-4.2125;-6.3853;-5.4244;-9.643;0.7543;-0.8366;-0.3372;0.0;10.86;27.96;-1.98;36.05;52.94;157.74;2.0;982.47;64.009;;;;NaN;;;;;0 / 0;97010;2022-10-30 20:21:05:390
-0.7063;-8.8517;-4.7262;-1.224;-9.6005;1.5819;-0.076;1.2037;-10.1342;1.8967;-0.1304;0.2224;0.0;12.24;18.36;-26.58;77.73;81.42;121.22;2.0;982.04;65.996;;;;NaN;;;;;0 / 0;97512;2022-10-30 20:21:05:892
-2.6097;-2.8635;-3.1005;-2.3044;-8.4297;-4.4497;-4.0525;-6.2928;-6.3006;-0.8779;-0.4322;0.5339;0.0;6.24;31.08;0.06;17.69;51.93;156.09;2.0;982.34;61.759;;;;NaN;;;;;0 / 0;98011;2022-10-30 20:21:06:391
3.2753;-5.677;-1.6328;-0.2074;-9.473;-2.5278;2.829;2.7785;2.4081;1.2003;-0.4432;0.066;0.0;6.36;24.18;-12.24;30.77;79.65;166.7;2.0;982.14;68.17;;;;NaN;;;;;0 / 0;98510;2022-10-30 20:21:06:890
0.0096;-8.9307;-4.719;-2.3146;-5.7132;-7.627;4.3233;3.793;6.734;-4.3085;-2.4877;0.9896;0.0;14.46;15.3;25.62;162.51;66.21;164.22;2.0;981.94;68.224;;;;NaN;;;;;0 / 0;99010;2022-10-30 20:21:07:390
-0.3184;-5.7919;-2.0446;-1.3725;-9.1957;-3.1187;3.2831;1.067;1.0741;4.3413;0.6148;-1.2712;0.0;19.92;20.4;-6.66;59.32;45.54;155.01;2.0;983.1;66.459;;;;NaN;;;;;0 / 0;99510;2022-10-30 20:21:07:890
-2.399;-11.8229;-2.7821;-0.4395;-9.6663;-1.5935;-2.491;-4.2323;4.0069;-3.3268;-3.2293;-0.1167;0.0;19.92;14.76;-16.26;196.96;75.99;37.23;2.0;981.59;63.324;;;;NaN;;;;;0 / 0;100011;2022-10-30 20:21:08:391
4.2904;-13.4677;-3.0813;-2.6357;-8.2371;-4.6232;7.2374;-8.4846;10.4653;4.1483;2.9538;-1.6182;0.0;4.02;-69.84;-93.06;62.21;55.17;151.28;2.0;982.73;67.341;;;;NaN;;;;;0 / 0;100511;2022-10-30 20:21:08:891
-3.8618;-21.467;-7.1207;-0.6869;-9.0758;-3.6507;2.9183;-0.8149;0.4927;-4.5742;-5.2208;-1.0996;0.0;13.98;28.14;-3.0;159.77;84.66;94.44;2.0;981.77;58.877;;;;NaN;;;;;0 / 0;101011;2022-10-30 20:21:09:391
-11.6696;2.49;-4.0103;-1.2777;-9.1103;-3.397;0.7462;1.7;3.4281;2.8551;0.2367;-1.0165;0.0;-31.38;-2.7;-38.88;352.76;49.44;146.75;2.0;982.61;64.793;;;;NaN;;;;;0 / 0;101510;2022-10-30 20:21:09:890
4.9563;-16.6762;-0.8978;-0.139;-9.6906;-1.4975;-2.6287;-9.8802;5.6035;-3.7184;-2.1353;1.7862;0.0;20.34;24.36;-10.44;225.83;77.74;27.78;2.0;981.82;61.599;;;;NaN;;;;;0 / 0;102011;2022-10-30 20:21:10:391
6.831;-15.6467;0.6847;-2.3916;-8.1139;-4.9613;10.7046;-6.9774;14.2032;1.6486;-0.3314;0.014;0.0;-39.0;5.22;12.18;282.33;56.96;152.71;2.0;982.59;64.303;;;;NaN;;;;;0 / 0;102511;2022-10-30 20:21:10:891
-5.0688;-20.1574;-2.2075;-0.4888;-9.7907;0.2692;-3.4903;-2.6283;4.5743;-1.6659;0.1035;-0.9004;0.0;18.36;14.4;-24.24;191.41;76.05;27.06;2.0;981.99;64.743;;;;NaN;;;;;0 / 0;103010;2022-10-30 20:21:11:390
-1.3695;-33.4263;0.3208;-2.6266;-8.0457;-4.9535;8.6388;-19.4238;9.3062;-1.5395;-4.7058;0.5162;0.0;-44.16;-6.96;8.58;272.84;62.34;160.56;2.0;982.31;67.233;;;;NaN;;;;;0 / 0;103511;2022-10-30 20:21:11:891
-4.4365;-11.0519;-2.3248;-0.174;-9.8051;0.0164;3.5379;-5.4322;-2.8511;-1.7612;0.0156;-1.5186;0.0;19.5;16.74;-15.78;215.88;74.88;22.3;2.0;981.89;66.773;;;;NaN;;;;;0 / 0;104010;2022-10-30 20:21:12:390
-3.6248;-18.3809;-11.5547;-2.8321;-7.7112;-5.3559;-8.5263;14.796;15.9769;1.7617;4.258;-2.7941;0.0;-1.2;11.64;10.68;245.11;60.88;155.48;2.0;982.53;65.334;;;;NaN;;;;;0 / 0;104511;2022-10-30 20:21:12:891
10.1254;-12.613;-2.217;-1.0726;-9.5808;1.7966;4.6064;-6.6597;-3.87;-2.617;-1.2135;-0.733;0.0;18.24;10.92;-30.0;189.19;76.98;22.66;2.0;981.98;66.32;;;;NaN;;;;;0 / 0;105010;2022-10-30 20:21:13:390
-10.9394;-18.9555;-10.1948;-2.3496;-8.1872;-4.86;0.1158;9.1041;-4.1927;-0.7166;0.9215;0.4655;0.0;-15.0;1.68;-2.28;300.12;54.14;156.45;2.0;982.39;62.057;;;;NaN;;;;;0 / 0;105510;2022-10-30 20:21:13:890
0.8452;-14.4014;-4.4556;-1.2606;-9.5237;1.9697;10.8927;-7.2722;-3.1812;0.5234;1.7413;-0.4221;0.0;17.16;13.26;-29.7;181.1;85.46;28.48;2.0;982.0;66.321;;;;NaN;;;;;0 / 0;106011;2022-10-30 20:21:14:391
-7.4319;-31.6163;-12.2131;-1.776;-8.4868;-4.5815;-7.7388;-7.215;-14.9295;0.4275;-0.1316;-0.4533;0.0;-11.88;12.96;-10.98;335.17;50.31;164.95;2.0;982.11;64.919;;;;NaN;;;;;0 / 0;106511;2022-10-30 20:21:14:891
-2.5666;-9.7974;-2.6983;-0.3565;-9.7307;1.165;0.1961;-0.6844;-4.8401;1.8386;2.6496;0.212;0.0;13.44;18.9;-26.88;35.64;84.1;168.03;2.0;981.94;64.451;;;;NaN;;;;;0 / 0;107011;2022-10-30 20:21:15:391
-0.5387;-1.1013;-1.1947;-2.0182;-8.597;-4.2648;-3.0602;-9.7432;-6.6387;-0.8809;-1.263;0.9578;0.0;-11.16;9.24;-1.26;313.62;49.78;159.42;2.0;982.05;66.321;;;;NaN;;;;;0 / 0;107511;2022-10-30 20:21:15:891
2.8323;-6.8717;0.0431;-0.7508;-9.586;1.9275;3.9087;-2.1555;-3.9553;0.6566;0.5214;1.0085;0.0;14.7;13.98;-28.62;160.62;88.07;46.44;2.0;981.88;65.198;;;;NaN;;;;;0 / 0;108010;2022-10-30 20:21:16:390
-4.8578;-6.4072;-10.5108;-2.3125;-7.9217;-5.298;3.0069;5.6664;1.836;0.0928;-2.927;0.6243;0.0;-42.78;-3.24;-7.08;37.95;55.51;167.53;2.0;981.83;59.042;;;;NaN;;;;;0 / 0;108511;2022-10-30 20:21:16:891
2.4565;-8.9019;-2.7964;-0.145;-9.7923;0.5089;2.2471;2.4538;-1.3779;1.4391;1.8885;0.3653;0.0;12.18;17.34;-24.9;37.33;79.13;164.76;2.0;981.93;65.14;;;;NaN;;;;;0 / 0;109011;2022-10-30 20:21:17:391
-0.3256;-2.0758;2.9497;-1.6678;-7.7003;-5.8389;0.9232;7.0324;8.7096;1.2925;-1.2312;-0.5705;0.0;-19.92;-32.52;-36.84;332.72;73.21;171.87;2.0;981.81;55.611;;;;NaN;;;;;0 / 0;109511;2022-10-30 20:21:17:891
0.237;-10.2906;0.0838;-0.2175;-9.731;1.1963;2.7626;-0.823;-4.9959;1.5564;3.1982;0.1362;0.0;15.48;15.9;-23.34;38.03;84.87;173.35;2.0;982.01;68.317;;;;NaN;;;;;0 / 0;110012;2022-10-30 20:21:18:392
1.6664;-4.7836;0.2442;-2.0446;-7.5161;-5.958;2.0207;6.5799;8.3043;-2.3592;-2.5427;0.121;0.0;-28.02;-21.6;-61.8;343.42;65.53;168.65;2.0;981.8;62.791;;;;NaN;;;;;0 / 0;110510;2022-10-30 20:21:18:890
-2.2889;-7.5372;1.1492;0.3948;-9.7828;-0.5586;-1.9414;0.1434;-0.1142;2.2094;0.1347;-0.5809;0.0;17.76;9.3;-27.72;40.29;69.31;170.68;2.0;982.14;66.556;;;;NaN;;;;;0 / 0;111011;2022-10-30 20:21:19:391
0.3831;-0.2634;1.3838;-0.7309;-8.3488;-5.0925;1.8466;6.5507;4.6232;-1.1632;-2.2458;0.3012;0.0;53.04;-2.28;-18.36;46.72;82.79;-155.06;2.0;981.85;62.758;;;;NaN;;;;;0 / 0;111510;2022-10-30 20:21:19:890
-3.541;-7.5779;0.6704;-0.2084;-9.4319;-2.6769;-2.6454;2.3328;2.7176;1.959;1.8476;-0.5253;0.0;-16.38;-15.9;-20.04;324.59;54.41;158.44;2.0;982.17;69.46;;;;NaN;;;;;0 / 0;112010;2022-10-30 20:21:20:390
-1.1229;-11.4853;-5.3489;0.0062;-9.5511;-2.224;-2.4244;-4.1105;4.4004;-4.0183;-0.0021;0.0122;0.0;35.7;12.18;-0.72;252.92;80.36;18.81;2.0;981.94;60.574;;;;NaN;;;;;0 / 0;112511;2022-10-30 20:21:20:891
4.8554;-13.6736;5.7727;-0.2252;-9.718;-1.2961;-3.3326;2.4561;2.2777;2.7262;3.7455;-0.8424;0.0;13.2;-11.88;-23.52;68.73;60.06;155.99;2.0;982.38;67.236;;;;NaN;;;;;0 / 0;113010;2022-10-30 20:21:21:390
-3.9073;-17.926;-2.9808;-0.7174;-9.11;-3.5586;-2.6464;-7.8416;2.1053;-3.6115;-0.5947;0.6237;0.0;40.26;0.0;-8.64;170.53;87.74;86.79;2.0;982.05;57.921;;;;NaN;;;;;0 / 0;113510;2022-10-30 20:21:21:890
-2.2793;-15.1056;-4.4365;-1.3898;-9.0638;-3.4764;6.3437;-4.4206;2.6049;2.0934;0.0308;-0.2236;0.0;14.16;7.44;-10.26;74.11;52.22;147.01;2.0;982.57;66.031;;;;NaN;;;;;0 / 0;114010;2022-10-30 20:21:22:390
-6.2731;-13.6784;-1.4916;0.0874;-9.6941;-1.4789;-5.0987;-9.3691;2.7287;-3.6427;-5.3527;-0.5382;0.0;32.94;14.4;-5.82;234.21;77.99;30.19;2.0;981.94;63.931;;;;NaN;;;;;0 / 0;114510;2022-10-30 20:21:22:890
4.6424;-15.7425;6.9267;-2.5024;-7.9829;-5.1168;3.5367;-4.3092;7.2404;2.8759;0.5305;-1.7452;0.0;12.24;2.4;3.06;119.28;57.43;155.47;2.0;982.38;66.637;;;;NaN;;;;;0 / 0;115011;2022-10-30 20:21:23:391
-2.6719;-15.2086;-1.3216;-0.5496;-9.7909;0.08;-3.6043;-1.1629;7.3854;-4.2205;-0.9215;-0.2156;0.0;34.44;10.74;-11.22;226.94;78.6;28.28;2.0;982.0;63.542;;;;NaN;;;;;0 / 0;115510;2022-10-30 20:21:23:890
2.1644;-5.5979;8.0209;-1.6268;-8.8499;-3.8991;5.6993;-1.1271;2.7978;1.9742;0.1219;-0.7947;0.0;3.66;1.26;-0.18;106.52;51.36;148.44;2.0;982.55;67.805;;;;NaN;;;;;0 / 0;116010;2022-10-30 20:21:24:390
3.735;-12.0958;-0.2682;-0.1111;-9.7489;-1.0566;-5.5347;-10.0158;1.5762;-3.54;-0.9453;-1.6854;0.0;32.82;11.64;-10.38;220.28;78.44;36.04;2.0;981.98;64.554;;;;NaN;;;;;0 / 0;116510;2022-10-30 20:21:24:890
-6.0217;2.8946;-10.5156;-2.4263;-7.8872;-5.2986;-4.8739;-0.2869;-5.739;-1.826;-4.7321;2.3439;0.0;21.06;5.88;4.02;115.68;58.94;153.0;2.0;982.66;65.501;;;;NaN;;;;;0 / 0;117010;2022-10-30 20:21:25:390
-0.6249;-11.3368;8.945;-0.686;-9.754;0.7471;4.0355;-5.6748;5.0903;-3.5321;-2.5067;-0.0556;0.0;37.8;12.36;-16.8;222.23;78.94;26.35;2.0;981.93;66.794;;;;NaN;;;;;0 / 0;117511;2022-10-30 20:21:25:891
16.7217;-19.8366;9.0839;-2.5848;-7.8129;-5.3336;-3.0083;-23.8585;1.5149;2.5045;2.7626;-0.8247;0.0;8.34;5.52;10.92;159.91;56.37;156.01;2.0;982.97;66.58;;;;NaN;;;;;0 / 0;118011;2022-10-30 20:21:26:391
-2.818;-14.5211;-2.4325;-1.1362;-9.5689;1.8208;-0.4775;-5.156;-8.0149;-3.5791;-1.2312;-0.774;0.0;34.44;15.24;-13.44;224.05;84.21;26.83;2.0;981.95;67.733;;;;NaN;;;;;0 / 0;118511;2022-10-30 20:21:26:891
-5.7057;-10.2044;-11.1501;-3.0471;-7.5036;-5.5301;-10.7989;8.6744;0.4206;-2.4503;-1.9416;0.9688;0.0;15.42;10.38;7.44;120.36;60.16;154.3;2.0;982.62;64.35;;;;NaN;;;;;0 / 0;119010;2022-10-30 20:21:27:390
5.0138;-12.0216;-2.8108;-0.9505;-9.6437;1.5053;5.4995;-6.1586;-3.6361;0.1795;1.3815;-0.2553;0.0;33.18;9.84;-13.8;226.26;79.12;23.47;2.0;981.87;60.953;;;;NaN;;;;;0 / 0;119510;2022-10-30 20:21:27:890
-6.7903;-6.3425;-10.8269;-2.5084;-8.0678;-4.9788;-3.1494;13.2922;-1.1793;0.2101;-3.6612;0.7752;0.0;5.04;8.94;-0.9;46.6;51.98;156.86;2.0;982.5;62.47;;;;NaN;;;;;0 / 0;120011;2022-10-30 20:21:28:391
1.664;-14.4756;-3.4261;-1.1167;-9.6044;1.6367;11.8335;-6.1668;-3.418;-1.2267;-0.0345;-0.1735;0.0;30.6;9.6;-16.32;205.85;87.45;37.19;2.0;981.91;64.402;;;;NaN;;;;;0 / 0;120511;2022-10-30 20:21:28:891
-8.234;-28.9396;-11.8061;-1.7322;-8.468;-4.6328;-9.5232;-5.2607;-10.9948;-2.179;0.1591;0.807;0.0;-8.7;-9.66;-10.68;305.82;51.43;163.65;2.0;982.2;63.835;;;;NaN;;;;;0 / 0;121011;2022-10-30 20:21:29:391
1.1396;-10.7646;-2.5786;-0.553;-9.7482;0.9152;3.857;-0.8896;-5.5815;0.5851;0.2966;0.7068;0.0;26.4;14.16;-18.6;61.56;81.95;169.43;2.0;981.96;65.695;;;;NaN;;;;;0 / 0;121511;2022-10-30 20:21:29:891
1.573;-0.9816;-1.4246;-2.4385;-8.3488;-4.53;-5.6542;1.118;-8.3416;2.2778;0.2611;-1.0098;0.0;-0.3;7.8;-0.54;3.34;49.42;159.81;2.0;982.11;60.853;;;;NaN;;;;;0 / 0;122010;2022-10-30 20:21:30:390
2.6959;-6.4407;-1.4748;-0.8785;-9.6432;1.5511;5.8588;-3.5659;-5.2334;1.8099;1.5898;0.0214;0.0;21.0;16.92;-20.04;138.41;87.87;87.14;2.0;981.98;69.205;;;;NaN;;;;;0 / 0;122510;2022-10-30 20:21:30:890
0.3903;-0.8475;3.9959;-2.5231;-8.205;-4.7416;-1.456;2.1952;-5.3431;0.3713;-2.0479;-0.1087;0.0;-7.92;-2.16;14.58;227.3;54.95;163.36;2.0;982.12;65.493;;;;NaN;;;;;0 / 0;123011;2022-10-30 20:21:31:391
1.8723;-11.593;-3.9385;-0.5526;-9.7113;1.2471;3.634;-2.4515;-7.7668;0.5436;1.0931;0.5651;0.0;18.3;21.66;-14.94;61.76;82.02;162.02;2.0;982.09;68.757;;;;NaN;;;;;0 / 0;123510;2022-10-30 20:21:31:890
4.1899;-3.1316;-2.5929;-2.6345;-7.2104;-6.1024;3.3456;7.9047;6.5837;2.0365;-0.3076;-1.2077;0.0;23.16;-7.32;-23.52;58.7;56.48;176.35;2.0;982.07;69.374;;;;NaN;;;;;0 / 0;124010;2022-10-30 20:21:32:390
1.5012;-6.297;-0.2394;-0.212;-9.8043;0.0047;1.026;3.9143;0.2659;1.3622;1.1897;0.1026;0.0;27.18;22.26;-13.8;66.91;74.1;165.64;2.0;982.1;66.437;;;;NaN;;;;;0 / 0;124510;2022-10-30 20:21:32:890
-0.4621;-0.3974;3.371;-2.2629;-7.2671;-6.1837;0.6804;7.4922;10.2921;1.6346;-0.8195;-0.6469;0.0;4.38;0.18;-10.62;48.63;47.82;159.9;2.0;982.12;63.875;;;;NaN;;;;;0 / 0;125011;2022-10-30 20:21:33:391
0.9098;-11.3895;1.6017;-0.5862;-9.7594;0.7614;3.5382;-0.4761;-5.1691;1.9706;2.6979;0.2865;0.0;34.32;19.08;-11.34;84.31;81.0;163.02;2.0;981.98;66.303;;;;NaN;;;;;0 / 0;125511;2022-10-30 20:21:33:891
0.2466;-1.8986;1.0534;-2.5057;-7.1676;-6.2062;2.2256;6.2051;9.8118;-2.0453;-2.5604;0.2162;0.0;0.06;-6.3;-25.8;16.57;58.58;167.74;2.0;982.11;62.944;;;;NaN;;;;;0 / 0;126012;2022-10-30 20:21:34:392
2.1165;-5.9259;0.8212;-0.1507;-9.7886;-0.5756;-0.2898;3.0127;0.7289;1.7048;0.9893;0.3702;0.0;33.0;16.5;-21.9;62.6;70.16;167.38;2.0;982.08;66.539;;;;NaN;;;;;0 / 0;126511;2022-10-30 20:21:34:891
-0.4046;-0.3136;4.4005;-1.543;-7.8167;-5.7173;1.7968;7.4456;9.4762;0.5778;-1.4908;-0.0709;0.0;24.6;1.86;-30.84;46.88;74.32;172.51;2.0;981.98;60.002;;;;NaN;;;;;0 / 0;127011;2022-10-30 20:21:35:391
2.4756;-9.5843;-0.2251;-0.5912;-9.6633;-1.5623;0.2033;0.8763;1.3205;2.0445;3.6582;0.0281;0.0;23.04;5.82;-27.78;64.21;58.66;153.86;2.0;982.12;68.992;;;;NaN;;;;;0 / 0;127510;2022-10-30 20:21:35:890
0.3496;0.0168;1.8818;-2.1378;-7.3878;-6.0844;0.6893;6.4732;6.7883;-1.8046;-2.861;-0.0684;0.0;-0.48;-6.78;-32.64;11.73;61.0;170.91;2.0;981.86;58.091;;;;NaN;;;;;0 / 0;128010;2022-10-30 20:21:36:390
-2.0925;-5.2795;2.9928;-0.4013;-9.7759;-0.6637;1.4571;3.079;0.5656;1.5332;0.0064;0.0941;0.0;33.06;15.54;-21.54;68.52;70.84;161.49;2.0;982.28;70.085;;;;NaN;;;;;0 / 0;128511;2022-10-30 20:21:36:891
-0.8284;-12.1604;-0.6081;-1.4624;-7.775;-5.7949;1.6731;7.0423;9.6903;-4.6445;-2.1548;-0.7501;0.0;66.24;-0.84;-38.28;68.88;74.42;172.11;2.0;981.88;63.444;;;;NaN;;;;;0 / 0;129011;2022-10-30 20:21:37:391
-3.8547;-9.4263;0.6273;-0.3299;-9.5433;-2.2329;-2.773;1.6494;3.3222;1.6584;2.0614;-0.1069;0.0;-4.14;-2.04;-13.74;10.73;55.28;156.04;2.0;982.46;64.602;;;;NaN;;;;;0 / 0;129511;2022-10-30 20:21:37:891
-0.1772;-11.9952;-2.1069;-0.5305;-9.3473;-2.9183;-1.7416;-4.1276;2.7938;-4.5339;-2.4358;-0.4997;0.0;38.82;23.52;-7.32;204.68;83.51;56.93;2.0;981.75;64.334;;;;NaN;;;;;0 / 0;130011;2022-10-30 20:21:38:391
6.0624;-14.9308;-3.9313;-2.3877;-8.3681;-4.5215;8.5028;-8.514;6.9995;3.0988;3.1475;-1.0806;0.0;-0.48;6.12;3.24;316.59;52.81;151.02;2.0;982.68;66.472;;;;NaN;;;;;0 / 0;130511;2022-10-30 20:21:38:891
-5.2723;-18.8645;-2.8635;-1.138;-8.7198;-4.3404;5.6247;1.1706;3.6485;-3.8913;-0.4627;-0.1521;0.0;50.64;22.8;-6.84;114.1;85.43;146.16;2.0;981.85;63.491;;;;NaN;;;;;0 / 0;131010;2022-10-30 20:21:39:390
-13.7502;5.6458;-0.6871;-1.0057;-9.1966;-3.2529;0.3904;2.3872;1.8786;1.7391;-0.0883;-0.4655;0.0;0.42;7.44;-5.22;19.68;49.67;146.52;2.0;982.67;63.6;;;;NaN;;;;;0 / 0;131510;2022-10-30 20:21:39:890
-1.3743;-13.4294;7.6953;-0.534;-9.0788;-3.6688;0.7926;-1.9061;-0.7868;-3.8369;-3.0772;-0.4203;0.0;37.5;25.74;-5.28;179.63;85.58;82.85;2.0;981.92;58.911;;;;NaN;;;;;0 / 0;132010;2022-10-30 20:21:40:390
-2.9928;-6.9483;0.2322;-1.162;-8.736;-4.3013;1.0088;1.5268;4.4139;2.3792;0.398;-0.7159;0.0;-13.44;8.16;2.1;306.53;46.78;149.42;2.0;982.94;62.86;;;;NaN;;;;;0 / 0;132511;2022-10-30 20:21:40:891
-2.8132;-14.7848;1.0606;-0.1283;-9.5433;-2.2537;-1.7607;-2.4472;7.0254;-4.4313;-3.4835;0.1081;0.0;32.58;19.68;-6.72;227.15;81.94;34.67;2.0;981.82;60.664;;;;NaN;;;;;0 / 0;133011;2022-10-30 20:21:41:391
3.45;-12.5052;2.0423;-2.5661;-7.9773;-5.0939;7.0768;-7.0589;13.5433;2.6089;-0.0455;-1.2175;0.0;8.7;6.24;12.96;168.12;55.3;152.55;2.0;982.66;65.38;;;;NaN;;;;;0 / 0;133511;2022-10-30 20:21:41:891
-4.1587;-17.8039;-3.7565;-0.7149;-9.1582;-3.4332;2.3549;-2.1811;-1.3791;-3.9774;-0.6851;0.4594;0.0;34.44;14.82;-3.78;163.44;85.91;99.3;2.0;981.89;61.659;;;;NaN;;;;;0 / 0;134010;2022-10-30 20:21:42:390
0.5962;1.8794;12.8643;-1.6719;-8.8622;-3.8518;5.1291;0.408;1.63;1.0885;-1.4737;-0.1692;0.0;9.48;11.4;2.1;72.25;49.4;144.96;2.0;982.51;64.468;;;;NaN;;;;;0 / 0;134511;2022-10-30 20:21:42:891
1.9345;-11.8947;0.3926;-0.0243;-9.7482;-1.0684;-6.7133;-11.8912;1.5784;-3.7202;-0.2642;-1.3995;0.0;28.5;10.86;-6.6;224.35;78.08;35.78;2.0;982.02;63.768;;;;NaN;;;;;0 / 0;135011;2022-10-30 20:21:43:391
-0.2011;-12.6872;0.7302;-3.1628;-7.4623;-5.5209;-3.2995;4.0075;-2.4592;3.5784;3.1719;-1.0776;0.0;14.22;5.04;9.42;140.46;57.11;151.12;2.0;982.32;65.563;;;;NaN;;;;;0 / 0;135510;2022-10-30 20:21:43:890
2.6695;-16.93;3.5841;-0.948;-9.6821;1.2362;5.6262;-2.5861;-1.9425;-1.1674;0.1084;-1.0153;0.0;33.54;6.72;-16.08;219.11;80.69;27.15;2.0;981.9;64.709;;;;NaN;;;;;0 / 0;136010;2022-10-30 20:21:44:390
-14.9404;-21.5388;-9.4311;-2.4928;-7.9949;-5.1027;-3.4283;11.4521;-5.0515;-1.2346;1.1866;-0.7001;0.0;10.74;11.82;-0.6;65.68;52.17;157.52;2.0;982.52;65.637;;;;NaN;;;;;0 / 0;136511;2022-10-30 20:21:44:891
2.2362;-13.9369;-4.3742;-0.5424;-9.7916;-0.0334;-1.1575;-2.6586;8.7582;-1.1925;0.3583;-0.0031;0.0;31.08;12.96;-16.26;212.13;79.29;33.15;2.0;982.03;67.492;;;;NaN;;;;;0 / 0;137011;2022-10-30 20:21:45:391
-6.2204;-32.1838;-12.9601;-3.6843;-7.1504;-5.6095;28.3575;-11.9559;5.8178;-2.1344;0.4096;0.0727;0.0;18.12;11.16;9.18;119.16;58.28;156.89;2.0;982.24;63.994;;;;NaN;;;;;0 / 0;137511;2022-10-30 20:21:45:891
-3.5674;-8.9283;-1.6759;-1.2788;-9.6468;1.2144;0.7233;-4.5081;-5.7849;0.4434;1.1011;0.7581;0.0;29.46;12.54;-18.36;191.66;83.97;47.04;2.0;981.98;66.792;;;;NaN;;;;;0 / 0;138011;2022-10-30 20:21:46:391
-5.2532;-7.3409;-12.1389;-2.1292;-8.2993;-4.7706;-3.6219;-13.9554;-6.3843;-2.6928;-1.4755;1.3366;0.0;-2.28;3.66;6.3;256.55;47.26;160.23;2.0;982.06;62.756;;;;NaN;;;;;0 / 0;138510;2022-10-30 20:21:46:890
6.3401;-13.6089;-1.652;-0.7931;-9.6916;1.2704;-2.9754;-0.4529;-2.319;0.5179;0.9019;-0.1026;0.0;25.38;16.38;-18.06;69.37;85.99;162.97;2.0;981.92;62.839;;;;NaN;;;;;0 / 0;139010;2022-10-30 20:21:47:390
0.7063;-2.4948;-4.1252;-2.5931;-7.125;-6.2193;2.1957;6.0453;5.5226;1.2937;0.8745;-1.2993;0.0;-6.72;-15.12;10.44;208.41;54.41;170.51;2.0;981.99;63.853;;;;NaN;;;;;0 / 0;139510;2022-10-30 20:21:47:890
4.0558;-8.4327;0.0551;-1.0536;-9.6265;1.5463;8.6483;-4.7869;-3.8088;1.6541;1.3485;0.2834;0.0;26.88;15.6;-20.46;137.6;88.21;95.28;2.0;981.93;69.094;;;;NaN;;;;;0 / 0;140011;2022-10-30 20:21:48:391
-0.7877;-2.2075;2.4014;-2.5807;-7.2718;-6.0523;-2.1095;1.274;-5.7897;0.689;-0.9026;-0.4392;0.0;-31.14;5.7;15.84;269.82;44.6;163.0;2.0;981.83;62.892;;;;NaN;;;;;0 / 0;140511;2022-10-30 20:21:48:891
-0.3328;-9.6154;-1.1325;-0.6733;-9.7835;-0.0117;3.0196;1.7075;-2.5836;1.9162;4.4786;0.1961;0.0;29.16;14.94;-20.64;71.2;76.45;157.92;2.0;981.86;67.871;;;;NaN;;;;;0 / 0;141011;2022-10-30 20:21:49:391
-0.7326;-1.9872;2.332;-1.64;-7.1971;-6.4562;2.0327;3.2347;7.9454;1.2724;-1.0699;-0.796;0.0;-36.78;-39.48;-22.44;286.05;67.53;172.48;2.0;981.7;61.157;;;;NaN;;;;;0 / 0;141510;2022-10-30 20:21:49:890
-0.5914;-8.89;-0.4549;-0.5336;-9.5486;-2.1703;0.9885;0.7592;1.8112;2.0017;3.3338;0.2645;0.0;8.34;9.66;-29.76;33.55;57.56;159.96;2.0;982.03;68.011;;;;NaN;;;;;0 / 0;142011;2022-10-30 20:21:50:391
1.8603;-7.2045;0.3855;-1.1558;-8.8481;-4.0676;5.3936;-2.6013;4.5297;-2.4362;-2.6722;-0.0605;0.0;40.8;9.0;-12.78;109.17;85.55;142.3;2.0;981.82;62.827;;;;NaN;;;;;0 / 0;142511;2022-10-30 20:21:50:891
-2.3248;-8.5691;1.5179;-1.2073;-9.6318;-1.3932;1.4491;1.0435;1.5225;1.8954;-0.7981;-0.4484;0.0;11.34;-1.32;-35.76;45.76;64.83;154.57;2.0;982.09;62.954;;;;NaN;;;;;0 / 0;143010;2022-10-30 20:21:51:390
-3.5602;-12.0767;-1.3479;-2.0098;-6.7384;-6.8355;2.1486;5.1607;8.5642;-5.8546;-2.0522;1.262;0.0;-22.86;3.06;3.06;262.04;74.22;-177.09;2.0;981.85;67.114;;;;NaN;;;;;0 / 0;143510;2022-10-30 20:21:51:890
-0.9792;-12.4813;-2.0782;-0.5464;-9.0904;-3.6381;0.5776;3.368;0.1689;3.8936;0.6747;-1.2877;0.0;-26.52;9.24;8.04;286.36;42.4;158.68;2.0;982.51;65.467;;;;NaN;;;;;0 / 0;144010;2022-10-30 20:21:52:390
-3.134;-11.2674;-2.8443;-0.1114;-9.5688;-2.1439;-2.3714;-3.7146;-0.0899;-3.6286;0.3809;0.9768;0.0;34.08;6.48;-18.24;245.72;83.04;-2.47;2.0;981.68;61.256;;;;NaN;;;;;0 / 0;144511;2022-10-30 20:21:52:891
6.8549;-14.648;2.3152;-1.7873;-7.7357;-5.7562;-10.1097;6.553;6.6325;4.1117;3.2452;-1.3408;0.0;7.98;11.82;15.72;173.98;49.09;155.35;2.0;982.65;64.724;;;;NaN;;;;;0 / 0;145011;2022-10-30 20:21:53:391
-3.6799;-16.7385;3.62;-0.2623;-9.8023;-0.1242;0.4251;-2.09;7.3885;-3.8681;-1.3522;0.2511;0.0;33.3;15.96;-15.96;213.03;80.6;33.69;2.0;981.83;65.563;;;;NaN;;;;;0 / 0;145510;2022-10-30 20:21:53:890
5.2364;2.7581;17.3131;-1.3733;-8.4674;-4.7527;4.9814;0.1927;3.9338;1.7672;1.7559;0.1576;0.0;-1.92;2.28;15.12;225.66;47.08;154.97;2.0;982.49;69.561;;;;NaN;;;;;0 / 0;146011;2022-10-30 20:21:54:391
-0.7925;-14.095;-2.4756;0.2422;-9.7433;-1.086;-3.369;-6.8826;-1.5165;-3.479;-1.1982;-0.7355;0.0;37.68;16.86;-6.96;233.01;81.73;29.75;2.0;981.91;66.675;;;;NaN;;;;;0 / 0;146511;2022-10-30 20:21:54:891
-5.1478;-10.1948;-13.1277;-2.578;-7.1807;-6.1612;-4.2051;6.8073;14.819;-0.5761;0.85;-0.0941;0.0;15.3;8.4;17.7;147.01;51.87;160.24;2.0;982.75;63.036;;;;NaN;;;;;0 / 0;147010;2022-10-30 20:21:55:390
3.1412;-16.6211;-3.237;-0.5056;-9.7058;1.3087;2.0906;-3.4722;-3.2121;-1.9347;0.274;-1.5363;0.0;31.32;16.62;-12.6;240.96;83.36;9.4;2.0;981.89;69.897;;;;NaN;;;;;0 / 0;147511;2022-10-30 20:21:55:891
-14.5355;-11.6529;-6.2875;-2.5805;-7.9461;-5.1353;-7.4803;8.037;-1.7436;-1.3085;-1.1145;0.5198;0.0;8.82;9.42;5.1;87.26;46.38;156.61;2.0;982.7;63.014;;;;NaN;;;;;0 / 0;148010;2022-10-30 20:21:56:390
5.5501;-14.0255;-4.5131;-1.1823;-9.5772;1.7462;11.231;-4.7739;-3.0415;-1.8815;-0.4444;-0.2065;0.0;31.32;15.12;-15.3;183.14;87.66;61.09;2.0;981.86;64.903;;;;NaN;;;;;0 / 0;148511;2022-10-30 20:21:56:891
-4.7692;-20.7727;-12.862;-2.9401;-7.3172;-5.8296;1.6904;-4.5607;4.0555;-1.7636;0.1536;0.314;0.0;12.78;12.96;8.22;104.19;54.88;159.51;2.0;982.74;67.06;;;;NaN;;;;;0 / 0;149010;2022-10-30 20:21:57:390
5.4064;-14.7417;-3.45;-0.4901;-9.7321;1.1023;0.356;-6.573;-4.2555;0.2284;0.8885;-0.1967;0.0;30.06;18.3;-15.78;223.32;82.88;21.42;2.0;981.81;67.052;;;;NaN;;;;;0 / 0;149511;2022-10-30 20:21:57:891
-7.2763;-7.0967;-10.8748;-2.7372;-7.6299;-5.5193;-0.4519;11.3361;-3.0163;0.3493;-2.7871;0.7508;0.0;-4.5;7.8;7.38;283.21;48.38;159.57;2.0;982.52;66.212;;;;NaN;;;;;0 / 0;150011;2022-10-30 20:21:58:391
7.147;-16.3195;-1.9632;-1.294;-9.6535;1.1426;10.6149;-4.384;-2.73;-1.0807;0.084;-0.2987;0.0;34.02;19.92;-11.76;142.46;85.95;106.66;2.0;981.85;68.878;;;;NaN;;;;;0 / 0;150510;2022-10-30 20:21:58:890
-5.7703;-13.3264;-16.5589;-1.9063;-7.787;-5.6478;-2.7002;-0.4014;-3.9556;-1.0477;-0.4542;0.9768;0.0;-10.14;2.04;12.3;245.2;48.18;167.19;2.0;982.1;64.816;;;;NaN;;;;;0 / 0;151011;2022-10-30 20:21:59:391
0.3519;-8.6553;-2.7461;-0.231;-9.7975;-0.3534;2.3977;1.7288;0.8754;1.3591;1.7712;0.5229;0.0;31.44;22.2;-8.94;79.91;75.31;164.12;2.0;981.85;64.004;;;;NaN;;;;;0 / 0;151511;2022-10-30 20:21:59:891
-1.8292;-2.9664;1.9632;-2.5833;-7.5688;-5.6754;-1.925;1.085;-4.8762;2.0146;0.2831;-1.5333;0.0;-13.98;2.46;10.74;260.33;46.96;160.83;2.0;981.94;63.542;;;;NaN;;;;;0 / 0;152011;2022-10-30 20:22:00:391
-0.2969;-10.3624;-0.7183;-0.6169;-9.7862;0.1412;1.0192;1.5522;-2.9472;2.2717;0.6283;0.4588;0.0;30.72;18.24;-14.16;80.84;77.24;158.29;2.0;982.05;67.594;;;;NaN;;;;;0 / 0;152510;2022-10-30 20:22:00:890
1.7597;-6.6945;1.9345;-2.2009;-7.0211;-6.483;2.2656;5.7355;10.455;-1.0049;-2.2605;0.3012;0.0;-14.64;-20.64;3.24;240.32;63.9;166.49;2.0;981.73;57.645;;;;NaN;;;;;0 / 0;153011;2022-10-30 20:22:01:391
0.5219;-6.6107;-1.1301;-0.463;-9.7094;-1.2971;0.5037;0.3718;0.3705;2.2015;3.5372;-0.0122;0.0;27.72;11.7;-25.86;60.51;64.12;161.87;2.0;982.33;67.017;;;;NaN;;;;;0 / 0;153510;2022-10-30 20:22:01:890
1.324;-1.0271;2.1356;-1.604;-8.0728;-5.3316;2.4132;4.9963;5.5232;-2.6182;-2.4939;-0.1197;0.0;27.6;-7.26;-30.48;50.26;81.4;174.21;2.0;981.66;64.6;;;;NaN;;;;;0 / 0;154011;2022-10-30 20:22:02:391
-2.3966;-6.7855;-1.8052;-1.0862;-9.2162;-3.1704;-0.5395;2.8833;2.7538;2.6156;1.3741;-0.1888;0.0;-23.22;-15.54;0.18;261.6;50.52;156.58;2.0;982.41;64.805;;;;NaN;;;;;0 / 0;154511;2022-10-30 20:22:02:891
-2.3415;-11.6385;-3.1532;-2.0747;-7.3451;-6.1575;2.6852;7.2469;9.8589;-2.1234;-2.4896;-0.1014;0.0;-12.78;-34.56;-24.0;332.42;69.51;165.47;2.0;981.66;65.798;;;;NaN;;;;;0 / 0;155012;2022-10-30 20:22:03:392
6.1151;-13.6089;-4.3144;-1.0823;-9.3745;-2.6679;-2.5042;1.0783;3.0797;2.0109;0.161;-0.4716;0.0;4.74;2.7;-21.06;45.91;51.3;150.53;2.0;982.76;63.932;;;;NaN;;;;;0 / 0;155511;2022-10-30 20:22:03:891
-2.5953;-17.8087;-2.6743;-1.6166;-8.5899;-4.4463;6.8099;-2.2729;5.2986;-4.7129;-1.9679;-0.4753;0.0;36.0;8.82;-11.82;99.43;82.11;150.19;2.0;981.72;60.056;;;;NaN;;;;;0 / 0;156010;2022-10-30 20:22:04:390
0.4812;-8.3896;0.498;-2.3351;-8.6183;-4.0548;6.5154;-3.4057;1.7204;3.2485;1.5183;-1.1545;0.0;8.46;6.6;13.44;191.69;47.46;143.36;2.0;982.49;63.634;;;;NaN;;;;;0 / 0;156510;2022-10-30 20:22:04:890
-4.6687;-17.1407;2.2673;-0.1765;-9.6353;-1.8164;-4.5951;-9.8349;-0.5395;-3.628;-1.646;0.1191;0.0;32.7;20.16;-0.9;212.72;82.13;58.36;2.0;981.72;59.634;;;;NaN;;;;;0 / 0;157011;2022-10-30 20:22:05:391
-16.183;-0.5387;-3.9696;-3.4392;-7.2651;-5.6179;-8.6614;7.9786;6.9993;1.6432;4.5073;-2.2113;0.0;15.18;10.08;14.04;154.54;54.35;146.93;2.0;982.62;64.024;;;;NaN;;;;;0 / 0;157511;2022-10-30 20:22:05:891
4.0127;-14.3176;-3.4022;-0.3146;-9.4975;-2.4223;-2.7309;-7.7317;10.6467;-4.179;-2.1567;1.1887;0.0;29.58;17.64;-5.28;206.83;82.66;55.85;2.0;981.74;64.58;;;;NaN;;;;;0 / 0;158010;2022-10-30 20:22:06:390
0.4142;0.6776;-13.3647;-2.5914;-7.5748;-5.6637;19.3443;-19.8828;17.0197;1.3017;-2.3283;0.9505;0.0;14.34;13.86;13.32;122.91;50.57;155.41;2.0;982.49;66.682;;;;NaN;;;;;0 / 0;158510;2022-10-30 20:22:06:890
6.0552;-16.1303;-2.4852;-0.8427;-9.7652;-0.3177;5.2145;-4.1574;8.9443;-3.504;-0.7706;-1.2352;0.0;29.82;17.28;-9.42;206.08;81.69;49.44;2.0;981.76;66.823;;;;NaN;;;;;0 / 0;159010;2022-10-30 20:22:07:390
16.3722;-17.9643;17.191;-3.5686;-7.1313;-5.7079;-5.3094;-20.3838;0.8429;-2.1686;-4.776;1.7233;0.0;10.68;7.68;14.94;160.5;51.13;153.88;2.0;982.28;63.881;;;;NaN;;;;;0 / 0;159514;2022-10-30 20:22:07:894
-4.9443;-11.5834;-4.9731;-1.1737;-9.6913;0.9334;4.03;-4.2313;-4.5726;-0.0544;1.3332;-0.3134;0.0;28.74;12.9;-15.36;157.21;85.74;84.73;2.0;981.82;66.863;;;;NaN;;;;;0 / 0;160011;2022-10-30 20:22:08:391
-5.5118;-18.2875;-12.3424;-2.7258;-7.853;-5.2029;-3.9854;-18.7929;-9.1914;0.2821;-2.0711;0.6048;0.0;7.62;10.38;7.56;85.76;42.23;155.85;2.0;982.08;66.13;;;;NaN;;;;;0 / 0;160510;2022-10-30 20:22:08:890
0.8068;-11.9402;-1.5754;-0.9301;-9.7543;0.3991;-2.6324;-0.3903;-1.5579;0.9626;2.5702;0.5742;0.0;27.3;16.92;-19.38;88.32;80.18;141.46;2.0;981.76;68.155;;;;NaN;;;;;0 / 0;161010;2022-10-30 20:22:09:390
0.2921;-1.3623;-3.8355;-3.0446;-7.828;-5.0619;-2.5031;-1.615;-8.0395;-1.3006;-0.1298;0.7575;0.0;-1.5;3.36;11.52;231.02;42.7;154.78;2.0;981.93;65.098;;;;NaN;;;;;0 / 0;161512;2022-10-30 20:22:09:892
4.0606;-7.2188;0.4405;-0.9194;-9.7475;0.5567;1.7933;-2.3698;-2.3308;0.5729;0.5434;0.6677;0.0;27.3;19.2;-15.72;92.78;81.78;141.53;2.0;981.79;68.339;;;;NaN;;;;;0 / 0;162011;2022-10-30 20:22:10:391
-1.6975;-4.1108;-7.6163;-3.2888;-6.6498;-6.4135;3.2002;5.4312;3.5165;2.1288;-0.0999;-0.9151;0.0;-1.14;0.78;27.42;206.78;47.92;162.26;2.0;981.73;64.845;;;;NaN;;;;;0 / 0;162510;2022-10-30 20:22:10:890
2.1069;-8.0017;0.6584;-0.8769;-9.7391;-0.7423;3.2041;3.6168;2.4757;1.9162;2.2306;0.0922;0.0;27.84;16.92;-20.82;71.8;70.94;153.19;2.0;981.73;66.332;;;;NaN;;;;;0 / 0;163011;2022-10-30 20:22:11:391
-1.4365;-2.3918;3.0478;-2.5344;-7.1573;-6.2064;1.8712;5.8573;9.3045;-2.1039;-2.2159;0.0996;0.0;-27.24;-26.46;-32.64;328.36;67.36;163.11;2.0;981.59;61.08;;;;NaN;;;;;0 / 0;163511;2022-10-30 20:22:11:891
0.486;-6.1127;-2.4852;-0.8549;-9.7612;-0.3975;3.0575;3.7203;2.3033;1.4758;3.2715;-0.1167;0.0;24.18;17.76;-20.16;73.36;74.92;148.86;2.0;981.88;70.318;;;;NaN;;;;;0 / 0;164010;2022-10-30 20:22:12:390
0.5698;-2.4708;0.4477;-2.2089;-6.7837;-6.7284;3.1858;5.1389;8.5169;-2.5486;-1.6704;-0.3134;0.0;20.28;7.44;-15.18;63.79;64.62;165.02;2.0;981.72;55.474;;;;NaN;;;;;0 / 0;164510;2022-10-30 20:22:12:890
-0.091;-7.3792;1.6352;-1.3715;-9.4531;-2.2198;-4.4491;0.7403;1.1352;2.6639;1.4926;-0.5339;0.0;-4.14;-3.18;9.06;233.59;52.35;147.03;2.0;982.03;65.723;;;;NaN;;;;;0 / 0;165011;2022-10-30 20:22:13:391
-3.711;-16.2189;1.3168;-1.4748;-8.7157;-4.2464;0.4069;-4.6179;-1.2606;-2.2804;-2.4242;-0.3396;0.0;4.86;-19.56;-30.3;45.01;62.72;160.85;2.0;981.83;63.749;;;;NaN;;;;;0 / 0;165511;2022-10-30 20:22:13:891
2.1045;-8.7439;-5.5572;-2.7628;-8.1037;-4.7819;7.8268;-9.8462;5.4498;3.3469;1.2098;0.0739;0.0;-11.52;3.84;-13.14;346.76;55.73;149.98;2.0;982.43;64.426;;;;NaN;;;;;0 / 0;166010;2022-10-30 20:22:14:390
3.8331;-15.1655;-1.1181;-0.734;-9.6905;-1.3133;-1.6434;-4.232;7.6127;-3.4673;-0.9239;-0.0586;0.0;31.98;19.26;-0.54;112.29;81.18;150.8;2.0;981.76;65.528;;;;NaN;;;;;0 / 0;166511;2022-10-30 20:22:14:891
0.2969;-10.53;0.6632;-2.2634;-8.7487;-3.8089;7.8015;-6.6251;1.2567;1.6774;-1.0119;-0.11;0.0;5.7;9.72;15.6;229.17;46.5;140.35;2.0;982.2;67.307;;;;NaN;;;;;0 / 0;167011;2022-10-30 20:22:15:391
2.818;-15.1798;6.2923;-0.4342;-9.6363;-1.767;-4.9938;-7.7294;-0.3231;-3.8974;-0.9441;-1.0916;0.0;30.6;17.88;-11.04;195.7;81.13;56.26;2.0;981.85;57.747;;;;NaN;;;;;0 / 0;167510;2022-10-30 20:22:15:890
-5.89;-2.5019;-2.6193;-3.6112;-7.0496;-5.782;8.8405;-21.1454;10.8963;-0.7136;-1.9905;0.3848;0.0;9.48;7.38;12.84;173.14;54.93;149.18;2.0;982.49;62.578;;;;NaN;;;;;0 / 0;168010;2022-10-30 20:22:16:390
10.846;-15.1343;-1.1588;-1.1447;-9.7181;0.6472;-3.5431;-3.0673;-6.6426;-3.5804;-0.7535;-0.9548;0.0;30.78;16.62;-6.18;200.12;82.29;60.52;2.0;981.73;61.173;;;;NaN;;;;;0 / 0;168511;2022-10-30 20:22:16:891
-6.3162;-8.313;-9.273;-2.4883;-8.2318;-4.7134;-3.6842;-20.7413;-7.8445;-1.5327;-2.7559;0.1032;0.0;7.38;3.6;13.44;179.32;57.08;152.17;2.0;982.43;63.618;;;;NaN;;;;;0 / 0;169011;2022-10-30 20:22:17:391
-2.0566;-11.2554;1.1205;-0.8859;-9.701;-1.1298;0.6561;1.898;-0.4336;1.8142;0.15;0.4862;0.0;31.98;16.44;-12.24;103.54;81.58;141.9;2.0;981.72;65.87;;;;NaN;;;;;0 / 0;169511;2022-10-30 20:22:17:891
-0.577;-1.6735;-1.7813;-2.2407;-8.2692;-4.7718;-2.7108;-0.4772;-5.6361;1.1294;-0.5061;-0.6726;0.0;-21.66;-19.26;-1.62;253.9;46.64;157.82;2.0;982.13;59.065;;;;NaN;;;;;0 / 0;170025;2022-10-30 20:22:18:405
0.5052;-5.574;-1.6903;-0.8906;-9.7552;0.4609;3.1339;-0.6024;-6.7604;1.2772;2.9044;0.0049;0.0;30.12;17.7;-14.76;90.15;79.31;147.47;2.0;981.84;69.1;;;;NaN;;;;;0 / 0;170511;2022-10-30 20:22:18:891
0.1724;-0.7398;3.3591;-2.4816;-7.5949;-5.6859;2.5223;8.215;7.6443;1.1874;-0.9838;-0.5938;0.0;4.38;-4.74;0.42;132.47;56.63;166.09;2.0;981.92;64.434;;;;NaN;;;;;0 / 0;171010;2022-10-30 20:22:19:390
-3.3327;-9.3592;-6.0169;-1.0649;-9.684;1.1207;4.7041;-2.6512;-5.7487;1.7409;1.5043;0.584;0.0;28.92;16.8;-15.36;97.83;85.78;142.62;2.0;981.95;67.298;;;;NaN;;;;;0 / 0;171519;2022-10-30 20:22:19:899
-0.3903;-0.7781;-0.4334;-2.4748;-7.8849;-5.2795;-0.6903;1.9901;-1.5634;1.0292;-1.3192;-0.4679;0.0;9.24;-4.56;-0.24;121.3;47.89;163.52;2.0;981.95;65.862;;;;NaN;;;;;0 / 0;172010;2022-10-30 20:22:20:390
1.2546;-6.8238;-1.1684;-0.7089;-9.7809;-0.037;-0.3925;2.167;-2.1417;1.5387;3.0809;-0.3207;0.0;26.58;20.58;-10.32;87.89;76.42;151.71;2.0;981.89;70.401;;;;NaN;;;;;0 / 0;172511;2022-10-30 20:22:20:891
-0.0766;0.2155;4.1444;-2.535;-6.3404;-7.0387;3.5788;6.5941;10.7282;2.2974;-0.9093;-1.4001;0.0;-65.64;-81.72;-2.28;245.27;56.44;164.52;2.0;981.84;63.207;;;;NaN;;;;;0 / 0;173011;2022-10-30 20:22:21:391
-3.134;-7.4894;-2.0039;-0.7794;-9.6598;-1.5005;0.1905;-0.0682;1.1558;1.5308;0.1591;0.4484;0.0;34.62;12.6;-16.32;78.44;64.24;159.08;2.0;982.14;64.464;;;;NaN;;;;;0 / 0;173511;2022-10-30 20:22:21:891
5.5812;-13.6018;-1.2905;-1.7402;-7.2739;-6.3429;2.7481;2.6722;7.7315;-0.6586;-2.2416;-0.1625;0.0;41.58;-44.22;-38.46;67.76;74.44;172.34;2.0;981.74;64.779;;;;NaN;;;;;0 / 0;174011;2022-10-30 20:22:22:391
0.3041;-9.5077;-0.486;-0.6468;-9.7589;-0.7173;0.7186;3.7492;2.2137;2.3279;2.3485;-0.2224;0.0;29.76;16.44;-15.18;102.78;84.35;137.96;2.0;982.33;64.558;;;;NaN;;;;;0 / 0;174510;2022-10-30 20:22:22:890
2.6217;-6.1821;2.1787;-1.5235;-7.1168;-6.5727;1.1045;8.3139;8.9358;-3.9621;-3.1964;-0.6292;0.0;73.26;-35.22;-43.98;73.72;67.59;175.74;2.0;981.59;58.998;;;;NaN;;;;;0 / 0;175011;2022-10-30 20:22:23:391
-0.7063;-7.4104;-0.5842;-1.4014;-9.3441;-2.6258;-1.1293;1.6488;2.9179;2.8563;0.0571;-0.9175;0.0;16.92;8.46;-20.04;64.62;50.86;149.59;2.0;982.55;63.462;;;;NaN;;;;;0 / 0;175510;2022-10-30 20:22:23:890
-4.2282;-18.4168;-2.375;-0.5931;-8.9691;-3.9209;-2.9647;-4.9511;6.7795;-3.3641;-1.7706;-0.4038;0.0;44.28;12.96;4.14;164.05;84.46;110.63;2.0;981.65;58.734;;;;NaN;;;;;0 / 0;176011;2022-10-30 20:22:24:391
-5.3753;2.138;4.9731;-3.5027;-7.3582;-5.455;2.6552;-3.3657;1.9379;2.9803;1.2104;-0.9499;0.0;3.0;3.54;14.22;206.12;49.22;152.35;2.0;982.65;67.949;;;;NaN;;;;;0 / 0;176510;2022-10-30 20:22:24:890
-3.4548;-13.1828;3.9121;-0.7987;-9.2413;-3.183;1.1267;-12.8147;2.9675;-2.6213;0.8751;-0.2553;0.0;33.36;18.0;3.96;157.05;83.48;118.35;2.0;981.69;65.241;;;;NaN;;;;;0 / 0;177011;2022-10-30 20:22:25:391
-9.7998;-5.1694;-4.8554;-4.5153;-6.9715;-5.2135;-3.4385;0.1286;1.1098;-0.6164;0.2679;-0.256;0.0;-22.62;-2.7;19.14;264.66;47.24;142.4;2.0;981.98;68.566;;;;NaN;;;;;0 / 0;177510;2022-10-30 20:22:25:890
-0.34;-11.5044;-2.9688;-1.3131;-9.7137;0.2991;7.2917;-3.4954;-2.3102;1.1337;0.1005;0.5327;0.0;29.46;19.5;-8.58;124.89;82.41;123.51;2.0;981.82;64.565;;;;NaN;;;;;0 / 0;178012;2022-10-30 20:22:26:392
-0.8523;-2.9066;1.6759;-3.8653;-7.1434;-5.4955;1.2221;6.2097;3.482;0.262;-2.219;-0.7007;0.0;13.68;4.8;18.36;155.13;43.71;155.87;2.0;981.94;65.82;;;;NaN;;;;;0 / 0;178511;2022-10-30 20:22:26:891
-1.3144;-7.4295;0.3112;-1.6627;-9.6497;-0.5371;1.6028;4.4205;1.1141;1.4556;1.77;0.6707;0.0;29.82;18.24;-14.76;96.93;70.75;135.39;2.0;981.8;66.94;;;;NaN;;;;;0 / 0;179010;2022-10-30 20:22:27:390
-0.5794;-1.5443;2.047;-2.3252;-6.8904;-6.5791;3.8168;4.9439;7.9893;0.6456;-2.12;-0.5034;0.0;-3.0;-23.88;14.34;196.75;64.4;164.77;2.0;981.69;61.792;;;;NaN;;;;;0 / 0;179512;2022-10-30 20:22:27:892
0.905;-8.7703;0.2682;-2.3706;-9.2641;-2.1742;-1.1345;1.6718;1.1399;1.846;4.2196;-0.2242;0.0;14.82;4.02;-25.98;70.63;51.25;138.66;2.0;981.82;66.264;;;;NaN;;;;;0 / 0;180011;2022-10-30 20:22:28:391
-1.3791;-0.9218;1.5083;-2.7147;-6.9266;-6.3892;2.7937;7.3504;9.6765;-3.165;-1.7071;-0.6738;0.0;-11.52;-22.26;19.44;219.99;62.34;157.84;2.0;981.72;60.339;;;;NaN;;;;;0 / 0;180511;2022-10-30 20:22:28:891
-1.3336;-6.388;-0.17;-1.8033;-9.4566;-1.8685;-3.2487;3.4109;1.9355;3.0243;2.9764;-1.2425;0.0;9.6;3.48;-24.9;64.2;52.87;138.9;2.0;981.99;66.059;;;;NaN;;;;;0 / 0;181011;2022-10-30 20:22:29:391
-7.8198;-16.6427;-0.5818;-1.4711;-8.8277;-4.0097;3.4655;-2.8994;7.1797;-3.7697;-0.2245;-0.8351;0.0;57.84;6.0;6.66;160.22;78.07;115.85;2.0;981.8;62.656;;;;NaN;;;;;0 / 0;181511;2022-10-30 20:22:29:891
0.0551;-1.7837;-3.7685;-3.6702;-8.0923;-4.1491;7.3429;-7.6933;13.1516;2.9645;2.2752;0.4087;0.0;14.4;7.68;13.08;167.6;47.95;138.67;2.0;982.22;67.941;;;;NaN;;;;;0 / 0;182011;2022-10-30 20:22:30:391
4.7285;-13.4437;1.7597;-1.5594;-9.5925;-1.3126;-3.677;-2.9702;6.3791;-4.5993;-0.2935;0.2034;0.0;29.7;14.88;-11.82;176.63;75.1;71.05;2.0;981.88;63.039;;;;NaN;;;;;0 / 0;182511;2022-10-30 20:22:30:891
-5.4711;3.7302;-8.4638;-4.8303;-7.1454;-4.6671;-0.6815;-10.4789;-5.396;2.8252;2.8182;-0.5986;0.0;7.74;9.42;12.72;192.77;53.97;142.44;2.0;982.77;60.028;;;;NaN;;;;;0 / 0;183011;2022-10-30 20:22:31:391
-8.313;-14.6456;3.2944;-1.5492;-9.5222;-1.7602;-5.2769;-8.8731;1.1425;-3.2419;-1.7773;-0.876;0.0;28.86;16.5;-13.38;169.25;75.21;74.79;2.0;981.78;61.478;;;;NaN;;;;;0 / 0;183510;2022-10-30 20:22:31:890
-17.5142;-10.2068;-2.3559;-4.9173;-6.765;-5.1209;28.3548;1.5214;14.6382;-1.7056;-0.7431;0.3806;0.0;17.22;11.82;12.06;150.46;54.77;140.21;2.0;982.47;64.033;;;;NaN;;;;;0 / 0;184010;2022-10-30 20:22:32:390
10.9179;-13.1397;-1.506;-2.415;-9.4934;0.4622;0.1046;-6.3185;-4.0703;0.4654;1.5537;-0.2419;0.0;29.52;13.62;-20.04;155.1;78.24;78.83;2.0;981.72;60.475;;;;NaN;;;;;0 / 0;184510;2022-10-30 20:22:32:890
-6.3378;-7.4702;-9.704;-3.5935;-8.1203;-4.1614;-3.1249;-23.8336;-10.2736;-0.895;-2.3949;1.303;0.0;-0.3;3.66;0.72;345.69;45.62;145.74;2.0;982.14;62.605;;;;NaN;;;;;0 / 0;185010;2022-10-30 20:22:33:390
2.0662;-9.4502;-4.2138;-2.1438;-9.5497;0.6137;2.582;-0.4224;-3.8291;0.2174;1.6331;-0.1723;0.0;25.92;15.9;-20.58;105.82;78.66;119.66;2.0;981.89;65.595;;;;NaN;;;;;0 / 0;185510;2022-10-30 20:22:33:890
-1.0511;-0.1101;2.6743;-3.5743;-7.5028;-5.2059;2.4682;6.684;5.3855;-0.482;-2.2562;0.5547;0.0;-1.08;-0.3;13.2;210.83;52.54;159.05;2.0;981.98;61.271;;;;NaN;;;;;0 / 0;186011;2022-10-30 20:22:34:391
-1.0582;-11.1453;-0.5195;-2.5782;-9.4137;0.9514;8.7532;-3.204;-6.3147;1.6022;4.715;0.1319;0.0;26.34;13.8;-23.16;127.97;78.47;96.27;2.0;981.93;65.738;;;;NaN;;;;;0 / 0;186511;2022-10-30 20:22:34:891
-2.4636;-1.6807;-11.3895;-4.8155;-5.9101;-6.1686;-3.6866;-1.1195;-6.6192;1.7812;0.577;-1.003;0.0;3.36;14.7;26.82;270.85;31.33;147.08;2.0;982.27;67.405;;;;NaN;;;;;0 / 0;187011;2022-10-30 20:22:35:391
0.6632;-5.0928;0.0239;-1.0101;-9.749;-0.3272;3.4211;2.8749;-0.415;2.0268;3.2678;0.1051;0.0;26.82;22.02;-14.64;78.06;74.05;151.88;2.0;982.05;63.06;;;;NaN;;;;;0 / 0;187511;2022-10-30 20:22:35:891
2.0423;-0.8452;0.8452;-3.0427;-6.959;-6.2036;2.9732;5.1466;9.4549;0.9645;-1.004;-0.7391;0.0;-25.86;-21.54;-21.18;310.49;63.16;161.26;2.0;981.75;64.043;;;;NaN;;;;;0 / 0;188010;2022-10-30 20:22:36:390
-3.1436;-6.7974;1.664;-1.5113;-9.3898;-2.3911;-1.9387;1.2971;2.8293;1.7922;2.8879;0.5131;0.0;13.38;3.54;-25.14;64.84;52.89;142.66;2.0;981.92;69.165;;;;NaN;;;;;0 / 0;188510;2022-10-30 20:22:36:890
-6.0576;-18.096;-0.9553;-1.3324;-8.581;-4.5565;2.1105;-2.9594;5.859;-2.2053;-2.0968;-0.416;0.0;34.32;13.56;-2.34;128.1;77.24;133.67;2.0;981.73;59.516;;;;NaN;;;;;0 / 0;189011;2022-10-30 20:22:37:391
-1.4533;-6.2228;0.5124;-1.8025;-9.3566;-2.3185;-3.0841;0.7611;2.5412;2.8331;2.7498;-0.7752;0.0;9.12;3.96;-21.24;59.26;53.36;143.73;2.0;982.38;62.106;;;;NaN;;;;;0 / 0;189511;2022-10-30 20:22:37:891
-5.4232;-18.7783;0.0958;-1.4467;-8.6226;-4.4415;2.8664;-3.3008;2.8446;-3.9805;-0.6607;-0.19;0.0;34.5;14.46;0.78;126.96;78.12;140.25;2.0;981.72;55.662;;;;NaN;;;;;0 / 0;190011;2022-10-30 20:22:38:391
-6.6586;-10.3816;-8.459;-3.2537;-8.099;-4.471;11.83;-9.8893;11.1919;2.0072;1.1371;-0.6671;0.0;13.74;8.1;14.28;163.78;46.83;142.46;2.0;982.67;59.08;;;;NaN;;;;;0 / 0;190511;2022-10-30 20:22:38:891
3.3615;-11.7582;-0.4525;-1.3332;-9.5682;-1.6859;-0.7832;-5.6164;7.8585;-3.5797;-0.0125;-0.5143;0.0;28.86;18.12;-6.72;178.99;79.16;77.31;2.0;981.8;61.873;;;;NaN;;;;;0 / 0;191011;2022-10-30 20:22:39:391
-5.9738;4.1013;-10.7072;-4.0392;-7.238;-5.2409;-3.388;-13.2665;-5.3203;1.9425;0.9478;0.2969;0.0;0.96;0.18;17.1;213.49;56.59;147.73;2.0;982.25;68.427;;;;NaN;;;;;0 / 0;191511;2022-10-30 20:22:39:891
1.063;-11.4039;-2.4325;-1.8987;-9.6171;0.2767;12.6753;-5.5029;-1.8425;-2.2523;-0.974;-0.3311;0.0;28.68;14.1;-13.98;129.92;80.77;110.85;2.0;981.95;66.589;;;;NaN;;;;;0 / 0;192010;2022-10-30 20:22:40:390
-6.1223;2.4469;-6.0624;-4.3315;-7.1641;-5.1071;1.2215;-23.133;-2.0039;-2.2474;-0.8341;-0.19;0.0;10.26;3.06;9.6;163.55;55.39;146.68;2.0;982.05;62.235;;;;NaN;;;;;0 / 0;192511;2022-10-30 20:22:40:891
10.1421;-13.8555;-2.9018;-1.8333;-9.6105;0.6689;0.1526;-5.6005;-3.518;0.3817;0.6527;0.2908;0.0;28.74;12.66;-18.72;159.44;80.21;75.77;2.0;981.83;69.598;;;;NaN;;;;;0 / 0;193012;2022-10-30 20:22:41:392
-9.3137;-21.2108;-18.6514;-3.0022;-7.7947;-5.138;-6.0889;-3.0825;-5.3489;0.9052;-0.2269;0.1625;0.0;3.84;6.06;-1.44;50.0;47.05;151.93;2.0;982.03;63.675;;;;NaN;;;;;0 / 0;193512;2022-10-30 20:22:41:892
5.1742;-12.443;-2.162;-1.2525;-9.7023;0.6828;4.6642;-6.4232;-3.9006;-3.9206;-0.8604;-0.923;0.0;28.02;17.22;-14.82;158.38;85.27;82.44;2.0;981.92;64.138;;;;NaN;;;;;0 / 0;194010;2022-10-30 20:22:42:390
-12.2849;-9.8381;-17.2867;-3.9237;-7.9726;-4.1487;-9.7308;-17.5385;-14.474;-0.4851;-1.616;2.1838;0.0;24.6;14.94;-1.14;87.0;45.92;146.49;2.0;982.13;65.749;;;;NaN;;;;;0 / 0;194511;2022-10-30 20:22:42:891
2.8108;-11.1597;-2.9832;-1.8668;-9.594;0.8003;11.2859;-4.2065;-4.2024;-2.3825;-1.5397;0.1338;0.0;30.9;16.98;-11.88;139.92;82.96;106.39;2.0;981.9;59.0;;;;NaN;;;;;0 / 0;195011;2022-10-30 20:22:43:391
-10.9657;-4.604;1.1492;-5.3832;-6.306;-5.2369;18.5037;-18.8651;5.7996;-0.9909;-1.4035;1.066;0.0;28.8;7.62;11.52;137.45;50.12;140.6;2.0;982.03;62.589;;;;NaN;;;;;0 / 0;195511;2022-10-30 20:22:43:891
-1.2905;-15.8287;-7.3385;-1.8111;-9.6352;-0.2284;6.3385;-2.8005;1.1358;0.1166;1.3998;-0.1038;0.0;31.08;16.8;-11.34;174.11;79.09;75.67;2.0;981.86;60.302;;;;NaN;;;;;0 / 0;196011;2022-10-30 20:22:44:391
-7.2595;-25.6931;-11.3201;-4.0345;-7.2624;-5.2106;-0.3158;10.5209;-7.6442;-0.5981;-2.0369;0.6952;0.0;18.48;12.06;8.58;119.11;47.21;143.3;2.0;982.05;65.829;;;;NaN;;;;;0 / 0;196510;2022-10-30 20:22:44:890
-1.6281;-12.1054;-3.8642;-2.1165;-9.5497;0.7029;15.7686;-6.7961;-1.1338;-3.1589;-1.6893;-0.7086;0.0;31.68;18.6;-15.48;143.37;81.9;98.64;2.0;981.81;63.747;;;;NaN;;;;;0 / 0;197010;2022-10-30 20:22:45:390
0.6895;-1.6209;-3.5961;-3.1437;-8.0173;-4.6915;-9.9672;-3.0873;-12.2457;-1.7869;-0.533;0.7062;0.0;16.74;14.7;9.48;89.58;43.41;152.99;2.0;981.87;62.546;;;;NaN;;;;;0 / 0;197510;2022-10-30 20:22:45:890
1.166;-7.5803;-3.7589;-1.2595;-9.7176;0.3893;1.5228;-0.3934;-2.2041;0.1563;1.5354;-0.248;0.0;23.82;20.28;-16.02;83.47;79.86;145.87;2.0;981.8;67.493;;;;NaN;;;;;0 / 0;198010;2022-10-30 20:22:46:390
-7.6354;-29.179;-11.8755;-3.9944;-7.2181;-5.3022;-5.9538;3.7298;-6.128;0.1612;-3.583;0.5559;0.0;17.76;9.42;9.18;115.51;43.5;149.04;2.0;982.08;62.002;;;;NaN;;;;;0 / 0;198510;2022-10-30 20:22:46:890
-1.4796;-11.5906;-4.3622;-2.1694;-9.5569;0.3603;16.1231;-5.7905;-2.994;1.1587;2.7932;0.7007;0.0;27.54;14.58;-14.52;125.39;80.83;112.53;2.0;981.83;65.831;;;;NaN;;;;;0 / 0;199010;2022-10-30 20:22:47:390
-0.814;-4.3407;-4.6424;-3.5576;-7.8995;-4.5947;-6.1751;-8.7025;-13.7287;2.6541;-0.8879;-1.1325;0.0;8.82;5.94;7.26;117.45;42.22;152.85;2.0;982.02;64.6;;;;NaN;;;;;0 / 0;199511;2022-10-30 20:22:47:891
1.8172;-8.0592;-5.3513;-1.8491;-9.6178;0.499;0.5132;0.0766;-2.1654;1.7806;0.39;0.4636;0.0;25.74;15.6;-16.74;104.98;78.58;125.79;2.0;981.77;68.335;;;;NaN;;;;;0 / 0;200010;2022-10-30 20:22:48:390
-1.008;-0.1963;3.6248;-3.8061;-7.2572;-5.3867;2.4151;7.3314;4.963;-0.3403;-3.266;0.4893;0.0;8.82;4.74;14.82;164.6;50.06;158.13;2.0;981.95;63.22;;;;NaN;;;;;0 / 0;200510;2022-10-30 20:22:48:890
0.6177;-10.1206;-0.4956;-1.371;-9.7051;-0.3197;1.7708;4.9861;0.1353;1.4709;3.3228;0.6194;0.0;25.08;16.68;-15.54;83.32;70.79;143.03;2.0;981.83;67.537;;;;NaN;;;;;0 / 0;201011;2022-10-30 20:22:49:391
0.1963;-0.7422;-3.5913;-3.1723;-7.9115;-4.8492;-6.1822;-1.7327;-10.4839;2.273;-0.1145;-0.4917;0.0;-1.02;3.42;0.72;323.78;44.14;155.29;2.0;981.72;65.217;;;;NaN;;;;;0 / 0;201511;2022-10-30 20:22:49:891
-0.4166;-5.416;-0.4621;-1.8037;-9.6278;0.4704;2.7494;-1.5007;-4.1455;1.6419;0.7504;0.5027;0.0;26.52;14.94;-21.66;98.5;76.53;126.24;2.0;981.83;63.418;;;;NaN;;;;;0 / 0;202011;2022-10-30 20:22:50:391
1.2043;0.4693;3.2106;-3.597;-7.0062;-5.8433;3.1684;5.3303;6.5688;-1.0538;-2.2275;0.0391;0.0;-1.8;5.1;11.7;233.0;49.82;158.38;2.0;981.78;65.818;;;;NaN;;;;;0 / 0;202510;2022-10-30 20:22:50:890
3.2777;-9.0767;-0.9553;-1.2951;-9.7111;-0.4316;3.6175;4.7046;0.6088;1.5088;2.2752;0.5467;0.0;24.78;16.92;-20.58;78.2;70.96;142.33;2.0;981.86;71.016;;;;NaN;;;;;0 / 0;203012;2022-10-30 20:22:51:392
-0.7422;-0.9337;0.9074;-2.73;-6.8173;-6.4994;3.7116;7.8013;8.951;1.4709;-1.2422;-0.4184;0.0;-19.86;-9.3;10.2;250.36;64.18;164.63;2.0;981.73;62.51;;;;NaN;;;;;0 / 0;203510;2022-10-30 20:22:51:890
-4.4005;-8.7966;-1.2761;-1.896;-9.3958;-2.0723;4.1514;2.3852;1.5504;1.9327;1.4633;0.3286;0.0;16.26;11.76;-23.76;58.81;56.33;146.78;2.0;981.91;66.741;;;;NaN;;;;;0 / 0;204010;2022-10-30 20:22:52:390
0.067;1.6879;4.5179;-3.5707;-6.8197;-6.0755;2.7471;6.4079;8.3691;-1.4704;-2.514;-0.11;0.0;-11.16;-7.5;14.22;232.07;51.12;160.25;2.0;981.68;58.61;;;;NaN;;;;;0 / 0;204511;2022-10-30 20:22:52:891
1.9201;-7.7168;0.668;-1.3163;-9.6792;-0.8661;2.705;2.877;0.3753;2.543;3.0785;-0.1875;0.0;26.58;16.5;-19.74;74.02;66.24;148.58;2.0;982.01;67.069;;;;NaN;;;;;0 / 0;205010;2022-10-30 20:22:53:390
2.2625;-5.4184;3.237;-2.4325;-7.1041;-6.3075;3.1484;6.4074;9.7503;-4.3989;-1.7669;-0.8253;0.0;3.36;-10.68;-21.0;31.02;66.09;165.69;2.0;981.74;63.129;;;;NaN;;;;;0 / 0;205511;2022-10-30 20:22:53:891
-2.557;-7.1518;-0.1221;-1.4096;-9.543;-1.7649;-0.0485;2.4917;3.7402;1.6175;2.2636;0.4838;0.0;19.02;5.4;-23.76;71.88;57.05;144.01;2.0;982.0;67.975;;;;NaN;;;;;0 / 0;206010;2022-10-30 20:22:54:390
0.2538;-12.7758;-0.984;-1.8854;-7.9794;-5.38;5.3761;-0.494;6.6992;-1.8052;-2.591;0.1271;0.0;36.9;11.22;-10.68;94.21;78.13;155.72;2.0;981.76;63.946;;;;NaN;;;;;0 / 0;206510;2022-10-30 20:22:54:890
4.6639;-14.478;-4.9802;-2.3944;-8.9625;-3.1797;2.8446;1.7437;3.0624;2.5362;1.6411;-0.3445;0.0;0.3;11.88;-0.84;4.23;45.04;138.23;2.0;982.13;66.879;;;;NaN;;;;;0 / 0;207010;2022-10-30 20:22:55:390
2.9975;-7.5947;0.0599;-2.3596;-7.3467;-6.0521;3.0396;5.6348;8.384;-4.7728;-3.1768;-0.6481;0.0;-2.88;-42.36;-33.78;24.43;69.45;162.32;2.0;981.83;64.238;;;;NaN;;;;;0 / 0;207510;2022-10-30 20:22:55:890
-2.1476;-6.1438;-1.1181;-1.848;-9.3897;-2.142;-0.3953;1.5556;1.5075;3.0475;2.1695;-1.273;0.0;6.18;4.02;-21.0;54.51;51.45;142.11;2.0;982.39;66.169;;;;NaN;;;;;0 / 0;208010;2022-10-30 20:22:56:390
0.4381;-11.5739;0.1867;-2.2348;-7.8224;-5.4759;9.3914;-5.8152;1.6427;-4.1326;-1.1243;0.9853;0.0;18.48;-9.24;-12.36;103.57;76.99;137.76;2.0;981.94;67.503;;;;NaN;;;;;0 / 0;208511;2022-10-30 20:22:56:891
7.803;-16.013;9.5101;-2.5844;-8.7497;-3.5963;7.3465;-0.2719;-0.8809;2.2363;0.2752;-0.7764;0.0;-0.36;2.88;4.14;274.61;42.83;136.7;2.0;982.12;61.406;;;;NaN;;;;;0 / 0;209010;2022-10-30 20:22:57:390
-4.5993;-11.6481;7.2475;-0.9569;-9.3744;-2.7157;-6.5779;-13.7829;0.0533;-4.5602;-7.3429;-0.5162;0.0;30.96;18.78;-1.26;193.12;78.12;76.95;2.0;981.76;60.063;;;;NaN;;;;;0 / 0;209510;2022-10-30 20:22:57:890
22.9993;-19.5852;9.6082;-4.1695;-7.1454;-5.2657;-6.5999;3.5182;-2.5181;3.3927;1.4181;-1.4459;0.0;23.46;10.8;12.48;137.72;50.86;141.28;2.0;982.3;66.518;;;;NaN;;;;;0 / 0;210010;2022-10-30 20:22:58:390
-5.3154;-20.0209;0.5171;-1.7175;-8.5874;-4.4132;4.1188;-2.7494;7.2934;-4.256;-1.478;-0.0373;0.0;35.58;8.82;-7.98;126.62;76.8;127.5;2.0;981.88;64.162;;;;NaN;;;;;0 / 0;210511;2022-10-30 20:22:58:891
0.5578;-12.601;0.6752;-3.237;-8.449;-3.7823;8.787;-5.8423;0.4663;0.8997;-3.467;0.3738;0.0;14.94;12.54;7.32;110.85;44.56;132.03;2.0;982.41;67.736;;;;NaN;;;;;0 / 0;211011;2022-10-30 20:22:59:391
1.5802;-14.5499;9.5268;-1.7122;-9.3871;-2.263;-4.7763;-11.3689;0.6373;-2.9823;-0.5067;-1.6811;0.0;29.16;13.14;-14.46;164.67;74.13;77.32;2.0;981.97;63.953;;;;NaN;;;;;0 / 0;211511;2022-10-30 20:22:59:891
24.4215;-33.1534;10.8484;-4.655;-7.3409;-4.5401;-3.2533;8.2579;-1.6349;2.9663;4.7791;0.0678;0.0;19.74;15.54;7.44;123.13;52.97;133.85;2.0;982.42;64.956;;;;NaN;;;;;0 / 0;212010;2022-10-30 20:23:00:390
-1.9513;-15.1583;-4.853;-2.3827;-9.4341;-1.2206;1.5184;-4.5842;7.3477;-4.0672;-1.7675;-0.0379;0.0;32.7;10.8;-20.88;158.45;73.25;76.53;2.0;982.12;67.75;;;;NaN;;;;;0 / 0;212510;2022-10-30 20:23:00:890
-8.0161;-5.392;-11.538;-4.5791;-7.0609;-5.0345;-10.8569;-15.4021;-1.9545;1.5289;0.2159;-0.5229;0.0;15.18;16.62;4.44;74.06;46.06;137.71;2.0;982.82;64.517;;;;NaN;;;;;0 / 0;213011;2022-10-30 20:23:01:391
-0.3831;-13.4916;11.5212;-1.1148;-9.5496;-1.9319;-2.1054;-8.5464;-3.18;-3.4307;0.0327;-1.4056;0.0;34.44;18.54;-3.78;198.49;76.58;67.62;2.0;981.86;67.888;;;;NaN;;;;;0 / 0;213511;2022-10-30 20:23:01:891
2.0925;-36.3835;0.7925;-3.9288;-7.3462;-5.1738;-9.3234;7.181;4.8314;-1.6238;-5.4132;2.5045;0.0;18.42;13.74;7.2;117.44;53.12;141.12;2.0;982.7;62.288;;;;NaN;;;;;0 / 0;214011;2022-10-30 20:23:02:391
-2.1883;-15.2469;-1.6903;-1.806;-9.6173;-0.6451;5.6415;-4.2383;1.5812;-0.9035;0.6619;-0.2657;0.0;43.62;4.02;-9.18;183.26;76.63;75.34;2.0;981.83;67.916;;;;NaN;;;;;0 / 0;214510;2022-10-30 20:23:02:890
-6.3689;-14.9045;-13.4988;-4.0323;-7.2649;-5.2089;-5.7388;0.8625;-3.4321;2.7012;2.9135;-1.4368;0.0;16.38;13.38;2.4;93.21;52.12;144.34;2.0;982.52;62.827;;;;NaN;;;;;0 / 0;215010;2022-10-30 20:23:03:390
6.5293;-12.7446;-2.3942;-2.0058;-9.5881;0.4646;7.5798;-6.8296;-3.8931;-4.2627;-1.2031;-1.4093;0.0;31.38;13.92;-14.34;149.13;79.97;94.06;2.0;981.81;62.81;;;;NaN;;;;;0 / 0;215510;2022-10-30 20:23:03:890
-6.9195;-9.443;-11.1357;-3.6077;-7.9785;-4.4156;-1.3869;-23.5732;-9.3514;-1.6995;-2.8506;1.1038;0.0;12.66;12.78;-1.14;66.45;45.11;149.43;2.0;982.43;64.205;;;;NaN;;;;;0 / 0;216011;2022-10-30 20:23:04:391
-1.2713;-15.1152;-5.4615;-1.794;-9.6411;-0.022;5.0477;-3.3621;1.7291;-0.0526;1.015;-0.2511;0.0;28.98;15.48;-13.5;173.44;78.55;71.67;2.0;981.91;64.909;;;;NaN;;;;;0 / 0;216512;2022-10-30 20:23:04:892
-6.4479;-26.7202;-13.5706;-3.869;-7.4168;-5.1178;-0.8212;14.4321;-1.8352;-0.694;-1.5837;1.0434;0.0;18.0;12.06;6.0;107.27;50.23;147.2;2.0;982.3;65.55;;;;NaN;;;;;0 / 0;217010;2022-10-30 20:23:05:390
4.4556;-12.4621;-2.6097;-2.013;-9.5677;0.7599;9.9237;-6.4166;-3.5228;0.6108;0.6497;0.9242;0.0;29.16;15.24;-17.16;145.53;80.81;91.42;2.0;981.91;62.88;;;;NaN;;;;;0 / 0;217512;2022-10-30 20:23:05:892
-6.7017;-8.392;-14.8231;-3.9358;-7.9312;-4.2162;-5.5623;-22.8448;-6.4981;-2.2438;-3.4914;3.146;0.0;19.32;14.7;0.54;78.01;44.39;149.49;2.0;982.2;63.004;;;;NaN;;;;;0 / 0;218012;2022-10-30 20:23:06:392
-0.68;-11.1573;-5.6602;-1.9889;-9.5704;0.7886;3.6456;-2.1591;-4.095;-0.099;1.4798;-0.259;0.0;27.48;17.7;-19.92;104.7;78.87;122.66;2.0;981.93;65.227;;;;NaN;;;;;0 / 0;218510;2022-10-30 20:23:06:890
-0.3089;-1.4844;1.9178;-3.9761;-7.669;-4.6419;5.0248;5.3322;1.721;-1.0856;0.7199;0.4368;0.0;16.92;16.44;6.54;86.15;47.99;156.24;2.0;982.02;64.901;;;;NaN;;;;;0 / 0;219010;2022-10-30 20:23:07:390
11.7463;-14.15;2.6193;-2.0958;-9.5249;1.0266;3.7885;-1.6946;-4.3641;0.9266;2.1499;0.3891;0.0;29.82;19.98;-16.38;167.08;80.72;73.47;2.0;981.96;69.004;;;;NaN;;;;;0 / 0;219511;2022-10-30 20:23:07:891
-11.1405;-15.3905;-17.3298;-3.5616;-7.8663;-4.6483;-2.1585;-4.3325;-3.4659;1.0402;0.7963;-0.5076;0.0;15.48;7.5;2.76;100.41;46.13;147.87;2.0;982.64;68.475;;;;NaN;;;;;0 / 0;220011;2022-10-30 20:23:08:391
3.7828;-11.8348;-3.0215;-2.5224;-9.4314;0.9254;11.9175;-4.9628;-5.1918;0.5155;1.8671;0.799;0.0;31.56;15.42;-11.16;175.84;79.88;74.8;2.0;981.97;70.95;;;;NaN;;;;;0 / 0;220511;2022-10-30 20:23:08:891
-10.2116;-20.0042;-19.5373;-3.9808;-7.7728;-4.4617;-2.5892;-0.7365;-3.1761;-1.7899;-0.6973;0.8271;0.0;10.92;9.24;-0.54;77.86;48.02;146.19;2.0;982.83;66.382;;;;NaN;;;;;0 / 0;221010;2022-10-30 20:23:09:390
1.245;-11.6289;-3.1412;-2.093;-9.5628;0.5844;15.848;-6.8835;-2.6314;-3.5278;-1.5605;-1.2394;0.0;28.38;17.76;-13.02;146.27;80.84;95.53;2.0;981.89;70.85;;;;NaN;;;;;0 / 0;221510;2022-10-30 20:23:09:890
-3.9432;-6.5341;-9.3113;-3.7268;-7.7835;-4.6581;-7.8734;-19.2695;-5.9293;-2.7471;-3.3252;2.2828;0.0;1.92;2.88;1.98;68.05;43.35;151.08;2.0;982.64;64.986;;;;NaN;;;;;0 / 0;222011;2022-10-30 20:23:10:391
0.2466;-13.9226;-5.993;-1.829;-9.6277;-0.3631;6.4594;-3.0044;0.3536;0.2088;1.1164;-0.0861;0.0;31.14;14.22;-9.18;164.88;79.07;87.44;2.0;981.9;67.353;;;;NaN;;;;;0 / 0;222513;2022-10-30 20:23:10:893
-7.1638;-23.1214;-13.7167;-4.147;-7.1417;-5.2885;-3.1747;13.4962;-2.0333;-0.5987;-1.784;1.0996;0.0;14.04;2.64;7.44;137.94;49.79;145.86;2.0;982.45;65.272;;;;NaN;;;;;0 / 0;223013;2022-10-30 20:23:11:393
1.9824;-12.4166;-3.3854;-1.8262;-9.632;0.242;12.1527;-6.5653;-3.8453;0.7238;1.5733;0.6732;0.0;28.98;4.44;-9.06;142.01;81.0;109.68;2.0;981.9;64.124;;;;NaN;;;;;0 / 0;223512;2022-10-30 20:23:11:892
-1.743;-4.628;-8.1478;-3.5926;-7.83;-4.6855;-6.6094;-7.3857;-7.1541;-0.793;0.8402;0.4783;0.0;13.86;7.08;-2.82;80.66;41.47;149.39;2.0;982.37;65.467;;;;NaN;;;;;0 / 0;224011;2022-10-30 20:23:12:391
-0.5531;-12.5962;-3.0526;-1.7851;-9.6424;0.084;0.3438;-0.0472;-2.732;0.7647;1.3784;0.8063;0.0;31.02;15.0;-16.14;104.73;77.13;132.17;2.0;981.91;64.932;;;;NaN;;;;;0 / 0;224510;2022-10-30 20:23:12:890
-0.9553;-3.8666;-5.9666;-3.7936;-6.9887;-5.739;4.5981;7.3407;4.4222;2.7836;-0.2526;-1.6035;0.0;16.08;1.02;14.7;143.42;46.02;160.07;2.0;982.24;63.743;;;;NaN;;;;;0 / 0;225011;2022-10-30 20:23:13:391
2.3798;-7.9586;-2.3727;-1.983;-9.577;0.7207;8.6392;-4.8676;-4.2737;-0.3458;1.5317;-0.1057;0.0;28.56;7.26;-15.0;133.63;82.58;107.62;2.0;981.94;66.089;;;;NaN;;;;;0 / 0;225511;2022-10-30 20:23:13:891
-1.0846;1.6113;1.8387;-4.2215;-7.301;-5.0045;-2.2024;-17.6714;-8.6907;-1.424;-0.4933;1.0128;0.0;1.74;8.28;3.9;351.81;38.94;147.09;2.0;982.29;62.579;;;;NaN;;;;;0 / 0;226011;2022-10-30 20:23:14:391
-1.9656;-4.288;-2.6671;-2.0946;-9.573;0.3746;9.7396;-4.1413;-1.9117;0.8099;2.3002;0.0073;0.0;29.1;16.5;-18.36;114.68;80.16;118.68;2.0;981.89;68.511;;;;NaN;;;;;0 / 0;226511;2022-10-30 20:23:14:891
-10.0416;-18.5533;-15.5246;-3.3618;-7.8712;-4.7867;-6.6535;-2.8671;-11.4682;-0.0691;-1.3717;0.0403;0.0;7.86;15.9;-0.66;37.62;43.55;156.63;2.0;982.14;64.051;;;;NaN;;;;;0 / 0;227011;2022-10-30 20:23:15:391
-3.5985;-9.7998;-3.4165;-1.5077;-9.6868;0.2518;1.4215;-1.0563;-3.417;1.3481;2.9661;0.5754;0.0;25.14;24.84;-18.3;87.88;77.94;136.44;2.0;981.96;67.323;;;;NaN;;;;;0 / 0;227511;2022-10-30 20:23:15:891
1.8794;-2.9281;-4.7956;-3.8483;-6.9671;-5.7288;6.0079;7.6615;5.6402;3.1104;-0.0638;-1.4044;0.0;-11.16;-5.88;20.34;229.58;47.74;158.81;2.0;982.14;64.398;;;;NaN;;;;;0 / 0;228011;2022-10-30 20:23:16:391
0.2538;-5.9954;-3.2274;-1.9024;-9.6166;0.2676;13.5433;-5.5728;-2.8773;0.2999;1.7315;-0.328;0.0;28.32;16.68;-11.88;125.81;81.38;116.76;2.0;982.03;68.123;;;;NaN;;;;;0 / 0;228510;2022-10-30 20:23:16:890
-0.2274;-1.0319;2.162;-3.6164;-7.774;-4.7598;-4.6606;-9.7713;-8.0183;-0.4814;-1.5501;0.9365;0.0;4.8;8.88;3.78;42.76;42.28;151.51;2.0;982.03;63.59;;;;NaN;;;;;0 / 0;229010;2022-10-30 20:23:17:390
0.3615;-7.5923;-3.1532;-1.3941;-9.7064;0.1139;-0.4255;-1.8172;-4.2199;0.8521;1.5672;0.9988;0.0;28.8;17.88;-15.3;91.14;78.82;145.23;2.0;982.07;65.552;;;;NaN;;;;;0 / 0;229511;2022-10-30 20:23:17:891
-1.3599;-4.0318;-6.7663;-3.6585;-7.0299;-5.7763;3.1007;7.5303;5.161;2.6914;-0.5189;-1.5418;0.0;0.18;-0.42;18.0;210.47;45.53;157.22;2.0;982.29;64.295;;;;NaN;;;;;0 / 0;230010;2022-10-30 20:23:18:390
1.8914;-10.6713;-4.853;-1.4669;-9.685;-0.4686;3.5019;3.6058;-0.695;1.2333;-0.0993;0.6481;0.0;31.5;21.78;-11.52;95.59;71.64;141.28;2.0;981.91;65.717;;;;NaN;;;;;0 / 0;230510;2022-10-30 20:23:18:890
-0.6393;-0.6057;0.8308;-3.7793;-6.5107;-6.2847;3.1304;6.0941;9.7851;0.6572;-1.5849;-0.3482;0.0;-19.98;-0.78;-8.7;308.93;52.13;157.15;2.0;982.16;66.094;;;;NaN;;;;;0 / 0;231011;2022-10-30 20:23:19:391
0.1149;-5.7177;-1.6496;-1.7124;-9.6368;0.6078;-3.1694;-0.1893;-3.2798;0.6652;1.7388;0.7697;0.0;27.72;17.82;-15.36;115.62;79.25;120.26;2.0;981.89;68.178;;;;NaN;;;;;0 / 0;231511;2022-10-30 20:23:19:891
0.4693;1.6376;3.814;-3.9127;-7.2349;-5.3401;4.8824;5.8391;2.8477;2.8521;0.4988;-1.766;0.0;-2.76;2.52;5.76;258.58;47.16;155.54;2.0;982.06;61.482;;;;NaN;;;;;0 / 0;232010;2022-10-30 20:23:20:390
-3.1412;-8.9043;1.1181;-1.4281;-9.7019;-0.0643;3.4823;4.396;-1.4273;1.5143;0.1921;0.8778;0.0;27.78;17.82;-14.4;93.54;72.81;139.5;2.0;982.09;68.607;;;;NaN;;;;;0 / 0;232511;2022-10-30 20:23:20:891
-0.8667;-0.8332;0.8428;-3.9339;-6.6205;-6.0715;3.5557;5.7059;8.8847;0.9474;-1.2807;-0.6426;0.0;-15.0;-18.84;-1.02;247.24;53.51;155.4;2.0;982.09;62.476;;;;NaN;;;;;0 / 0;233011;2022-10-30 20:23:21:391
-1.8986;-5.8805;-0.8404;-1.4973;-9.6453;-0.9468;1.0232;1.3946;2.6347;2.7226;4.6606;0.0764;0.0;29.64;15.0;-18.06;83.13;66.4;145.83;2.0;982.04;68.849;;;;NaN;;;;;0 / 0;233510;2022-10-30 20:23:21:890
0.5339;-0.7829;3.9959;-2.9625;-6.6609;-6.5594;3.6927;7.3409;9.7628;-1.8944;-2.6967;0.3329;0.0;-28.98;-33.78;-25.68;306.42;63.96;163.24;2.0;982.08;61.192;;;;NaN;;;;;0 / 0;234010;2022-10-30 20:23:22:390
0.8045;-7.5037;0.1389;-1.4851;-9.6906;0.2362;1.8849;-0.2025;-5.159;1.5937;1.5855;0.4038;0.0;25.74;17.28;-15.06;92.08;74.52;138.85;2.0;982.11;67.019;;;;NaN;;;;;0 / 0;234511;2022-10-30 20:23:22:891
0.3879;-4.1228;2.9161;-3.5544;-6.8563;-6.0437;2.5488;6.514;7.4467;2.1599;-0.8586;-0.7575;0.0;-16.98;-12.9;-0.9;258.23;50.19;160.65;2.0;981.98;65.165;;;;NaN;;;;;0 / 0;235011;2022-10-30 20:23:23:391
-2.0949;-7.9347;-0.0096;-1.2186;-9.6708;-1.0775;-0.3401;3.5772;0.6992;1.8472;1.9508;0.4673;0.0;28.32;20.82;-12.18;82.57;66.84;147.9;2.0;982.18;65.775;;;;NaN;;;;;0 / 0;235511;2022-10-30 20:23:23:891
-1.324;-1.5131;3.6464;-3.4721;-6.5088;-6.4614;2.8065;6.2814;10.2969;-1.2071;-2.2611;0.2828;0.0;-25.2;-27.3;10.62;241.87;59.57;158.48;2.0;981.86;64.151;;;;NaN;;;;;0 / 0;236010;2022-10-30 20:23:24:390
-1.5012;-7.4127;-0.9744;-2.4533;-9.3274;-1.775;-1.9089;2.1373;-0.1786;2.6999;1.828;-0.493;0.0;14.22;3.3;-28.08;67.96;55.63;139.32;2.0;982.3;66.779;;;;NaN;;;;;0 / 0;236510;2022-10-30 20:23:24:890
0.9002;-1.154;3.9816;-3.0738;-7.3252;-5.75;4.472;1.0952;9.3174;-2.4765;-3.6918;-0.0739;0.0;2.94;-10.44;-29.22;43.33;70.25;148.99;2.0;981.9;64.866;;;;NaN;;;;;0 / 0;237011;2022-10-30 20:23:25:391
-2.8108;-4.997;0.1891;-1.831;-9.5955;-0.8624;1.0577;4.843;0.8073;2.1447;4.0027;0.2419;0.0;28.08;18.84;-13.2;88.26;67.96;142.54;2.0;982.37;64.332;;;;NaN;;;;;0 / 0;237511;2022-10-30 20:23:25:891
-0.996;-8.708;-2.6887;-3.0122;-6.7947;-6.3976;4.432;8.3773;8.933;-1.0361;-1.5043;0.1808;0.0;-14.76;-9.96;-5.16;291.39;59.09;153.75;2.0;981.83;62.97;;;;NaN;;;;;0 / 0;238011;2022-10-30 20:23:26:391
4.1946;-20.2268;0.498;-1.8089;-9.4487;-1.9027;1.6341;-0.2194;1.7591;2.6725;2.5122;-0.5498;0.0;15.12;2.04;-30.54;63.22;55.97;145.25;2.0;982.59;64.343;;;;NaN;;;;;0 / 0;238511;2022-10-30 20:23:26:891
3.5554;-6.0289;-1.3886;-2.5843;-7.9039;-5.198;6.7645;-3.1815;4.2427;-3.8107;-1.0143;-0.8088;0.0;26.94;3.72;-19.32;89.22;76.82;144.04;2.0;981.83;61.823;;;;NaN;;;;;0 / 0;239010;2022-10-30 20:23:27:390
1.2833;-7.815;-1.4581;-2.4705;-8.8814;-3.3447;7.8458;-1.1745;3.2537;2.7006;2.1518;-1.3586;0.0;-2.64;6.78;1.98;325.59;45.6;139.07;2.0;982.78;69.218;;;;NaN;;;;;0 / 0;239510;2022-10-30 20:23:27:890
0.0359;-13.5204;-0.4764;-1.5782;-8.8199;-3.9861;-1.2589;-8.6201;6.3037;-2.8858;-2.5922;0.7844;0.0;29.58;20.76;0.42;175.98;77.33;93.31;2.0;981.85;61.467;;;;NaN;;;;;0 / 0;240011;2022-10-30 20:23:28:391
5.2436;-15.5126;4.3239;-2.1917;-9.3156;-2.1417;-2.1203;2.8677;1.5072;2.3713;-0.8341;-0.6194;0.0;15.48;6.48;-21.96;72.05;51.11;137.22;2.0;982.79;70.104;;;;NaN;;;;;0 / 0;240510;2022-10-30 20:23:28:890
-2.9928;-17.1096;-5.7033;-3.0653;-8.0975;-4.6048;7.8178;-4.5633;2.335;-4.6799;-2.4096;-1.35;0.0;36.9;5.4;-15.3;113.76;72.59;131.12;2.0;981.86;63.951;;;;NaN;;;;;0 / 0;241010;2022-10-30 20:23:29:390
-18.6778;-15.8287;-5.2963;-3.5378;-8.7673;-2.6054;6.9998;-5.1313;2.8856;2.8496;3.1603;0.3525;0.0;1.8;3.36;6.3;236.57;46.33;133.49;2.0;982.67;64.323;;;;NaN;;;;;0 / 0;241510;2022-10-30 20:23:29:890
-5.8422;-13.4844;-1.2163;-2.9921;-8.9207;-2.7637;-1.6862;-9.86;3.5059;-3.7807;-1.1109;-0.3867;0.0;24.0;11.7;-19.44;135.15;68.54;88.42;2.0;981.8;69.11;;;;NaN;;;;;0 / 0;242010;2022-10-30 20:23:30:390
16.8127;-20.3226;7.8269;-4.605;-7.9373;-3.4589;7.2817;-6.5791;6.7102;3.9186;3.9801;-1.8198;0.0;0.06;12.06;8.82;290.23;53.75;128.2;2.0;982.96;60.41;;;;NaN;;;;;0 / 0;242511;2022-10-30 20:23:30:891
-2.7797;-15.7066;1.0175;-3.016;-9.3294;-0.187;6.6576;-5.4434;9.3475;-1.4112;-0.1768;-1.8558;0.0;20.82;11.58;-29.58;139.95;66.07;67.45;2.0;981.83;62.602;;;;NaN;;;;;0 / 0;243011;2022-10-30 20:23:31:391
7.5684;4.7788;13.8603;-3.1851;-9.1259;-1.6564;5.9767;-0.547;0.0762;2.3603;1.6649;-0.6884;0.0;-16.86;8.58;-3.96;342.03;52.8;123.34;2.0;982.59;65.885;;;;NaN;;;;;0 / 0;243511;2022-10-30 20:23:31:891
5.2843;-17.2101;5.0497;-2.7075;-9.2127;-1.9916;-2.4786;-5.3827;5.7266;-3.3354;-5.6123;0.1527;0.0;10.56;20.28;-23.76;117.46;67.15;69.06;2.0;981.89;60.138;;;;NaN;;;;;0 / 0;244011;2022-10-30 20:23:32:391
-13.0152;-18.0289;-5.9571;-3.6548;-8.6899;-2.7015;15.5423;-9.8275;12.7383;4.8215;4.6227;-1.8344;0.0;-3.9;21.96;6.12;326.1;59.17;129.17;2.0;982.78;64.258;;;;NaN;;;;;0 / 0;244510;2022-10-30 20:23:32:890
-5.1095;-19.1805;-4.2713;-2.4147;-9.4907;0.5164;-0.8007;-6.2111;2.5122;-2.7667;-3.164;-1.2297;0.0;12.78;17.64;-29.88;136.55;65.09;54.5;2.0;981.9;61.611;;;;NaN;;;;;0 / 0;245011;2022-10-30 20:23:33:391
-9.5987;3.1963;-3.7661;-4.368;-8.175;-3.2032;10.8446;5.0841;12.1027;2.2106;2.861;-1.237;0.0;1.86;21.06;8.94;294.44;65.12;121.69;2.0;982.54;65.506;;;;NaN;;;;;0 / 0;245510;2022-10-30 20:23:33:890
-4.5801;-17.2556;8.2818;-3.0121;-9.2132;1.4882;8.0618;-8.3393;0.0464;-3.4148;-1.3381;-0.9352;0.0;14.58;14.16;-33.66;147.13;65.16;49.13;2.0;981.94;62.853;;;;NaN;;;;;0 / 0;246010;2022-10-30 20:23:34:390
-14.3942;-28.0585;-10.7455;-3.4551;-8.8417;-2.461;14.8231;-14.622;16.8409;6.086;5.7736;-1.7202;0.0;-8.94;16.5;4.26;324.14;60.03;129.98;2.0;982.4;67.21;;;;NaN;;;;;0 / 0;246510;2022-10-30 20:23:34:890
-5.5453;-12.3664;-5.1502;-2.4368;-9.4969;-0.1997;-3.5945;-12.152;-4.1314;-4.35;-2.7486;-2.022;0.0;16.44;17.76;-25.92;142.65;64.54;57.02;2.0;982.02;66.238;;;;NaN;;;;;0 / 0;247012;2022-10-30 20:23:35:392
-3.881;-2.8156;-13.154;-3.5417;-8.0672;-4.3066;-15.8088;15.7361;14.8892;2.232;0.3998;0.686;0.0;-2.28;18.72;9.54;296.72;61.06;134.64;2.0;982.36;64.338;;;;NaN;;;;;0 / 0;247511;2022-10-30 20:23:35:891
1.573;-12.7327;0.0599;-2.991;-9.2304;1.4227;2.5265;-2.9109;-2.797;-3.1503;-0.6399;-0.1484;0.0;17.1;13.8;-32.58;146.95;69.45;54.38;2.0;982.06;62.94;;;;NaN;;;;;0 / 0;248011;2022-10-30 20:23:36:391
-13.0535;-6.084;-0.8045;-3.5125;-8.4909;-3.4258;-8.363;13.0399;0.5001;-1.5804;-0.9062;0.7459;0.0;-2.7;18.84;5.64;319.9;59.88;137.94;2.0;982.12;66.7;;;;NaN;;;;;0 / 0;248510;2022-10-30 20:23:36:890
7.5803;-14.7273;-2.2745;-3.2677;-9.0059;2.0941;14.7985;-4.1146;-4.5792;0.353;1.916;-0.1026;0.0;17.28;12.96;-32.76;146.5;74.0;56.63;2.0;981.98;68.217;;;;NaN;;;;;0 / 0;249011;2022-10-30 20:23:37:391
-11.7415;-14.2314;-12.668;-4.5803;-8.033;-3.2652;-7.9944;-27.4454;-0.9677;-2.6915;-4.8304;2.7703;0.0;-3.12;17.94;8.52;295.76;65.91;129.16;2.0;982.18;64.665;;;;NaN;;;;;0 / 0;249511;2022-10-30 20:23:37:891
2.1835;-10.2164;-2.0758;-3.4591;-8.8746;2.3336;6.1645;-6.0849;-8.0752;-0.3745;0.8225;-0.0977;0.0;16.74;12.48;-34.14;149.59;69.38;52.07;2.0;982.01;67.594;;;;NaN;;;;;0 / 0;250010;2022-10-30 20:23:38:390
0.6871;1.2641;0.9218;-3.438;-8.8124;-2.5869;-6.8263;-15.8033;-10.0165;-2.3562;0.0321;0.7825;0.0;-10.44;13.02;-1.44;331.46;58.58;140.03;2.0;981.97;63.514;;;;NaN;;;;;0 / 0;250511;2022-10-30 20:23:38:891
8.2172;-12.8189;-2.5115;-2.796;-9.0396;2.5765;3.3922;-1.0307;-6.9579;0.4721;1.1561;0.8925;0.0;12.6;14.1;-33.24;145.56;77.51;52.51;2.0;982.06;61.333;;;;NaN;;;;;0 / 0;251011;2022-10-30 20:23:39:391
-7.7001;-7.4151;-14.0806;-3.4078;-8.665;-3.0782;2.498;5.325;-2.558;2.6798;0.5525;-1.6408;0.0;-13.32;15.06;-2.04;329.58;56.48;144.23;2.0;982.27;63.11;;;;NaN;;;;;0 / 0;251511;2022-10-30 20:23:39:891
0.51;-9.4239;-5.3561;-2.2457;-9.4292;1.4891;2.8945;2.6078;-4.0126;2.0646;2.0986;0.4832;0.0;12.48;18.78;-28.68;93.97;77.31;100.6;2.0;982.01;64.331;;;;NaN;;;;;0 / 0;252011;2022-10-30 20:23:40:391
0.0455;0.34;2.1261;-3.2637;-8.8818;-2.5753;-5.4036;-7.3347;-9.5851;-0.6299;-2.4193;0.8625;0.0;-9.6;18.54;-4.14;344.63;53.25;140.69;2.0;982.11;61.167;;;;NaN;;;;;0 / 0;252511;2022-10-30 20:23:40:891
0.7925;-6.4024;-1.2522;-2.6655;-9.2582;1.8304;3.7596;-0.259;-5.144;0.7324;2.0265;0.617;0.0;12.0;17.1;-31.32;111.26;78.39;83.89;2.0;982.09;70.1;;;;NaN;;;;;0 / 0;253011;2022-10-30 20:23:41:391
1.5754;-2.2865;3.9456;-3.8862;-8.1447;-3.8381;1.5998;7.7592;4.3744;2.4135;-0.8476;-0.8131;0.0;-12.6;11.7;13.98;275.95;59.38;147.63;2.0;982.01;55.29;;;;NaN;;;;;0 / 0;253510;2022-10-30 20:23:41:890
-0.2418;-6.8429;-0.103;-2.4318;-9.4797;0.6259;1.8644;3.0582;-1.9188;2.0182;2.9392;0.0874;0.0;8.34;20.28;-21.24;69.14;71.71;116.88;2.0;982.1;64.757;;;;NaN;;;;;0 / 0;254010;2022-10-30 20:23:42:390
0.5243;-1.8076;3.5051;-2.4257;-8.6322;-3.9714;3.5055;6.4462;6.4637;-1.4771;-3.1481;-0.3024;0.0;-22.2;4.62;-1.14;325.24;72.43;128.36;2.0;981.97;57.621;;;;NaN;;;;;0 / 0;254510;2022-10-30 20:23:42:890
-2.3559;-6.1127;0.3687;-2.0431;-9.4983;-1.3332;-1.9336;4.4271;0.0715;2.4959;3.7626;0.8357;0.0;-24.66;10.74;-12.84;349.56;59.52;128.57;2.0;982.22;69.205;;;;NaN;;;;;0 / 0;255011;2022-10-30 20:23:43:391
3.6129;-13.5635;-1.7478;-2.725;-8.6622;-3.7028;4.0394;5.7604;6.0108;-3.0025;-2.7981;0.135;0.0;-15.42;-21.0;-13.02;347.97;71.84;138.41;2.0;982.02;62.365;;;;NaN;;;;;0 / 0;255510;2022-10-30 20:23:43:890
-11.5882;-5.2675;-9.8812;-2.5468;-9.4161;-1.01;-0.7236;2.985;0.8759;2.199;2.6991;0.5412;0.0;-24.54;5.58;-13.08;346.58;61.77;130.69;2.0;982.41;64.223;;;;NaN;;;;;0 / 0;256010;2022-10-30 20:23:44:390
6.5484;-13.0224;-1.1372;-2.6105;-9.3651;-1.2843;-4.7472;-6.5856;3.1566;-2.2255;-0.635;-0.1313;0.0;15.66;16.8;-17.1;146.84;66.5;64.83;2.0;982.25;59.145;;;;NaN;;;;;0 / 0;256511;2022-10-30 20:23:44:891
5.4232;-17.4735;6.6825;-3.8441;-8.6443;-2.5823;3.4658;0.7911;-1.9523;1.5796;-0.3228;-0.4783;0.0;-5.88;16.14;20.28;269.15;64.47;129.11;2.0;982.66;66.323;;;;NaN;;;;;0 / 0;257010;2022-10-30 20:23:45:390
0.0766;-14.4972;4.063;-3.2187;-9.247;0.5503;4.1979;-5.0203;4.8896;-2.8308;-1.2666;-1.0959;0.0;16.32;15.6;-18.96;157.5;64.51;54.43;2.0;982.2;59.122;;;;NaN;;;;;0 / 0;257510;2022-10-30 20:23:45:890
21.8692;-24.5056;5.1502;-3.952;-8.5853;-2.6162;-5.4814;-30.0009;-4.538;-2.1051;-1.7321;0.9218;0.0;-4.14;18.9;10.98;285.54;71.23;125.57;2.0;982.94;69.11;;;;NaN;;;;;0 / 0;258010;2022-10-30 20:23:46:390
4.6855;-15.3091;1.6496;-2.1889;-9.5591;-0.0575;-8.729;-10.1147;0.0695;-4.212;-0.1432;0.2456;0.0;5.46;16.5;-23.46;119.07;62.14;51.24;2.0;982.25;59.636;;;;NaN;;;;;0 / 0;258511;2022-10-30 20:23:46:891
-7.554;-1.7861;-7.2643;-3.1729;-8.8562;-2.7695;-0.313;-5.7822;-7.3918;1.907;1.762;-0.0257;0.0;-12.48;22.5;19.5;284.05;69.48;126.89;2.0;982.96;63.681;;;;NaN;;;;;0 / 0;259011;2022-10-30 20:23:47:391
10.3528;-13.0631;-1.8531;-3.0328;-9.0683;2.177;7.0263;-7.2919;3.6341;-2.5706;-0.4389;-1.4099;0.0;3.18;17.82;-29.04;126.78;61.55;40.77;2.0;982.17;63.28;;;;NaN;;;;;0 / 0;259511;2022-10-30 20:23:47:891
3.4093;-36.2135;2.7126;-2.706;-9.07;-2.5657;-9.5023;-4.9556;-1.9138;-1.9884;-3.5085;2.4942;0.0;-15.96;23.04;19.56;277.57;75.15;134.48;2.0;982.55;65.358;;;;NaN;;;;;0 / 0;260011;2022-10-30 20:23:48:391
-1.3599;-14.3416;-1.2019;-3.1411;-8.6598;3.3631;4.5274;-5.3777;-8.7241;-1.1876;0.2184;-0.0788;0.0;-1.2;16.14;-28.26;130.83;65.55;33.59;2.0;982.2;67.829;;;;NaN;;;;;0 / 0;260511;2022-10-30 20:23:48:891
-5.7967;0.5842;-6.6298;-2.2306;-9.3877;-1.751;-3.2715;-6.9246;-9.6864;-2.0605;-0.4927;0.2786;0.0;-18.6;21.48;15.66;287.66;68.5;139.38;2.0;982.57;67.243;;;;NaN;;;;;0 / 0;261011;2022-10-30 20:23:49:391
12.0096;-12.3592;-1.7166;-2.222;-9.2989;2.1826;4.123;-8.1866;7.361;-2.1631;0.1946;-1.7605;0.0;-2.76;19.92;-22.98;108.1;61.71;36.41;2.0;982.24;69.786;;;;NaN;;;;;0 / 0;261510;2022-10-30 20:23:49:890
-8.9187;-18.4216;-9.309;-3.4497;-8.7138;-2.8879;-3.6781;-31.0001;1.8296;-1.1839;-0.4511;1.0;0.0;-10.44;22.74;17.94;271.6;75.73;133.9;2.0;982.91;68.715;;;;NaN;;;;;0 / 0;262011;2022-10-30 20:23:50:391
-1.2043;-8.4997;-3.7206;-3.1269;-8.8003;2.9911;1.3552;-4.9427;-9.7191;-1.3305;0.2282;-0.0641;0.0;2.82;16.14;-28.5;137.65;66.86;37.11;2.0;982.2;70.708;;;;NaN;;;;;0 / 0;262513;2022-10-30 20:23:50:893
-5.3896;3.5195;-6.5341;-2.5134;-9.2076;-2.2523;-4.1692;1.4501;-8.34;-2.0917;-1.1017;0.2639;0.0;-16.86;19.92;13.5;290.68;66.63;139.45;2.0;982.87;64.036;;;;NaN;;;;;0 / 0;263011;2022-10-30 20:23:51:391
6.7448;-15.1846;-2.3487;-2.8858;-8.915;2.8922;14.1843;-4.1241;-4.786;0.5063;1.9435;-0.1863;0.0;1.8;16.92;-27.72;137.7;73.05;38.16;2.0;982.18;60.192;;;;NaN;;;;;0 / 0;263510;2022-10-30 20:23:51:890
-12.5675;-18.7376;-12.6968;-2.4314;-9.3289;-1.797;-5.6374;2.4118;-7.0403;1.1661;-0.8457;-0.2028;0.0;-20.82;14.4;9.48;294.97;60.58;146.42;2.0;982.74;63.674;;;;NaN;;;;;0 / 0;264013;2022-10-30 20:23:52:393
2.0039;-10.6856;-2.9784;-3.1486;-8.9859;2.3473;2.0017;-5.8539;-3.6163;-1.9719;-0.1646;0.3012;0.0;7.5;16.2;-27.48;148.69;67.86;39.39;2.0;982.28;63.192;;;;NaN;;;;;0 / 0;264511;2022-10-30 20:23:52:891
-2.7916;-4.7549;-5.8637;-3.1535;-8.9473;-2.4843;2.8207;13.1683;-2.7258;-1.0862;-1.0021;-0.1301;0.0;-13.38;19.68;14.04;293.1;63.53;135.48;2.0;982.82;64.878;;;;NaN;;;;;0 / 0;265010;2022-10-30 20:23:53:390
3.2729;-10.3696;-4.7788;-3.1795;-8.7096;3.1944;6.4931;-4.0087;-7.2861;-0.2829;0.7431;0.1326;0.0;5.52;14.64;-31.08;143.49;69.33;39.8;2.0;982.29;63.301;;;;NaN;;;;;0 / 0;265510;2022-10-30 20:23:53:890
-4.7525;-2.7653;-5.9906;-2.5978;-9.2358;-2.03;-3.5532;-5.4098;-5.8879;-1.4295;-1.3919;0.0122;0.0;-25.08;13.32;6.42;301.96;64.57;143.27;2.0;982.62;61.171;;;;NaN;;;;;0 / 0;266012;2022-10-30 20:23:54:392
4.4197;-12.8643;-4.604;-2.8529;-8.7333;3.4294;9.1069;-3.4056;-5.5267;0.1563;1.3332;0.0623;0.0;4.38;14.82;-30.66;143.12;72.1;37.71;2.0;982.31;63.553;;;;NaN;;;;;0 / 0;266510;2022-10-30 20:23:54:890
-8.3034;-20.3992;-10.3385;-2.8907;-9.2012;-1.7753;-14.0848;-15.7185;-12.2598;-1.1772;0.3595;0.9505;0.0;-11.4;22.68;4.8;321.79;60.02;138.06;2.0;982.78;66.464;;;;NaN;;;;;0 / 0;267010;2022-10-30 20:23:55:390
7.2691;-12.996;-4.0701;-2.7974;-9.3771;0.6442;3.4439;-7.2417;5.4182;-2.3128;-0.8586;-1.3347;0.0;11.76;19.02;-22.14;153.8;66.85;45.28;2.0;982.33;69.521;;;;NaN;;;;;0 / 0;267510;2022-10-30 20:23:55:890
-8.7152;-17.4184;-12.1533;-3.8972;-8.4192;-3.178;9.8447;2.3951;6.6496;1.995;2.7284;-0.4545;0.0;-2.1;22.26;15.84;275.0;69.52;122.28;2.0;982.9;64.974;;;;NaN;;;;;0 / 0;268011;2022-10-30 20:23:56:391
5.8685;-11.7989;-3.4812;-2.9898;-9.2169;1.5099;8.0658;-5.6732;0.5156;-3.1027;-0.6374;-1.5278;0.0;16.74;17.16;-22.32;164.12;65.98;48.33;2.0;982.34;66.893;;;;NaN;;;;;0 / 0;268511;2022-10-30 20:23:56:891
-6.977;-36.2997;-7.7838;-3.809;-8.5099;-3.0403;-9.1224;-4.7902;-0.5007;-1.7013;-3.1499;2.8741;0.0;-5.7;21.36;10.92;297.45;66.06;129.3;2.0;982.95;64.413;;;;NaN;;;;;0 / 0;269010;2022-10-30 20:23:57:390
-0.0862;-15.6371;1.9609;-3.4445;-8.9594;2.0085;1.5148;-5.272;-8.3463;-1.9567;-0.172;0.2804;0.0;17.7;15.24;-24.6;164.41;68.31;47.5;2.0;982.34;67.808;;;;NaN;;;;;0 / 0;269510;2022-10-30 20:23:57:890
-19.8509;-26.9883;-14.49;-3.5557;-8.7208;-2.7341;-4.7669;7.5141;-6.4839;-3.8216;-2.3619;1.0721;0.0;-1.5;23.82;3.72;338.91;62.18;130.26;2.0;982.82;66.227;;;;NaN;;;;;0 / 0;270010;2022-10-30 20:23:58:390
0.6895;-13.5491;3.3974;-2.1011;-9.5433;-0.825;-7.5598;-15.2879;1.1052;-4.1845;-0.0785;-1.0183;0.0;13.38;22.5;-17.58;137.02;65.2;58.06;2.0;982.34;68.409;;;;NaN;;;;;0 / 0;270510;2022-10-30 20:23:58:890
-17.2101;-14.6504;-4.0773;-3.416;-8.7228;-2.9007;10.077;-12.4904;15.1713;5.0414;4.6997;-1.3427;0.0;-1.74;19.5;17.76;272.39;63.11;127.67;2.0;982.98;65.555;;;;NaN;;;;;0 / 0;271010;2022-10-30 20:23:59:390
2.1476;-15.3929;-1.3886;-2.2514;-9.528;-0.5637;-2.8509;-13.7227;-3.1186;-3.8278;-1.4609;-0.8778;0.0;16.02;23.1;-15.36;161.77;66.6;56.12;2.0;982.35;62.039;;;;NaN;;;;;0 / 0;271511;2022-10-30 20:23:59:891
6.3641;-13.3384;5.4758;-4.2396;-8.1551;-3.4191;2.3003;5.6603;-5.0256;1.2766;0.7932;-0.9933;0.0;4.26;23.64;15.42;266.45;63.76;128.5;2.0;983.26;64.614;;;;NaN;;;;;0 / 0;272011;2022-10-30 20:24:00:391
-2.3918;-16.8654;0.2993;-2.72;-9.4216;0.0747;1.1733;-5.8851;7.1705;-2.0911;-9.0E-4;-1.5925;0.0;20.16;18.3;-19.62;160.86;67.5;58.16;2.0;982.35;62.822;;;;NaN;;;;;0 / 0;272510;2022-10-30 20:24:00:890
-5.6937;9.6561;3.2441;-4.7031;-7.6711;-3.8992;18.506;-12.4024;5.4219;1.2504;0.4841;-1.036;0.0;4.74;21.12;14.7;246.96;66.21;128.57;2.0;982.63;64.981;;;;NaN;;;;;0 / 0;273011;2022-10-30 20:24:01:391
4.1156;-16.7145;5.2532;-2.0217;-9.3308;-2.2402;-7.7733;-6.0262;0.6505;-4.008;-1.2862;0.3341;0.0;20.58;13.2;-16.38;158.67;69.97;69.3;2.0;982.48;59.667;;;;NaN;;;;;0 / 0;273511;2022-10-30 20:24:01:891
-8.969;-34.0943;2.6647;-3.2383;-8.7444;-3.0364;2.9677;-6.8616;8.9672;4.4592;2.6881;-0.8253;0.0;-4.5;18.06;12.96;294.28;56.43;129.24;2.0;982.68;62.125;;;;NaN;;;;;0 / 0;274011;2022-10-30 20:24:02:391
0.3448;-15.7377;2.4995;-2.034;-9.408;-1.8767;-4.5169;-14.3479;0.8137;-3.3788;-0.748;-0.0367;0.0;19.08;22.86;-9.36;181.03;70.32;64.06;2.0;982.39;57.396;;;;NaN;;;;;0 / 0;274514;2022-10-30 20:24:02:894
3.0167;-20.9355;7.2212;-4.1901;-8.2065;-3.3565;12.1727;-12.4417;11.7556;3.6834;5.7455;-1.1057;0.0;8.46;20.7;12.12;256.75;61.24;121.87;2.0;982.79;66.493;;;;NaN;;;;;0 / 0;275011;2022-10-30 20:24:03:391
-8.5596;-24.5726;1.0487;-2.3098;-9.5021;-0.7384;-2.838;-13.4685;-3.0157;-4.3061;-1.8176;-0.7055;0.0;22.14;20.76;-15.12;171.91;67.39;60.74;2.0;982.4;57.493;;;;NaN;;;;;0 / 0;275510;2022-10-30 20:24:03:890
7.463;-12.0551;11.4206;-4.691;-7.9777;-3.2434;7.6622;5.3274;-8.3687;1.5888;3.2904;-1.9193;0.0;10.56;22.26;10.74;234.65;60.48;122.55;2.0;982.91;68.696;;;;NaN;;;;;0 / 0;276010;2022-10-30 20:24:04:390
-5.744;-24.5319;-0.0407;-3.2454;-8.2078;-4.2742;9.4778;-3.0859;-0.6701;-2.2187;-0.8696;-0.796;0.0;-0.36;13.26;-7.44;52.21;74.1;104.55;2.0;982.37;57.771;;;;NaN;;;;;0 / 0;276510;2022-10-30 20:24:04:890
6.7567;-11.3752;11.0376;-2.6499;-9.3605;-1.2368;-4.5905;2.3284;-0.9012;3.2503;2.7596;-0.427;0.0;-7.86;14.64;-11.1;12.32;55.33;126.05;2.0;982.79;66.9;;;;NaN;;;;;0 / 0;277010;2022-10-30 20:24:05:390
-8.1095;-25.1496;-0.9649;-3.1674;-8.5564;-3.5953;10.051;-6.3098;-0.1181;-2.3061;-1.1206;-0.8454;0.0;4.86;17.94;-12.9;92.93;76.0;89.25;2.0;982.36;61.315;;;;NaN;;;;;0 / 0;277511;2022-10-30 20:24:05:891
-3.6057;-6.9962;-0.2251;-2.6083;-9.3981;-1.021;-3.0112;3.1537;1.9739;3.0518;-0.1213;-0.5064;0.0;-5.7;16.02;-15.78;24.39;56.79;126.11;2.0;982.59;71.042;;;;NaN;;;;;0 / 0;278010;2022-10-30 20:24:06:390
4.6304;-4.2521;1.1133;-2.921;-8.6905;-3.4802;6.6608;-1.284;2.6662;-2.9829;-0.5281;-0.65;0.0;19.44;6.06;-25.2;121.9;76.1;92.28;2.0;982.44;62.028;;;;NaN;;;;;0 / 0;278510;2022-10-30 20:24:06:890
0.0024;-6.8166;-2.9377;-2.461;-9.451;-0.8903;-2.5959;3.5777;1.9222;3.1502;-0.1549;-0.5883;0.0;-11.46;8.58;-15.66;16.42;57.16;127.46;2.0;982.61;66.811;;;;NaN;;;;;0 / 0;279011;2022-10-30 20:24:07:391
4.4987;-6.3162;1.7286;-3.5164;-8.0644;-4.3325;4.2251;9.4339;8.2494;0.849;-1.5085;-0.3085;0.0;-12.72;7.14;17.22;263.96;64.52;143.0;2.0;982.44;65.583;;;;NaN;;;;;0 / 0;279511;2022-10-30 20:24:07:891
-5.9236;-5.1622;-0.1149;-2.2521;-9.4732;1.1647;4.0214;3.6023;-1.7704;2.6242;2.2807;0.1466;0.0;18.84;22.92;-18.6;91.67;73.99;119.05;2.0;982.64;66.967;;;;NaN;;;;;0 / 0;280010;2022-10-30 20:24:08:390
2.1763;-12.941;-7.0273;-3.6143;-7.9909;-4.3877;3.4682;10.8639;10.352;-1.0013;-2.8243;0.3427;0.0;-16.74;-29.7;-5.52;293.26;67.92;136.79;2.0;982.47;67.834;;;;NaN;;;;;0 / 0;280511;2022-10-30 20:24:08:891
-1.221;-3.4453;1.2689;-2.3843;-9.504;0.3981;1.3835;3.7026;0.0089;2.9993;3.5226;-0.1436;0.0;13.08;10.98;-24.48;75.34;64.22;123.87;2.0;982.75;67.131;;;;NaN;;;;;0 / 0;281011;2022-10-30 20:24:09:391
-0.6081;3.0071;5.9355;-3.0632;-8.3323;-4.1665;4.2052;8.9261;9.1563;-1.5297;-2.6887;-0.1167;0.0;-13.32;-18.24;-4.2;314.12;71.48;133.4;2.0;982.44;63.822;;;;NaN;;;;;0 / 0;281510;2022-10-30 20:24:09:890
1.391;-8.3656;-0.6081;-2.1762;-9.5578;-0.286;1.7381;0.8163;-0.5831;2.3438;0.8066;-0.6451;0.0;10.56;13.38;-24.72;64.71;61.95;128.99;2.0;982.71;64.435;;;;NaN;;;;;0 / 0;282011;2022-10-30 20:24:10:391
1.3264;-3.4022;3.9983;-3.6045;-8.264;-3.8579;4.0785;9.8681;4.138;1.838;-0.748;-0.7165;0.0;-6.96;12.3;10.92;276.28;60.5;146.37;2.0;982.47;65.964;;;;NaN;;;;;0 / 0;282510;2022-10-30 20:24:10:890
-3.3567;-7.0249;0.4669;-2.0956;-9.4859;1.3401;-0.9307;4.4722;-2.2786;2.5295;2.3955;0.9413;0.0;15.96;19.32;-23.7;83.04;73.11;119.52;2.0;982.71;67.338;;;;NaN;;;;;0 / 0;283010;2022-10-30 20:24:11:390
5.8805;-9.3066;1.7885;-3.6779;-8.1317;-4.0643;2.8255;11.3232;7.9621;0.7409;-1.4218;-0.5137;0.0;-19.5;3.18;7.26;292.48;63.61;138.81;2.0;982.52;62.79;;;;NaN;;;;;0 / 0;283511;2022-10-30 20:24:11:891
1.0846;-4.9252;-2.9425;-2.2668;-9.5021;0.8613;0.6076;5.9635;-3.2124;1.8679;1.1212;0.5895;0.0;20.28;20.58;-21.48;86.49;72.51;124.12;2.0;982.64;68.682;;;;NaN;;;;;0 / 0;284011;2022-10-30 20:24:12:391
-2.3535;3.3878;3.3399;-3.5585;-8.012;-4.3948;1.8251;10.7941;9.6049;-0.1748;-1.9948;-0.0079;0.0;-26.76;1.26;3.36;300.48;66.84;141.79;2.0;982.59;59.183;;;;NaN;;;;;0 / 0;284510;2022-10-30 20:24:12:890
2.4469;-6.91;-0.8499;-1.7543;-9.6479;-0.1002;4.4765;2.1634;1.5463;2.7274;3.4053;-0.4325;0.0;13.26;15.78;-25.14;61.61;67.45;136.07;2.0;982.66;66.803;;;;NaN;;;;;0 / 0;285010;2022-10-30 20:24:13:390
0.8739;3.0502;5.5716;-3.3399;-8.5198;-3.5252;1.8555;4.1313;-1.8333;2.6211;-0.3986;-0.54;0.0;-5.7;12.54;4.56;310.64;53.22;151.31;2.0;982.54;62.188;;;;NaN;;;;;0 / 0;285510;2022-10-30 20:24:13:890
-0.2322;-7.5468;0.7087;-2.2839;-9.4551;1.2468;4.2232;-0.1794;-8.1232;1.4746;3.5513;0.2663;0.0;21.42;18.42;-18.24;111.38;77.59;109.91;2.0;982.68;69.043;;;;NaN;;;;;0 / 0;286011;2022-10-30 20:24:14:391
1.3982;-3.0742;2.5953;-4.0721;-7.7693;-4.3847;6.0545;10.2497;6.2713;2.488;-0.8335;-1.2627;0.0;-10.92;13.8;9.18;294.97;54.4;148.65;2.0;982.61;60.34;;;;NaN;;;;;0 / 0;286511;2022-10-30 20:24:14:891
2.9497;-9.8955;-4.1108;-2.2354;-9.4825;1.1201;1.4932;4.1623;-3.1145;1.2076;0.9093;0.9322;0.0;21.12;18.48;-19.5;103.0;73.11;113.48;2.0;982.72;68.027;;;;NaN;;;;;0 / 0;287010;2022-10-30 20:24:15:390
0.4645;3.7038;3.055;-3.7746;-7.7997;-4.592;2.3333;12.0949;8.9686;0.6786;-1.7205;-0.204;0.0;-24.24;-0.12;14.4;274.38;61.0;144.74;2.0;982.63;63.151;;;;NaN;;;;;0 / 0;287510;2022-10-30 20:24:15:890
-2.5857;-4.7118;-1.3695;-2.308;-9.4866;0.9203;0.4525;3.9869;-1.9068;2.3866;2.2245;0.1613;0.0;16.38;18.48;-20.04;80.5;70.97;124.89;2.0;982.71;68.676;;;;NaN;;;;;0 / 0;288011;2022-10-30 20:24:16:391
-0.4741;2.2146;3.1005;-3.0638;-8.9097;-2.7203;-5.7831;-7.0099;-18.5361;-1.1668;-1.9496;1.2388;0.0;-0.24;17.52;-2.58;8.13;55.2;144.25;2.0;982.61;64.033;;;;NaN;;;;;0 / 0;288510;2022-10-30 20:24:16:890
-3.4429;-7.2906;-0.7973;-3.0538;-9.1748;1.6334;12.5759;-3.2706;-6.5418;0.5369;1.6527;-0.0189;0.0;27.12;16.26;-16.74;154.16;78.18;80.59;2.0;982.79;67.491;;;;NaN;;;;;0 / 0;289010;2022-10-30 20:24:17:390
-0.3926;1.5419;4.0869;-3.0018;-8.9539;-2.6432;-6.4293;-2.2225;-13.1999;-0.1381;-1.8677;0.5363;0.0;2.46;23.16;-0.6;9.68;54.85;146.02;2.0;982.68;65.597;;;;NaN;;;;;0 / 0;289511;2022-10-30 20:24:17:891
2.1524;-9.6226;-6.2827;-2.7961;-9.2432;1.7071;0.275;-0.037;-5.4014;0.6383;1.1536;0.9682;0.0;21.48;17.94;-19.38;139.03;77.97;83.17;2.0;982.77;67.143;;;;NaN;;;;;0 / 0;290011;2022-10-30 20:24:18:391
-7.566;-9.309;-14.8039;-3.0282;-8.7542;-3.2193;0.6747;4.4781;0.1978;2.8777;-1.2605;-0.8033;0.0;-6.84;13.2;12.3;278.44;54.94;150.22;2.0;982.71;65.883;;;;NaN;;;;;0 / 0;290511;2022-10-30 20:24:18:891
-5.0616;-8.6793;0.6369;-2.4202;-9.3695;1.5892;1.8719;0.8338;-1.855;1.025;1.5299;0.8436;0.0;18.48;19.92;-18.84;139.19;78.11;77.69;2.0;982.75;64.41;;;;NaN;;;;;0 / 0;291010;2022-10-30 20:24:19:390
1.8627;-1.5179;-3.2513;-3.6172;-8.4061;-3.5246;-2.6128;7.5729;-6.1961;-1.7594;-0.1927;0.3091;0.0;4.26;20.94;6.0;350.46;56.81;138.93;2.0;982.69;66.074;;;;NaN;;;;;0 / 0;291510;2022-10-30 20:24:19:890
2.3463;-9.7782;-6.4359;-3.1305;-9.1399;1.683;11.1394;-6.763;-4.1131;1.543;1.544;0.65;0.0;25.44;16.62;-17.4;104.49;76.25;115.52;2.0;982.8;61.77;;;;NaN;;;;;0 / 0;292010;2022-10-30 20:24:20:390
1.0798;1.9968;0.656;-3.8768;-8.4881;-3.0154;-6.2174;-26.5092;-9.8609;3.1349;0.1958;-1.0476;0.0;0.96;16.38;4.5;339.67;50.89;139.93;2.0;982.79;66.292;;;;NaN;;;;;0 / 0;292510;2022-10-30 20:24:20:890
9.6609;-14.7489;-2.9209;-3.1727;-9.1368;1.6193;6.9843;-2.0587;-3.1588;-1.4857;-0.3797;0.0501;0.0;23.7;16.92;-20.16;150.02;75.66;75.51;2.0;982.73;65.611;;;;NaN;;;;;0 / 0;293011;2022-10-30 20:24:21:391
-14.2195;-27.7521;-13.8579;-3.4014;-8.7672;-2.7815;-4.7727;-1.2864;-16.3655;-1.928;-0.7034;0.5223;0.0;-7.2;13.08;5.1;313.0;52.25;143.92;2.0;982.69;62.416;;;;NaN;;;;;0 / 0;293511;2022-10-30 20:24:21:891
-0.3711;-9.8141;-4.0797;-2.9415;-9.2454;1.4285;5.611;0.7265;-2.3096;0.2204;1.2654;0.1093;0.0;21.6;18.96;-19.26;134.74;76.89;87.57;2.0;982.93;65.891;;;;NaN;;;;;0 / 0;294011;2022-10-30 20:24:22:391
-4.6711;-5.8733;-9.5268;-4.0908;-8.0645;-3.7946;1.2704;13.5548;-2.3349;-1.8553;-0.5953;1.1246;0.0;5.76;22.26;9.66;294.13;59.76;134.18;2.0;982.96;63.603;;;;NaN;;;;;0 / 0;294511;2022-10-30 20:24:22:891
3.4716;-11.2219;-6.4407;-3.1248;-9.2153;1.218;6.6083;-6.0986;-5.5779;0.6566;0.8586;0.4771;0.0;25.26;16.98;-18.3;163.6;73.44;67.44;2.0;982.91;69.766;;;;NaN;;;;;0 / 0;295010;2022-10-30 20:24:23:390
0.7278;-0.1652;-0.4597;-3.7539;-8.4763;-3.1986;-2.6653;-16.2519;-11.761;1.6835;-0.4145;-0.6231;0.0;3.12;22.68;5.58;350.16;51.76;139.8;2.0;983.06;61.834;;;;NaN;;;;;0 / 0;295511;2022-10-30 20:24:23:891
10.8628;-15.0218;-0.7111;-2.9404;-9.269;1.2687;13.7912;-4.1795;-4.3022;-0.9426;0.9759;0.1509;0.0;21.78;19.5;-17.1;146.94;77.0;79.59;2.0;982.88;66.326;;;;NaN;;;;;0 / 0;296010;2022-10-30 20:24:24:390
-12.3376;-20.3872;-10.7383;-3.5628;-8.5941;-3.1014;-6.632;-1.1937;-14.1183;-2.0373;-0.4804;0.1814;0.0;0.78;18.78;3.18;354.51;50.58;144.37;2.0;983.01;65.615;;;;NaN;;;;;0 / 0;296511;2022-10-30 20:24:24:891
-3.2848;-8.2818;-2.3272;-2.6303;-9.3742;1.1731;0.4779;1.631;-3.1938;0.5149;1.9978;-0.3891;0.0;19.86;20.4;-17.04;128.58;76.54;92.17;2.0;982.85;68.482;;;;NaN;;;;;0 / 0;297011;2022-10-30 20:24:25:391
0.4381;-3.0263;-3.4141;-4.0385;-8.2766;-3.3703;-3.9632;11.808;-0.8914;-0.7411;-2.0601;0.9719;0.0;8.52;21.72;6.06;29.17;54.93;135.53;2.0;982.97;64.072;;;;NaN;;;;;0 / 0;297511;2022-10-30 20:24:25:891
-2.636;-6.6155;-7.1805;-3.2366;-9.1359;1.493;5.9085;-2.6821;-8.4198;0.7104;2.4279;-0.0226;0.0;24.36;16.62;-18.12;170.5;73.33;60.7;2.0;982.9;68.294;;;;NaN;;;;;0 / 0;298011;2022-10-30 20:24:26:391
0.5291;2.0207;0.7518;-3.8987;-8.4802;-3.0094;-2.9251;-9.3548;-11.0162;1.8398;-0.8476;-0.5394;0.0;6.72;19.14;2.64;31.4;54.57;138.99;2.0;982.93;66.489;;;;NaN;;;;;0 / 0;298510;2022-10-30 20:24:26:890
4.8507;-14.1428;-3.4453;-3.2211;-9.1208;1.614;13.2675;-3.1785;-4.171;-2.0984;0.0015;0.4808;0.0;24.72;15.66;-16.38;170.46;74.77;65.24;2.0;982.9;63.272;;;;NaN;;;;;0 / 0;299010;2022-10-30 20:24:27:390
-14.7441;-23.2459;-10.8245;-3.6932;-8.6537;-2.7648;-9.0083;-5.7597;-15.4006;-1.9866;0.6167;0.4661;0.0;6.78;20.76;3.54;21.28;51.09;140.45;2.0;983.0;64.815;;;;NaN;;;;;0 / 0;299511;2022-10-30 20:24:27:891
2.0159;-8.9618;-2.1021;-3.065;-9.1785;1.5909;3.9796;1.6796;-5.3187;0.0861;1.4236;0.1423;0.0;22.5;16.8;-17.82;145.62;77.36;81.53;2.0;982.87;61.62;;;;NaN;;;;;0 / 0;300010;2022-10-30 20:24:28:390
-2.466;-4.0941;-4.549;-3.7896;-8.2233;-3.7666;-1.4229;11.7954;-8.7266;-0.8431;-1.467;0.8564;0.0;12.36;23.58;3.18;56.85;56.87;138.83;2.0;982.99;63.603;;;;NaN;;;;;0 / 0;300510;2022-10-30 20:24:28:890
0.8188;-8.4183;-5.9762;-3.0708;-9.1535;1.7184;4.73;-4.8481;-7.5726;0.5717;0.051;0.6121;0.0;25.2;14.4;-18.9;175.29;73.38;56.68;2.0;982.86;66.266;;;;NaN;;;;;0 / 0;301011;2022-10-30 20:24:29:391
