sep=;
ACCELEROMETER X (m/s²);ACCELEROMETER Y (m/s²);ACCELEROMETER Z (m/s²);GRAVITY X (m/s²);GRAVITY Y (m/s²);GRAVITY Z (m/s²);LINEAR ACCELERATION X (m/s²);LINEAR ACCELERATION Y (m/s²);LINEAR ACCELERATION Z (m/s²);GYROSCOPE X (rad/s);GYROSCOPE Y (rad/s);GYROSCOPE Z (rad/s);LIGHT (lux);MAGNETIC FIELD X (μT);MAGNETIC FIELD Y (μT);MAGNETIC FIELD Z (μT);ORIENTATION Z (azimuth °);ORIENTATION X (pitch °);ORIENTATION Y (roll °);PROXIMITY (i);ATMOSPHERIC PRESSURE (hPa);SOUND LEVEL (dB);LOCATION Latitude : ;LOCATION Longitude : ;LOCATION Altitude ( m);LOCATION Altitude-google ( m);LOCATION Altitude-atmospheric pressure ( m);LOCATION Speed ( Kmh);LOCATION Accuracy ( m);LOCATION ORIENTATION (°);Satellites in range;Time since start in ms ;YYYY-MO-DD HH-MI-SS_SSS
-0.1245;4.8866;7.7431;-1.0163;5.4448;8.0927;1.1983;0.0718;1.1468;-0.033;-1.0356;-1.308;4758.0;-7.92;6.18;-46.5;21.38;-34.04;4.83;5.0;982.56;62.868;;;;NaN;;;;;0 / 0;10;2022-10-31 17:17:21:527
-1.403;5.4088;6.716;-1.8843;4.3345;8.5926;-0.3279;0.0469;1.1234;0.3629;0.2888;0.0072;4694.0;-14.4;4.92;-44.88;45.3;-27.07;12.39;5.0;982.56;57.935;;;;NaN;;;;;0 / 0;510;2022-10-31 17:17:22:027
0.3089;2.1883;6.2779;-0.7701;4.0107;8.9158;-0.099;-1.6045;-0.3658;0.1393;-0.2188;0.5405;4998.0;-11.04;9.72;-44.82;32.06;-23.74;7.31;5.0;982.52;66.262;;;;NaN;;;;;0 / 0;1009;2022-10-31 17:17:22:526
-0.5674;3.8188;7.9634;-0.1219;4.7105;8.6004;2.3317;-0.6619;-1.8126;-0.1466;0.8642;-0.3703;5026.0;-6.24;9.0;-45.78;10.48;-30.39;-0.32;5.0;982.48;53.57;;;;NaN;;;;;0 / 0;1510;2022-10-31 17:17:23:027
-0.3855;2.2146;11.8348;0.0019;4.9739;8.4517;-0.2221;-3.2452;-2.2384;-0.2932;0.6584;0.7524;5315.0;-3.66;7.68;-47.04;8.33;-31.35;0.71;5.0;982.48;51.774;;;;NaN;;;;;0 / 0;2010;2022-10-31 17:17:23:527
0.1365;3.1508;8.9331;1.405;5.1967;8.197;3.1584;-2.915;0.1615;-0.0116;0.2955;-0.6923;5298.0;-6.6;8.58;-46.08;2.29;-29.59;-7.13;5.0;982.57;61.578;;;;NaN;;;;;0 / 0;2509;2022-10-31 17:17:24:026
-1.063;3.2034;10.9993;0.1386;4.8203;8.5391;-1.1322;-3.446;0.7076;-0.0226;0.1691;0.3981;5173.0;-0.24;8.82;-47.16;0.41;-33.28;0.29;5.0;982.62;59.724;;;;NaN;;;;;0 / 0;3010;2022-10-31 17:17:24:527
2.976;1.8938;11.1477;0.7384;5.2996;8.2182;2.6589;-1.7825;0.1714;-0.2071;-0.4284;-0.1107;5298.0;-1.86;6.72;-47.64;1.96;-32.8;-1.09;5.0;982.58;50.926;;;;NaN;;;;;0 / 0;3510;2022-10-31 17:17:25:027
0.3735;5.4088;13.1014;0.4843;5.1109;8.3555;-0.9248;-3.5691;7.4445;0.5901;-0.0429;0.6559;5317.0;-3.0;7.56;-48.12;4.54;-32.22;-0.51;5.0;982.68;56.262;;;;NaN;;;;;0 / 0;4010;2022-10-31 17:17:25:527
1.4341;3.3112;10.7838;0.7883;4.9484;8.4299;-0.2161;0.0366;3.2278;0.0024;-0.5951;-0.137;5355.0;-0.72;7.98;-46.98;355.89;-28.66;-3.81;5.0;982.63;61.443;;;;NaN;;;;;0 / 0;4510;2022-10-31 17:17:26:027
0.4262;3.9193;8.641;-0.5335;5.2197;8.2849;2.4249;0.3662;-0.549;-0.036;0.2637;-0.5811;5368.0;2.22;6.3;-47.16;357.7;-31.96;0.97;5.0;982.53;54.34;;;;NaN;;;;;0 / 0;5010;2022-10-31 17:17:26:527
-0.3543;4.7214;8.8253;-0.2551;5.5854;8.0566;0.8512;-0.665;-0.1315;0.1038;-0.0228;-0.0808;5377.0;2.76;3.78;-48.72;357.57;-33.24;2.01;5.0;982.58;53.482;;;;NaN;;;;;0 / 0;5510;2022-10-31 17:17:27:027
0.0024;3.4093;7.6091;-0.2535;5.6635;8.0019;0.4426;-1.895;-0.4695;0.0593;0.5179;0.1636;5180.0;2.28;2.7;-48.42;355.95;-33.9;-0.09;5.0;982.53;56.621;;;;NaN;;;;;0 / 0;6010;2022-10-31 17:17:27:527
-2.9616;2.7821;7.8222;0.0784;5.2341;8.2926;0.027;-1.8559;1.0666;0.2272;0.0389;0.5081;5297.0;7.2;3.3;-48.0;346.79;-33.06;0.31;5.0;982.45;58.798;;;;NaN;;;;;0 / 0;6511;2022-10-31 17:17:28:028
0.5387;2.3032;12.5459;0.9686;5.0845;8.3295;1.325;-1.6177;0.4791;0.2767;-0.3972;-0.6971;5257.0;1.44;4.74;-48.3;350.96;-29.65;-4.13;5.0;982.51;53.926;;;;NaN;;;;;0 / 0;7010;2022-10-31 17:17:28:527
-0.1628;3.4644;11.9737;0.3603;4.4383;8.7374;-1.0833;-0.4926;5.4031;-0.0861;-0.1852;0.8349;5339.0;3.66;7.26;-48.3;346.73;-31.57;-3.94;5.0;982.46;58.213;;;;NaN;;;;;0 / 0;7510;2022-10-31 17:17:29:027
1.3815;5.6817;11.3512;0.7034;5.0978;8.3479;0.3668;0.0308;-0.0804;-0.248;-0.3422;-0.0875;5552.0;7.92;2.94;-46.92;335.38;-30.94;-4.98;5.0;982.5;56.183;;;;NaN;;;;;0 / 0;8010;2022-10-31 17:17:29:527
-1.3575;5.009;8.6889;0.4533;5.1448;8.3364;-1.4085;-1.0053;0.4458;-0.1142;0.618;-0.0509;5496.0;3.78;4.08;-48.0;343.78;-33.17;-5.43;5.0;982.49;60.378;;;;NaN;;;;;0 / 0;8510;2022-10-31 17:17:30:027
1.0654;4.3694;8.459;1.0368;4.9447;8.4051;0.2298;-0.6208;0.437;0.0409;0.1752;0.0805;5404.0;7.62;3.36;-46.86;332.29;-31.46;-7.23;5.0;982.55;63.277;;;;NaN;;;;;0 / 0;9010;2022-10-31 17:17:30:527
0.7709;3.644;7.0608;1.0684;5.2318;8.2254;-1.1858;-1.401;-2.2468;-0.5376;-0.0582;-0.5457;5054.0;3.84;2.28;-48.06;337.3;-32.11;-8.59;5.0;982.5;63.588;;;;NaN;;;;;0 / 0;9510;2022-10-31 17:17:31:027
1.154;3.7445;10.0272;0.2724;4.7378;8.5819;-0.4591;-1.2375;0.4996;0.3439;0.4665;-0.3471;5239.0;4.32;5.7;-47.04;345.78;-30.53;-4.05;5.0;982.5;60.606;;;;NaN;;;;;0 / 0;10010;2022-10-31 17:17:31:527
4.2497;1.7526;10.5611;0.3497;5.5078;8.1063;2.181;-1.8925;-1.3328;-0.4502;0.2857;-0.2408;5093.0;4.86;1.2;-47.64;345.62;-32.57;-2.16;5.0;982.54;56.576;;;;NaN;;;;;0 / 0;10512;2022-10-31 17:17:32:029
-0.4166;4.6376;12.3616;0.186;4.8594;8.516;2.7756;-1.3758;6.0482;0.5327;0.1501;0.7262;5072.0;3.72;4.74;-46.86;353.88;-31.51;1.1;5.0;982.51;60.414;;;;NaN;;;;;0 / 0;11010;2022-10-31 17:17:32:527
2.6839;2.0566;14.5762;0.4183;4.9545;8.4527;-0.4518;0.9642;2.9943;-0.2755;-0.2036;0.1385;5149.0;3.84;3.36;-47.16;349.35;-31.84;-1.38;5.0;982.49;56.073;;;;NaN;;;;;0 / 0;11510;2022-10-31 17:17:33:027
0.7877;4.9826;9.2515;-0.4604;5.8533;7.8547;-2.1373;-0.6002;2.6872;0.2211;-0.0215;0.7647;4949.0;6.18;-1.26;-46.02;347.53;-35.84;0.27;5.0;982.49;57.826;;;;NaN;;;;;0 / 0;12010;2022-10-31 17:17:33:527
-0.972;5.2125;7.8916;0.1686;5.7379;7.951;-0.3984;0.9686;0.0316;-0.5919;-0.3441;0.2106;4804.0;6.66;-1.32;-45.54;346.27;-35.81;0.76;5.0;982.49;59.84;;;;NaN;;;;;0 / 0;12510;2022-10-31 17:17:34:027
-1.9968;4.9252;6.4814;-0.168;6.1371;7.6471;0.3883;-0.4817;-0.2942;-0.1448;0.8551;0.1074;4248.0;3.36;-2.4;-43.38;355.75;-39.17;1.45;5.0;982.46;67.068;;;;NaN;;;;;0 / 0;13010;2022-10-31 17:17:34:527
-0.0287;3.3136;5.2244;-0.1882;5.8563;7.8638;0.485;-2.344;-0.7024;0.256;0.3841;-0.2952;3671.0;8.28;-0.24;-43.62;341.39;-33.84;-0.32;5.0;982.53;61.212;;;;NaN;;;;;0 / 0;13510;2022-10-31 17:17:35:027
2.0039;4.8578;7.9251;0.8696;6.0429;7.6745;0.8566;-1.8578;-1.861;0.2376;0.1654;-0.4669;3324.0;4.08;0.36;-45.72;344.62;-35.36;-4.08;5.0;982.47;54.454;;;;NaN;;;;;0 / 0;14010;2022-10-31 17:17:35:527
-0.158;2.897;6.7136;1.3286;5.2341;8.1859;0.0409;0.3327;1.4654;-0.0812;0.1275;-0.4693;2681.0;5.58;4.14;-47.22;336.84;-33.58;-7.71;5.0;982.53;67.187;;;;NaN;;;;;0 / 0;14510;2022-10-31 17:17:36:027
2.0039;4.4963;7.0273;1.4047;5.909;7.6994;0.1923;-2.5212;-2.6976;0.1539;-0.0533;-0.5756;2193.0;5.7;-1.32;-51.72;330.92;-31.84;-9.28;5.0;982.52;65.686;;;;NaN;;;;;0 / 0;15010;2022-10-31 17:17:36:527
4.1659;5.2149;8.4087;1.0271;4.3988;8.7044;1.6185;0.6652;1.2989;-0.5168;0.4849;-0.5829;1619.0;9.42;3.6;-52.5;335.59;-32.2;-5.4;5.0;982.47;66.668;;;;NaN;;;;;0 / 0;15510;2022-10-31 17:17:37:027
2.5259;2.071;13.6401;1.219;4.8031;8.4625;-0.4625;-2.8207;2.7594;1.788;0.2692;0.7891;1372.0;10.74;1.98;-50.04;323.63;-26.06;-6.93;5.0;982.5;61.434;;;;NaN;;;;;0 / 0;16010;2022-10-31 17:17:37:527
-1.6855;4.2449;11.8277;0.7813;6.1207;7.6222;0.1644;0.2243;1.9358;0.4374;-1.002;0.141;1679.0;18.36;-9.0;-46.56;313.73;-36.79;-3.8;5.0;982.46;69.92;;;;NaN;;;;;0 / 0;16510;2022-10-31 17:17:38:027
-1.664;4.2976;10.2403;-0.4933;5.7004;7.9644;0.8141;-0.5454;1.8138;0.5919;0.1654;-0.1046;2087.0;21.72;-5.76;-45.12;317.04;-34.93;2.61;5.0;982.44;63.65;;;;NaN;;;;;0 / 0;17010;2022-10-31 17:17:38:527
-1.3072;2.7031;6.2611;-0.1238;5.113;8.3674;2.3695;0.461;-1.7926;-0.5266;0.2625;-0.8645;2331.0;17.4;-1.8;-46.62;329.46;-33.9;2.74;5.0;982.42;66.394;;;;NaN;;;;;0 / 0;17510;2022-10-31 17:17:39:027
0.5267;2.4253;5.2101;-0.1738;4.6456;8.6347;0.5233;-1.3991;-4.1719;-0.6127;0.2417;-0.4833;2632.0;23.34;-2.52;-43.56;307.2;-27.01;0.2;5.0;982.5;53.838;;;;NaN;;;;;0 / 0;18009;2022-10-31 17:17:39:526
-0.1053;3.1364;7.554;-0.3796;5.4547;8.1408;1.7467;-1.8155;-2.1143;0.6072;-0.1364;-0.9592;3238.0;20.58;-2.7;-45.0;313.16;-27.31;1.89;5.0;982.55;54.781;;;;NaN;;;;;0 / 0;18509;2022-10-31 17:17:40:026
1.3072;7.123;8.7296;-0.8005;5.1813;8.2876;0.8771;0.5315;0.2361;0.0935;-0.0466;-0.6434;3703.0;16.92;0.24;-46.68;335.29;-30.88;6.6;5.0;982.49;53.962;;;;NaN;;;;;0 / 0;19010;2022-10-31 17:17:40:527
0.0622;2.9856;12.5699;-1.9188;4.6482;8.4192;4.3656;-2.7688;5.3358;0.5131;0.0921;-0.2023;3974.0;20.16;3.12;-44.28;330.54;-31.96;6.16;5.0;982.45;54.403;;;;NaN;;;;;0 / 0;19510;2022-10-31 17:17:41:027
-4.0797;3.9768;12.9098;-1.5876;4.4183;8.6098;1.7169;3.0663;2.4781;-1.8827;0.3792;-0.4546;4490.0;12.9;4.86;-46.2;357.78;-32.99;14.38;5.0;982.46;63.806;;;;NaN;;;;;0 / 0;20010;2022-10-31 17:17:41:527
-0.0551;4.7501;13.767;-0.7722;4.8898;8.4655;-0.6931;0.8327;2.6415;-0.5345;0.0444;0.6657;4620.0;9.66;2.88;-47.1;354.76;-33.89;8.81;5.0;982.44;53.031;;;;NaN;;;;;0 / 0;20510;2022-10-31 17:17:42:027
1.6855;6.0528;9.0839;-0.0912;5.395;8.1888;1.4415;0.3011;-0.1272;-0.7214;0.3157;-0.0484;4519.0;4.74;0.18;-48.84;347.4;-34.51;-1.39;5.0;982.49;66.26;;;;NaN;;;;;0 / 0;21011;2022-10-31 17:17:42:528
-1.5562;3.4524;7.1015;-0.9335;5.0976;8.3255;0.2296;-0.4792;-0.7739;-0.1185;0.5105;0.4024;4782.0;9.12;2.34;-48.3;348.3;-31.34;4.06;5.0;982.45;66.236;;;;NaN;;;;;0 / 0;21510;2022-10-31 17:17:43:027
-3.2489;3.1651;4.1348;-1.0576;5.3571;8.1458;-1.8274;-2.3787;-0.8743;-0.0544;0.3847;0.0884;4838.0;8.7;0.3;-49.38;349.35;-36.35;4.04;5.0;982.38;65.91;;;;NaN;;;;;0 / 0;22010;2022-10-31 17:17:43:527
-1.4988;3.0335;7.044;-0.8574;5.2146;8.2609;1.4081;-1.9441;-2.7899;0.0305;0.0689;-0.2744;4843.0;14.4;0.72;-48.36;340.82;-30.0;6.05;5.0;982.43;62.816;;;;NaN;;;;;0 / 0;22509;2022-10-31 17:17:44:026
-0.6728;4.1132;7.1973;-0.1774;5.1636;8.3352;0.2756;-1.5005;-2.7133;-0.171;-0.4772;-1.0606;4755.0;6.84;1.02;-50.34;347.76;-32.6;1.09;5.0;982.43;69.313;;;;NaN;;;;;0 / 0;23011;2022-10-31 17:17:44:528
-0.5291;4.8459;5.7703;-0.8423;5.2956;8.2108;1.4049;-2.0778;1.4908;-0.2621;-0.0857;-0.2256;4752.0;2.76;-0.84;-50.82;7.23;-34.24;7.33;5.0;982.45;61.945;;;;NaN;;;;;0 / 0;23510;2022-10-31 17:17:45:027
0.1101;4.1228;8.1214;-0.2035;4.8128;8.542;1.7286;-1.899;-1.1915;0.3922;0.0854;-0.7656;4828.0;-4.44;1.38;-52.08;14.16;-28.15;2.63;5.0;982.43;59.982;;;;NaN;;;;;0 / 0;24011;2022-10-31 17:17:45:528
2.2434;4.288;8.811;-0.669;4.7173;8.5715;3.384;0.2222;-0.0526;-0.5852;0.3004;-0.5676;4926.0;-5.46;-0.54;-52.26;22.89;-31.19;6.45;5.0;982.39;61.616;;;;NaN;;;;;0 / 0;24510;2022-10-31 17:17:46:027
2.375;3.4237;9.3066;-0.5166;5.3907;8.1758;0.4902;-2.6637;0.4292;0.0238;0.1965;0.786;4671.0;-8.28;-6.18;-51.54;32.72;-28.28;4.64;5.0;982.38;58.203;;;;NaN;;;;;0 / 0;25010;2022-10-31 17:17:46:527
-2.5283;3.5291;11.3991;-0.3542;5.7949;7.9034;1.1898;0.0209;2.6984;0.4808;0.3694;1.0701;4827.0;-0.54;-6.66;-51.78;3.37;-33.81;0.4;5.0;982.39;67.499;;;;NaN;;;;;0 / 0;25510;2022-10-31 17:17:47:027
0.7781;5.8422;10.2044;-0.5719;4.71;8.5825;-0.5989;1.0268;1.6195;-0.4386;-0.7729;0.5979;5118.0;3.18;-0.78;-50.76;5.92;-30.34;6.26;5.0;982.39;54.625;;;;NaN;;;;;0 / 0;26010;2022-10-31 17:17:47:527
-0.7997;5.835;9.7686;-0.9078;4.9102;8.4402;-1.338;0.4555;2.5687;0.0812;-0.1596;-0.0356;5100.0;-2.46;-2.58;-49.8;14.24;-32.55;4.76;5.0;982.39;67.936;;;;NaN;;;;;0 / 0;26510;2022-10-31 17:17:48:027
0.158;5.9667;9.3473;-0.1371;4.4167;8.7547;-2.2667;0.2496;1.9357;-0.1167;-0.9586;0.2998;5011.0;-8.16;0.84;-46.44;27.18;-26.74;3.69;5.0;982.4;60.331;;;;NaN;;;;;0 / 0;27010;2022-10-31 17:17:48:527
0.9529;5.179;9.6202;0.3771;3.9793;8.9551;0.0466;-0.2036;2.3961;0.6219;0.0341;-0.2078;4789.0;-16.02;2.46;-43.5;32.47;-22.82;-5.13;5.0;982.37;58.149;;;;NaN;;;;;0 / 0;27510;2022-10-31 17:17:49:027
-1.4054;4.6759;9.3808;0.5617;4.1379;8.8731;-0.7125;0.1142;4.0056;-0.0409;0.3609;0.5368;5215.0;-11.76;4.5;-45.6;18.51;-26.42;-4.36;5.0;982.33;63.554;;;;NaN;;;;;0 / 0;28010;2022-10-31 17:17:49:527
0.6345;3.6871;4.8411;1.0174;4.1858;8.8099;0.7878;0.447;-2.9223;0.1374;0.367;-0.5628;4968.0;-12.24;5.22;-46.62;12.81;-26.16;-7.4;5.0;982.35;66.381;;;;NaN;;;;;0 / 0;28509;2022-10-31 17:17:50:026
1.494;3.0694;6.7328;-0.0949;5.0896;8.382;1.5123;-2.2285;-5.1091;0.2883;0.4812;-0.0252;4655.0;-4.62;1.68;-48.72;11.64;-25.14;-0.39;5.0;982.28;62.548;;;;NaN;;;;;0 / 0;29010;2022-10-31 17:17:50:527
-0.4788;2.8778;5.3777;0.0471;5.0667;8.3962;1.2362;-0.252;-4.1992;-0.6445;0.4635;-0.4681;4969.0;-3.96;0.24;-50.34;3.72;-30.8;-2.67;5.0;982.27;52.084;;;;NaN;;;;;0 / 0;29511;2022-10-31 17:17:51:028
0.1197;4.1204;7.8126;-0.4419;4.9843;8.434;0.8106;-1.7904;-3.3244;0.2199;-0.1119;-0.0716;5099.0;-0.18;0.72;-49.32;4.65;-29.54;2.38;5.0;982.27;52.567;;;;NaN;;;;;0 / 0;30010;2022-10-31 17:17:51:527
1.573;5.2628;6.7112;-0.0879;5.1389;8.3519;-0.8554;-1.6792;-1.3462;0.3097;0.3114;-0.2054;5092.0;-3.42;-0.66;-48.66;3.38;-30.84;-1.83;5.0;982.29;55.13;;;;NaN;;;;;0 / 0;30509;2022-10-31 17:17:52:026
0.8236;6.2779;9.2132;0.38;5.0741;8.3833;-0.1933;0.7704;0.9951;-0.0281;0.2717;0.0573;5113.0;-2.28;-0.9;-48.6;3.67;-32.7;-0.42;5.0;982.27;54.695;;;;NaN;;;;;0 / 0;31010;2022-10-31 17:17:52:527
3.0933;1.8172;12.1796;0.3224;4.9054;8.4855;2.8882;-3.6341;2.6479;0.394;0.006;0.0133;5174.0;-0.18;1.44;-47.88;358.35;-31.25;-0.89;5.0;982.31;55.942;;;;NaN;;;;;0 / 0;31510;2022-10-31 17:17:53:027
-0.9505;7.2428;9.4981;0.0724;4.9446;8.4685;1.2492;1.283;1.8819;-0.4007;-0.4436;0.017;5216.0;-3.0;0.18;-48.84;6.73;-32.91;0.16;5.0;982.49;58.073;;;;NaN;;;;;0 / 0;32010;2022-10-31 17:17:53:527
2.0925;2.5307;10.1326;0.0852;5.1145;8.3669;-1.2895;1.5393;0.9469;0.2596;-0.2152;0.3425;5031.0;-2.1;-0.96;-47.94;6.7;-28.39;0.69;5.0;982.21;58.751;;;;NaN;;;;;0 / 0;32510;2022-10-31 17:17:54:027
-2.1787;5.6865;10.4701;0.007;4.8832;8.5044;2.1334;0.4299;1.202;-0.5217;-0.1388;0.6015;5110.0;0.96;-0.84;-47.76;2.13;-31.23;2.26;5.0;982.27;64.879;;;;NaN;;;;;0 / 0;33010;2022-10-31 17:17:54:527
-0.0192;7.5349;10.8173;-0.1142;4.7308;8.5893;-0.6903;0.9318;4.3612;0.4056;0.1;-0.2225;5186.0;-0.54;1.98;-47.34;3.41;-28.31;0.53;5.0;982.28;57.179;;;;NaN;;;;;0 / 0;33510;2022-10-31 17:17:55:027
-1.3192;4.2162;9.309;-0.0167;5.0157;8.4269;0.0143;-0.1049;1.0233;0.0116;0.5411;0.9302;5101.0;-1.74;1.5;-47.94;5.97;-29.7;0.79;5.0;982.24;54.885;;;;NaN;;;;;0 / 0;34010;2022-10-31 17:17:55:527
-0.1987;6.1534;8.8445;0.4567;4.6622;8.6154;1.4826;1.5822;2.2306;0.3341;0.1196;-0.2237;4822.0;4.2;2.76;-47.16;343.53;-29.03;-4.23;5.0;982.22;58.959;;;;NaN;;;;;0 / 0;34510;2022-10-31 17:17:56:027
0.5531;4.288;10.4486;0.4034;3.342;9.2108;-0.0323;0.1583;-0.5387;-0.4246;0.2259;-0.6623;4824.0;1.32;9.18;-46.92;347.9;-23.01;-5.73;5.0;982.23;57.435;;;;NaN;;;;;0 / 0;35010;2022-10-31 17:17:56:527
1.2258;3.7469;8.2052;0.36;3.1433;9.2823;0.4277;0.2254;-1.8767;-0.1869;-0.9281;-0.2097;4984.0;4.98;9.54;-45.78;347.66;-19.85;-0.59;5.0;982.26;57.705;;;;NaN;;;;;0 / 0;35509;2022-10-31 17:17:57:026
-0.5722;3.3184;7.0967;0.3265;4.5657;8.6729;-0.1733;-0.0861;-0.1779;0.292;0.1752;-0.5047;5046.0;-0.78;5.76;-47.28;354.96;-26.97;-4.08;5.0;982.25;57.095;;;;NaN;;;;;0 / 0;36010;2022-10-31 17:17:57:527
1.1899;3.3758;5.2795;0.2638;3.6571;9.0954;1.3427;-0.638;-1.7234;-0.347;0.2399;-0.2164;5042.0;3.18;10.08;-47.64;351.6;-25.03;-1.59;5.0;982.29;54.298;;;;NaN;;;;;0 / 0;36510;2022-10-31 17:17:58:027
-0.6871;3.304;3.6416;0.0656;4.2884;8.8191;0.3271;-0.4864;-3.9876;0.0464;-0.093;-0.5029;5142.0;1.38;7.92;-48.96;358.47;-22.43;0.35;5.0;982.36;57.87;;;;NaN;;;;;0 / 0;37010;2022-10-31 17:17:58:527
-0.1006;2.7725;6.9531;0.0201;3.9865;8.9598;1.2153;-1.4678;-3.7473;-0.1307;0.202;0.2558;4878.0;5.46;8.1;-49.8;350.09;-25.72;-0.05;5.0;982.61;61.992;;;;NaN;;;;;0 / 0;37510;2022-10-31 17:17:59:027
-0.2227;3.2322;5.574;0.3937;3.4833;9.1587;-0.5828;-1.8265;-2.639;0.0043;0.3224;-0.4107;5017.0;-1.44;9.12;-50.4;356.1;-22.38;-3.28;5.0;982.2;54.651;;;;NaN;;;;;0 / 0;38010;2022-10-31 17:17:59:527
0.5387;1.4389;6.5915;-0.2203;3.1822;9.2734;-1.3216;-0.6419;1.4769;0.1368;-0.1284;0.2949;4836.0;-1.2;9.3;-50.58;8.42;-20.86;3.29;5.0;982.2;57.165;;;;NaN;;;;;0 / 0;38510;2022-10-31 17:18:00:027
1.2713;1.549;7.5756;0.1677;3.5066;9.1568;-0.8094;-0.679;-1.7679;0.3512;-0.1321;-0.4614;4824.0;-5.88;6.6;-48.9;7.2;-21.16;-3.41;5.0;982.25;60.821;;;;NaN;;;;;0 / 0;39010;2022-10-31 17:18:00:527
-0.1939;2.3727;9.7567;-0.0135;3.5543;9.1399;-0.8197;-1.2822;-0.111;0.0208;0.2381;0.5533;4626.0;-4.44;5.82;-48.24;12.9;-21.71;1.59;5.0;982.27;54.149;;;;NaN;;;;;0 / 0;39511;2022-10-31 17:18:01:028
4.209;1.0199;12.1054;0.4745;3.3654;9.1989;2.7792;-2.3478;-0.5747;-0.0299;0.1678;0.2558;4724.0;-8.4;8.16;-47.52;17.17;-19.17;-0.93;5.0;982.26;58.908;;;;NaN;;;;;0 / 0;40011;2022-10-31 17:18:01:528
-0.996;2.2697;14.2506;-0.0845;3.2916;9.2373;0.9129;-1.2135;5.8156;-0.2059;-0.1504;0.4788;4797.0;-7.38;7.5;-46.92;20.37;-21.3;2.52;5.0;982.31;55.13;;;;NaN;;;;;0 / 0;40509;2022-10-31 17:18:02:026
3.2322;0.8188;11.4613;0.5094;2.9235;9.3469;-0.1167;-0.1103;2.6556;0.3005;-0.1883;0.086;4923.0;-7.86;9.3;-46.44;18.71;-16.56;-0.78;5.0;982.31;50.909;;;;NaN;;;;;0 / 0;41010;2022-10-31 17:18:02:527
-1.9106;2.3559;10.3241;-0.1519;3.4069;9.1946;1.6292;1.221;2.2213;-0.0318;0.5875;-0.6135;4689.0;-11.4;3.78;-46.98;28.15;-19.62;-0.63;5.0;982.16;53.469;;;;NaN;;;;;0 / 0;41509;2022-10-31 17:18:03:026
-0.3591;4.9874;8.2268;0.1951;3.4343;9.1835;0.2215;1.1984;4.2578;-0.2957;0.1208;-0.2317;4657.0;-9.78;5.7;-46.32;24.3;-21.34;0.1;5.0;982.18;52.633;;;;NaN;;;;;0 / 0;42010;2022-10-31 17:18:03:527
-0.3472;4.0797;5.9212;-0.113;4.2684;8.8283;0.3476;0.3237;-0.24;0.1869;0.4427;-0.6898;4696.0;-15.18;-1.62;-45.24;37.09;-24.47;-2.63;5.0;982.21;51.801;;;;NaN;;;;;0 / 0;42510;2022-10-31 17:18:04:027
0.4956;4.1659;7.3601;-0.6103;3.6514;9.081;0.2846;0.9502;0.6948;0.1295;-0.1987;-0.2103;4398.0;-11.94;1.92;-45.84;39.7;-23.48;5.42;5.0;982.22;51.447;;;;NaN;;;;;0 / 0;43010;2022-10-31 17:18:04:527
1.4581;3.9576;7.1135;0.0524;3.9761;8.9643;0.5797;-0.3058;-4.0271;-0.2773;-0.2036;-0.5957;3871.0;-19.14;-1.74;-43.26;48.09;-22.96;-2.64;5.0;982.18;51.993;;;;NaN;;;;;0 / 0;43510;2022-10-31 17:18:05:027
0.6584;4.4221;8.5332;-0.2686;3.4243;9.1855;1.0898;-1.0397;-3.712;-0.1454;0.9717;0.6755;3909.0;-17.28;1.5;-44.7;45.23;-19.44;0.0;5.0;982.17;52.844;;;;NaN;;;;;0 / 0;44010;2022-10-31 17:18:05:527
1.0008;3.8211;6.4503;0.0425;3.9565;8.973;-0.9811;-1.0619;-2.4509;-0.2492;0.3089;-0.2188;3742.0;-19.2;-0.78;-43.44;42.21;-24.09;-4.47;5.0;982.19;51.934;;;;NaN;;;;;0 / 0;44510;2022-10-31 17:18:06:027
0.4094;2.2625;7.1207;-0.6887;3.6186;9.0885;1.0862;-1.222;-3.9886;-0.3958;0.5056;0.1196;3843.0;-16.68;-0.48;-44.58;50.08;-20.63;2.14;5.0;982.18;52.335;;;;NaN;;;;;0 / 0;45009;2022-10-31 17:18:06:526
4.0965;3.7086;5.0353;-0.0245;3.6363;9.1075;-0.3945;-0.646;-3.3396;-0.3494;-0.1309;-0.3044;3785.0;-21.9;-1.68;-42.72;54.39;-21.64;-2.59;5.0;982.22;54.995;;;;NaN;;;;;0 / 0;45509;2022-10-31 17:18:07:026
-0.3256;2.3822;9.5747;-0.3814;3.6584;9.0907;-0.8205;0.6416;-0.2893;-0.314;0.0371;0.2845;3943.0;-20.28;-2.34;-43.74;60.26;-19.76;2.81;5.0;982.23;52.132;;;;NaN;;;;;0 / 0;46010;2022-10-31 17:18:07:527
0.7973;2.6145;11.9593;0.0153;3.7998;9.0405;1.62;-1.8629;4.1422;0.8864;-0.3221;0.2179;3830.0;-21.3;-0.48;-43.5;52.92;-23.52;1.81;5.0;982.22;52.953;;;;NaN;;;;;0 / 0;46513;2022-10-31 17:18:08:030
0.4238;5.5501;10.8436;-0.1547;3.774;9.05;-0.6952;0.0064;5.0186;0.7031;-0.837;0.2369;3778.0;-20.52;-1.74;-43.08;54.16;-24.98;1.69;5.0;982.21;54.21;;;;NaN;;;;;0 / 0;47009;2022-10-31 17:18:08:526
-1.6328;4.8052;10.9777;-0.407;3.25;9.2435;1.2569;1.2368;0.6472;0.584;0.1391;-0.1498;3908.0;-18.06;2.58;-43.74;50.48;-16.75;0.97;5.0;982.2;54.775;;;;NaN;;;;;0 / 0;47510;2022-10-31 17:18:09:027
0.3974;5.6458;7.9586;-0.597;4.4055;8.741;0.0919;-0.6466;1.686;-0.099;0.1147;0.0615;3891.0;-18.06;-4.2;-42.96;53.68;-26.28;3.2;5.0;982.24;51.882;;;;NaN;;;;;0 / 0;48009;2022-10-31 17:18:09:526
0.1053;4.1946;8.5332;-0.151;4.2286;8.8468;0.0361;1.4196;-0.2394;-0.0428;-0.3386;-0.046;3876.0;-17.64;-2.46;-43.62;49.8;-24.48;1.54;5.0;982.17;50.296;;;;NaN;;;;;0 / 0;48509;2022-10-31 17:18:10:026
-1.2522;4.8028;8.0927;0.0106;5.3993;8.1864;-0.614;-0.8839;0.7323;0.6579;0.3932;0.2674;3795.0;-16.86;-6.54;-43.68;39.11;-33.81;-2.03;5.0;982.16;52.605;;;;NaN;;;;;0 / 0;49010;2022-10-31 17:18:10:527
-0.972;4.81;5.5357;-0.5053;4.8534;8.5065;0.3113;-0.9867;-2.7792;-0.4392;0.4476;-0.2121;3794.0;-16.44;-5.16;-43.32;45.34;-28.09;0.03;5.0;982.22;49.643;;;;NaN;;;;;0 / 0;49510;2022-10-31 17:18:11:027
-0.3041;4.0749;9.3401;-0.3645;4.4782;8.7169;0.0317;-0.3386;1.1643;0.515;-0.5884;-0.2616;4305.0;-17.1;-3.18;-44.58;45.41;-30.96;4.11;5.0;982.24;52.212;;;;NaN;;;;;0 / 0;50010;2022-10-31 17:18:11:527
0.4788;3.3543;8.5644;-0.2624;3.8901;8.9983;0.8802;-0.6747;-0.5632;-0.5541;0.1575;0.2863;4191.0;-19.14;-1.44;-44.88;50.84;-24.67;3.08;5.0;982.19;50.73;;;;NaN;;;;;0 / 0;50510;2022-10-31 17:18:12:027
3.4285;0.735;10.5324;-0.1284;3.7688;9.0526;-1.0519;0.208;-0.7253;0.3244;-0.2579;-0.1339;3986.0;-18.48;-0.78;-44.7;46.99;-21.98;-1.03;5.0;982.16;53.149;;;;NaN;;;;;0 / 0;51010;2022-10-31 17:18:12:527
-1.7406;4.0103;13.7119;-0.3391;3.6985;9.0761;0.9687;1.5523;0.2161;-0.2969;0.1593;-0.0179;4356.0;-15.84;-0.06;-44.58;51.39;-22.1;5.65;5.0;982.16;50.637;;;;NaN;;;;;0 / 0;51509;2022-10-31 17:18:13:026
2.1955;1.0487;14.8375;-0.4249;3.9362;8.972;3.602;-2.289;5.384;0.6463;-0.5347;-0.4443;4522.0;-15.0;-0.12;-44.52;44.22;-26.3;4.89;5.0;982.2;52.747;;;;NaN;;;;;0 / 0;52010;2022-10-31 17:18:13:527
0.0599;5.5644;9.0169;-0.3317;4.2229;8.8446;-2.2301;0.2878;1.2496;-0.9639;-0.316;0.932;4360.0;-16.68;-4.62;-43.62;57.97;-24.92;5.52;5.0;982.16;55.668;;;;NaN;;;;;0 / 0;52510;2022-10-31 17:18:14:027
-0.7925;5.2987;11.04;-0.4045;4.071;8.9126;0.0406;0.8757;1.4618;-0.3793;0.1587;-0.0093;3951.0;-15.54;-2.76;-44.94;48.94;-24.12;2.15;5.0;982.17;53.375;;;;NaN;;;;;0 / 0;53009;2022-10-31 17:18:14:526
0.4501;5.2891;8.3513;-0.6972;3.7238;9.0453;1.7315;1.2612;-0.2583;0.1051;0.2821;-0.4705;3641.0;-14.94;-2.4;-43.98;50.92;-20.75;2.14;5.0;982.15;53.992;;;;NaN;;;;;0 / 0;53510;2022-10-31 17:18:15:027
-1.9776;3.8834;7.3792;0.0597;3.2386;9.2563;-0.1507;2.333;4.3048;-0.0959;-0.2133;-0.1022;3462.0;-20.28;0.42;-43.92;51.33;-23.98;2.48;5.0;982.15;53.639;;;;NaN;;;;;0 / 0;54010;2022-10-31 17:18:15:527
0.6656;5.2484;10.3648;-0.1825;3.7114;9.0754;0.5895;1.4341;0.801;0.0476;0.5331;-0.3007;3223.0;-21.06;-3.12;-43.68;54.83;-22.39;-1.19;5.0;982.1;57.58;;;;NaN;;;;;0 / 0;54509;2022-10-31 17:18:16:026
-0.7039;3.5626;8.234;-0.4239;3.7251;9.0617;-0.3566;-0.6103;-1.2659;-0.2694;-0.2023;0.3511;3421.0;-16.98;-1.32;-44.88;51.68;-22.23;3.62;5.0;982.1;59.029;;;;NaN;;;;;0 / 0;55010;2022-10-31 17:18:16:527
-0.4788;3.5243;7.2643;-0.198;4.4461;8.7386;0.5715;-0.4789;-2.93;0.0996;0.2839;-0.5921;3342.0;-21.06;-6.48;-43.5;59.29;-25.06;0.51;5.0;982.12;52.84;;;;NaN;;;;;0 / 0;55510;2022-10-31 17:18:17:027
0.5794;2.8443;5.4615;-0.2658;4.1456;8.8834;0.6848;-1.804;-3.4123;-0.1234;0.4971;0.3694;3376.0;-21.06;-3.6;-43.74;54.01;-26.12;0.74;5.0;982.14;57.145;;;;NaN;;;;;0 / 0;56011;2022-10-31 17:18:17:528
-1.4772;4.3167;5.6075;0.1125;4.8705;8.511;0.4334;-1.3294;-3.622;0.0208;0.6663;-0.2469;3267.0;-22.08;-6.12;-42.9;57.87;-24.85;-1.88;5.0;982.18;53.653;;;;NaN;;;;;0 / 0;56509;2022-10-31 17:18:18:026
-1.5395;6.9507;6.8046;-1.135;7.0688;6.7018;0.6274;-2.5941;-1.5467;0.6512;0.4354;-0.0564;3009.0;-15.66;-19.62;-40.14;59.95;-43.39;6.04;5.0;982.29;52.399;;;;NaN;;;;;0 / 0;57010;2022-10-31 17:18:18:527
0.7494;6.9387;10.0751;-1.007;6.6799;7.1088;-0.1877;-1.7284;-1.3121;-0.1936;-0.6153;-0.0722;2939.0;-16.56;-19.86;-40.62;62.43;-45.1;9.89;5.0;982.16;52.107;;;;NaN;;;;;0 / 0;57510;2022-10-31 17:18:19:027
-1.1277;6.1414;7.8293;0.0398;5.9871;7.7668;-0.3845;0.3626;-0.627;-0.4233;0.5869;-0.0124;3116.0;-23.1;-16.32;-39.66;64.73;-37.16;0.97;5.0;982.03;51.887;;;;NaN;;;;;0 / 0;58010;2022-10-31 17:18:19:527
1.8723;4.719;10.3648;0.6053;6.092;7.6611;1.4753;-1.0255;2.7636;0.5131;-0.2439;0.3419;2862.0;-23.76;-15.06;-37.86;62.14;-37.58;-2.32;5.0;982.11;50.183;;;;NaN;;;;;0 / 0;58510;2022-10-31 17:18:20:027
-1.1277;6.4982;10.0176;-1.1394;6.9174;6.8572;-0.0026;1.8433;1.4797;0.2425;0.4348;0.5148;2850.0;-15.24;-20.76;-40.5;57.06;-43.5;4.02;5.0;982.09;51.135;;;;NaN;;;;;0 / 0;59009;2022-10-31 17:18:20:526
-3.3184;8.0879;8.4566;-1.3526;6.0469;7.601;-2.2411;0.7625;0.3456;-2.1759;-1.3844;0.7946;2963.0;-14.58;-17.22;-42.96;61.86;-43.6;14.92;5.0;982.2;51.13;;;;NaN;;;;;0 / 0;59510;2022-10-31 17:18:21:027
-0.2945;4.9156;8.89;-0.3073;4.1685;8.8713;1.9474;-2.1932;3.3777;0.9181;-0.5053;0.4415;3468.0;-19.68;-5.52;-43.56;57.5;-27.25;3.18;5.0;982.08;51.662;;;;NaN;;;;;0 / 0;60010;2022-10-31 17:18:21:527
-3.1316;7.2116;11.8085;-1.0339;6.233;7.5001;-4.8777;1.4719;5.1488;0.6799;-0.013;0.6968;3337.0;-14.94;-14.34;-43.38;54.6;-39.14;7.85;5.0;981.98;51.186;;;;NaN;;;;;0 / 0;60509;2022-10-31 17:18:22:026
-1.2043;7.5253;7.3194;-1.2853;6.5053;7.2249;0.5838;2.1405;-0.54;-1.102;-0.3465;-0.3367;3236.0;-15.6;-17.88;-41.58;60.33;-42.46;9.45;5.0;982.04;50.545;;;;NaN;;;;;0 / 0;61010;2022-10-31 17:18:22:527
-1.0726;3.984;10.3863;-0.1699;4.0656;8.9226;-0.9961;-0.2995;2.4573;0.4618;-0.2207;0.1471;3569.0;-20.22;-2.88;-44.22;50.47;-27.33;1.3;5.0;982.15;50.051;;;;NaN;;;;;0 / 0;61509;2022-10-31 17:18:23:026
-2.0949;3.4285;7.815;-0.3643;4.3767;8.7682;-0.7538;-0.3808;-2.1192;-0.0183;0.108;-0.2671;3686.0;-20.04;-6.6;-44.16;57.11;-24.21;-2.0;5.0;982.1;51.438;;;;NaN;;;;;0 / 0;62009;2022-10-31 17:18:23:526
1.2234;3.5386;5.8302;0.0301;4.4454;8.7411;1.1431;-1.4838;-3.5574;0.5699;0.2576;0.0866;4308.0;-20.58;-4.86;-43.92;61.04;-22.3;0.8;5.0;982.15;62.38;;;;NaN;;;;;0 / 0;62509;2022-10-31 17:18:24:026
1.6305;3.5267;4.6519;0.2335;4.7926;8.5526;-0.8632;-0.3873;-1.4918;-0.2217;-0.0124;-0.1162;4024.0;-20.28;-6.42;-43.56;45.67;-29.14;-3.65;5.0;982.09;64.953;;;;NaN;;;;;0 / 0;63010;2022-10-31 17:18:24:527
1.0822;4.1372;4.8988;0.4454;4.4301;8.7376;0.6176;-1.1979;-4.1432;-1.014;-0.038;0.3627;3786.0;-18.3;-1.74;-45.06;41.11;-26.22;-2.44;5.0;982.09;62.467;;;;NaN;;;;;0 / 0;63510;2022-10-31 17:18:25:027
-1.0942;2.9305;6.4551;0.3075;3.6218;9.1082;-1.8949;-0.1981;-2.1503;-0.1784;-0.0783;-0.1272;3651.0;-17.88;2.22;-44.4;34.51;-24.54;-4.86;5.0;982.11;62.446;;;;NaN;;;;;0 / 0;64010;2022-10-31 17:18:25:527
-1.1396;2.0949;9.0408;-0.0596;3.1871;9.2741;-0.4241;-1.0371;0.4155;0.5626;0.3108;0.6645;3867.0;-14.76;5.94;-44.76;38.18;-19.5;1.48;5.0;982.14;57.33;;;;NaN;;;;;0 / 0;64510;2022-10-31 17:18:26:027
3.553;1.5826;5.6841;0.8625;3.7693;9.0122;3.0065;-2.6201;-1.3887;0.248;0.6077;-0.272;3839.0;-17.82;4.2;-44.28;40.87;-20.08;-1.95;5.0;982.12;64.075;;;;NaN;;;;;0 / 0;65009;2022-10-31 17:18:26:526
-2.0782;1.8962;12.9338;-0.4713;3.7321;9.0565;-1.1281;-2.0346;3.657;0.0452;-0.4119;0.516;3769.0;-12.54;3.0;-45.96;36.8;-24.12;3.57;5.0;982.1;52.607;;;;NaN;;;;;0 / 0;65510;2022-10-31 17:18:27:027
1.8124;3.5937;11.9378;0.7889;3.777;9.0157;2.9724;-2.6589;0.0682;0.4068;-0.115;-0.4846;4027.0;-15.78;6.54;-45.3;30.61;-20.67;-3.22;5.0;982.12;66.372;;;;NaN;;;;;0 / 0;66010;2022-10-31 17:18:27:527
-1.0511;4.4293;12.5459;-0.8107;4.4251;8.7139;-2.1342;2.1664;1.6485;-0.1393;0.3548;0.7225;3874.0;-10.62;1.2;-48.18;37.04;-28.14;7.41;5.0;982.09;59.376;;;;NaN;;;;;0 / 0;66510;2022-10-31 17:18:28:027
0.9194;3.3255;13.0248;0.0231;4.0517;8.9305;-1.1125;0.9405;5.7367;0.0886;-0.1431;0.0047;3862.0;-13.68;3.42;-46.5;29.51;-24.56;-1.9;5.0;982.09;71.601;;;;NaN;;;;;0 / 0;67009;2022-10-31 17:18:28:526
-0.7398;4.2713;11.2961;-0.8122;4.416;8.7183;0.003;1.0622;0.4996;-0.2346;1.2973;0.1245;3755.0;-14.28;-1.26;-46.74;33.93;-25.74;-0.98;5.0;982.04;64.454;;;;NaN;;;;;0 / 0;67510;2022-10-31 17:18:29:027
0.9313;4.7238;10.1517;-0.0302;4.5477;8.6884;-2.5651;2.0702;-3.3107;-0.4398;0.3908;-0.5102;3663.0;-11.88;-0.36;-47.88;28.12;-29.48;0.7;5.0;982.15;67.071;;;;NaN;;;;;0 / 0;68010;2022-10-31 17:18:29:527
0.0431;3.0023;7.4223;0.2652;4.1659;8.8738;0.0125;-1.3695;-1.5976;0.0977;0.3596;-0.3832;3518.0;-17.82;-1.38;-45.3;39.67;-25.76;-2.81;5.0;982.03;57.201;;;;NaN;;;;;0 / 0;68509;2022-10-31 17:18:30:026
0.9553;3.1675;5.1885;-0.1288;3.9575;8.9717;-0.1705;0.4024;-1.0107;-0.3329;-0.8462;-0.1663;3673.0;-15.6;-1.08;-46.5;41.4;-26.0;1.08;5.0;982.04;64.614;;;;NaN;;;;;0 / 0;69010;2022-10-31 17:18:30:527
-0.3998;2.6719;7.0369;-0.2905;3.8235;9.0259;0.2378;-0.9888;-2.8605;0.0067;0.1324;-0.4394;3415.0;-16.8;-0.96;-45.3;42.43;-23.14;-1.88;5.0;982.03;60.291;;;;NaN;;;;;0 / 0;69510;2022-10-31 17:18:31:027
0.3879;2.648;5.0281;-0.4136;4.1408;8.8799;1.0864;-1.4354;-2.1639;0.1851;0.2124;0.3603;3533.0;-15.12;-2.76;-45.78;45.31;-24.96;2.04;5.0;982.09;50.747;;;;NaN;;;;;0 / 0;70011;2022-10-31 17:18:31:528
-1.0295;2.2577;5.5716;0.569;4.8099;8.5271;0.2594;-1.865;-1.9763;-0.2004;-0.3899;-0.3948;3376.0;-20.94;-6.54;-42.48;56.88;-25.96;-2.53;5.0;982.13;69.214;;;;NaN;;;;;0 / 0;70510;2022-10-31 17:18:32:027
-2.5019;4.6855;7.9634;-0.2015;4.8289;8.533;-1.9102;0.0122;3.2564;0.5864;-0.1492;0.9192;3263.0;-15.3;-6.18;-45.6;50.63;-27.3;4.41;5.0;982.15;70.58;;;;NaN;;;;;0 / 0;71010;2022-10-31 17:18:32:527
2.739;1.4724;13.2761;0.5422;3.999;8.9378;3.1114;-2.3446;5.6552;0.7178;0.1477;0.0768;3415.0;-18.12;0.54;-44.88;40.56;-24.17;-1.62;5.0;982.09;68.036;;;;NaN;;;;;0 / 0;71510;2022-10-31 17:18:33:027
-1.1325;5.428;11.4278;0.1625;4.448;8.7384;-0.7778;-0.555;-0.5068;-0.3036;0.2821;0.3768;3360.0;-17.46;-3.72;-44.76;51.55;-27.47;4.85;5.0;982.09;67.505;;;;NaN;;;;;0 / 0;72010;2022-10-31 17:18:33:527
3.1436;1.9896;16.4919;0.4639;4.0139;8.9355;5.0335;-0.5902;6.4813;0.4264;-0.6959;-0.5053;3415.0;-19.62;-0.84;-44.82;42.53;-25.91;-3.01;5.0;982.04;66.808;;;;NaN;;;;;0 / 0;72509;2022-10-31 17:18:34:026
-2.5019;5.0138;10.9753;-0.3369;4.118;8.8937;-0.7333;-1.1612;0.6953;-0.9536;-0.1431;0.6749;3410.0;-18.24;-5.16;-44.1;52.29;-24.37;-0.44;5.0;982.04;66.56;;;;NaN;;;;;0 / 0;73010;2022-10-31 17:18:34:527
1.6065;4.8411;11.5954;0.3873;3.2457;9.2459;0.3932;1.1573;3.8986;0.2468;-0.4326;-0.1565;3519.0;-17.58;3.12;-45.24;39.4;-25.17;-0.06;5.0;982.07;59.297;;;;NaN;;;;;0 / 0;73510;2022-10-31 17:18:35:027
0.0359;2.3176;4.8988;-0.0064;2.9276;9.3595;0.4709;-0.8757;-3.6394;0.0397;0.6217;-0.3349;3168.0;-19.02;1.62;-44.46;50.51;-17.28;-0.93;5.0;982.04;52.852;;;;NaN;;;;;0 / 0;74010;2022-10-31 17:18:35:527
1.64;2.399;6.6322;0.3471;3.6085;9.112;-0.814;-1.571;-0.8828;0.8314;-0.0661;0.2283;2879.0;-18.06;0.96;-44.64;42.22;-21.94;-2.13;5.0;982.03;68.399;;;;NaN;;;;;0 / 0;74510;2022-10-31 17:18:36:027
-1.2737;1.0271;7.3433;0.1545;4.1929;8.8638;-0.1186;-0.6974;-3.4574;0.0702;0.1452;-0.2366;2979.0;-18.96;-4.44;-44.64;46.63;-25.32;-2.62;5.0;982.03;68.904;;;;NaN;;;;;0 / 0;75010;2022-10-31 17:18:36:527
-0.3256;2.5881;8.7439;0.2902;4.0668;8.9189;-1.8105;-1.4117;0.6797;0.5253;0.3487;0.4384;3181.0;-20.94;-5.1;-43.32;60.22;-25.15;2.95;5.0;982.05;70.164;;;;NaN;;;;;0 / 0;75510;2022-10-31 17:18:37:027
2.047;2.6456;4.1827;0.4345;3.7943;9.0324;2.7091;-1.9987;-3.2382;-0.245;0.9326;-0.3361;3235.0;-22.86;-2.64;-43.26;63.0;-17.96;-2.59;5.0;982.05;60.773;;;;NaN;;;;;0 / 0;76009;2022-10-31 17:18:37:526
-0.747;2.3511;13.0415;0.1188;3.6372;9.1064;-0.4612;-1.7913;4.876;0.2712;-0.5316;0.3315;3222.0;-21.0;-2.04;-43.2;51.5;-24.64;-0.79;5.0;982.02;57.828;;;;NaN;;;;;0 / 0;76510;2022-10-31 17:18:38:027
2.3296;-0.1125;16.7193;0.6903;2.7433;9.3898;-0.3599;1.2885;5.4405;-0.5449;-0.4974;-0.2549;3327.0;-21.66;2.94;-43.68;47.0;-19.81;-3.28;5.0;982.03;50.529;;;;NaN;;;;;0 / 0;77009;2022-10-31 17:18:38:526
0.4262;4.7214;9.4478;-0.1934;3.8963;8.9973;1.0673;1.5484;0.0937;-0.314;0.6309;-0.2921;3332.0;-19.92;-3.42;-44.1;53.62;-22.11;-1.37;5.0;982.01;56.17;;;;NaN;;;;;0 / 0;77510;2022-10-31 17:18:39:027
0.9218;4.5921;9.1725;0.5511;4.0116;8.9316;-1.3747;1.5624;3.631;-0.1277;-0.2812;0.0921;3457.0;-22.26;-3.06;-44.28;50.74;-23.98;-3.62;5.0;982.05;54.155;;;;NaN;;;;;0 / 0;78011;2022-10-31 17:18:39:528
0.0144;5.2436;9.7088;-0.4212;4.2945;8.8063;0.0596;1.4136;0.0454;-0.1527;0.629;-0.0954;3267.0;-19.38;-8.22;-44.1;58.39;-25.49;0.04;5.0;982.04;50.606;;;;NaN;;;;;0 / 0;78510;2022-10-31 17:18:40:027
1.3623;4.0869;10.5492;0.0612;3.3825;9.2046;0.1854;0.8959;0.2552;0.146;-0.5615;-0.06;3816.0;-19.14;-1.26;-45.12;53.18;-21.92;2.31;5.0;981.97;52.092;;;;NaN;;;;;0 / 0;79010;2022-10-31 17:18:40:527
-0.656;3.8116;6.2803;0.0964;4.075;8.9194;-1.5809;-0.9602;-2.5888;0.1613;0.1568;-0.3801;3990.0;-22.14;-7.86;-43.2;65.11;-22.35;-2.56;5.0;982.03;51.805;;;;NaN;;;;;0 / 0;79510;2022-10-31 17:18:41:027
1.7214;3.4333;3.4836;0.0718;4.2293;8.8475;1.0032;-0.8319;-6.0176;-0.6964;0.3658;0.3541;3874.0;-20.1;-6.9;-43.26;60.82;-24.63;0.68;5.0;982.03;51.957;;;;NaN;;;;;0 / 0;80010;2022-10-31 17:18:41:527
-0.1772;3.8762;10.6186;0.4922;3.8832;8.9916;-3.4634;0.8621;3.3676;0.9725;-0.9543;0.0023;3702.0;-22.32;-7.44;-42.3;57.13;-23.87;-5.79;5.0;982.04;65.618;;;;NaN;;;;;0 / 0;80509;2022-10-31 17:18:42:026
-1.2953;2.7677;7.9131;-0.2161;4.3459;8.7884;1.2791;-0.9294;-4.9074;-0.1148;-0.6025;0.4372;3770.0;-18.0;-7.02;-44.22;53.52;-25.83;-0.62;5.0;982.03;69.885;;;;NaN;;;;;0 / 0;81010;2022-10-31 17:18:42:527
-1.2546;3.3662;6.4;0.5764;4.3096;8.7901;-1.3234;-1.2522;-2.0597;-0.0208;0.4678;0.0377;3740.0;-22.62;-7.38;-40.5;59.94;-24.32;-5.69;5.0;982.08;64.22;;;;NaN;;;;;0 / 0;81510;2022-10-31 17:18:43:027
0.0072;1.6927;9.7615;-0.1013;4.0365;8.9368;0.9704;-1.7883;0.9156;-0.2828;-0.0973;0.48;3870.0;-18.72;-4.74;-43.44;58.41;-22.93;0.78;5.0;982.02;54.488;;;;NaN;;;;;0 / 0;82011;2022-10-31 17:18:43:528
3.1771;2.5738;9.9027;0.8167;4.3482;8.7519;2.3053;-2.2724;2.64;0.7868;-1.2347;-0.4223;4132.0;-20.88;-4.44;-42.18;54.04;-24.74;-1.89;5.0;982.03;56.807;;;;NaN;;;;;0 / 0;82510;2022-10-31 17:18:44:027
-0.4525;4.3814;9.6992;0.7168;5.6184;8.0057;-0.4918;0.3339;7.0425;1.6414;0.0237;0.0341;4212.0;-21.0;-9.66;-41.82;65.55;-26.57;0.58;5.0;982.01;60.956;;;;NaN;;;;;0 / 0;83010;2022-10-31 17:18:44:527
1.2857;3.4788;14.1045;0.3938;3.5641;9.1276;-1.61;0.281;4.2276;0.3348;-0.7961;0.0976;4102.0;-18.0;1.74;-44.52;41.03;-21.81;-2.07;5.0;982.04;63.82;;;;NaN;;;;;0 / 0;83510;2022-10-31 17:18:45:027
-0.6009;3.225;9.0815;0.2244;3.9496;8.9734;-1.3664;-2.7333;5.7923;0.471;-0.2463;0.5692;3838.0;-18.72;-1.08;-44.7;48.28;-26.34;2.51;5.0;982.03;71.791;;;;NaN;;;;;0 / 0;84010;2022-10-31 17:18:45:527
5.5548;4.0462;11.672;0.9893;4.3599;8.7283;2.4488;-0.5339;2.6421;0.0257;-1.9482;-0.4479;3786.0;-20.4;-2.22;-44.22;48.48;-25.2;-0.94;5.0;982.01;67.818;;;;NaN;;;;;0 / 0;84510;2022-10-31 17:18:46:027
2.2841;8.6098;13.7239;0.1431;4.4972;8.7135;1.2479;3.9809;-4.0113;-0.7453;1.221;0.6278;3723.0;-19.38;-4.86;-45.3;47.64;-28.48;-0.3;5.0;982.03;63.034;;;;NaN;;;;;0 / 0;85009;2022-10-31 17:18:46:526
0.079;4.7142;11.7415;0.5088;3.4209;9.1765;0.5016;1.5546;-0.2842;-0.3928;-0.3496;0.191;3689.0;-20.1;2.64;-45.96;43.64;-20.89;-1.83;5.0;981.99;54.983;;;;NaN;;;;;0 / 0;85510;2022-10-31 17:18:47:027
3.0023;6.3665;10.2618;0.3118;3.9977;8.9494;1.4336;0.8219;0.0698;-0.6158;1.3841;-0.0374;3569.0;-20.7;-2.76;-44.22;51.21;-23.83;-2.41;5.0;982.02;52.084;;;;NaN;;;;;0 / 0;86010;2022-10-31 17:18:47:527
0.8523;5.5668;6.3641;0.3104;4.1895;8.8613;-0.4229;1.1786;-0.3209;-0.1087;0.0896;-0.1382;3615.0;-19.2;-2.04;-45.06;48.97;-24.75;0.59;5.0;981.99;62.033;;;;NaN;;;;;0 / 0;86509;2022-10-31 17:18:48:026
0.6297;4.9635;6.9052;0.3729;5.1405;8.343;1.461;0.8644;-0.0109;-0.1283;0.8807;-0.3044;3586.0;-20.28;-9.0;-42.96;56.1;-27.06;-2.87;5.0;981.97;69.356;;;;NaN;;;;;0 / 0;87010;2022-10-31 17:18:48:527
1.9225;7.3768;10.5228;0.8275;4.7029;8.5655;1.0209;2.6428;2.1416;-0.2547;0.0701;0.0964;3392.0;-20.22;-4.08;-43.44;41.28;-30.29;-4.41;5.0;981.96;52.064;;;;NaN;;;;;0 / 0;87510;2022-10-31 17:18:49:027
-1.8172;4.8554;11.763;0.1379;3.9867;8.9586;0.5301;0.8926;-0.1573;-1.1215;0.513;-0.7039;3824.0;-17.52;-3.78;-41.82;45.79;-28.13;-1.43;5.0;981.95;52.081;;;;NaN;;;;;0 / 0;88010;2022-10-31 17:18:49:527
0.6704;4.6807;7.135;0.4218;3.3867;9.1936;0.8974;0.7624;-2.3914;-0.3457;-0.0612;-0.2555;3797.0;-16.86;2.16;-40.68;41.03;-21.27;-3.01;5.0;981.98;52.674;;;;NaN;;;;;0 / 0;88510;2022-10-31 17:18:50:027
-0.5602;3.4261;4.9611;0.0289;4.0087;8.9499;-0.4359;-1.6695;-5.1503;0.2431;-0.1211;-0.7393;3485.0;-18.06;0.54;-42.54;40.27;-20.56;-5.21;5.0;982.01;58.688;;;;NaN;;;;;0 / 0;89010;2022-10-31 17:18:50:527
0.2729;0.4094;7.6905;0.0364;4.2191;8.8526;-0.5033;-2.3899;-2.3951;0.4148;-0.589;-0.3062;3600.0;-17.64;-1.02;-44.1;47.48;-23.74;0.36;5.0;982.04;70.09;;;;NaN;;;;;0 / 0;89510;2022-10-31 17:18:51:027
-1.1708;2.3774;6.2683;-0.2859;3.8837;9.0003;-0.3797;-0.0219;-1.6809;-0.1808;-0.7741;-0.688;3338.0;-20.16;-3.42;-44.58;53.69;-23.8;1.0;5.0;981.96;62.959;;;;NaN;;;;;0 / 0;90010;2022-10-31 17:18:51:527
1.549;3.0526;4.774;-0.2941;3.8715;9.0053;1.5151;-0.285;-4.9831;-0.576;0.5508;0.1544;3626.0;-19.56;-3.12;-44.22;58.92;-23.76;4.83;5.0;982.04;63.04;;;;NaN;;;;;0 / 0;90510;2022-10-31 17:18:52:027
0.4693;4.4005;3.1963;-0.1403;4.5456;8.6884;-0.8916;-3.0253;-4.1394;0.1087;-0.9727;-0.385;3501.0;-19.98;-7.44;-43.8;57.97;-26.71;1.59;5.0;982.01;71.855;;;;NaN;;;;;0 / 0;91009;2022-10-31 17:18:52:526
0.012;2.3176;7.0297;0.0148;4.0438;8.9341;-0.8216;-1.3096;-1.4591;0.1393;0.1648;0.5741;3412.0;-22.26;-5.76;-43.2;62.26;-24.02;0.82;5.0;981.95;70.814;;;;NaN;;;;;0 / 0;91510;2022-10-31 17:18:53:027
4.1611;4.2449;3.3208;1.4227;5.5688;7.9457;3.8807;-1.774;-2.0198;-0.168;0.6327;-0.5927;3410.0;-27.9;-12.36;-36.78;72.21;-27.32;-6.3;5.0;981.94;51.629;;;;NaN;;;;;0 / 0;92009;2022-10-31 17:18:53:526
0.1077;3.8978;11.8085;0.6617;4.1816;8.8457;-0.9825;-0.4155;5.2684;0.7428;-0.126;0.5105;3418.0;-26.58;-7.74;-41.4;66.83;-27.59;0.65;5.0;981.94;47.427;;;;NaN;;;;;0 / 0;92511;2022-10-31 17:18:54:028
4.7262;2.3535;12.8835;0.8435;4.1962;8.8233;2.5826;-0.6743;-4.2217;-1.4398;1.0646;-0.3911;3830.0;-27.66;-8.64;-39.06;74.02;-22.61;-3.53;5.0;981.97;51.385;;;;NaN;;;;;0 / 0;93010;2022-10-31 17:18:54:527
0.2993;2.0782;9.6681;-0.0861;3.6494;9.1019;1.0127;-2.4691;3.5087;0.65;-0.5603;0.111;4030.0;-22.32;-7.32;-42.96;72.32;-20.22;3.41;5.0;981.96;52.557;;;;NaN;;;;;0 / 0;93510;2022-10-31 17:18:55:027
4.4484;0.9313;13.9106;0.416;3.0822;9.3004;2.8856;-1.5547;2.9678;0.066;-0.027;-0.2964;3783.0;-24.42;-4.62;-41.52;69.41;-18.42;-1.19;5.0;981.93;58.958;;;;NaN;;;;;0 / 0;94010;2022-10-31 17:18:55:527
-2.6671;6.8525;14.0184;-1.4709;4.1041;8.7843;-1.9097;1.5633;3.9819;-0.3671;-0.4491;0.4134;3593.0;-16.38;-11.28;-44.16;71.31;-23.83;6.01;5.0;981.93;63.414;;;;NaN;;;;;0 / 0;94510;2022-10-31 17:18:56:027
-0.8523;6.151;11.8923;0.0399;4.1285;8.8952;0.1062;2.0609;2.3531;-0.1497;-0.5945;-0.0118;3590.0;-22.14;-7.32;-42.42;67.94;-23.86;3.66;5.0;981.99;58.543;;;;NaN;;;;;0 / 0;95011;2022-10-31 17:18:56:528
0.6512;5.2005;9.024;-0.0649;4.0842;8.9155;-0.232;1.1068;1.7271;0.2553;0.3438;-0.0185;3455.0;-23.64;-10.08;-40.98;71.33;-25.42;1.09;5.0;981.88;63.039;;;;NaN;;;;;0 / 0;95510;2022-10-31 17:18:57:027
0.7254;4.6807;9.4789;0.3194;3.5807;9.124;1.0357;1.8832;2.6127;-0.0727;-0.2323;0.0841;3591.0;-24.18;-6.9;-42.24;67.82;-21.97;-1.23;5.0;981.89;60.394;;;;NaN;;;;;0 / 0;96009;2022-10-31 17:18:57:526
0.3472;6.163;7.2787;0.6258;5.2088;8.2853;-0.688;1.0308;-2.5485;-0.5125;0.326;0.1061;3360.0;-27.18;-16.2;-35.28;75.08;-31.98;-5.54;5.0;981.9;59.336;;;;NaN;;;;;0 / 0;96510;2022-10-31 17:18:58:027
0.486;3.4213;11.3297;0.0973;3.1226;9.2957;0.0608;0.4399;0.5304;0.1155;-0.2402;0.0396;3627.0;-22.14;-3.66;-43.02;60.15;-22.4;0.11;5.0;981.89;56.648;;;;NaN;;;;;0 / 0;97009;2022-10-31 17:18:58:526
-2.2553;3.1675;6.6298;0.1802;4.0561;8.9267;-1.1786;-0.867;-4.3131;-0.1246;-0.1663;-0.068;3845.0;-22.92;-7.32;-43.26;66.54;-21.52;-1.53;5.0;981.91;54.03;;;;NaN;;;;;0 / 0;97510;2022-10-31 17:18:59:027
0.3615;2.2553;5.823;-0.2741;3.8681;9.0074;0.4561;-1.8498;-1.5779;0.5406;-0.5817;0.5857;3738.0;-19.08;-3.84;-44.28;52.78;-24.81;0.56;5.0;981.88;68.462;;;;NaN;;;;;0 / 0;98010;2022-10-31 17:18:59:527
-1.7717;3.5195;7.0728;-0.0694;4.7129;8.5997;-1.1205;-1.1551;-3.8448;-0.6732;0.111;-0.338;3253.0;-21.54;-8.22;-41.88;54.07;-25.83;-6.98;5.0;981.89;64.564;;;;NaN;;;;;0 / 0;98510;2022-10-31 17:19:00:027
0.9026;2.3367;9.4263;0.0564;3.5464;9.1428;0.2573;-0.3956;-3.0684;0.2028;0.0713;0.3144;2783.0;-21.36;-3.24;-41.1;56.84;-22.97;-0.8;5.0;981.9;55.338;;;;NaN;;;;;0 / 0;99010;2022-10-31 17:19:00:527
-1.2929;2.9377;6.6203;0.4877;3.8557;9.0037;-1.1101;-1.2269;-2.1511;-0.0367;0.1465;-0.5059;2238.0;-24.36;-6.3;-38.58;67.23;-20.32;-5.04;5.0;981.94;55.246;;;;NaN;;;;;0 / 0;99510;2022-10-31 17:19:01:027
-0.7135;2.6264;9.8429;-0.1394;3.6505;9.1008;-0.4233;-1.5196;2.7771;0.3897;-0.3343;0.549;2341.0;-21.9;-6.42;-40.32;71.08;-20.67;2.56;5.0;981.93;58.568;;;;NaN;;;;;0 / 0;100010;2022-10-31 17:19:01:527
2.5043;0.4788;14.3631;0.3988;3.4595;9.1675;2.0266;-1.0198;4.5659;0.2095;0.0145;-0.3508;3042.0;-23.52;-4.62;-40.74;64.59;-21.82;-1.63;5.0;981.88;70.089;;;;NaN;;;;;0 / 0;100510;2022-10-31 17:19:02:027
0.3089;4.4484;12.2347;-0.1385;3.727;9.0698;-0.1201;0.8915;2.4131;-0.6292;-0.5402;-0.0521;3393.0;-23.88;-9.3;-40.8;71.72;-23.79;0.92;5.0;981.86;66.933;;;;NaN;;;;;0 / 0;101010;2022-10-31 17:19:02:527
2.3128;5.4303;9.0552;0.1703;3.9282;8.9839;1.9151;0.9488;0.5334;0.7605;0.775;0.0432;3721.0;-23.16;-5.04;-42.0;63.6;-21.76;-0.96;5.0;981.87;66.403;;;;NaN;;;;;0 / 0;101509;2022-10-31 17:19:03:026
0.5722;4.1396;6.3282;0.2837;4.4342;8.7423;-0.049;1.4631;-1.4708;-1.1674;-0.9128;0.1678;3512.0;-24.66;-11.94;-39.96;71.84;-27.84;-0.31;5.0;981.84;67.912;;;;NaN;;;;;0 / 0;102010;2022-10-31 17:19:03:527
-1.3575;5.7584;8.811;-0.2946;4.4912;8.7128;-0.9647;0.2972;1.3623;0.62;-0.0667;0.0444;3762.0;-20.82;-8.58;-42.6;66.51;-24.0;0.3;5.0;981.8;66.217;;;;NaN;;;;;0 / 0;102510;2022-10-31 17:19:04:027
-0.9194;4.6711;9.194;0.1172;4.6358;8.6409;-0.5194;-0.0557;0.7901;0.3286;-0.002;-0.0728;4156.0;-22.5;-8.64;-41.28;59.8;-28.63;-1.77;5.0;981.79;68.811;;;;NaN;;;;;0 / 0;103011;2022-10-31 17:19:04:528
-0.4429;4.2449;8.2699;-0.0393;4.1633;8.8789;-0.3701;-0.7636;-2.2347;-0.2987;-0.0673;0.1239;3834.0;-20.1;-4.68;-43.08;50.61;-27.58;-1.22;5.0;981.8;60.872;;;;NaN;;;;;0 / 0;103510;2022-10-31 17:19:05:027
0.8978;3.4692;4.7453;0.3696;4.4538;8.7291;-0.0511;-1.4155;-2.7122;0.6115;-0.2848;-0.3178;2269.0;-24.24;-4.98;-43.32;55.07;-25.67;-3.75;5.0;981.82;62.268;;;;NaN;;;;;0 / 0;104010;2022-10-31 17:19:05:527
0.1221;2.0518;4.774;0.2566;4.8738;8.5059;-0.2614;-3.0566;-1.8952;0.6084;-0.0686;0.2686;2461.0;-23.52;-8.58;-43.14;59.09;-29.44;-1.65;5.0;981.79;66.214;;;;NaN;;;;;0 / 0;104510;2022-10-31 17:19:06:027
-1.0151;2.9473;5.2005;0.2346;5.4942;8.1196;0.2801;-1.2948;-2.8306;0.248;0.2155;-0.3722;3088.0;-23.16;-13.26;-42.54;58.67;-31.8;-3.61;5.0;981.78;64.308;;;;NaN;;;;;0 / 0;105010;2022-10-31 17:19:06:527
0.9313;4.2234;4.0917;0.0806;5.9577;7.7891;0.7287;-2.1749;-3.8985;-0.507;0.2967;0.1428;3184.0;-20.4;-15.6;-42.6;55.95;-37.75;0.22;5.0;981.86;67.118;;;;NaN;;;;;0 / 0;105510;2022-10-31 17:19:07:027
-1.0774;4.9228;8.7343;1.007;4.9355;8.4141;0.2093;1.8787;-2.8712;-1.055;0.6559;-0.4797;3473.0;-24.9;-11.88;-40.5;61.22;-30.53;-6.27;5.0;981.83;67.075;;;;NaN;;;;;0 / 0;106010;2022-10-31 17:19:07:527
-1.1157;4.7693;10.2595;0.1424;4.8521;8.521;-0.0179;-0.6646;-0.0261;-1.2052;0.7647;0.2008;3720.0;-21.3;-11.16;-42.48;58.88;-31.79;0.16;5.0;981.8;60.493;;;;NaN;;;;;0 / 0;106510;2022-10-31 17:19:08:027
3.3447;3.3615;11.3943;0.7267;4.9238;8.4498;1.713;-2.3093;2.4657;0.4636;-0.0747;0.7023;3800.0;-22.68;-9.06;-41.64;63.43;-27.01;-0.82;5.0;981.84;69.412;;;;NaN;;;;;0 / 0;107010;2022-10-31 17:19:08:527
0.3184;5.2604;12.3687;0.6414;5.213;8.2815;0.3713;-0.1753;4.4799;-0.4484;0.5563;0.6913;3649.0;-22.02;-9.66;-41.1;54.56;-33.96;-1.45;5.0;981.85;72.667;;;;NaN;;;;;0 / 0;107509;2022-10-31 17:19:09:026
4.4173;0.9242;14.938;2.0165;5.1521;8.0969;4.8432;-1.4507;-1.9962;0.0116;1.9375;-0.5304;3526.0;-28.68;-6.18;-37.26;64.72;-22.1;-10.84;5.0;981.76;64.285;;;;NaN;;;;;0 / 0;108010;2022-10-31 17:19:09:527
0.34;3.4524;8.9522;0.4936;4.9507;8.4509;0.7873;-1.2589;2.048;-0.1778;0.2674;-0.068;3614.0;-22.26;-5.64;-40.98;49.0;-32.09;-2.94;5.0;981.74;55.372;;;;NaN;;;;;0 / 0;108510;2022-10-31 17:19:10:027
3.3567;2.5283;10.6497;0.6416;4.3779;8.7517;3.4381;0.0825;-0.0844;-0.8668;-0.9476;-0.3526;3852.0;-22.98;-3.54;-42.18;53.57;-26.27;-2.75;5.0;981.73;57.72;;;;NaN;;;;;0 / 0;109010;2022-10-31 17:19:10:527
-3.7086;5.8398;14.9931;-0.6759;3.7386;9.0408;-1.4501;-0.3676;4.0701;-0.1637;-0.3856;0.6174;3997.0;-18.18;-2.88;-44.82;53.32;-25.21;4.22;5.0;981.77;57.798;;;;NaN;;;;;0 / 0;109510;2022-10-31 17:19:11:027
-1.2306;6.5245;10.4127;0.2746;4.3411;8.7892;-1.1102;1.2976;0.8214;0.2474;-0.4534;0.5649;3900.0;-21.18;-2.1;-44.4;50.91;-25.71;0.29;5.0;981.86;62.636;;;;NaN;;;;;0 / 0;110010;2022-10-31 17:19:11:527
0.1341;5.8924;9.7639;-0.0812;4.8076;8.547;-1.4487;1.736;0.5058;-0.6304;-1.7558;-1.3166;3773.0;-19.92;-7.98;-45.54;47.93;-32.67;0.05;5.0;981.83;54.918;;;;NaN;;;;;0 / 0;110510;2022-10-31 17:19:12:027
-0.4764;3.5985;9.8261;0.7236;4.4644;8.7015;-1.5113;2.57;0.811;-0.3995;-0.0527;0.3444;4170.0;-24.3;-6.36;-42.18;60.93;-24.53;-2.34;5.0;981.72;67.922;;;;NaN;;;;;0 / 0;111009;2022-10-31 17:19:12:526
0.6704;7.2308;7.7408;-0.1112;5.3537;8.2156;0.4727;1.5012;-1.8467;-0.5553;-0.0466;-0.2146;3681.0;-20.16;-9.48;-42.12;53.05;-32.09;-0.48;5.0;981.73;50.693;;;;NaN;;;;;0 / 0;111510;2022-10-31 17:19:13:027
-0.7661;7.1278;9.6322;-0.1393;4.6487;8.6337;-0.8807;2.0267;-3.5792;-0.6487;-0.4998;-0.3935;3624.0;-17.16;-3.84;-44.52;39.85;-32.08;0.13;5.0;981.77;55.471;;;;NaN;;;;;0 / 0;112010;2022-10-31 17:19:13:527
-0.972;5.404;6.0935;-0.7631;5.4009;8.1498;-1.3582;-1.3068;-2.9995;0.0837;-1.8327;-0.1559;3355.0;-15.12;-8.04;-45.96;48.11;-30.96;3.89;5.0;981.84;58.183;;;;NaN;;;;;0 / 0;112510;2022-10-31 17:19:14:027
-0.4453;2.9401;6.0097;0.4182;5.101;8.3651;0.257;-2.0412;-3.5791;0.2401;0.2912;0.0115;3433.0;-23.46;-7.98;-42.66;43.53;-32.02;-8.18;5.0;981.74;58.322;;;;NaN;;;;;0 / 0;113009;2022-10-31 17:19:14:526
0.6321;2.9975;2.9999;0.1807;5.5081;8.1116;0.5783;-2.6758;-2.5017;0.4856;-0.0472;-0.2109;3298.0;-21.96;-9.24;-43.56;48.42;-31.61;-4.69;5.0;981.91;56.274;;;;NaN;;;;;0 / 0;113510;2022-10-31 17:19:15:027
-0.7733;3.1532;8.6075;0.3255;5.1567;8.335;2.5044;-3.5909;-6.3598;0.0147;-0.969;0.808;3384.0;-22.44;-9.72;-44.46;57.62;-30.0;-0.91;5.0;981.81;59.345;;;;NaN;;;;;0 / 0;114010;2022-10-31 17:19:15:527
4.7693;-1.1947;0.2825;7.8929;-0.2243;5.8156;-3.5666;-0.7836;-3.7518;-0.7104;-0.3697;1.0988;3293.0;-35.76;25.32;-25.02;11.57;-14.17;-45.86;5.0;981.56;61.843;;;;NaN;;;;;0 / 0;114510;2022-10-31 17:19:16:027
2.2745;-3.2848;3.5051;4.7215;1.7742;8.4101;-1.2212;-5.3727;-1.311;0.8601;2.6467;-3.2383;1085.0;-32.52;17.76;-32.76;3.87;8.56;-44.1;5.0;981.73;60.868;;;;NaN;;;;;0 / 0;115010;2022-10-31 17:19:16:527
-0.3112;3.4668;5.3298;2.7362;4.6517;8.1881;-2.5495;-1.4651;-3.9911;0.0855;-0.2506;-0.3068;2513.0;-31.26;-4.14;-37.44;54.16;-22.15;-17.8;5.0;981.79;56.883;;;;NaN;;;;;0 / 0;115514;2022-10-31 17:19:17:031
7.8796;-1.7095;8.5907;7.2074;2.272;6.2499;-0.07;-4.6614;3.4278;0.474;-0.057;2.472;2148.0;-38.7;12.6;-27.18;22.04;-21.98;-40.85;5.0;981.6;69.989;;;;NaN;;;;;0 / 0;116011;2022-10-31 17:19:17:528
6.0026;-5.9499;8.7918;8.4271;-4.7711;1.546;5.608;-0.4653;7.4445;-0.2144;-3.1785;1.819;9.0;-22.32;34.68;-16.2;348.89;14.07;-65.4;5.0;981.72;55.519;;;;NaN;;;;;0 / 0;116510;2022-10-31 17:19:18:027
5.8014;-8.0352;0.8643;5.5478;-7.5611;-2.8672;1.8937;-1.9298;1.1985;0.7911;1.3993;-0.0246;0.0;-5.22;42.96;1.8;357.11;46.79;-125.69;5.0;981.83;58.344;;;;NaN;;;;;0 / 0;117010;2022-10-31 17:19:18:527
7.4678;-55.6047;-2.0662;1.4718;-9.3727;-2.481;2.6079;-4.7797;-4.235;-1.9792;-6.9494;1.6803;0.0;13.38;41.94;-6.36;322.35;80.74;-60.65;5.0;982.16;64.037;;;;NaN;;;;;0 / 0;117509;2022-10-31 17:19:19:026
-11.8779;-9.8524;-12.2347;-1.0678;-8.1769;-5.3073;-15.6706;7.9447;16.6825;0.3592;-2.0001;1.4354;0.0;16.38;42.12;3.24;41.58;58.4;170.4;5.0;982.3;71.224;;;;NaN;;;;;0 / 0;118010;2022-10-31 17:19:19:527
5.5836;-14.1979;-0.0814;0.8457;-9.5445;2.0876;0.8087;-7.5579;-1.5992;-3.4447;-1.9555;-1.9451;0.0;22.98;36.84;-19.74;231.26;74.91;13.29;5.0;981.6;60.582;;;;NaN;;;;;0 / 0;118510;2022-10-31 17:19:20:027
-3.5267;-13.9369;-17.0449;-0.3288;-8.3411;-5.1466;-4.2273;-0.9319;-9.5062;-1.9658;0.8734;1.4024;0.0;18.9;44.76;1.02;38.9;58.51;-176.73;5.0;982.52;60.131;;;;NaN;;;;;0 / 0;119011;2022-10-31 17:19:20:528
9.0887;-13.3288;0.2322;-0.2682;-9.5244;2.3204;7.7624;-1.3049;-3.9581;0.2065;0.3987;-0.4131;0.0;26.7;38.22;-17.46;260.92;82.11;-13.65;5.0;981.67;61.114;;;;NaN;;;;;0 / 0;119510;2022-10-31 17:19:21:027
-10.1948;-13.676;-22.2547;-2.4602;-7.8833;-5.2887;-7.6723;-3.353;0.7445;0.2993;3.3804;-1.1852;0.0;25.02;41.82;2.28;63.58;63.02;165.59;5.0;981.86;65.405;;;;NaN;;;;;0 / 0;120010;2022-10-31 17:19:21:527
-3.5051;-14.2626;-5.4088;-0.8568;-9.51;2.2353;0.603;-7.0585;-7.4932;-1.7269;0.7121;-0.4797;0.0;28.38;34.74;-17.52;234.47;78.2;13.6;5.0;981.51;61.225;;;;NaN;;;;;0 / 0;120512;2022-10-31 17:19:22:029
-7.3864;-11.1932;-12.3472;-1.8142;-8.4652;-4.6064;-3.6568;-21.7625;-8.8565;-1.8766;1.5527;0.4354;0.0;22.98;42.72;-1.86;49.6;55.56;158.19;5.0;981.84;66.176;;;;NaN;;;;;0 / 0;121010;2022-10-31 17:19:22:527
9.2898;-12.8739;-2.5163;-0.7271;-9.5675;2.0262;3.2291;-2.9114;-6.228;0.3867;0.3816;-0.0924;0.0;24.9;36.6;-16.8;244.39;85.72;-3.81;5.0;981.58;69.189;;;;NaN;;;;;0 / 0;121510;2022-10-31 17:19:23:027
-9.9913;-12.6106;-19.3314;-1.28;-8.7328;-4.2743;-1.435;2.5148;-5.2597;0.0513;-3.3837;0.5851;0.0;19.68;42.3;-0.24;42.54;52.78;163.6;5.0;981.75;65.049;;;;NaN;;;;;0 / 0;122011;2022-10-31 17:19:23:528
1.6903;-11.5739;0.565;-0.0677;-9.6921;1.4928;1.6263;-1.8458;-4.8614;1.223;1.034;0.2766;0.0;21.9;37.86;-17.94;45.74;85.93;-178.86;5.0;981.56;68.878;;;;NaN;;;;;0 / 0;122509;2022-10-31 17:19:24:026
-0.8212;1.1253;0.9266;-2.0492;-8.4982;-4.4443;-2.598;-17.3864;-6.9907;-1.7;0.4091;0.7811;0.0;24.12;41.04;-3.18;55.98;57.06;152.84;5.0;981.65;67.387;;;;NaN;;;;;0 / 0;123010;2022-10-31 17:19:24:527
4.5825;-13.7382;-1.3815;-0.3456;-9.4508;2.5949;-0.8778;-0.8374;-4.6252;0.292;0.9229;-0.0826;0.0;24.42;36.96;-21.96;246.64;82.65;-11.26;5.0;981.65;67.234;;;;NaN;;;;;0 / 0;123510;2022-10-31 17:19:25:027
-1.9704;-9.3521;-4.2545;-2.2801;-8.9414;-3.32;-0.6168;0.9947;3.7917;1.9358;-0.7869;-1.9384;0.0;25.68;40.62;-4.38;56.87;59.22;160.79;5.0;981.95;61.444;;;;NaN;;;;;0 / 0;124010;2022-10-31 17:19:25:527
7.1326;-9.2994;0.7087;-0.2775;-9.787;0.5541;0.1434;3.2051;-2.3043;1.1362;2.2558;-0.9073;0.0;23.76;39.3;-10.26;75.86;81.98;159.84;5.0;982.27;69.644;;;;NaN;;;;;0 / 0;124509;2022-10-31 17:19:26:026
-0.2418;-4.8964;0.3112;3.5558;-9.1291;-0.4324;-3.7401;6.098;2.7069;-0.0953;-1.1687;-0.1962;0.0;7.08;45.66;-4.38;340.33;73.96;-68.57;5.0;981.63;53.59;;;;NaN;;;;;0 / 0;125010;2022-10-31 17:19:26:527
3.7062;-7.8437;-0.2059;4.2032;-8.7421;1.4419;-1.3828;-1.6993;1.0553;2.2052;0.6498;0.2521;0.0;2.22;43.2;-14.76;318.98;64.18;-76.38;5.0;981.53;50.862;;;;NaN;;;;;0 / 0;125510;2022-10-31 17:19:27:027
-0.7159;-8.2771;2.8683;5.0379;-1.5476;8.2702;-3.472;-0.0015;-4.9255;1.6267;0.7982;-1.7161;73.0;-24.42;31.26;-25.92;326.93;33.62;-49.43;5.0;981.66;52.752;;;;NaN;;;;;0 / 0;126010;2022-10-31 17:19:27:527
4.4556;0.182;6.9124;4.0651;0.1297;8.9235;1.5232;0.2199;-0.6392;0.5388;0.0194;0.684;656.0;-19.62;24.78;-35.7;5.69;-2.25;-25.37;5.0;981.52;54.255;;;;NaN;;;;;0 / 0;126511;2022-10-31 17:19:28:028
-1.6664;-0.9146;9.4263;2.5618;0.9707;9.4162;-1.8508;-3.2332;0.1154;0.0061;-0.8218;-1.7094;1020.0;-26.04;18.18;-37.62;38.77;-1.87;-14.6;5.0;981.42;53.603;;;;NaN;;;;;0 / 0;127010;2022-10-31 17:19:28:527
-3.7757;0.3926;9.2204;1.2859;2.929;9.2703;-2.5022;-1.6625;-0.6293;-0.6701;-0.1052;0.0811;1272.0;-18.78;9.42;-43.08;30.36;-17.78;-7.67;5.0;981.57;57.893;;;;NaN;;;;;0 / 0;127509;2022-10-31 17:19:29:026
2.1476;0.4717;14.3775;1.4514;2.3977;9.3976;0.5789;-0.8271;4.8267;0.3983;-0.9604;0.3798;1548.0;-16.14;14.04;-43.92;22.03;-16.09;-6.95;5.0;981.51;55.98;;;;NaN;;;;;0 / 0;128010;2022-10-31 17:19:29:527
1.1396;4.47;13.4246;0.9405;4.0557;8.879;-0.7609;0.8455;4.5983;0.4685;-0.8376;0.4989;1655.0;-18.06;5.46;-45.48;38.39;-20.61;-1.99;5.0;981.51;55.2;;;;NaN;;;;;0 / 0;128509;2022-10-31 17:19:30:026
1.6424;3.0765;14.0112;2.0111;3.5323;8.9246;4.9707;-2.2993;-2.946;-1.4545;-1.4222;-0.6562;1683.0;-19.26;8.34;-43.92;28.51;-22.16;-7.06;5.0;981.64;57.756;;;;NaN;;;;;0 / 0;129010;2022-10-31 17:19:30:527
-3.2034;6.8908;11.933;0.5999;4.1525;8.8638;-1.9646;-1.4255;3.9479;-0.1649;-0.0936;0.4067;1462.0;-19.44;2.34;-44.94;43.29;-24.32;0.19;5.0;981.56;60.115;;;;NaN;;;;;0 / 0;129510;2022-10-31 17:19:31:027
1.8794;5.5261;14.8303;-0.1018;3.5546;9.1392;0.1856;-0.4086;4.5368;-1.0825;2.4763;-0.14;1248.0;-15.18;3.48;-46.74;19.77;-25.49;-7.79;5.0;981.44;55.994;;;;NaN;;;;;0 / 0;130010;2022-10-31 17:19:31:527
0.6632;3.2848;12.0431;0.0239;3.3266;9.2252;0.3089;-0.0776;3.6607;-0.3696;-0.1425;0.0426;1036.0;-20.4;3.12;-45.72;42.0;-20.11;-3.53;5.0;981.57;55.029;;;;NaN;;;;;0 / 0;130510;2022-10-31 17:19:32:027
1.2139;1.3838;14.3727;0.2645;3.4429;9.1786;-0.5949;1.7145;1.3275;-0.7336;0.5838;-0.0295;825.0;-17.28;3.72;-45.72;39.72;-16.01;-3.74;5.0;981.56;65.258;;;;NaN;;;;;0 / 0;131010;2022-10-31 17:19:32:527
1.5371;4.446;12.9242;0.9685;3.8183;8.9807;-0.5208;1.4827;1.5182;0.3879;-1.0545;-0.5945;642.0;-21.24;1.02;-43.74;45.21;-18.4;-6.81;5.0;981.62;67.973;;;;NaN;;;;;0 / 0;131510;2022-10-31 17:19:33:027
1.2809;5.404;11.2818;1.513;3.76;8.9299;-0.0119;0.6094;3.9224;0.4881;-0.8657;-0.0814;537.0;-23.64;3.54;-41.88;43.62;-18.56;-8.77;5.0;981.62;48.351;;;;NaN;;;;;0 / 0;132010;2022-10-31 17:19:33:527
2.3703;7.384;12.431;2.3708;3.8542;8.7003;-1.6286;0.5248;5.8328;-0.3311;-0.5127;3.3682;512.0;-18.18;6.12;-44.22;28.68;-29.46;-3.86;5.0;981.4;49.036;;;;NaN;;;;;0 / 0;132510;2022-10-31 17:19:34:027
5.064;-0.9266;8.0376;3.8626;-1.7612;8.8402;3.871;0.6695;1.2541;-1.215;-1.7057;-0.4522;566.0;-2.22;25.08;-39.54;339.19;-0.47;-16.77;5.0;981.56;52.087;;;;NaN;;;;;0 / 0;133010;2022-10-31 17:19:34:527
11.842;-1.3455;-1.47;6.5429;-7.2848;-0.541;0.5371;4.6703;0.972;-1.1863;-0.7271;0.7347;80.0;-10.14;44.04;-4.8;353.04;35.82;-82.2;5.0;981.53;52.821;;;;NaN;;;;;0 / 0;133510;2022-10-31 17:19:35:027
7.4511;-13.2977;-3.1795;4.1719;-8.8622;0.4759;2.9248;1.2101;-1.6036;-0.4893;0.8575;0.6272;5.0;5.1;46.26;-8.58;346.16;51.82;-98.07;5.0;981.76;53.686;;;;NaN;;;;;0 / 0;134010;2022-10-31 17:19:35:527
-0.5602;-18.2755;-10.2068;1.6901;-8.8988;-3.7583;2.5404;1.771;-2.5747;0.6665;-3.239;0.0695;5.0;11.7;46.92;3.6;22.9;54.39;-150.35;5.0;981.69;64.868;;;;NaN;;;;;0 / 0;134510;2022-10-31 17:19:36:027
11.1501;-17.5597;-3.2561;1.3067;-9.5184;1.9654;2.3205;-1.1457;-4.1273;-0.6732;0.323;-2.9299;5.0;20.82;41.58;-13.62;281.95;82.3;-33.03;5.0;982.14;63.007;;;;NaN;;;;;0 / 0;135010;2022-10-31 17:19:36:527
-8.4016;-13.9298;-8.6027;0.1622;-8.1447;-5.4596;-2.6642;-6.0029;-9.761;-1.5504;0.0683;-0.1785;5.0;16.56;46.26;4.5;37.95;57.08;-173.84;5.0;981.54;66.442;;;;NaN;;;;;0 / 0;135510;2022-10-31 17:19:37:027
0.5626;-10.8867;-4.2832;1.3145;-9.5721;1.6783;8.9091;0.1458;-1.98;0.0293;0.9058;-0.1565;5.0;19.44;42.42;-11.58;322.1;76.87;-69.84;5.0;981.47;70.074;;;;NaN;;;;;0 / 0;136010;2022-10-31 17:19:37:527
-1.7861;-1.2258;-1.0558;-0.0071;-8.7698;-4.3887;-5.9571;-1.9111;-6.5148;0.2352;-2.7283;0.6223;5.0;12.06;45.12;-0.9;23.9;53.59;177.79;5.0;981.4;56.565;;;;NaN;;;;;0 / 0;136510;2022-10-31 17:19:38:027
8.9857;-14.7513;-2.0207;0.6866;-9.6759;1.4404;1.066;-2.293;-4.7204;0.7361;1.7347;0.5747;5.0;19.14;38.82;-18.66;347.0;82.41;-119.63;5.0;981.59;57.985;;;;NaN;;;;;0 / 0;137010;2022-10-31 17:19:38:527
-10.5731;-15.4217;-11.5044;-1.5965;-8.0414;-5.3813;1.8264;7.4284;6.3437;2.3695;0.3853;-1.1944;5.0;22.44;42.96;4.26;48.43;55.45;173.15;5.0;981.55;69.916;;;;NaN;;;;;0 / 0;137510;2022-10-31 17:19:39:027
0.4645;-10.1134;-2.8515;-0.5946;-9.672;1.5063;4.0351;-2.3927;-4.0776;0.0305;1.1904;0.1623;5.0;25.2;37.02;-18.96;235.58;88.63;-1.48;5.0;981.45;64.94;;;;NaN;;;;;0 / 0;138011;2022-10-31 17:19:39:528
-0.5052;-0.3926;-0.3065;-1.4153;-8.8027;-4.0841;-0.7634;2.9749;-3.5896;0.9029;-1.724;0.4384;5.0;19.68;45.12;-6.72;38.05;53.44;161.59;5.0;981.41;67.617;;;;NaN;;;;;0 / 0;138510;2022-10-31 17:19:40:027
0.1915;-5.3777;-1.6735;-0.3636;-9.7377;1.1025;1.4027;0.0792;-3.8749;1.2052;2.0255;0.3444;5.0;26.46;41.52;-19.02;64.49;83.76;162.09;5.0;981.41;67.609;;;;NaN;;;;;0 / 0;139010;2022-10-31 17:19:40:527
0.8739;0.4286;1.2857;-2.706;-7.8224;-5.259;2.7203;6.8336;8.4074;1.8442;-1.1651;-0.5646;5.0;25.02;41.58;2.28;60.98;61.7;167.07;5.0;981.38;66.476;;;;NaN;;;;;0 / 0;139510;2022-10-31 17:19:41:027
-1.9034;-5.8422;-0.7733;-0.2828;-9.8013;-0.1559;1.5781;0.2865;2.1671;1.5211;2.9711;-0.1889;5.0;21.3;43.62;-17.28;47.84;71.97;162.04;5.0;981.43;68.214;;;;NaN;;;;;0 / 0;140010;2022-10-31 17:19:41:527
-1.1181;-1.0654;2.6193;-2.0387;-7.8287;-5.543;1.9525;11.5541;4.796;-1.1704;-2.4784;-0.0417;5.0;25.02;42.72;3.18;90.44;75.9;160.99;5.0;981.38;66.576;;;;NaN;;;;;0 / 0;140510;2022-10-31 17:19:42:027
0.1556;-7.2547;0.6033;-0.3273;-9.7776;0.6789;0.8277;4.5484;-1.8257;1.9346;2.2112;0.4488;5.0;21.66;41.82;-16.32;58.99;81.21;163.51;5.0;981.45;66.936;;;;NaN;;;;;0 / 0;141011;2022-10-31 17:19:42:528
-0.9864;-0.8188;-0.8835;-2.4056;-7.6058;-5.7039;2.9634;4.2252;7.4134;0.8045;-1.2298;-0.0753;5.0;23.94;41.94;4.62;70.59;64.08;162.34;5.0;981.31;69.121;;;;NaN;;;;;0 / 0;141511;2022-10-31 17:19:43:028
-3.1053;-3.6344;-1.8914;-0.307;-9.8017;0.0581;-0.1336;2.5254;0.6913;0.9743;1.888;-0.5915;5.0;19.56;43.08;-16.44;53.76;76.13;159.06;5.0;981.54;69.072;;;;NaN;;;;;0 / 0;142010;2022-10-31 17:19:43:527
2.7078;-7.657;2.2841;-1.5816;-7.9071;-5.5809;1.4763;8.4266;5.8179;1.3983;-0.724;-0.206;5.0;23.4;42.54;5.52;52.5;53.74;164.18;5.0;981.33;67.454;;;;NaN;;;;;0 / 0;142510;2022-10-31 17:19:44:027
-2.6839;-8.2052;1.5826;-0.0875;-9.7481;-1.0663;-4.931;3.9562;-1.2753;1.7862;3.282;0.0854;5.0;15.96;41.64;-15.78;42.05;83.74;175.31;5.0;981.57;66.699;;;;NaN;;;;;0 / 0;143010;2022-10-31 17:19:44:527
-0.0168;-0.0503;1.731;-1.0544;-8.6188;-4.5579;2.8285;-2.4188;6.0998;-1.1973;-1.9659;0.3474;5.0;21.66;42.48;4.32;59.17;61.51;166.97;5.0;981.28;70.294;;;;NaN;;;;;0 / 0;143510;2022-10-31 17:19:45:027
-1.7095;-5.6506;0.6656;0.3066;-9.8012;0.1129;2.0972;-1.2053;1.982;2.0256;2.866;-0.2921;5.0;15.66;43.02;-14.58;37.37;74.95;172.19;5.0;981.5;63.345;;;;NaN;;;;;0 / 0;144009;2022-10-31 17:19:45:526
0.7159;-0.9864;1.5323;-2.1249;-7.7487;-5.6224;1.6988;8.3186;6.7381;-2.452;-2.5511;0.4452;5.0;22.68;43.02;0.24;69.48;72.29;167.69;5.0;981.35;70.752;;;;NaN;;;;;0 / 0;144509;2022-10-31 17:19:46:026
-0.8188;-9.0624;1.5874;-0.4787;-9.7327;-1.102;-2.8013;1.0535;-1.2563;3.7031;2.0377;0.6577;5.0;18.78;43.68;-7.2;44.16;62.75;161.98;5.0;981.58;69.239;;;;NaN;;;;;0 / 0;145010;2022-10-31 17:19:46:527
0.4597;-12.9434;-1.5514;-1.3045;-8.5342;-4.6513;2.7626;6.978;7.5986;-0.0507;-1.702;0.5606;5.0;27.06;40.62;1.5;64.44;60.49;164.33;5.0;981.31;63.943;;;;NaN;;;;;0 / 0;145509;2022-10-31 17:19:47:026
-0.498;-8.1119;2.5977;-0.7854;-9.6598;-1.4971;-0.2632;1.761;1.0111;3.0177;4.9051;-0.3697;5.0;21.36;40.32;-16.86;65.43;80.07;152.32;5.0;981.34;64.8;;;;NaN;;;;;0 / 0;146010;2022-10-31 17:19:47:527
-0.7733;3.9887;3.2657;-0.4104;-8.78;-4.3489;5.4314;-3.2607;0.396;-1.9841;-2.3776;0.2027;5.0;21.66;43.68;3.9;56.62;63.55;174.61;5.0;981.27;60.197;;;;NaN;;;;;0 / 0;146510;2022-10-31 17:19:48:027
0.3017;-10.1062;3.1651;0.3694;-9.7759;0.6826;1.6801;0.534;-2.0904;2.4978;2.3462;-0.5231;5.0;14.22;43.56;-15.3;26.22;75.96;-175.87;5.0;981.37;67.116;;;;NaN;;;;;0 / 0;147010;2022-10-31 17:19:48:527
1.5514;4.4053;2.1883;-1.8331;-8.0542;-5.2858;3.7461;8.0853;4.8931;-2.229;-1.2317;1.2057;5.0;19.08;43.5;0.24;58.7;74.75;179.93;5.0;981.26;65.042;;;;NaN;;;;;0 / 0;147510;2022-10-31 17:19:49:027
-0.589;-8.131;-0.0215;-0.1865;-9.801;0.2751;-3.8142;-2.1631;0.9005;2.6212;1.9815;0.5686;5.0;16.5;43.5;-11.64;42.35;72.67;168.08;5.0;981.34;68.185;;;;NaN;;;;;0 / 0;148010;2022-10-31 17:19:49:527
3.3208;-7.4104;2.0303;-1.6312;-7.9066;-5.5672;2.5578;9.2905;6.7356;1.4349;-0.5188;-0.2928;5.0;22.44;41.52;6.36;51.93;53.73;163.67;5.0;981.24;67.937;;;;NaN;;;;;0 / 0;148510;2022-10-31 17:19:50:027
-3.0909;-6.1582;1.1756;-0.137;-9.7896;-0.562;-3.203;0.1095;-1.5664;1.5449;2.447;0.0041;5.0;15.72;42.0;-17.22;52.19;86.62;166.3;5.0;981.36;66.144;;;;NaN;;;;;0 / 0;149010;2022-10-31 17:19:50:527
0.4262;-2.1021;4.5155;-1.0775;-8.3191;-5.0795;3.4836;5.3742;9.4058;0.121;-2.0661;0.0725;5.0;22.08;42.48;5.52;56.57;58.03;168.02;5.0;981.27;69.36;;;;NaN;;;;;0 / 0;149510;2022-10-31 17:19:51:027
3.474;-8.6362;0.9984;-0.0149;-9.6998;1.4434;-0.1407;2.7635;-4.5008;2.3653;4.1049;-0.2879;5.0;18.6;41.04;-17.04;57.7;84.87;163.58;5.0;981.35;68.545;;;;NaN;;;;;0 / 0;150010;2022-10-31 17:19:51:527
1.5203;1.9345;3.541;-2.3068;-8.1315;-4.9727;1.8903;8.0668;8.5089;-1.1387;-3.0453;0.4091;5.0;24.54;43.86;4.98;68.64;65.03;167.1;5.0;981.27;70.166;;;;NaN;;;;;0 / 0;150510;2022-10-31 17:19:52:027
1.4916;-9.467;1.3408;0.2046;-9.745;1.0783;-0.6594;3.3163;-3.0799;2.3176;3.8025;-0.41;5.0;17.52;42.84;-13.56;33.11;81.77;-169.23;5.0;981.41;64.754;;;;NaN;;;;;0 / 0;151010;2022-10-31 17:19:52:527
1.2761;3.565;1.0151;-1.7583;-7.8829;-5.5623;2.1749;7.8996;9.2541;2.3873;0.0536;-1.7582;5.0;22.98;42.84;3.78;50.74;53.5;162.46;5.0;981.29;69.679;;;;NaN;;;;;0 / 0;151510;2022-10-31 17:19:53:027
-3.4644;-7.5229;0.6345;0.2527;-9.7746;0.7508;0.0921;1.3347;0.238;1.8375;2.9906;0.4427;5.0;21.48;39.54;-16.5;258.24;85.37;-18.6;5.0;981.39;65.517;;;;NaN;;;;;0 / 0;152010;2022-10-31 17:19:53:527
1.731;-1.992;-3.3878;-1.7474;-8.1243;-5.207;3.2198;9.4052;8.3122;2.0708;0.8972;-1.9115;5.0;25.26;41.52;1.86;56.33;55.94;161.45;5.0;981.31;68.529;;;;NaN;;;;;0 / 0;152510;2022-10-31 17:19:54:027
4.1396;-7.0321;-1.2785;-0.2189;-9.587;2.0523;-4.579;2.4639;-4.2789;1.7599;4.0694;0.0499;5.0;22.08;39.0;-15.84;284.43;85.53;-44.27;5.0;981.42;62.094;;;;NaN;;;;;0 / 0;153010;2022-10-31 17:19:54:527
-1.4748;0.2562;-0.1173;-0.5586;-8.9886;-3.881;1.7462;4.217;-1.9492;1.9939;0.9442;-0.969;5.0;25.38;41.46;2.28;57.29;58.1;167.44;5.0;981.3;68.052;;;;NaN;;;;;0 / 0;153510;2022-10-31 17:19:55:027
0.0503;-5.2101;-1.336;-0.099;-9.6715;1.6195;1.8132;0.9204;-2.6274;1.3085;2.0743;0.155;5.0;20.16;39.36;-15.72;5.3;87.25;-134.34;5.0;981.45;68.813;;;;NaN;;;;;0 / 0;154010;2022-10-31 17:19:55:527
-0.0455;2.7557;4.7118;-1.2329;-8.6159;-4.5185;0.6392;6.9112;4.0229;-0.5498;-0.5872;0.8972;5.0;18.18;42.42;-4.74;42.86;61.47;164.74;5.0;981.35;64.835;;;;NaN;;;;;0 / 0;154510;2022-10-31 17:19:56:027
-0.3208;-10.9538;-3.7709;0.2016;-9.7357;1.1599;-0.8696;4.042;-5.1654;0.606;2.2539;0.7323;5.0;23.7;35.82;-17.1;252.79;83.11;-9.86;5.0;981.41;65.37;;;;NaN;;;;;0 / 0;155010;2022-10-31 17:19:56:527
-7.4487;-8.5452;-10.0129;-1.9438;-8.2188;-4.9843;0.5408;7.4287;8.5085;0.3763;-1.4363;-0.1761;5.0;18.84;43.56;-2.46;42.97;56.94;158.69;5.0;981.39;65.294;;;;NaN;;;;;0 / 0;155510;2022-10-31 17:19:57:027
0.1508;-9.0504;-1.3431;-0.8052;-9.5546;2.057;12.1181;-2.953;-6.1655;1.0403;2.3303;0.7976;5.0;20.46;37.44;-19.62;240.67;84.7;-9.49;5.0;981.46;68.863;;;;NaN;;;;;0 / 0;156009;2022-10-31 17:19:57:526
0.3017;-6.467;-5.9738;-1.185;-8.9028;-3.9378;-8.0234;-12.5523;-8.6513;2.226;-0.3166;-1.7698;5.0;18.66;44.4;-0.42;43.82;57.29;161.94;5.0;981.51;66.329;;;;NaN;;;;;0 / 0;156510;2022-10-31 17:19:58:027
0.0527;-8.7176;-2.4756;-0.4989;-9.5814;2.0291;4.2267;-1.8799;-5.7042;0.5308;1.3932;-0.0851;5.0;18.84;39.48;-18.54;268.09;84.84;-35.56;5.0;981.54;69.763;;;;NaN;;;;;0 / 0;157010;2022-10-31 17:19:58:527
0.1484;-0.8571;-1.7597;-1.0969;-8.989;-3.7635;-6.1937;-2.1802;-12.252;-0.1148;-3.0875;0.4928;5.0;21.42;42.78;-2.22;56.79;66.44;163.75;5.0;981.64;65.419;;;;NaN;;;;;0 / 0;157516;2022-10-31 17:19:59:033
6.3186;-16.2069;-2.5426;-0.5319;-9.5434;2.1935;0.6899;-0.4599;-5.1431;0.9242;1.8251;0.9717;5.0;27.54;34.44;-15.18;241.64;76.69;13.63;5.0;981.54;66.783;;;;NaN;;;;;0 / 0;158010;2022-10-31 17:19:59:527
-6.7591;-15.8622;-12.7279;-0.98;-9.1403;-3.4152;-2.1252;4.735;-1.0093;0.1643;-0.4736;-0.8541;5.0;19.14;44.7;-6.24;49.86;68.76;163.99;5.0;981.62;62.29;;;;NaN;;;;;0 / 0;158511;2022-10-31 17:20:00:028
9.5364;-13.2785;-2.5019;-0.6577;-9.5212;2.2548;0.2243;-5.2899;-8.5829;-2.124;0.0017;-0.7173;5.0;26.82;38.34;-18.24;246.97;77.95;3.05;5.0;981.55;66.848;;;;NaN;;;;;0 / 0;159010;2022-10-31 17:20:00:527
-4.8243;-20.9594;-8.2986;-1.4262;-8.7128;-4.2689;-5.6561;-1.5371;-8.1118;-1.4563;-0.619;0.7659;5.0;20.16;44.76;-1.38;49.71;62.3;162.43;5.0;981.61;67.915;;;;NaN;;;;;0 / 0;159510;2022-10-31 17:20:01:027
1.8771;-11.538;-2.5522;-0.5748;-9.4338;2.6161;9.3474;-2.7339;-5.276;-0.2694;0.2796;-0.3215;5.0;23.1;39.48;-16.86;262.35;79.9;-14.79;5.0;981.52;69.183;;;;NaN;;;;;0 / 0;160010;2022-10-31 17:20:01:527
-11.0807;-12.2873;-14.3009;-1.4651;-8.8384;-3.9883;-6.8048;-19.1938;-9.4243;-2.0708;1.4904;0.6187;5.0;24.6;42.72;0.9;66.58;64.32;159.83;5.0;981.57;68.448;;;;NaN;;;;;0 / 0;160510;2022-10-31 17:20:02:027
7.068;-16.8103;4.5346;-0.6235;-9.4696;2.4714;9.0921;-2.6717;-5.5695;0.2169;0.1984;-0.1761;5.0;27.48;39.42;-12.24;252.17;74.94;14.16;5.0;981.55;59.2;;;;NaN;;;;;0 / 0;161010;2022-10-31 17:20:02:527
-16.353;-26.1168;-1.0511;-1.5738;-9.0128;-3.5302;-7.2132;-11.3433;-2.8985;-1.3714;-0.2671;0.8123;5.0;25.92;42.24;2.16;77.35;66.79;155.97;5.0;981.62;68.398;;;;NaN;;;;;0 / 0;161510;2022-10-31 17:20:03:027
-0.7302;-16.2165;-4.5179;-0.3837;-9.7702;0.7526;2.5504;-6.3793;-0.7694;-1.8436;1.0285;-0.7851;5.0;25.62;37.38;-12.72;243.28;74.81;18.82;5.0;981.56;55.73;;;;NaN;;;;;0 / 0;162010;2022-10-31 17:20:03:527
-6.9938;-6.1151;-10.9442;-3.0539;-8.1534;-4.5129;-9.4776;-1.3255;2.4778;-0.3763;1.2381;-0.4736;5.0;21.48;42.42;-3.24;59.5;67.49;160.63;5.0;981.65;67.607;;;;NaN;;;;;0 / 0;162510;2022-10-31 17:20:04:027
8.7487;-13.7885;-1.7478;-0.5332;-9.6174;1.8416;0.8707;-9.5751;-3.1081;-3.4337;-1.6813;-0.6196;5.0;24.9;37.38;-14.04;249.78;76.04;9.0;5.0;981.54;56.99;;;;NaN;;;;;0 / 0;163011;2022-10-31 17:20:04:528
-3.8882;-30.6586;-12.4885;-1.7696;-8.5615;-4.4429;-7.0413;5.3987;-6.6042;-1.2034;-3.0539;1.5576;5.0;25.74;38.88;2.52;70.44;60.81;158.28;5.0;981.62;67.057;;;;NaN;;;;;0 / 0;163510;2022-10-31 17:20:05:027
11.751;-14.5594;-4.707;-0.5295;-9.4765;2.4669;3.8622;-6.2899;-6.2138;-1.0098;1.6272;0.2393;5.0;25.32;36.78;-6.0;266.99;75.09;12.11;5.0;981.51;61.594;;;;NaN;;;;;0 / 0;164010;2022-10-31 17:20:05:527
-7.9682;-25.4201;2.6935;-1.3791;-8.8434;-4.0079;-6.412;-20.8313;-7.621;-1.9419;0.6211;0.3664;0.0;25.68;36.96;1.44;72.8;64.39;161.01;5.0;981.68;68.301;;;;NaN;;;;;0 / 0;164510;2022-10-31 17:20:06:027
1.3599;-16.1782;-1.6113;-0.1231;-9.7985;0.3811;2.3809;-5.3742;4.2326;-1.9432;0.9668;-0.7692;0.0;27.06;34.86;-8.76;260.34;75.99;9.11;5.0;981.55;64.052;;;;NaN;;;;;0 / 0;165011;2022-10-31 17:20:06:528
-11.0256;-1.6807;-7.2739;-2.9704;-8.0583;-4.734;23.214;-11.8118;1.952;1.5534;3.3437;-1.1571;0.0;25.98;39.42;-2.64;72.64;67.82;156.93;5.0;981.6;64.965;;;;NaN;;;;;0 / 0;165510;2022-10-31 17:20:07:027
7.7168;-17.258;-5.2029;-0.6469;-9.6991;1.2961;5.8259;-6.958;1.012;-3.3304;-2.52;-0.655;0.0;27.9;34.62;-11.76;235.78;77.48;23.75;5.0;981.56;69.757;;;;NaN;;;;;0 / 0;166010;2022-10-31 17:20:07:527
-8.6793;-23.9881;-11.8851;-2.4215;-8.3558;-4.5262;-4.2897;7.2497;-5.2568;-2.08;-4.9133;2.8538;0.0;22.92;39.12;-0.66;60.12;58.44;151.85;5.0;981.62;60.463;;;;NaN;;;;;0 / 0;166510;2022-10-31 17:20:08:027
10.4438;-13.6018;-1.3455;-0.8801;-9.5902;1.8505;-0.1039;-5.2832;-8.7485;-1.989;0.1972;-0.5359;0.0;23.7;36.48;-10.86;234.09;77.94;25.44;5.0;981.59;66.145;;;;NaN;;;;;0 / 0;167010;2022-10-31 17:20:08:527
5.2292;-8.3489;12.1413;-2.2493;-8.4793;-4.3831;-4.9887;2.4289;-5.4166;-2.5522;-1.0954;1.3547;0.0;20.88;39.42;-2.64;55.84;59.84;152.83;5.0;981.92;65.132;;;;NaN;;;;;0 / 0;167510;2022-10-31 17:20:09:027
4.4891;-14.4182;4.7477;-0.0527;-9.7819;-0.6938;-5.1334;-7.7083;1.9293;-3.488;-1.3813;-0.4675;0.0;24.3;34.98;-15.12;231.28;76.36;20.9;5.0;981.41;70.117;;;;NaN;;;;;0 / 0;168011;2022-10-31 17:20:09:528
13.9896;-10.5468;9.7255;-2.3052;-8.5433;-4.227;1.2542;-3.1048;1.2917;2.9285;2.8416;-2.0594;0.0;20.28;41.52;-3.54;54.71;63.05;152.07;5.0;982.02;67.549;;;;NaN;;;;;0 / 0;168509;2022-10-31 17:20:10:026
7.973;-13.8962;3.948;-0.3935;-9.7986;0.0543;-1.7756;-5.5273;7.3297;-3.022;-0.8505;-1.341;0.0;25.02;35.94;-16.92;232.08;75.07;18.97;5.0;981.41;65.466;;;;NaN;;;;;0 / 0;169010;2022-10-31 17:20:10:527
-16.3506;-15.5533;-3.1508;-3.0293;-8.3961;-4.0618;5.8185;-0.1467;7.2653;0.9859;1.0121;-0.6672;0.0;17.46;43.14;-6.66;44.19;58.89;143.28;5.0;982.14;62.272;;;;NaN;;;;;0 / 0;169510;2022-10-31 17:20:11:027
-4.2832;-20.9954;1.008;-0.6176;-9.7425;0.934;6.2107;-8.1476;4.9441;-1.7911;1.1037;-0.9788;0.0;21.84;41.16;-10.44;219.34;83.44;33.47;5.0;981.41;63.192;;;;NaN;;;;;0 / 0;170010;2022-10-31 17:20:11:527
6.3832;-14.9548;9.2802;-3.0762;-8.2514;-4.3152;19.4388;-8.5637;19.0497;1.1576;0.2515;-0.4571;0.0;16.2;42.54;-1.44;40.19;57.29;144.52;5.0;982.13;65.322;;;;NaN;;;;;0 / 0;170509;2022-10-31 17:20:12:026
-4.2521;-19.2907;-1.6592;-0.2404;-9.6361;-1.8051;-5.7286;-8.0816;2.9064;-2.529;-6.6763;-1.2146;0.0;19.62;40.86;-13.14;205.7;80.12;38.98;5.0;981.42;63.58;;;;NaN;;;;;0 / 0;171010;2022-10-31 17:20:12:527
-1.0295;-9.8524;-3.3088;-0.5391;-9.3613;-2.8715;8.1817;-4.93;9.9587;2.7855;2.0377;-2.2775;0.0;13.26;43.8;5.04;30.38;57.98;146.16;5.0;982.05;63.822;;;;NaN;;;;;0 / 0;171510;2022-10-31 17:20:13:027
-4.628;-18.6107;4.6735;-0.3895;-9.7105;-1.3135;-4.8876;-8.9529;2.6471;-1.6664;-5.9665;-0.1119;0.0;8.76;39.72;-18.48;176.37;76.98;28.47;5.0;981.47;61.791;;;;NaN;;;;;0 / 0;172010;2022-10-31 17:20:13:527
-6.1271;-9.4526;-3.7158;-0.8802;-9.0959;-3.5582;12.1117;-8.5596;15.0386;2.9603;1.2405;-2.5896;0.0;4.62;49.5;-7.68;15.29;68.05;166.11;5.0;982.22;70.013;;;;NaN;;;;;0 / 0;172510;2022-10-31 17:20:14:027
2.9808;-16.3195;5.0162;-0.4035;-9.7872;-0.4672;-1.2605;-6.7645;-1.2542;-3.7642;-1.7985;-0.7136;0.0;18.0;46.92;-5.52;103.62;86.39;139.18;5.0;981.48;57.426;;;;NaN;;;;;0 / 0;173010;2022-10-31 17:20:14:527
2.0207;-4.6376;-2.7294;-2.2607;-8.735;-3.8418;-4.429;4.2865;-2.0506;3.0763;3.6815;-2.1974;0.0;9.66;47.1;-6.24;28.53;62.96;149.53;5.0;982.19;65.621;;;;NaN;;;;;0 / 0;173516;2022-10-31 17:20:15:033
0.3304;-15.8263;0.9433;-0.6044;-9.0688;-3.6826;1.6267;0.2961;4.3051;-3.105;-3.6287;0.0933;0.0;18.66;44.76;-4.74;121.09;86.91;128.06;5.0;981.5;61.477;;;;NaN;;;;;0 / 0;174011;2022-10-31 17:20:15:528
12.4669;-12.2778;0.2538;0.4274;-9.6841;-1.4851;-0.2646;5.2476;0.2257;3.3793;4.9784;0.7738;0.0;14.16;45.42;-1.8;37.15;61.22;153.07;5.0;982.19;70.042;;;;NaN;;;;;0 / 0;174510;2022-10-31 17:20:16:027
-4.3215;-20.2891;-0.9792;0.0748;-9.4853;-2.4885;2.5684;-5.2468;3.6449;-4.4104;-2.8498;-0.9537;0.0;18.06;42.72;-9.72;234.78;83.74;17.1;5.0;981.44;66.719;;;;NaN;;;;;0 / 0;175011;2022-10-31 17:20:16:528
2.3008;-11.9378;-3.6919;-0.0712;-9.3579;-2.9317;7.1511;-2.0939;0.6308;2.4661;1.9949;-1.1266;0.0;13.62;44.22;-8.1;34.74;72.6;178.61;5.0;982.27;63.592;;;;NaN;;;;;0 / 0;175510;2022-10-31 17:20:17:027
-4.0582;-15.9484;1.5897;-0.1916;-9.6929;-1.477;-6.0288;-9.9139;4.2471;-2.2498;-5.683;-0.5334;0.0;19.02;42.84;-3.0;69.85;81.26;172.61;5.0;981.46;61.737;;;;NaN;;;;;0 / 0;176009;2022-10-31 17:20:17:526
0.5602;-4.4101;-3.6679;-1.4858;-8.7242;-4.2251;2.4507;-0.4555;1.8189;3.9505;4.1684;-2.5523;0.0;11.46;44.16;-7.2;29.2;62.83;160.62;5.0;982.17;69.084;;;;NaN;;;;;0 / 0;176510;2022-10-31 17:20:18:027
1.7071;-14.8925;-1.8435;-0.6464;-8.7779;-4.3245;3.5434;0.8144;3.7211;-2.6695;-3.0991;-0.0948;0.0;22.26;42.6;-5.28;97.18;86.0;152.39;5.0;981.47;66.048;;;;NaN;;;;;0 / 0;177010;2022-10-31 17:20:18:527
6.7591;-11.3967;-1.3791;0.1147;-9.7224;-1.2778;-2.7459;5.9467;2.8436;2.9621;2.8752;0.9583;0.0;13.74;46.02;-8.28;34.47;59.99;152.18;5.0;982.13;64.066;;;;NaN;;;;;0 / 0;177510;2022-10-31 17:20:19:027
-4.47;-16.9276;5.483;-0.5429;-9.0547;-3.7267;4.4814;-7.0062;0.4705;-4.2473;-2.892;-0.6348;0.0;22.74;43.98;-6.12;153.22;88.05;100.52;5.0;981.48;66.295;;;;NaN;;;;;0 / 0;178010;2022-10-31 17:20:19:527
4.7477;-15.2445;10.293;-0.5406;-9.6102;-1.8768;1.709;1.1057;-0.3833;2.5705;3.2264;0.2808;0.0;16.56;40.56;-17.94;46.11;78.51;163.93;5.0;981.87;65.472;;;;NaN;;;;;0 / 0;178510;2022-10-31 17:20:20:027
2.5498;2.1907;4.0725;-0.4674;-9.417;-2.6966;2.512;-1.9007;7.4946;-3.3335;-4.7258;-1.0496;0.0;18.84;44.7;-4.74;54.09;73.79;170.17;5.0;981.52;66.176;;;;NaN;;;;;0 / 0;179010;2022-10-31 17:20:20:527
1.4269;-5.4303;0.9122;-0.6548;-9.3509;-2.8812;5.6494;-5.8456;0.2356;3.1197;1.381;-1.7692;0.0;8.82;44.4;-18.42;24.44;72.46;167.2;5.0;981.88;58.985;;;;NaN;;;;;0 / 0;179511;2022-10-31 17:20:21:028
1.6951;-1.3934;3.486;-1.9649;-8.4481;-4.5759;5.1253;10.9165;8.8495;0.2016;-2.5676;-0.0557;0.0;19.14;45.78;-6.0;51.15;75.42;174.75;5.0;981.58;59.026;;;;NaN;;;;;0 / 0;180010;2022-10-31 17:20:21:527
0.3208;-3.5243;1.2067;0.407;-9.7972;0.135;1.9632;-0.3664;1.9503;2.2474;1.9009;-0.3813;0.0;10.38;45.66;-14.94;29.94;72.06;161.58;5.0;981.85;67.665;;;;NaN;;;;;0 / 0;180510;2022-10-31 17:20:22:027
0.6081;-5.8972;3.1268;-1.1787;-8.4714;-4.7975;4.8538;9.1825;5.6427;-0.5156;-3.7063;0.1575;0.0;19.92;45.3;-4.74;56.85;78.22;177.43;5.0;981.57;60.517;;;;NaN;;;;;0 / 0;181011;2022-10-31 17:20:22:528
-2.8156;-0.9409;2.387;0.1781;-9.7999;0.3176;-1.6146;0.5077;1.9904;2.0696;2.7946;-0.2017;0.0;17.1;40.32;-21.54;249.86;87.87;-29.28;5.0;981.81;69.67;;;;NaN;;;;;0 / 0;181510;2022-10-31 17:20:23:027
-3.8188;-0.8212;0.7638;-0.9767;-9.0057;-3.7569;4.7739;10.277;6.9005;-1.4099;-4.0893;0.3169;0.0;18.24;44.46;-4.5;47.62;66.68;165.43;5.0;981.61;61.864;;;;NaN;;;;;0 / 0;182010;2022-10-31 17:20:23:527
0.2203;-7.2332;-4.719;-0.0919;-9.7958;0.4508;1.1478;-0.7222;5.8486;2.1906;0.695;-0.6269;0.0;16.8;40.08;-21.78;208.01;87.31;11.52;5.0;981.8;69.739;;;;NaN;;;;;0 / 0;182510;2022-10-31 17:20:24:027
1.5012;0.1748;3.7613;-1.7015;-9.0854;-3.2756;1.5196;8.7957;4.1423;2.4038;-0.6996;-1.8291;0.0;19.92;44.46;-0.12;51.36;63.66;167.37;5.0;981.73;58.462;;;;NaN;;;;;0 / 0;183010;2022-10-31 17:20:24:527
-2.1715;-5.5429;-2.2841;-0.3028;-9.6492;1.7238;-0.1185;3.6035;-7.9849;0.8491;3.4787;0.3841;0.0;15.3;41.34;-18.96;89.86;86.36;122.25;5.0;981.76;71.692;;;;NaN;;;;;0 / 0;183510;2022-10-31 17:20:25:027
2.6193;1.9561;3.9433;-2.1646;-8.7652;-3.8283;1.93;10.422;9.3353;1.4282;-1.1327;-0.6904;0.0;19.26;45.06;-2.76;58.3;72.69;166.19;5.0;981.75;56.879;;;;NaN;;;;;0 / 0;184011;2022-10-31 17:20:25:528
0.735;-9.297;4.4939;-0.3112;-9.5821;2.0632;-3.1891;3.9554;-6.854;1.1912;2.7738;0.2375;0.0;22.8;36.72;-24.48;225.75;77.72;8.58;5.0;981.77;68.186;;;;NaN;;;;;0 / 0;184513;2022-10-31 17:20:26:030
-1.8364;-3.6512;-6.4886;-1.9646;-8.8113;-3.8303;5.6852;8.0092;9.4977;1.237;-1.2946;-0.3117;0.0;14.94;45.96;-7.62;39.75;63.96;152.85;5.0;981.8;69.747;;;;NaN;;;;;0 / 0;185010;2022-10-31 17:20:26:527
1.3024;-9.9386;2.6815;0.0689;-9.6595;1.6907;1.0468;5.7067;-4.8798;0.9487;3.4274;-0.2311;0.0;19.56;37.5;-22.44;235.61;80.06;-2.33;5.0;981.74;67.484;;;;NaN;;;;;0 / 0;185510;2022-10-31 17:20:27:027
-2.0446;-5.6243;-5.4567;-1.7667;-9.1591;-3.0264;-10.6284;-17.2283;-4.2379;-1.4752;-0.7179;1.1446;0.0;13.92;44.7;-6.36;35.46;62.13;158.26;5.0;981.83;65.45;;;;NaN;;;;;0 / 0;186010;2022-10-31 17:20:27:527
-0.9625;-8.3513;-2.2865;-0.9738;-9.4733;2.3406;14.0968;-4.3415;-7.668;0.5266;0.3468;0.3218;0.0;20.34;37.32;-19.92;248.43;81.93;-13.31;5.0;981.8;71.318;;;;NaN;;;;;0 / 0;186510;2022-10-31 17:20:28:027
1.1468;-2.5618;-4.0582;-1.5967;-9.3341;-2.5485;-10.5877;-2.5701;-10.6893;-0.912;-0.9885;1.805;0.0;16.44;43.92;-5.58;39.43;60.93;157.08;5.0;981.93;62.985;;;;NaN;;;;;0 / 0;187010;2022-10-31 17:20:28:527
2.5235;-9.5915;-1.1756;-1.1903;-9.3765;2.6144;8.0715;-2.3674;-7.5611;0.1613;0.877;0.1684;0.0;27.0;35.82;-22.74;216.72;72.97;24.48;5.0;981.75;67.686;;;;NaN;;;;;0 / 0;187510;2022-10-31 17:20:29:027
-4.6878;-6.0504;-8.3776;-2.1088;-8.8279;-3.7137;-6.7525;-18.6632;-6.6439;-1.5846;-0.2225;1.0383;0.0;21.3;46.44;-0.78;58.53;64.18;150.41;5.0;982.04;66.576;;;;NaN;;;;;0 / 0;188010;2022-10-31 17:20:29:527
1.8579;-16.2644;-1.5131;-1.1501;-9.4751;2.2518;13.8875;-6.708;-6.2597;0.6878;0.031;0.141;0.0;26.16;37.62;-19.44;218.91;75.06;27.05;5.0;981.75;60.874;;;;NaN;;;;;0 / 0;188510;2022-10-31 17:20:30:027
-9.1533;-1.3048;-8.9067;-3.037;-8.1554;-4.5207;22.2343;-14.0658;19.3869;1.4887;1.2802;-0.8493;0.0;16.38;46.62;-3.48;48.92;67.31;151.43;5.0;982.48;66.081;;;;NaN;;;;;0 / 0;189009;2022-10-31 17:20:30:526
-0.5291;-13.8843;-8.6051;-0.5258;-9.7704;0.6585;7.8596;-5.048;3.8905;-2.2761;0.3529;-0.8493;0.0;25.26;37.98;-17.64;224.96;75.82;22.69;5.0;981.83;62.931;;;;NaN;;;;;0 / 0;189510;2022-10-31 17:20:31:027
-9.1869;0.5722;-7.5468;-3.2758;-8.0617;-4.5219;-4.3716;-29.6122;-5.1509;0.7501;2.2399;-0.8902;0.0;17.04;45.3;-4.08;49.7;67.24;156.64;5.0;982.38;63.983;;;;NaN;;;;;0 / 0;190010;2022-10-31 17:20:31:527
8.052;-16.6547;-4.0797;-0.8035;-9.6158;1.7494;1.3255;-4.8909;-3.1667;-3.2309;-2.2909;-0.8004;0.0;24.78;39.66;-10.98;236.1;78.68;24.67;5.0;981.79;60.797;;;;NaN;;;;;0 / 0;190510;2022-10-31 17:20:32:027
-1.1875;-4.0534;-4.6232;-2.5891;-8.3981;-4.3518;-6.3535;7.1699;-2.2469;-1.8124;-3.8877;4.0676;0.0;24.54;42.18;-3.78;59.82;58.91;149.25;5.0;982.36;68.283;;;;NaN;;;;;0 / 0;191010;2022-10-31 17:20:32:527
3.1651;-16.5278;9.4406;-0.7607;-9.5177;2.2372;2.7431;-4.2565;-9.6093;-2.4557;0.4452;-0.1486;0.0;26.46;38.58;-13.44;242.42;76.06;18.78;5.0;981.8;56.232;;;;NaN;;;;;0 / 0;191510;2022-10-31 17:20:33:027
2.0638;3.8044;10.3648;-1.5982;-9.0703;-3.3682;2.5775;-0.5092;7.3138;4.1985;3.7603;-2.5242;0.0;24.3;43.08;-4.86;60.63;61.12;146.49;5.0;982.15;66.264;;;;NaN;;;;;0 / 0;192010;2022-10-31 17:20:33:527
0.8547;-17.5022;5.6482;0.2239;-9.6886;-1.5006;-3.7074;-10.9165;1.3713;-3.0562;-0.7442;0.2784;0.0;28.98;39.36;-11.82;231.3;76.91;29.85;5.0;981.93;60.023;;;;NaN;;;;;0 / 0;192510;2022-10-31 17:20:34:027
-0.7135;-6.3114;7.3385;-1.6339;-8.9554;-3.6471;-0.5137;1.0399;5.3374;4.1966;3.4592;-1.961;0.0;24.6;43.62;-3.06;62.44;61.65;149.64;5.0;982.17;69.365;;;;NaN;;;;;0 / 0;193010;2022-10-31 17:20:34:527
2.9209;-16.7744;7.4175;0.082;-9.7152;-1.3336;-5.6608;-8.9817;2.083;-2.5137;-0.5316;0.009;0.0;23.88;43.44;-0.9;70.83;82.17;-176.48;5.0;981.9;56.204;;;;NaN;;;;;0 / 0;193510;2022-10-31 17:20:35:027
-1.8316;-2.2146;-1.142;-1.8883;-8.7126;-4.0859;5.2043;-3.5915;2.8697;3.7134;4.0261;-2.3801;0.0;16.32;45.0;-8.7;39.82;62.68;155.2;5.0;982.17;69.354;;;;NaN;;;;;0 / 0;194010;2022-10-31 17:20:35:527
1.4485;-11.1764;5.416;0.3308;-9.7886;-0.4936;-3.812;-7.9387;-0.0834;-3.1912;-1.4668;-0.6855;0.0;24.42;43.14;-2.7;44.74;86.53;-146.17;5.0;981.91;69.755;;;;NaN;;;;;0 / 0;194511;2022-10-31 17:20:36:028
5.3657;-11.4446;-0.237;0.2782;-9.7294;-1.1967;-0.1321;5.3647;5.3124;3.394;3.2185;0.0206;0.0;20.88;43.5;-7.2;49.23;58.88;149.03;5.0;982.13;67.811;;;;NaN;;;;;0 / 0;195012;2022-10-31 17:20:36:529
-0.3519;-11.6505;3.8475;-0.2259;-9.1672;-3.4759;2.601;-1.6621;2.0155;-4.2412;-3.9378;-0.732;0.0;27.24;40.98;-3.12;157.79;88.04;104.74;5.0;981.93;64.124;;;;NaN;;;;;0 / 0;195510;2022-10-31 17:20:37:027
-1.719;-6.3066;0.577;-1.17;-9.5553;-1.8703;-3.0702;5.3056;2.3611;3.3304;4.282;-0.0961;0.0;21.84;42.6;-5.46;50.2;54.53;141.18;5.0;982.18;69.081;;;;NaN;;;;;0 / 0;196010;2022-10-31 17:20:37:527
-7.3792;-19.3122;0.6608;-0.4645;-9.4193;-2.6889;2.9233;-2.3868;7.3049;-2.5876;-6.7966;-1.0417;0.0;21.6;43.02;-2.46;65.01;73.84;170.2;5.0;981.95;66.547;;;;NaN;;;;;0 / 0;196510;2022-10-31 17:20:38:027
9.6753;-20.6386;8.0496;-0.8575;-9.2551;-3.1269;1.7026;2.7498;3.328;2.9755;0.764;-2.1101;0.0;12.0;43.68;-14.52;31.65;70.69;164.67;5.0;982.21;69.869;;;;NaN;;;;;0 / 0;197010;2022-10-31 17:20:38:527
2.9951;-1.3838;1.0127;-0.1251;-9.5799;-2.0927;-8.705;-9.6078;1.9059;-2.6457;-0.5438;-0.2476;0.0;20.82;42.84;-3.6;60.76;77.66;176.58;5.0;981.98;65.044;;;;NaN;;;;;0 / 0;197510;2022-10-31 17:20:39:027
1.9752;-2.0063;3.3351;0.36;-9.7693;-0.7752;-0.7742;3.1443;2.851;2.2284;1.8202;0.7158;0.0;11.4;43.98;-11.64;31.08;62.5;152.82;5.0;982.23;62.093;;;;NaN;;;;;0 / 0;198010;2022-10-31 17:20:39:527
0.2514;-10.9538;-1.0415;-0.9106;-8.7442;-4.3451;5.4285;8.2127;7.2541;-3.6072;-3.4179;0.3682;0.0;22.2;42.0;-5.4;69.96;83.52;175.91;5.0;981.99;68.327;;;;NaN;;;;;0 / 0;198510;2022-10-31 17:20:40:027
-0.5148;-5.4639;-1.4102;0.0842;-9.7565;-0.9867;-2.8663;8.1668;2.2461;2.2785;2.6608;0.7775;0.0;16.5;42.84;-9.3;44.14;60.17;146.37;5.0;982.2;64.229;;;;NaN;;;;;0 / 0;199010;2022-10-31 17:20:40:527
1.6281;-12.7087;2.5139;-0.7025;-8.984;-3.8683;3.1853;2.2752;4.9456;-3.7703;-2.4729;-0.5872;0.0;21.42;42.96;0.18;56.26;66.37;169.71;5.0;982.04;70.03;;;;NaN;;;;;0 / 0;199510;2022-10-31 17:20:41:027
2.4493;-7.0009;-3.3088;0.0615;-9.6973;-1.4588;-0.2722;6.762;3.3167;3.0525;3.7567;0.2228;0.0;17.04;40.14;-17.1;34.74;81.44;-177.59;5.0;982.01;61.912;;;;NaN;;;;;0 / 0;200011;2022-10-31 17:20:41:528
4.0318;2.0135;5.1766;-0.1339;-9.4294;-2.6904;-1.0297;-0.9617;2.3337;-3.9865;-4.7802;-0.5621;0.0;20.4;42.0;-2.64;56.22;74.06;177.15;5.0;981.8;69.474;;;;NaN;;;;;0 / 0;200510;2022-10-31 17:20:42:027
-2.0782;-2.6432;-1.6999;0.1054;-9.7644;0.903;0.3183;4.5543;-5.0617;1.3543;2.7219;-0.2457;0.0;18.72;39.96;-17.76;43.43;80.7;173.66;5.0;981.97;66.586;;;;NaN;;;;;0 / 0;201009;2022-10-31 17:20:42:526
1.4269;1.5443;5.0784;-1.6533;-8.6686;-4.2769;2.8935;10.2583;9.2524;-0.6701;-2.1168;0.0267;0.0;23.52;42.84;-4.56;67.51;77.23;169.77;5.0;981.81;71.018;;;;NaN;;;;;0 / 0;201515;2022-10-31 17:20:43:032
0.4884;-9.6633;3.5506;0.2987;-9.7909;0.4674;0.7547;6.3193;-0.1418;2.2529;2.7475;-0.3349;0.0;16.86;41.76;-15.96;43.3;75.3;165.85;5.0;981.98;67.116;;;;NaN;;;;;0 / 0;202013;2022-10-31 17:20:43:530
2.0423;0.8356;4.3694;-1.6247;-8.3259;-4.9204;3.0923;10.1095;8.8972;-0.584;-3.2603;0.0603;0.0;24.24;42.42;-2.64;52.48;58.1;161.73;5.0;981.89;60.329;;;;NaN;;;;;0 / 0;202513;2022-10-31 17:20:44:030
-0.6847;-5.3202;1.1109;0.2345;-9.8036;0.065;-0.6391;0.746;0.7346;1.9639;1.8514;-0.5102;0.0;21.72;37.92;-19.74;303.73;88.58;-74.5;5.0;982.02;71.301;;;;NaN;;;;;0 / 0;203010;2022-10-31 17:20:44:527
-0.9625;0.8164;0.0886;-1.144;-8.0274;-5.5156;4.3044;10.7736;9.241;-1.1215;-3.6977;0.3645;0.0;26.28;41.46;1.26;53.88;54.94;168.28;5.0;981.93;62.837;;;;NaN;;;;;0 / 0;203510;2022-10-31 17:20:45:027
-1.573;-5.6123;-1.2833;0.2462;-9.6414;1.7759;1.3483;0.0954;-3.514;1.1551;3.1825;0.6028;0.0;22.02;40.32;-16.86;350.48;86.84;-117.43;5.0;981.98;67.885;;;;NaN;;;;;0 / 0;204010;2022-10-31 17:20:45:527
3.2346;1.7119;2.0901;-1.4403;-8.4268;-4.8047;5.1992;8.0006;3.1144;2.9212;-0.6745;-1.6666;0.0;28.08;40.14;8.58;67.01;58.46;175.93;5.0;981.9;63.24;;;;NaN;;;;;0 / 0;204512;2022-10-31 17:20:46:029
-0.2155;-9.0217;-3.4884;-0.1935;-9.7153;1.321;-1.8751;2.621;-5.4486;1.303;2.2814;0.2222;0.0;25.02;39.9;-13.5;80.23;82.93;152.39;5.0;981.95;69.302;;;;NaN;;;;;0 / 0;205012;2022-10-31 17:20:46:529
-1.798;-1.4437;-0.7638;-2.1454;-8.3269;-4.7149;1.6786;7.7116;6.0796;1.1887;-0.5884;-0.8291;0.0;26.52;40.56;-5.28;58.98;58.11;155.53;5.0;981.89;65.191;;;;NaN;;;;;0 / 0;205510;2022-10-31 17:20:47:027
1.5419;-7.5612;-3.067;-0.0015;-9.7724;0.8182;-1.38;3.5664;-2.4199;1.6273;1.637;0.2503;0.0;27.6;37.14;-18.12;241.95;85.21;0.1;5.0;982.04;70.65;;;;NaN;;;;;0 / 0;206010;2022-10-31 17:20:47:527
2.1476;-0.498;3.9552;-1.8536;-8.0266;-5.3205;2.7706;7.3874;10.2576;-0.3549;-2.4907;-0.0166;0.0;26.22;42.78;-0.42;54.21;54.93;160.79;5.0;981.91;62.407;;;;NaN;;;;;0 / 0;206510;2022-10-31 17:20:48:027
-2.3032;-8.4375;0.5986;-0.3561;-9.6893;1.4698;-5.3616;1.86;-1.7954;0.8271;2.0627;1.7121;0.0;22.68;39.84;-18.06;25.88;87.88;-155.18;5.0;982.0;65.87;;;;NaN;;;;;0 / 0;207012;2022-10-31 17:20:48:529
-0.0694;-0.7542;3.2202;-2.1107;-8.3319;-4.7216;3.777;7.3264;3.2109;2.7715;-0.3453;-2.2561;0.0;28.14;40.86;3.24;60.05;55.01;164.76;5.0;981.9;67.709;;;;NaN;;;;;0 / 0;207510;2022-10-31 17:20:49:027
0.9792;-5.6291;-2.9928;0.1041;-9.7813;0.6973;-0.4608;5.4166;-3.2854;2.0097;3.3407;0.607;0.0;20.34;39.84;-16.86;47.12;78.9;170.52;5.0;982.02;69.336;;;;NaN;;;;;0 / 0;208010;2022-10-31 17:20:49:527
-1.9058;-1.573;-1.5586;-2.4629;-8.1769;-4.8209;-0.8866;7.7651;6.4275;2.3323;0.0457;-0.6471;0.0;22.14;44.1;-8.82;46.31;56.49;152.94;5.0;981.89;62.943;;;;NaN;;;;;0 / 0;208510;2022-10-31 17:20:50:027
-0.5938;-7.6881;-3.5865;0.2225;-9.7801;0.6859;-0.3111;3.7081;-4.4783;1.8967;3.6394;0.2784;0.0;25.38;37.98;-18.78;255.73;85.78;-17.97;5.0;982.02;65.654;;;;NaN;;;;;0 / 0;209010;2022-10-31 17:20:50:527
-0.0814;0.4597;-0.5028;-2.2137;-8.2938;-4.7416;4.1339;9.1629;7.3297;2.1002;-0.4833;-1.9122;0.0;23.76;43.32;-4.92;52.68;57.75;154.97;5.0;981.92;62.169;;;;NaN;;;;;0 / 0;209511;2022-10-31 17:20:51:028
1.3024;-6.388;-11.3871;-1.0036;-9.5639;1.9222;13.0156;-4.215;-6.6148;1.6335;3.0462;0.4372;0.0;25.68;37.8;-17.28;245.68;84.95;-3.13;5.0;982.07;67.677;;;;NaN;;;;;0 / 0;210010;2022-10-31 17:20:51:527
1.5275;1.7549;3.8427;-1.142;-9.295;-2.9099;-8.5261;-14.3698;-14.5899;2.0421;-0.1498;-1.2115;0.0;21.66;42.96;-6.0;51.73;63.77;161.84;5.0;982.08;64.241;;;;NaN;;;;;0 / 0;210510;2022-10-31 17:20:52:027
11.1094;-12.7973;-2.5594;-0.5426;-9.5832;2.0097;5.4941;-2.3283;-6.3456;1.2425;4.6375;0.017;0.0;22.5;39.18;-17.88;253.29;86.06;-16.24;5.0;982.16;70.725;;;;NaN;;;;;0 / 0;211010;2022-10-31 17:20:52:527
-10.0847;-16.693;-13.9705;-1.1591;-9.2277;-3.1106;-3.9648;3.2347;-3.8712;-1.8418;-0.2091;0.7274;0.0;19.98;43.98;-9.84;52.37;70.21;159.56;5.0;982.19;60.951;;;;NaN;;;;;0 / 0;211510;2022-10-31 17:20:53:027
10.1757;-13.0511;-11.751;-0.5337;-9.6121;1.8688;-1.0705;1.1004;-1.3349;0.5589;0.1104;0.3694;0.0;28.38;35.7;-18.06;231.69;78.57;15.94;5.0;982.21;70.268;;;;NaN;;;;;0 / 0;212009;2022-10-31 17:20:53:526
-3.6057;-4.7405;-6.6179;-1.591;-8.9335;-3.7191;2.0315;8.457;0.7359;-0.7911;-1.1516;1.5038;0.0;18.6;44.76;-7.68;48.17;65.64;156.84;5.0;982.24;59.173;;;;NaN;;;;;0 / 0;212510;2022-10-31 17:20:54:027
-0.4788;-9.9913;-3.6081;-1.2345;-9.4877;2.1516;-2.8357;-6.9036;-9.0137;0.4875;1.1452;-0.0942;0.0;26.52;35.76;-18.12;234.97;78.7;12.26;5.0;982.2;70.04;;;;NaN;;;;;0 / 0;213010;2022-10-31 17:20:54:527
-5.1622;-5.8876;-5.8086;-1.8922;-8.7767;-3.9444;-4.8167;9.4423;-5.0461;-0.7795;-1.5206;1.4806;0.0;17.1;44.46;-7.08;43.86;64.44;158.12;5.0;982.29;65.234;;;;NaN;;;;;0 / 0;213514;2022-10-31 17:20:55:031
-1.1468;-16.9156;-4.1563;-0.9399;-9.4531;2.4341;0.7101;-5.3149;-8.9658;0.584;2.1849;0.5502;0.0;25.62;37.2;-17.04;252.34;79.54;-3.17;5.0;982.3;69.355;;;;NaN;;;;;0 / 0;214009;2022-10-31 17:20:55:526
-7.6761;-1.7047;-6.5149;-2.1231;-8.9509;-3.3977;-5.2777;-5.5487;-4.3646;-0.8644;1.3578;1.3077;0.0;22.92;41.7;-5.58;64.79;65.89;148.0;5.0;982.4;66.179;;;;NaN;;;;;0 / 0;214513;2022-10-31 17:20:56:030
0.067;-16.4129;-7.9778;-1.0032;-9.4769;2.3136;7.2261;-4.994;-6.8674;-3.3579;-2.0606;-0.732;0.0;27.84;35.7;-14.88;233.1;75.1;23.44;5.0;982.29;70.014;;;;NaN;;;;;0 / 0;215010;2022-10-31 17:20:56:527
-8.1573;-4.4053;-6.7136;-2.1222;-8.9642;-3.363;-4.6298;-7.147;-7.2077;-1.2761;-0.1816;0.874;0.0;22.44;42.66;-5.1;63.58;66.08;147.75;5.0;982.37;62.989;;;;NaN;;;;;0 / 0;215511;2022-10-31 17:20:57:028
3.7781;-14.3009;-3.7589;-0.8046;-9.7659;0.3881;1.0464;-7.4898;7.4675;-2.2407;0.0475;-0.3984;0.0;28.56;35.82;-16.44;225.66;75.94;27.37;5.0;982.32;65.737;;;;NaN;;;;;0 / 0;216010;2022-10-31 17:20:57:527
-9.4311;-19.4295;-9.7495;-3.4389;-8.1861;-4.1631;9.1159;-1.1612;7.9507;-1.9725;-3.5755;3.0432;0.0;21.0;43.32;-6.42;65.18;69.27;148.47;5.0;982.4;67.464;;;;NaN;;;;;0 / 0;216511;2022-10-31 17:20:58:028
-2.162;-15.9915;2.071;-1.0522;-9.7227;0.7289;-1.1481;-9.6158;10.7229;-1.777;0.6235;0.0878;0.0;29.04;34.8;-16.8;224.79;74.92;27.03;5.0;982.34;60.389;;;;NaN;;;;;0 / 0;217010;2022-10-31 17:20:58:527
-0.1484;-5.5381;1.0965;-3.5246;-8.0099;-4.4258;12.9725;-6.2047;3.5424;2.992;1.3077;-1.5652;0.0;22.5;42.36;-2.82;53.97;54.76;141.47;5.0;982.4;65.268;;;;NaN;;;;;0 / 0;217510;2022-10-31 17:20:59:027
-5.8062;-17.3729;8.7631;-0.9976;-9.6337;1.5386;4.2465;-4.2219;4.6364;-3.2742;-0.3538;-1.0197;0.0;26.88;39.66;-9.36;231.02;79.22;32.96;5.0;982.28;63.382;;;;NaN;;;;;0 / 0;218010;2022-10-31 17:20:59:527
13.7957;-13.6377;2.5642;-3.3344;-8.1837;-4.252;9.9619;-37.9421;3.9767;0.9762;0.5521;-0.385;0.0;23.64;42.72;-3.3;57.32;56.56;141.9;5.0;982.38;61.384;;;;NaN;;;;;0 / 0;218513;2022-10-31 17:21:00:030
5.0616;-16.5709;4.8243;-0.0939;-9.7381;-1.1534;-5.8919;-8.4273;2.1398;-2.0953;0.797;-1.1064;0.0;27.3;37.74;-12.36;228.91;76.71;30.97;5.0;982.36;63.493;;;;NaN;;;;;0 / 0;219010;2022-10-31 17:21:00:527
-3.8714;-38.3587;-0.7614;-1.8571;-8.8396;-3.8186;6.6575;-10.2284;8.3126;0.8937;1.4678;-1.2048;0.0;24.24;41.4;-3.18;63.82;61.69;149.18;5.0;982.45;65.396;;;;NaN;;;;;0 / 0;219510;2022-10-31 17:21:01:027
-5.9164;-18.7209;1.2833;-0.1857;-9.7572;-0.9653;-4.7299;-10.1344;1.7554;-2.2859;-0.7698;-0.6428;0.0;28.2;37.14;-13.62;231.9;76.18;25.43;5.0;982.33;58.678;;;;NaN;;;;;0 / 0;220010;2022-10-31 17:21:01:527
4.7166;-19.645;4.3934;-2.661;-8.3069;-4.4815;4.1957;-4.9022;7.9866;3.4728;3.0316;-2.1742;0.0;20.34;44.76;-6.0;45.9;57.89;149.3;5.0;982.61;69.942;;;;NaN;;;;;0 / 0;220510;2022-10-31 17:21:02:027
-7.1039;-19.9994;1.6975;-0.1898;-9.7735;-0.7823;-4.9796;-9.0024;-2.0309;-2.959;-4.3678;-0.118;0.0;25.2;40.86;-2.46;91.32;85.29;166.36;5.0;982.24;57.973;;;;NaN;;;;;0 / 0;221010;2022-10-31 17:21:02:527
2.0925;-10.9298;-0.7183;-3.1488;-7.9655;-4.7755;1.6668;2.3508;5.5464;3.7562;1.943;-2.7203;0.0;20.28;43.2;-4.98;44.88;54.32;146.6;5.0;982.88;66.717;;;;NaN;;;;;0 / 0;221510;2022-10-31 17:21:03:027
-5.313;-17.5333;0.5363;-0.3898;-9.219;-3.3208;2.0633;-4.1194;2.5379;-2.6237;-0.1779;0.254;0.0;24.3;40.5;-6.72;89.33;88.46;161.88;5.0;982.18;58.988;;;;NaN;;;;;0 / 0;222011;2022-10-31 17:21:03:528
-2.3918;-3.8403;2.9113;-0.223;-9.4378;-2.655;-0.8113;3.4208;1.9032;3.846;3.5551;-2.2659;0.0;22.56;42.06;-4.08;49.74;52.96;148.18;5.0;982.83;68.332;;;;NaN;;;;;0 / 0;222510;2022-10-31 17:21:04:027
2.3703;-11.0926;0.9433;-0.5233;-9.2389;-3.2462;2.3358;-5.3923;0.9765;-3.9242;-1.6782;0.761;0.0;24.42;39.54;-6.72;184.72;89.0;69.15;5.0;982.18;56.964;;;;NaN;;;;;0 / 0;223010;2022-10-31 17:21:04:527
-3.2178;-3.3854;-0.3256;-0.5977;-9.3655;-2.8461;-0.1804;4.6609;1.0768;2.1716;2.5655;-0.016;0.0;18.06;41.58;-13.44;43.91;72.75;168.14;5.0;982.73;66.61;;;;NaN;;;;;0 / 0;223510;2022-10-31 17:21:05:027
3.5554;-14.7752;-3.1292;-0.3899;-9.3255;-3.0087;1.0364;-4.7646;7.6223;-3.0873;-3.5969;-0.1461;0.0;23.04;40.98;0.66;68.51;71.98;172.62;5.0;982.18;58.719;;;;NaN;;;;;0 / 0;224014;2022-10-31 17:21:05:531
0.8475;-6.9483;-1.7214;-1.3364;-9.0883;-3.4331;7.0971;-2.4568;4.1897;3.0122;2.4415;0.3847;0.0;16.14;41.7;-12.18;42.85;67.93;158.73;5.0;982.71;67.945;;;;NaN;;;;;0 / 0;224511;2022-10-31 17:21:06:028
-5.4088;-14.5475;-0.7518;-1.0267;-8.3933;-4.9668;5.2644;12.1282;7.1431;-4.16;-5.7001;-0.9201;0.0;23.4;42.06;-1.26;73.01;80.1;177.04;5.0;982.17;67.164;;;;NaN;;;;;0 / 0;225010;2022-10-31 17:21:06:527
2.7126;-14.1309;-0.7494;-0.0909;-9.7901;-0.5626;0.0861;2.2552;3.1531;3.4282;3.5478;-0.9366;0.0;17.52;44.16;-10.14;45.11;63.13;152.86;5.0;982.7;68.573;;;;NaN;;;;;0 / 0;225510;2022-10-31 17:21:07:027
2.8132;4.6926;4.9563;-0.9871;-8.6449;-4.5234;2.8977;6.119;7.6311;-2.7086;-3.8352;-0.3716;0.0;25.2;40.98;-1.86;88.41;84.13;167.35;5.0;982.25;64.827;;;;NaN;;;;;0 / 0;226010;2022-10-31 17:21:07:527
-3.1532;-4.4604;4.3144;0.0504;-9.7707;-0.8375;-0.6059;3.4018;0.531;2.8601;3.461;-1.0948;0.0;17.16;39.54;-18.0;35.42;85.09;-176.56;5.0;982.69;65.816;;;;NaN;;;;;0 / 0;226510;2022-10-31 17:21:08:027
4.0031;1.0056;2.9712;-0.4197;-8.9504;-3.9856;3.7692;1.8129;5.4437;-4.1368;-3.9757;-0.3783;0.0;22.38;42.72;2.88;59.41;65.88;173.99;5.0;982.21;63.479;;;;NaN;;;;;0 / 0;227010;2022-10-31 17:21:08:527
-0.9888;-4.2665;0.431;-0.2005;-9.7012;-1.4201;-1.236;8.1043;1.5398;3.2107;3.9833;-0.2824;0.0;19.02;40.2;-15.6;48.09;81.59;171.96;5.0;982.6;66.667;;;;NaN;;;;;0 / 0;227510;2022-10-31 17:21:09:027
2.5283;-6.1031;2.2505;-2.2015;-8.4705;-4.4242;0.6644;9.1648;7.4888;0.7795;-1.2934;-0.6477;0.0;24.54;41.46;-0.54;70.3;73.05;170.35;5.0;982.3;60.217;;;;NaN;;;;;0 / 0;228010;2022-10-31 17:21:09:527
-0.984;-3.4453;0.1293;-0.1366;-9.757;0.9756;-0.8522;4.3482;-3.2644;1.6561;2.3089;-0.1718;0.0;17.22;40.62;-15.78;48.89;76.83;160.79;5.0;982.67;61.382;;;;NaN;;;;;0 / 0;228510;2022-10-31 17:21:10:027
-0.1197;0.261;2.0039;-2.0125;-8.5729;-4.3156;3.9159;10.0837;8.8263;0.2981;-2.5102;-0.4271;0.0;21.66;42.3;-3.66;69.71;77.47;167.46;5.0;982.33;61.465;;;;NaN;;;;;0 / 0;229009;2022-10-31 17:21:10:526
0.1437;-4.6783;-1.6592;-0.1066;-9.8048;0.1561;1.0834;0.8741;0.2629;2.3225;2.8147;-0.7741;0.0;19.08;38.52;-18.6;190.98;88.9;34.32;5.0;982.69;68.682;;;;NaN;;;;;0 / 0;229510;2022-10-31 17:21:11:027
1.324;1.8962;4.8339;-1.4522;-8.5792;-4.5231;4.6653;11.5887;5.6699;-1.4606;-3.2939;0.2204;0.0;23.7;41.34;-1.5;58.35;61.03;162.2;5.0;982.4;58.741;;;;NaN;;;;;0 / 0;230010;2022-10-31 17:21:11:527
1.4988;-8.9905;0.8619;-0.4248;-9.793;0.2948;4.9786;-2.6117;8.5258;3.1631;1.9974;-0.8193;0.0;20.94;37.74;-20.52;169.0;86.98;55.24;5.0;982.72;69.226;;;;NaN;;;;;0 / 0;230510;2022-10-31 17:21:12:027
3.1915;3.2154;2.7414;-1.6898;-8.8936;-3.7707;2.8103;8.7428;2.4515;2.6652;-0.1468;-1.71;0.0;22.56;43.2;0.42;58.68;65.2;167.98;5.0;982.34;62.935;;;;NaN;;;;;0 / 0;231010;2022-10-31 17:21:12:527
2.6432;-12.3544;1.4222;-0.1028;-9.6396;1.7991;-0.072;1.0322;-4.4974;1.4471;2.5191;0.3096;0.0;19.5;40.56;-18.66;70.48;86.24;150.74;5.0;982.67;69.894;;;;NaN;;;;;0 / 0;231510;2022-10-31 17:21:13:027
-1.2402;-1.6472;-2.4684;-2.102;-8.7598;-3.8753;-0.3425;7.4909;4.2679;1.7996;0.0951;-0.9641;0.0;19.32;44.82;-1.5;54.53;70.05;170.97;5.0;982.6;62.496;;;;NaN;;;;;0 / 0;232011;2022-10-31 17:21:13:528
-0.3879;-6.3258;-0.9313;0.066;-9.7552;1.0007;-1.7539;5.1871;-1.8147;2.1918;3.2258;0.0964;0.0;18.96;39.0;-22.02;230.87;84.13;-3.77;5.0;982.53;70.279;;;;NaN;;;;;0 / 0;232510;2022-10-31 17:21:14:027
-1.3072;-0.4956;1.221;-2.1553;-8.5172;-4.3567;2.4642;8.6585;8.7621;0.6212;-1.6409;-0.1975;0.0;19.14;44.28;-3.78;46.88;60.29;153.68;5.0;982.59;65.076;;;;NaN;;;;;0 / 0;233010;2022-10-31 17:21:14:527
-1.415;-3.9983;-2.5115;-0.171;-9.7954;0.4363;-6.6696;7.0325;-1.0301;1.3696;1.2533;0.3187;0.0;17.52;39.6;-20.1;202.15;87.26;21.4;5.0;982.53;69.17;;;;NaN;;;;;0 / 0;233510;2022-10-31 17:21:15:027
1.5538;2.4852;5.7751;-1.4205;-9.2656;-2.8809;-4.3163;2.3341;-5.104;-0.0489;-2.1828;-0.0356;0.0;19.2;43.74;-2.16;47.44;61.42;160.15;5.0;982.59;68.372;;;;NaN;;;;;0 / 0;234010;2022-10-31 17:21:15:527
-1.6975;-6.218;0.2131;-0.6001;-9.6442;1.6729;1.9768;0.9219;-4.9195;0.8027;2.6901;0.5368;0.0;14.76;38.58;-21.54;78.31;87.05;131.75;5.0;982.49;68.38;;;;NaN;;;;;0 / 0;234510;2022-10-31 17:21:16:027
-1.6975;-5.3466;-6.807;-1.6387;-8.9556;-3.6445;3.2069;8.5031;2.6748;3.0867;-0.495;-1.9806;0.0;14.88;45.48;-2.28;38.19;63.16;167.52;5.0;982.68;69.493;;;;NaN;;;;;0 / 0;235010;2022-10-31 17:21:16:527
2.5379;-10.3816;-3.1244;-0.4191;-9.7111;1.2996;-1.683;-0.139;-3.3587;1.2193;2.7689;0.9693;0.0;23.04;35.04;-20.64;215.18;82.0;17.87;5.0;982.58;71.896;;;;NaN;;;;;0 / 0;235510;2022-10-31 17:21:17:027
-1.968;2.2242;2.9305;-1.9083;-8.8551;-3.7571;4.3145;7.8663;1.8609;2.3793;-0.702;-1.9372;0.0;11.76;43.62;-12.48;34.29;64.55;153.07;5.0;982.72;66.414;;;;NaN;;;;;0 / 0;236011;2022-10-31 17:21:17:528
13.1636;-12.3544;-1.0606;-0.5238;-9.7102;1.2677;2.1303;0.6407;-3.3195;1.5143;3.7402;0.0768;0.0;22.08;34.02;-24.42;203.63;81.96;22.45;5.0;982.55;55.436;;;;NaN;;;;;0 / 0;236510;2022-10-31 17:21:18:027
-10.0775;-20.5428;-9.3018;-2.5049;-8.9333;-3.1768;-2.5184;-2.0732;-10.6021;-1.8216;-1.0337;0.3664;0.0;12.0;45.36;-10.8;32.54;62.06;152.02;5.0;982.71;67.781;;;;NaN;;;;;0 / 0;237011;2022-10-31 17:21:18:528
-0.7518;-12.5507;-2.1069;-2.0207;-9.4103;1.8795;12.4118;-1.735;-3.8691;0.2602;0.8343;0.3438;0.0;18.96;34.44;-28.2;163.57;82.04;48.19;5.0;982.53;61.671;;;;NaN;;;;;0 / 0;237510;2022-10-31 17:21:19:027
-7.8341;-11.198;-9.9865;-1.7812;-9.1559;-3.0277;-10.9802;-17.4278;-9.8103;-2.0666;-0.0447;1.2454;0.0;8.64;46.98;-11.22;26.26;62.29;151.64;5.0;982.68;67.617;;;;NaN;;;;;0 / 0;238009;2022-10-31 17:21:19:526
0.0766;-8.7008;-4.9826;-0.8819;-9.5301;2.1378;15.9804;-4.9863;-4.3836;0.7483;0.6883;0.0603;0.0;24.36;33.6;-24.42;210.15;76.36;22.42;5.0;982.6;61.459;;;;NaN;;;;;0 / 0;238510;2022-10-31 17:21:20:027
0.7326;-2.6576;-4.0318;-1.2977;-9.2177;-3.0854;-8.3536;-9.3547;-12.3697;-0.6365;-2.8052;1.1073;0.0;14.46;46.44;-8.46;42.4;70.04;157.19;5.0;982.76;66.847;;;;NaN;;;;;0 / 0;239010;2022-10-31 17:21:20:527
-0.146;-14.2147;-6.7256;-0.7462;-9.5958;1.88;3.9162;-1.2598;-5.3253;0.8051;3.5154;0.7915;0.0;25.74;35.88;-19.74;219.8;78.1;21.65;5.0;982.56;60.73;;;;NaN;;;;;0 / 0;239510;2022-10-31 17:21:21:027
-8.4614;0.9146;-6.8334;-3.514;-8.0685;-4.3267;6.1022;-41.785;6.2134;-0.9963;-0.5609;1.3883;0.0;15.48;44.7;-8.22;45.87;71.31;158.88;5.0;982.68;67.744;;;;NaN;;;;;0 / 0;240010;2022-10-31 17:21:21:527
7.4846;-12.6034;-1.4269;-1.1623;-9.5097;2.0942;-1.5192;-5.4044;-7.7353;-1.138;1.0322;0.0744;0.0;23.7;36.9;-20.82;225.99;80.25;11.43;5.0;982.55;68.973;;;;NaN;;;;;0 / 0;240510;2022-10-31 17:21:22:027
-10.2379;-28.5972;-4.93;-2.2579;-8.8665;-3.5294;-2.708;4.2481;-6.9456;-2.5687;-0.3239;0.8386;0.0;14.1;44.4;-9.06;38.46;63.92;153.02;5.0;982.71;63.103;;;;NaN;;;;;0 / 0;241010;2022-10-31 17:21:22:527
0.1413;-10.53;-2.9161;-1.1425;-9.5567;1.8801;12.3428;-3.4561;-2.9408;0.4276;0.7457;-0.2769;0.0;25.38;35.16;-19.5;209.14;77.04;31.28;5.0;982.54;69.861;;;;NaN;;;;;0 / 0;241510;2022-10-31 17:21:23:027
-2.1308;-3.0933;-4.2162;-1.8806;-9.0348;-3.3175;-5.8554;-8.0005;-5.989;-0.4936;-2.5945;0.7793;0.0;14.16;43.74;-6.96;43.7;67.12;150.45;5.0;982.87;65.919;;;;NaN;;;;;0 / 0;242009;2022-10-31 17:21:23:526
2.9113;-13.6281;-1.7741;-0.546;-9.6696;1.5398;0.6394;-0.5899;-3.8311;0.8876;1.7139;0.9363;0.0;22.8;32.16;-22.32;212.26;80.41;19.52;5.0;982.64;69.834;;;;NaN;;;;;0 / 0;242510;2022-10-31 17:21:24:027
-6.0385;-27.1009;-11.6265;-2.0729;-8.7275;-3.9627;-2.3013;3.3954;-4.8051;-1.4679;-0.1993;0.3798;0.0;5.52;51.42;-6.48;16.7;62.33;156.09;5.0;982.81;63.379;;;;NaN;;;;;0 / 0;243010;2022-10-31 17:21:24:527
0.4525;-10.2571;-4.6208;-0.6865;-9.6774;1.4307;2.815;-1.0226;-4.809;0.4765;1.8715;0.5533;0.0;4.62;51.06;-16.92;325.08;88.99;-127.04;5.0;982.64;67.717;;;;NaN;;;;;0 / 0;243510;2022-10-31 17:21:25:027
-0.7254;-2.9832;0.9553;-1.978;-8.5863;-4.3051;0.8718;7.1306;2.6291;2.4392;0.0725;-1.432;0.0;22.14;39.66;10.68;68.51;58.91;168.25;5.0;982.77;67.088;;;;NaN;;;;;0 / 0;244010;2022-10-31 17:21:25:527
-2.0901;-6.0481;1.2929;-0.1951;-9.8047;-0.01;-1.1959;2.5619;-0.4544;1.5211;1.8117;0.2705;0.0;27.42;37.86;-15.48;147.23;88.86;92.95;5.0;982.7;60.268;;;;NaN;;;;;0 / 0;244510;2022-10-31 17:21:26:027
-0.4453;-4.3239;2.0039;-1.3703;-8.282;-5.0696;2.3232;4.5733;5.5772;-1.8949;-2.564;0.3456;0.0;28.5;47.22;10.92;68.67;57.62;164.87;5.0;982.63;67.26;;;;NaN;;;;;0 / 0;245009;2022-10-31 17:21:26:526
1.9848;-7.9299;-0.7374;-0.8642;-9.1835;-3.3297;-0.9866;2.3573;3.5212;2.0342;2.5808;0.7005;0.0;24.3;49.98;2.34;66.08;69.46;165.45;5.0;982.89;67.107;;;;NaN;;;;;0 / 0;245510;2022-10-31 17:21:27:027
-0.7566;-9.7255;-0.4429;-0.5403;-9.2142;-3.3131;2.4556;-0.4252;5.8797;-2.1924;-5.2713;-0.2023;0.0;26.34;44.4;7.08;118.29;85.27;159.87;5.0;982.61;60.075;;;;NaN;;;;;0 / 0;246011;2022-10-31 17:21:27:528
2.2122;-4.4077;0.5124;-1.7895;-9.0812;-3.2402;6.2643;2.3987;-0.6384;0.5614;1.0218;-1.2341;0.0;30.84;39.54;1.02;90.9;70.68;154.03;5.0;982.56;62.264;;;;NaN;;;;;0 / 0;246510;2022-10-31 17:21:28:027
1.7741;-9.2515;-0.4238;-0.1668;-9.7237;-1.262;0.7438;0.283;0.6347;0.4404;0.2491;-0.1113;0.0;28.8;37.86;-6.6;81.34;80.26;162.73;5.0;982.68;68.041;;;;NaN;;;;;0 / 0;247010;2022-10-31 17:21:28:527
-2.3104;-8.732;-2.4972;-1.1013;-9.0081;-3.7163;-0.2155;-0.241;5.7993;-1.5797;-1.7112;1.0029;0.0;37.2;29.16;2.28;89.93;66.72;163.49;5.0;982.72;53.473;;;;NaN;;;;;0 / 0;247510;2022-10-31 17:21:29:027
-1.2091;-8.313;-1.2378;-2.5748;-9.405;-1.0421;2.9364;-0.2727;0.6997;0.2034;0.0652;-0.5909;0.0;38.46;24.72;-9.3;136.08;73.55;112.03;5.0;982.87;55.765;;;;NaN;;;;;0 / 0;248010;2022-10-31 17:21:29:527
-0.486;-9.4598;0.6057;-1.2512;-9.7199;-0.3565;0.8179;0.0806;0.7851;0.0153;-0.0588;-0.0252;0.0;35.76;27.72;-11.76;141.94;82.38;105.9;5.0;982.65;63.134;;;;NaN;;;;;0 / 0;248509;2022-10-31 17:21:30:026
-1.0702;-9.6633;0.9792;-0.768;-9.7599;0.57;0.0306;0.0726;0.0884;-0.0886;0.111;-0.0454;0.0;33.06;28.5;-14.22;194.42;84.56;53.75;5.0;982.67;55.045;;;;NaN;;;;;0 / 0;249010;2022-10-31 17:21:30:527
-0.6656;-9.6226;0.3591;-0.7826;-9.7621;0.5093;0.1481;-0.009;-0.1693;-0.0403;-0.0075;-0.005;0.0;33.78;28.56;-12.42;197.21;84.12;54.84;5.0;982.62;53.985;;;;NaN;;;;;0 / 0;249510;2022-10-31 17:21:31:027
-0.7949;-9.6848;0.2849;-0.7512;-9.7709;0.3678;0.0497;0.086;-0.0661;-0.014;0.0121;-0.005;0.0;33.18;29.04;-12.12;188.1;85.02;62.52;5.0;982.67;55.637;;;;NaN;;;;;0 / 0;250011;2022-10-31 17:21:31:528
-0.6632;-9.7016;0.3711;-0.6693;-9.7764;0.3808;-0.0298;0.0987;0.0454;0.0391;-0.0276;-0.0026;0.0;33.18;28.68;-12.96;188.72;85.5;60.36;5.0;982.69;57.181;;;;NaN;;;;;0 / 0;250510;2022-10-31 17:21:32:027
-0.6249;-9.6825;0.5243;-0.6636;-9.7709;0.5086;0.0579;-0.0217;-0.013;0.0415;-0.0148;-2.0E-4;0.0;35.04;28.14;-10.62;201.45;85.11;52.53;5.0;982.68;60.535;;;;NaN;;;;;0 / 0;251010;2022-10-31 17:21:32:527
-0.6488;-9.6537;0.6345;-0.6464;-9.7659;0.6155;0.0047;-0.041;0.0094;0.0244;-0.024;-8.0E-4;0.0;34.68;28.44;-13.74;203.43;84.78;46.4;5.0;982.67;59.697;;;;NaN;;;;;0 / 0;251510;2022-10-31 17:21:33:027
-0.6249;-9.7136;0.5459;-0.6371;-9.7669;0.6096;-0.0093;0.0437;-0.047;-0.0293;0.0115;-2.0E-4;0.0;34.14;28.56;-15.0;202.05;84.77;45.75;5.0;982.74;54.475;;;;NaN;;;;;0 / 0;252010;2022-10-31 17:21:33:527
-0.6129;-9.7232;0.5028;-0.6323;-9.77;0.5626;0.0122;0.0708;-0.0095;0.0031;0.0023;-2.0E-4;0.0;33.84;28.8;-14.82;199.01;85.04;48.51;5.0;982.75;53.026;;;;NaN;;;;;0 / 0;252509;2022-10-31 17:21:34:026
-0.6393;-9.7543;0.5602;-0.5752;-9.7743;0.5496;-0.1024;0.1086;0.116;-0.0086;-0.0203;-8.0E-4;0.0;34.44;29.1;-13.98;202.17;85.25;46.93;5.0;982.74;53.335;;;;NaN;;;;;0 / 0;253010;2022-10-31 17:21:34:527
-0.6153;-9.7112;0.4286;-0.5803;-9.778;0.4729;0.0033;0.1195;0.006;-0.022;-0.0258;-0.0142;0.0;34.2;29.4;-13.86;197.91;85.62;50.82;5.0;982.7;53.481;;;;NaN;;;;;0 / 0;253510;2022-10-31 17:21:35:027
-0.5148;-9.6298;0.5818;-0.4793;-9.7873;0.3867;-0.0953;0.1288;-0.0252;0.0061;-0.1413;-0.0863;0.0;33.42;29.88;-14.28;196.81;86.4;51.1;5.0;982.71;55.534;;;;NaN;;;;;0 / 0;254010;2022-10-31 17:21:35:527
-0.1101;-9.9602;-0.8045;0.2338;-9.7961;0.3902;-0.5331;0.6212;-0.5985;0.2334;-0.0319;-0.1498;0.0;28.86;30.6;-17.82;271.51;87.34;-30.93;5.0;982.77;56.812;;;;NaN;;;;;0 / 0;254510;2022-10-31 17:21:36:027
1.2426;-8.9953;-0.0982;0.4057;-9.5997;1.9624;0.6957;0.1926;-1.8691;0.5376;0.819;0.1287;0.0;34.98;27.48;-15.24;274.47;80.99;-21.29;5.0;982.82;58.009;;;;NaN;;;;;0 / 0;255010;2022-10-31 17:21:36:527
0.7015;-4.9084;0.3089;-1.59;-8.2087;-5.1243;2.0329;4.7467;5.5888;-1.2199;-2.0918;-0.137;0.0;37.8;32.7;-5.34;84.87;76.67;166.06;5.0;982.63;71.449;;;;NaN;;;;;0 / 0;255510;2022-10-31 17:21:37:027
1.2306;-6.3689;0.2849;-0.5536;-9.7111;-1.2478;-0.653;0.5315;0.5535;1.6139;0.2766;-0.2219;0.0;30.42;46.5;-18.12;55.53;61.41;151.84;5.0;982.84;62.869;;;;NaN;;;;;0 / 0;256010;2022-10-31 17:21:37:527
-5.8876;-15.3043;1.652;-0.3135;-9.4714;-2.5227;1.3382;-4.9731;-0.312;-3.4679;-5.2053;-0.407;0.0;38.04;47.52;3.78;83.74;74.98;172.92;5.0;982.62;60.727;;;;NaN;;;;;0 / 0;256514;2022-10-31 17:21:38:031
3.6057;-13.4174;-1.3431;-1.2877;-9.0236;-3.6175;6.9455;-3.4768;4.9726;3.4263;2.7237;-2.3966;0.0;33.96;46.14;-8.04;67.39;66.95;160.41;5.0;982.91;67.081;;;;NaN;;;;;0 / 0;257013;2022-10-31 17:21:38:530
2.976;-14.3847;-2.3391;-0.2081;-9.7529;-1.0037;-5.251;-8.2186;-2.1207;-2.9908;-2.0325;-0.8731;0.0;34.32;38.58;5.46;103.34;84.0;168.29;5.0;982.69;66.784;;;;NaN;;;;;0 / 0;257514;2022-10-31 17:21:39:031
3.4237;-10.9753;0.0503;-0.4763;-9.2525;-3.2146;-3.1581;5.4003;1.7876;2.6365;3.213;0.4262;0.0;32.88;36.84;-0.54;73.32;54.49;149.85;5.0;983.1;70.831;;;;NaN;;;;;0 / 0;258010;2022-10-31 17:21:39:527
-2.5235;-15.2732;4.7166;0.2235;-9.6635;-1.6545;-4.9186;-4.7715;3.0647;-3.0287;-1.7723;0.9125;0.0;31.5;29.04;-0.18;262.95;80.66;15.65;5.0;982.77;61.903;;;;NaN;;;;;0 / 0;258510;2022-10-31 17:21:40:027
-0.8021;0.5339;19.0656;-2.5731;-8.2228;-4.6834;4.6417;-7.807;0.6061;1.9016;2.1098;-1.3764;0.0;26.28;31.8;-10.92;62.42;61.76;156.16;5.0;983.31;63.162;;;;NaN;;;;;0 / 0;259010;2022-10-31 17:21:40:527
5.2939;-12.6034;2.9353;-0.1953;-9.8028;0.1924;-3.4583;-4.6872;4.9482;-2.0659;1.6217;-0.8309;0.0;30.72;36.0;-9.6;207.53;88.4;45.42;5.0;982.74;69.054;;;;NaN;;;;;0 / 0;259515;2022-10-31 17:21:41:032
-15.1056;-9.1821;6.7448;-3.4354;-7.8547;-4.7614;25.6375;-0.4606;4.9601;0.5486;0.1953;-0.9439;0.0;27.54;44.22;-8.88;55.72;53.22;144.19;5.0;983.42;65.226;;;;NaN;;;;;0 / 0;260019;2022-10-31 17:21:41:536
-5.6482;-18.7185;0.3903;-0.6544;-9.6261;1.7547;5.177;-5.4052;-1.1801;-2.27;-0.4797;-0.6348;0.0;30.18;43.08;-16.32;233.29;78.99;20.45;5.0;982.74;59.55;;;;NaN;;;;;0 / 0;260514;2022-10-31 17:21:42:031
-6.2707;-2.885;5.1957;-2.3352;-8.5206;-4.2563;7.4065;-3.343;6.9545;3.2382;2.6095;-2.5603;0.0;28.8;43.02;-0.48;64.93;58.28;155.39;5.0;983.27;63.829;;;;NaN;;;;;0 / 0;261010;2022-10-31 17:21:42:527
0.9553;-16.851;7.0105;-0.0177;-9.7863;-0.6306;-1.3614;-8.7861;-3.4132;-3.529;-2.1119;-0.8315;0.0;27.84;37.02;-17.1;232.49;77.1;18.68;5.0;982.66;61.258;;;;NaN;;;;;0 / 0;261510;2022-10-31 17:21:43:027
20.7559;-17.5573;8.6529;-2.573;-8.3165;-4.5151;-5.0935;0.8223;-0.5083;1.0012;-2.4308;-0.407;0.0;25.92;49.38;-0.48;64.81;63.77;152.35;5.0;983.27;64.073;;;;NaN;;;;;0 / 0;262010;2022-10-31 17:21:43:527
6.1031;-13.2738;3.565;-0.0627;-9.8039;0.2236;-4.0577;-5.85;9.6384;-1.3671;0.8453;-1.129;0.0;26.64;45.6;-1.92;252.29;88.64;15.67;5.0;982.72;57.827;;;;NaN;;;;;0 / 0;262510;2022-10-31 17:21:44:027
0.1939;-6.0361;6.8693;-2.7387;-8.1052;-4.7932;22.6447;-13.4552;14.2913;1.73;2.3389;-0.7057;0.0;25.32;41.04;-4.14;56.47;55.74;150.26;5.0;983.3;62.748;;;;NaN;;;;;0 / 0;263010;2022-10-31 17:21:44:527
4.7932;-15.8694;6.218;-0.1669;-9.7772;0.7407;5.5494;-3.5899;3.3845;-2.4685;0.0139;-0.9635;0.0;25.26;37.32;-8.04;245.33;85.56;12.7;5.0;982.73;58.212;;;;NaN;;;;;0 / 0;263510;2022-10-31 17:21:45:027
17.926;-25.9636;7.3361;-0.4157;-9.5454;-2.2098;9.0088;-2.7085;6.3015;3.1679;2.8727;-1.9067;0.0;23.1;41.28;-3.18;53.93;54.7;145.28;5.0;982.99;64.367;;;;NaN;;;;;0 / 0;264010;2022-10-31 17:21:45:527
-2.2003;-14.9476;4.0797;-0.0864;-9.6375;-1.8112;-5.5115;-5.2071;4.6699;-1.653;-3.3966;0.0518;0.0;36.66;40.98;-10.32;242.6;82.93;19.21;5.0;982.76;61.674;;;;NaN;;;;;0 / 0;264510;2022-10-31 17:21:46:027
10.6066;-16.4751;7.5301;-1.4555;-9.2107;-3.0355;8.3439;-6.5174;7.7305;5.3536;5.6027;-3.5731;0.0;30.36;48.84;-3.66;60.71;57.5;146.85;5.0;982.97;70.148;;;;NaN;;;;;0 / 0;265009;2022-10-31 17:21:46:526
-8.064;-15.4025;1.1708;0.1978;-9.6362;-1.8096;-7.8811;-9.6928;1.1224;-3.0971;-0.2011;0.6406;0.0;26.76;46.62;-1.02;64.79;79.3;-173.76;5.0;982.77;60.073;;;;NaN;;;;;0 / 0;265510;2022-10-31 17:21:47:027
4.9778;-14.5954;5.4639;-1.7387;-8.6499;-4.2809;7.2337;-4.4131;7.8889;3.9022;2.8153;-2.7338;0.0;17.94;47.28;-8.22;40.92;61.89;157.9;5.0;982.9;67.504;;;;NaN;;;;;0 / 0;266010;2022-10-31 17:21:47:527
-7.0177;-18.4048;0.644;0.285;-9.7112;-1.3343;-7.5398;-8.6888;-3.1189;-3.3365;-0.5298;-0.443;0.0;25.62;42.42;0.54;68.2;82.0;-167.94;5.0;982.65;59.216;;;;NaN;;;;;0 / 0;266511;2022-10-31 17:21:48:028
0.826;-14.0926;4.8626;-0.0331;-9.7128;-1.3528;-3.053;6.7009;2.6074;2.5284;3.4934;-0.1095;0.0;21.48;42.6;-7.86;46.99;55.74;147.79;5.0;982.92;71.07;;;;NaN;;;;;0 / 0;267010;2022-10-31 17:21:48:527
3.3399;-6.1869;3.644;-0.5407;-8.9313;-4.0136;1.6061;-1.5197;2.1557;-4.0464;-3.6098;0.2259;0.0;23.94;41.16;-5.22;39.48;85.63;-145.82;5.0;982.69;63.377;;;;NaN;;;;;0 / 0;267510;2022-10-31 17:21:49:027
-2.6336;-2.9951;1.5562;-0.3332;-9.6106;-1.9221;-1.1009;8.8229;2.4752;2.8234;3.924;0.067;0.0;22.02;42.12;-8.7;49.23;54.46;144.39;5.0;982.88;70.954;;;;NaN;;;;;0 / 0;268010;2022-10-31 17:21:49:527
1.6735;-10.3887;1.1396;-0.2442;-9.1571;-3.5012;1.4724;-3.3122;5.4788;-4.1496;-4.8804;-0.2445;0.0;22.08;43.08;-0.9;55.93;69.03;176.01;5.0;982.7;62.27;;;;NaN;;;;;0 / 0;268510;2022-10-31 17:21:50:027
-2.5857;-1.8435;-0.0359;-0.5021;-9.3909;-2.7802;0.198;4.7916;2.8185;3.1398;2.965;-0.4308;0.0;14.58;43.02;-16.38;35.25;73.26;169.76;5.0;982.89;68.989;;;;NaN;;;;;0 / 0;269010;2022-10-31 17:21:50:527
1.4317;-11.6433;-2.4924;-0.1502;-9.2716;-3.1914;1.1606;-2.2568;7.1083;-4.1808;-5.2896;-0.3093;0.0;20.64;43.5;-0.48;57.43;70.99;177.31;5.0;982.68;65.399;;;;NaN;;;;;0 / 0;269510;2022-10-31 17:21:51:027
1.664;-4.3646;1.2091;0.5669;-9.789;-0.1583;-0.9476;-0.2885;2.2987;1.9829;3.0462;-0.6;0.0;15.12;42.78;-13.14;38.7;70.29;164.21;5.0;982.87;68.508;;;;NaN;;;;;0 / 0;270010;2022-10-31 17:21:51:527
0.6847;1.8172;3.0406;-1.4625;-8.1748;-5.2158;2.8655;11.1675;8.1726;-0.9303;-3.319;0.0121;0.0;22.92;41.4;-1.2;61.18;76.44;-174.94;5.0;982.71;64.27;;;;NaN;;;;;0 / 0;270514;2022-10-31 17:21:52:031
-1.2234;-6.9435;1.9872;0.1636;-9.7868;-0.602;-1.7054;4.7898;0.5541;2.0666;1.5887;-0.5548;0.0;19.02;42.84;-11.1;47.27;64.3;154.48;5.0;982.87;68.199;;;;NaN;;;;;0 / 0;271011;2022-10-31 17:21:52:528
3.4141;-0.2945;2.7916;-0.7426;-8.7642;-4.3368;3.2541;4.2128;7.9592;-2.6334;-2.9628;-0.0863;0.0;22.08;42.0;-0.78;53.1;63.34;170.28;5.0;982.68;65.537;;;;NaN;;;;;0 / 0;271510;2022-10-31 17:21:53:027
0.6369;-11.3847;0.5578;-0.0506;-9.7885;-0.5936;-0.4427;3.5561;1.3837;2.2113;3.0194;-0.7179;0.0;20.22;39.0;-18.66;47.74;86.52;175.13;5.0;982.89;66.155;;;;NaN;;;;;0 / 0;272011;2022-10-31 17:21:53:528
3.3112;0.4453;4.9132;-0.5171;-8.8524;-4.1877;0.9552;5.3066;9.4601;-3.0946;-3.655;0.513;0.0;20.94;43.68;-1.26;50.14;64.51;172.96;5.0;982.7;63.019;;;;NaN;;;;;0 / 0;272509;2022-10-31 17:21:54:026
-1.7214;-6.0744;0.7398;-0.0535;-9.7224;1.2811;0.6018;4.826;-4.1757;1.6444;2.9118;0.3658;0.0;17.58;40.62;-18.48;50.53;85.32;168.73;5.0;982.86;70.995;;;;NaN;;;;;0 / 0;273010;2022-10-31 17:21:54:527
-1.0678;-0.2322;0.5842;-1.9644;-8.461;-4.5521;2.1344;8.8776;7.7795;1.6261;0.1263;-1.0563;0.0;23.1;43.68;1.8;62.48;68.34;172.93;5.0;982.73;62.402;;;;NaN;;;;;0 / 0;273510;2022-10-31 17:21:55:027
-1.2402;-5.2268;-0.8571;0.1965;-9.7555;0.9811;-2.7702;6.9638;-4.3066;1.9083;3.742;0.5539;0.0;18.42;41.82;-17.52;34.89;81.01;-178.07;5.0;982.91;70.402;;;;NaN;;;;;0 / 0;274010;2022-10-31 17:21:55:527
-0.6416;1.4461;2.5163;-1.7252;-8.3716;-4.8073;3.2742;8.2256;9.9814;1.5693;-0.7998;-0.5683;0.0;20.34;43.74;-4.74;44.1;58.61;160.26;5.0;982.71;56.24;;;;NaN;;;;;0 / 0;274510;2022-10-31 17:21:56:027
1.403;-5.0138;-3.3136;0.4294;-9.748;0.9809;-2.1293;4.871;-4.2562;1.7886;3.4182;0.1959;0.0;22.92;37.38;-18.78;261.88;83.73;-23.64;5.0;982.88;70.898;;;;NaN;;;;;0 / 0;275010;2022-10-31 17:21:56:527
-0.0455;1.5395;2.8347;-1.7799;-8.378;-4.776;3.8796;9.0316;10.0819;0.9731;-0.9079;-0.567;0.0;21.48;43.14;-3.96;47.54;58.69;159.56;5.0;982.88;57.683;;;;NaN;;;;;0 / 0;275509;2022-10-31 17:21:57:026
-0.3567;-4.786;-1.9082;-0.4269;-9.597;1.9711;1.1715;0.0127;-4.8514;0.4997;2.1617;0.1837;0.0;19.92;38.94;-18.84;269.22;86.33;-37.55;5.0;982.85;66.128;;;;NaN;;;;;0 / 0;276010;2022-10-31 17:21:57:527
-4.8554;-7.7048;-9.1246;-1.1346;-9.0289;-3.6554;0.2296;5.9955;-0.5895;0.3506;-1.25;-0.4259;0.0;23.7;41.34;-0.54;54.59;58.44;163.85;5.0;982.86;65.26;;;;NaN;;;;;0 / 0;276510;2022-10-31 17:21:58:027
-1.3288;-8.0688;-0.8092;-0.0111;-9.6838;1.547;1.4404;1.5672;-5.3395;0.876;2.0548;0.7298;0.0;18.42;37.68;-18.72;37.14;87.67;-175.71;5.0;982.92;70.81;;;;NaN;;;;;0 / 0;277010;2022-10-31 17:21:58:527
1.2474;-2.5355;-2.2122;-1.4472;-8.5819;-4.5196;1.5478;6.5277;4.2778;2.0042;-0.4149;-1.8657;0.0;16.56;41.28;-4.32;43.05;61.06;162.24;5.0;982.87;64.518;;;;NaN;;;;;0 / 0;277511;2022-10-31 17:21:59:028
0.5698;-7.0249;-4.1563;0.5248;-9.7664;0.7158;-2.2079;4.4294;-3.2919;1.3598;2.7768;0.4378;0.0;20.7;35.82;-16.32;276.0;84.81;-36.25;5.0;982.91;66.505;;;;NaN;;;;;0 / 0;278010;2022-10-31 17:21:59:527
-0.1532;0.9505;1.6568;-1.7648;-8.1786;-5.1153;1.5852;9.5936;9.2764;1.5339;-0.0692;-0.6483;0.0;19.02;38.4;-2.16;46.97;56.51;160.97;5.0;982.86;68.905;;;;NaN;;;;;0 / 0;278513;2022-10-31 17:22:00:030
-1.9704;-5.2819;-3.7421;-0.5549;-9.6774;1.4867;4.5891;-1.9133;-5.2432;0.3134;1.5582;0.0664;0.0;19.26;33.12;-16.5;279.3;87.89;-46.64;5.0;982.92;70.697;;;;NaN;;;;;0 / 0;279010;2022-10-31 17:22:00:527
-9.1557;-21.8285;-6.8836;-1.5207;-8.749;-4.1608;-5.7173;0.0697;-6.0819;-0.1955;-1.961;0.5875;0.0;18.66;36.78;-0.78;46.31;53.75;159.92;5.0;982.87;63.193;;;;NaN;;;;;0 / 0;279510;2022-10-31 17:22:01:027
-3.6895;-8.6098;-2.8994;0.1074;-9.7251;1.2574;-0.3804;0.409;-2.725;0.7752;2.315;1.3835;0.0;15.06;33.48;-15.78;0.12;85.81;-136.98;5.0;982.88;66.491;;;;NaN;;;;;0 / 0;280009;2022-10-31 17:22:01:526
0.3615;-4.9036;-5.313;-1.2417;-8.818;-4.1075;0.363;7.2761;2.1778;1.9572;-0.9195;-1.9128;0.0;13.98;36.24;-6.96;40.39;64.05;163.18;5.0;982.83;66.202;;;;NaN;;;;;0 / 0;280510;2022-10-31 17:22:02:027
1.4533;-8.5332;-3.5793;0.4628;-9.7195;1.2194;1.3256;3.9875;-4.4396;1.3311;2.99;0.0707;0.0;20.88;30.24;-18.72;256.71;82.36;-20.79;5.0;982.98;61.164;;;;NaN;;;;;0 / 0;281010;2022-10-31 17:22:02:527
-0.5195;-0.5818;-0.0215;-1.5412;-8.3833;-4.8493;2.7502;8.0361;6.9993;1.7068;-0.0692;-0.7301;0.0;15.42;38.1;-7.32;37.32;58.74;162.37;5.0;982.92;66.602;;;;NaN;;;;;0 / 0;281511;2022-10-31 17:22:03:028
-1.8387;-4.7477;-3.3447;-0.3268;-9.5786;2.0768;6.6143;-1.3129;-5.2683;0.3879;1.1513;-0.0875;0.0;19.74;31.38;-21.0;268.99;84.57;-39.56;5.0;982.95;62.799;;;;NaN;;;;;0 / 0;282010;2022-10-31 17:22:03:527
-10.5061;-13.8531;-9.9506;-1.02;-9.0097;-3.7357;-5.6194;1.5179;-6.6507;0.0672;-3.0679;0.5857;0.0;21.06;39.54;-4.14;46.74;57.03;163.62;5.0;982.91;62.502;;;;NaN;;;;;0 / 0;282510;2022-10-31 17:22:04:027
2.2434;-10.609;-1.6424;0.0701;-9.6489;1.7504;4.0527;-1.2067;-7.6931;0.7563;1.8447;0.6278;0.0;20.52;35.46;-18.48;357.82;86.44;-128.25;5.0;982.94;69.68;;;;NaN;;;;;0 / 0;283014;2022-10-31 17:22:04:531
-0.4477;-0.7183;-2.0423;-1.515;-8.4376;-4.7625;-0.5943;7.6834;2.9046;2.2602;0.0658;-1.6782;0.0;16.2;41.4;-8.58;36.72;59.36;162.35;5.0;982.91;64.595;;;;NaN;;;;;0 / 0;283510;2022-10-31 17:22:05:027
0.079;-7.6929;-3.7397;0.1988;-9.7495;1.0384;-2.6624;3.7158;-4.0072;1.722;2.6626;0.3187;0.0;23.34;34.08;-20.04;246.3;83.81;-10.84;5.0;982.99;71.019;;;;NaN;;;;;0 / 0;284010;2022-10-31 17:22:05:527
1.0942;0.6129;0.1748;-1.7821;-8.2677;-4.9638;2.5148;10.1208;7.109;2.4367;0.1245;-1.4522;0.0;19.14;39.54;-6.84;43.08;57.47;160.25;5.0;982.93;65.175;;;;NaN;;;;;0 / 0;284510;2022-10-31 17:22:06:027
-0.929;-5.9451;-1.6496;-0.3751;-9.6506;1.7017;7.1606;-2.8905;-4.2324;0.1674;0.5399;0.1465;0.0;21.06;34.26;-19.8;262.68;86.85;-32.6;5.0;983.02;68.857;;;;NaN;;;;;0 / 0;285010;2022-10-31 17:22:06:527
-6.2779;-22.4726;-7.3337;-1.4077;-8.9052;-3.8582;-7.0992;-1.3782;-6.6335;-0.7874;-1.2536;0.6761;0.0;19.56;40.74;-3.12;43.41;55.05;163.43;5.0;982.91;63.302;;;;NaN;;;;;0 / 0;285510;2022-10-31 17:22:07:027
1.403;-10.5635;-2.7701;0.0012;-9.679;1.5771;0.6979;0.2695;-6.5405;0.5382;2.6712;0.265;0.0;19.02;34.32;-15.9;20.73;85.59;-152.92;5.0;983.05;70.686;;;;NaN;;;;;0 / 0;286010;2022-10-31 17:22:07:527
-1.6448;-5.3274;-5.8541;-1.0542;-8.6487;-4.501;3.3957;7.3798;1.9416;1.5302;-1.636;-1.038;0.0;15.78;37.26;-12.3;36.75;61.87;166.82;5.0;983.11;64.86;;;;NaN;;;;;0 / 0;286510;2022-10-31 17:22:08:027
1.4724;-9.1725;-2.4325;0.612;-9.7529;0.8226;2.2155;3.6665;-5.7044;1.2272;3.0572;0.425;0.0;23.88;31.92;-19.98;273.0;84.0;-36.65;5.0;983.01;68.053;;;;NaN;;;;;0 / 0;287010;2022-10-31 17:22:08:527
-2.1045;-0.9433;0.2705;-1.7892;-8.0363;-5.328;1.4971;7.8471;8.1914;1.3598;-0.5163;-1.0441;0.0;19.44;40.2;-5.94;41.36;55.03;161.44;5.0;983.01;64.023;;;;NaN;;;;;0 / 0;287510;2022-10-31 17:22:09:027
-1.4317;-4.9755;-1.8603;-0.056;-9.7258;1.2551;3.3049;-2.686;-6.379;0.2272;2.0872;0.1904;0.0;22.26;36.06;-19.38;346.38;85.47;-115.92;5.0;983.08;68.516;;;;NaN;;;;;0 / 0;288012;2022-10-31 17:22:09:529
-7.6186;-10.2475;-9.7375;-1.2198;-8.7301;-4.2975;1.5071;4.0901;0.8355;0.7001;-1.5719;-0.0258;0.0;22.26;42.42;-0.48;44.4;52.33;167.67;5.0;983.0;67.781;;;;NaN;;;;;0 / 0;288510;2022-10-31 17:22:10:027
1.2713;-9.4837;-5.9427;-0.0462;-9.7305;1.2186;-0.4614;-0.1818;-7.1158;0.8375;3.3908;0.4989;0.0;20.46;40.02;-19.38;43.12;83.06;176.66;5.0;983.03;63.521;;;;NaN;;;;;0 / 0;289011;2022-10-31 17:22:10:528
0.5818;-0.8667;-1.3192;-1.9421;-8.222;-4.9795;1.5591;8.4519;5.9755;2.7984;0.5747;-1.7246;0.0;20.16;44.64;-5.94;41.99;56.97;158.69;5.0;982.98;68.563;;;;NaN;;;;;0 / 0;289510;2022-10-31 17:22:11:027
-0.5387;-7.4726;-3.3758;0.0934;-9.7847;0.6484;-1.7286;2.6234;-2.322;1.7422;2.0316;0.1483;0.0;24.48;37.56;-19.2;244.17;86.17;-8.2;5.0;983.03;69.145;;;;NaN;;;;;0 / 0;290010;2022-10-31 17:22:11:527
0.1221;0.6416;2.5546;-1.6392;-7.8419;-5.6557;1.7398;8.2058;10.5279;1.1606;-1.0276;-0.4607;0.0;20.94;42.6;-0.66;43.02;53.1;163.84;5.0;982.95;67.198;;;;NaN;;;;;0 / 0;290510;2022-10-31 17:22:12:027
0.6823;-5.3394;0.7877;-0.1025;-9.6497;1.7445;1.0386;-1.996;-4.8665;0.7391;2.3334;0.4678;0.0;19.86;38.76;-18.0;330.98;86.3;-100.42;5.0;983.03;66.917;;;;NaN;;;;;0 / 0;291010;2022-10-31 17:22:12:527
-5.2532;-6.5269;-8.7248;-1.2686;-8.813;-4.1099;1.2063;6.1626;-0.1829;0.3085;-1.8517;-0.6489;0.0;24.96;38.28;1.98;56.93;55.0;166.9;5.0;983.04;65.222;;;;NaN;;;;;0 / 0;291510;2022-10-31 17:22:13:027
0.7877;-10.1278;-0.8882;0.0068;-9.7009;1.4363;2.1097;0.5308;-3.6605;0.9316;2.4751;0.7182;0.0;21.12;35.88;-16.08;40.9;86.63;-171.16;5.0;983.08;69.707;;;;NaN;;;;;0 / 0;292010;2022-10-31 17:22:13:527
-0.9912;-1.4748;-0.9002;-1.8136;-8.4021;-4.7207;-0.3316;7.1332;5.6497;2.3121;-0.2482;-1.8877;0.0;19.62;40.32;-7.14;46.53;58.96;158.98;5.0;983.03;67.41;;;;NaN;;;;;0 / 0;292510;2022-10-31 17:22:14:027
-0.1604;-7.1374;-2.8754;0.3313;-9.744;1.0559;-0.1924;3.9689;-5.0015;1.5388;3.213;0.3786;0.0;26.04;33.78;-15.48;264.83;83.52;-17.42;5.0;983.1;70.672;;;;NaN;;;;;0 / 0;293011;2022-10-31 17:22:14:528
-1.7142;-0.4046;2.0159;-2.0581;-8.0922;-5.143;1.8785;8.6453;8.9115;1.774;-0.44;-0.9458;0.0;23.4;39.0;-7.08;49.66;55.61;158.19;5.0;983.02;64.544;;;;NaN;;;;;0 / 0;293510;2022-10-31 17:22:15:027
-2.4253;-6.1893;-1.7597;-0.5106;-9.6175;1.8476;8.9026;-2.6938;-5.403;0.1796;0.4867;0.1226;0.0;27.0;32.58;-19.02;271.75;84.93;-31.81;5.0;983.11;70.051;;;;NaN;;;;;0 / 0;294009;2022-10-31 17:22:15:526
-13.6401;-35.4043;-15.0529;-1.8576;-8.7423;-4.0363;-7.528;-11.7623;-5.0356;-1.7324;-0.1553;1.1416;0.0;25.5;40.56;-6.6;49.61;53.86;161.46;5.0;983.06;64.368;;;;NaN;;;;;0 / 0;294510;2022-10-31 17:22:16:027
7.2308;-13.348;-3.4955;-0.6028;-9.6122;1.8471;0.3634;-2.2346;-3.966;0.8296;2.1098;0.5576;0.0;30.06;36.6;-20.16;313.33;87.05;-74.86;5.0;983.1;67.946;;;;NaN;;;;;0 / 0;295010;2022-10-31 17:22:16:527
-10.0943;-11.751;-13.992;-1.7107;-8.4723;-4.6328;-1.2581;-0.8007;-4.2572;-0.0965;-3.4124;0.6309;0.0;24.66;45.42;-8.4;50.44;59.76;159.73;5.0;983.11;66.638;;;;NaN;;;;;0 / 0;295511;2022-10-31 17:22:17:028
6.4694;-12.9098;-2.7653;-0.2924;-9.7453;1.0554;2.8398;-0.1933;-2.7888;0.9175;1.1471;0.2937;0.0;33.12;35.34;-19.02;229.24;83.59;15.49;5.0;983.12;70.686;;;;NaN;;;;;0 / 0;296010;2022-10-31 17:22:17:527
-8.6098;-14.7154;-14.6337;-1.4397;-8.1701;-5.2293;0.9848;1.3464;-0.948;-0.4325;-2.0533;-0.4326;0.0;21.24;48.96;-3.06;40.24;56.42;164.61;5.0;983.24;63.827;;;;NaN;;;;;0 / 0;296510;2022-10-31 17:22:18:027
-1.233;-10.0895;-2.1859;0.2439;-9.7995;0.2824;-0.9143;-5.4737;-4.3525;-2.8808;-1.9109;-0.8022;0.0;25.26;40.26;-17.7;251.97;85.46;-12.05;5.0;983.08;58.859;;;;NaN;;;;;0 / 0;297010;2022-10-31 17:22:18:527
-8.5955;-4.6471;1.0391;-2.8147;-7.3291;-5.8763;-2.8383;4.4058;-4.5675;-0.7037;-4.1308;1.4537;0.0;21.3;44.46;-1.14;43.8;53.79;159.86;5.0;983.27;67.981;;;;NaN;;;;;0 / 0;297510;2022-10-31 17:22:19:027
-4.0606;-13.4557;-7.0129;0.0653;-9.7832;0.6736;0.4997;-8.0661;-5.4716;-1.7532;1.1758;-0.2518;0.0;24.12;37.2;-15.9;305.42;88.05;-67.08;5.0;983.13;61.542;;;;NaN;;;;;0 / 0;298010;2022-10-31 17:22:19:527
-8.0376;-4.142;-9.6322;-2.2967;-7.5092;-5.8743;-6.0067;-6.9856;-5.9797;-1.3463;1.2906;0.4488;0.0;22.2;41.82;-2.28;43.57;49.97;158.65;5.0;983.3;65.031;;;;NaN;;;;;0 / 0;298511;2022-10-31 17:22:20:028
5.9427;-17.6626;-1.9489;0.1885;-9.7511;1.0251;5.6872;-5.5485;-5.9551;-0.1613;0.2137;-0.3337;0.0;25.14;37.98;-19.56;248.65;83.9;-10.42;5.0;983.14;63.299;;;;NaN;;;;;0 / 0;299010;2022-10-31 17:22:20:527
-7.4582;-22.4391;-12.5244;-2.0297;-7.9299;-5.4006;-4.0447;-14.6265;-4.5332;-1.0886;0.3047;0.943;0.0;18.96;45.12;2.22;41.14;53.96;159.4;5.0;983.29;69.245;;;;NaN;;;;;0 / 0;299510;2022-10-31 17:22:21:027
8.2555;-14.78;-3.6775;0.6719;-9.7169;-1.14;2.4764;-5.3025;0.0482;-2.0769;1.2002;-0.7173;0.0;21.06;40.8;-18.06;244.17;84.89;-7.83;5.0;983.12;61.763;;;;NaN;;;;;0 / 0;300011;2022-10-31 17:22:21:528
12.4932;-20.2124;11.2842;-2.663;-7.3162;-5.9626;1.3534;-16.7246;9.7287;1.4459;4.4091;-1.2714;0.0;20.64;42.3;2.76;47.83;53.85;162.2;5.0;983.31;64.29;;;;NaN;;;;;0 / 0;300511;2022-10-31 17:22:22:028
6.8764;-15.0817;-1.0965;0.3351;-9.8004;0.0956;1.075;-3.5763;-3.0883;-3.5277;-1.5884;-0.8383;0.0;23.94;37.14;-17.34;246.23;84.75;-5.39;5.0;983.06;66.153;;;;NaN;;;;;0 / 0;301010;2022-10-31 17:22:22:527
-8.9977;-6.819;-3.9887;-2.3558;-7.519;-5.8381;0.1795;4.1169;-6.94;-1.069;-3.3196;1.6302;0.0;22.08;38.7;4.98;50.7;50.06;158.02;5.0;983.32;66.781;;;;NaN;;;;;0 / 0;301509;2022-10-31 17:22:23:026
-2.9568;-14.265;-7.8461;-0.0554;-9.7587;0.9671;3.4552;-8.4546;-5.7052;-1.7568;0.75;-0.2781;0.0;20.28;34.98;-7.8;253.91;84.33;3.28;5.0;983.12;66.752;;;;NaN;;;;;0 / 0;302010;2022-10-31 17:22:23:527
-7.8796;-5.5022;-9.3425;-2.2736;-7.911;-5.3307;-5.867;-13.975;-4.1123;-1.4777;0.9504;0.7341;0.0;17.28;36.96;-2.46;42.42;53.77;156.9;5.0;983.21;64.937;;;;NaN;;;;;0 / 0;302510;2022-10-31 17:22:24:027
