sep=;
ACCELEROMETER X (m/s²);ACCELEROMETER Y (m/s²);ACCELEROMETER Z (m/s²);GRAVITY X (m/s²);GRAVITY Y (m/s²);GRAVITY Z (m/s²);LINEAR ACCELERATION X (m/s²);LINEAR ACCELERATION Y (m/s²);LINEAR ACCELERATION Z (m/s²);GYROSCOPE X (rad/s);GYROSCOPE Y (rad/s);GYROSCOPE Z (rad/s);LIGHT (lux);MAGNETIC FIELD X (μT);MAGNETIC FIELD Y (μT);MAGNETIC FIELD Z (μT);ORIENTATION Z (azimuth °);ORIENTATION X (pitch °);ORIENTATION Y (roll °);PROXIMITY (i);ATMOSPHERIC PRESSURE (hPa);SOUND LEVEL (dB);LOCATION Latitude : ;LOCATION Longitude : ;LOCATION Altitude ( m);LOCATION Altitude-google ( m);LOCATION Altitude-atmospheric pressure ( m);LOCATION Speed ( Kmh);LOCATION Accuracy ( m);LOCATION ORIENTATION (°);Satellites in range;Time since start in ms ;YYYY-MO-DD HH-MI-SS_SSS
0.1676;4.9132;7.4965;0.5473;3.9649;8.9527;0.6738;-0.1318;-0.7929;0.3104;-0.0216;-0.223;116.0;2.22;-6.36;-43.44;347.82;-23.23;-0.63;5.0;989.2;61.9;;;;NaN;;;;;0 / 0;11;2022-11-04 15:29:01:731
-0.6728;1.8459;10.3409;0.4503;4.0828;8.905;-0.8262;-1.8777;-1.2839;-0.006;1.2374;0.929;187.0;13.14;-4.44;-40.62;322.01;-24.44;3.3;5.0;989.07;67.23;;;;NaN;;;;;0 / 0;511;2022-11-04 15:29:02:231
26.95;-9.5173;6.5532;6.904;-6.9645;0.0121;17.3666;-3.6373;6.34;0.898;0.15;-1.1308;172.0;-35.16;25.56;-11.88;344.38;11.92;-78.84;5.0;989.14;60.062;;;;NaN;;;;;0 / 0;1011;2022-11-04 15:29:02:731
7.7024;0.6177;0.7159;9.413;-2.7173;-0.4266;-1.4592;4.8625;-5.6263;-0.378;-0.2715;-1.4203;14.0;-37.02;19.62;-19.86;273.13;26.42;-86.84;0.0;989.36;51.844;;;;NaN;;;;;0 / 0;1514;2022-11-04 15:29:03:234
8.5284;0.0503;-1.0846;5.9138;-7.822;0.1168;-0.2967;3.3736;0.453;-0.7788;-1.1157;6.5282;0.0;-31.38;29.22;-13.44;324.7;23.99;-83.62;2.0;989.18;57.895;;;;NaN;;;;;0 / 0;2015;2022-11-04 15:29:03:735
-2.8611;-3.5243;-1.9465;-2.9231;-9.0013;-2.5693;0.4092;-4.2772;-9.9694;0.1925;1.5611;-0.399;0.0;11.52;49.98;-1.56;35.62;66.42;147.32;2.0;989.08;66.423;;;;NaN;;;;;0 / 0;2511;2022-11-04 15:29:04:231
-1.008;-10.2666;-0.5124;-4.5387;-8.5642;1.4913;1.9602;-1.2284;-4.5033;0.5376;1.1128;0.904;0.0;22.02;36.24;-21.6;108.49;67.58;88.44;2.0;989.08;63.931;;;;NaN;;;;;0 / 0;3012;2022-11-04 15:29:04:732
-3.6966;-3.5913;1.3862;-1.6907;-8.8877;-3.7843;-1.915;4.4728;5.635;-0.3762;-2.9684;-0.4222;0.0;18.0;51.36;3.9;49.98;63.69;142.19;2.0;989.05;58.544;;;;NaN;;;;;0 / 0;3511;2022-11-04 15:29:05:231
-5.7153;-8.0759;-4.853;-4.2613;-8.7424;-1.2578;-2.2441;1.0854;-7.8644;0.6287;-2.3826;-0.1803;0.0;11.04;57.18;3.24;10.19;52.16;130.26;2.0;989.09;64.498;;;;NaN;;;;;0 / 0;4011;2022-11-04 15:29:05:731
-3.2729;-4.4005;-0.0575;-2.5197;-7.5309;-5.7539;-0.9831;2.4884;5.6725;0.1131;0.3846;-0.9475;0.0;-7.44;53.34;32.64;293.57;55.67;145.66;2.0;989.08;60.323;;;;NaN;;;;;0 / 0;4511;2022-11-04 15:29:06:231
-2.5738;-3.9648;0.091;-3.5596;-9.0667;-1.1378;0.3202;1.5175;-27.1745;0.5731;5.7456;-0.3299;0.0;-11.04;59.88;18.9;314.37;65.79;129.97;2.0;989.17;63.712;;;;NaN;;;;;0 / 0;5011;2022-11-04 15:29:06:731
-2.6121;-2.0423;-0.8164;-2.0311;-8.7678;-3.8949;1.6433;6.5579;1.0195;3.2963;1.3394;0.802;0.0;-26.4;49.2;27.36;301.64;46.28;165.5;2.0;989.15;65.897;;;;NaN;;;;;0 / 0;5511;2022-11-04 15:29:07:231
-1.2905;-1.0606;-2.7342;-2.7068;-9.2557;-1.7816;3.1977;6.6844;-4.6064;-0.8331;4.0694;-0.1113;0.0;-27.3;53.58;6.06;333.64;69.74;120.09;2.0;989.14;60.425;;;;NaN;;;;;0 / 0;6011;2022-11-04 15:29:07:731
-2.6432;-7.7336;-6.5125;-2.6155;-9.34;-1.447;-3.3655;0.4907;-9.2387;-0.6474;-0.9434;-0.6036;0.0;-31.5;51.48;5.4;314.98;59.48;160.29;2.0;989.25;60.062;;;;NaN;;;;;0 / 0;6511;2022-11-04 15:29:08:231
-2.3774;-8.4997;-1.3743;-2.1852;-9.1751;-2.6857;0.3585;2.3752;2.6355;-3.9162;-1.2446;-0.9402;0.0;-29.94;52.62;-5.34;0.71;73.46;98.43;2.0;989.19;60.464;;;;NaN;;;;;0 / 0;7011;2022-11-04 15:29:08:731
-5.167;-12.249;3.96;-2.3289;-9.4164;-1.4414;-1.4851;1.1729;3.6824;0.7747;0.6876;-0.4106;0.0;-31.14;55.26;-0.66;333.83;71.25;131.5;2.0;989.26;63.92;;;;NaN;;;;;0 / 0;7511;2022-11-04 15:29:09:231
0.0862;-16.0896;-2.0279;-1.1326;-7.8075;-5.825;-2.8322;-5.3825;-4.2142;0.4759;0.0822;-0.5144;0.0;-34.38;52.14;17.52;293.92;64.94;160.6;2.0;989.31;60.116;;;;NaN;;;;;0 / 0;8011;2022-11-04 15:29:09:731
-1.0415;-6.2611;7.6354;-1.9795;-9.4465;-1.7364;4.3977;-10.8713;-14.7148;-1.6383;-4.382;0.4813;0.0;-23.16;53.82;-3.36;341.23;73.9;127.56;2.0;989.37;67.441;;;;NaN;;;;;0 / 0;8512;2022-11-04 15:29:10:232
-0.7207;-7.6306;-3.7828;-0.8308;-8.1645;-5.3684;-2.7102;-12.6824;-1.7283;-3.4519;-3.9922;-0.2011;0.0;-26.04;49.8;12.0;307.31;72.1;142.66;2.0;989.45;56.788;;;;NaN;;;;;0 / 0;9011;2022-11-04 15:29:10:731
-2.8683;-18.819;2.557;-2.2012;-9.5554;-0.139;-1.201;-10.4248;-12.1532;0.9891;-1.6337;0.138;0.0;-17.4;47.34;-5.34;359.96;75.12;106.46;2.0;989.35;59.534;;;;NaN;;;;;0 / 0;9514;2022-11-04 15:29:11:234
-2.6288;-18.3378;-2.648;-1.1543;-9.1229;-3.4075;-2.9997;-16.5008;-3.0619;-3.4287;-6.5603;-0.7136;0.0;-15.54;44.82;-1.5;351.24;71.63;109.64;2.0;989.42;61.494;;;;NaN;;;;;0 / 0;10011;2022-11-04 15:29:11:731
-3.9696;-13.1756;6.5532;-0.9719;-9.4486;-2.439;-8.1695;3.1444;6.0518;0.7191;-2.3246;0.4587;0.0;-15.84;43.5;8.16;295.15;74.65;164.84;2.0;989.28;69.013;;;;NaN;;;;;0 / 0;10511;2022-11-04 15:29:12:231
-0.7278;-12.9817;-1.3264;-1.396;-9.5785;-1.5728;-0.9958;3.1809;-4.6812;-3.0066;2.6259;-0.9164;0.0;-3.18;46.5;7.8;330.87;77.64;84.31;2.0;989.41;58.321;;;;NaN;;;;;0 / 0;11012;2022-11-04 15:29:12:732
-0.6369;-11.6098;-2.7557;-1.569;-9.5811;-1.3821;0.0104;5.2572;-2.3313;7.0E-4;-0.1365;0.2229;0.0;2.82;44.64;23.94;228.06;69.53;156.77;2.0;989.36;65.545;;;;NaN;;;;;0 / 0;11511;2022-11-04 15:29:13:231
-2.1811;-5.3035;-2.5857;-1.0033;-9.446;-2.4365;4.1134;2.797;-5.8046;0.6794;6.511;0.5332;0.0;1.32;41.52;32.1;221.66;78.2;126.46;2.0;989.39;63.968;;;;NaN;;;;;0 / 0;12012;2022-11-04 15:29:13:732
1.9561;-11.9234;-0.2993;-1.2529;-9.5896;-1.6249;-1.1317;8.4044;-17.8645;-1.152;1.1103;-1.0544;0.0;5.58;42.96;30.96;176.84;72.86;170.8;2.0;989.37;68.45;;;;NaN;;;;;0 / 0;12511;2022-11-04 15:29:14:231
3.7733;-19.1518;-11.174;-0.1205;-8.5295;-4.8377;1.1308;-4.5551;-1.4187;-1.5772;-1.3588;-1.5065;0.0;-13.74;36.42;40.38;246.94;80.06;140.52;2.0;989.46;71.015;;;;NaN;;;;;0 / 0;13011;2022-11-04 15:29:14:731
-2.8276;-21.4311;-7.0393;-0.2254;-9.7734;-0.7744;-2.2166;-2.0255;6.3341;-0.4764;-2.4742;-0.041;0.0;-11.94;48.54;26.94;250.26;81.49;147.4;2.0;989.54;62.258;;;;NaN;;;;;0 / 0;13511;2022-11-04 15:29:15:231
-0.2418;-20.0496;-9.4526;1.5586;-7.6395;-5.9481;-3.7014;1.8548;2.2203;-0.2351;0.9313;0.488;0.0;-19.74;23.16;41.7;191.24;54.63;-160.52;2.0;989.71;63.909;;;;NaN;;;;;0 / 0;14012;2022-11-04 15:29:15:732
3.62;-18.8669;4.0989;0.6882;-9.6138;-1.8085;0.0061;-1.462;4.3847;-0.2455;2.5129;0.069;0.0;-12.96;34.86;23.1;201.37;81.65;-167.66;2.0;989.47;66.588;;;;NaN;;;;;0 / 0;14511;2022-11-04 15:29:16:231
-1.4413;-7.4463;-7.0728;2.2601;-7.3015;-6.1441;-2.6958;-3.2525;-2.4633;-1.028;0.0725;-0.8229;0.0;-15.48;22.8;33.48;182.06;59.73;-156.67;2.0;989.69;59.479;;;;NaN;;;;;0 / 0;15011;2022-11-04 15:29:16:731
-1.7286;-8.1023;4.0462;0.6556;-9.4792;-2.4258;-0.7083;-0.6557;5.7298;1.9958;-0.3826;-0.4741;0.0;-2.58;36.6;22.08;161.62;80.28;-159.2;2.0;989.66;55.817;;;;NaN;;;;;0 / 0;15511;2022-11-04 15:29:17:231
1.2139;-4.3191;-6.2994;2.6709;-8.0628;-4.9017;-5.4721;0.6166;-0.191;1.5107;-1.0363;1.2394;0.0;-9.42;27.66;31.74;176.34;59.23;-162.72;2.0;989.67;60.905;;;;NaN;;;;;0 / 0;16011;2022-11-04 15:29:17:731
-0.5052;-10.1373;1.7382;0.7133;-9.7804;-0.0751;-0.7756;-1.341;2.2011;3.1363;2.4249;-0.0758;0.0;1.98;39.36;9.42;91.23;87.05;-116.36;2.0;989.54;64.943;;;;NaN;;;;;0 / 0;16511;2022-11-04 15:29:18:231
0.5578;-8.5715;0.1939;1.909;-9.2276;-2.7159;-5.0909;10.1494;3.4725;1.5663;-0.2324;-1.0911;0.0;-8.34;45.78;14.34;308.85;66.38;-171.11;2.0;989.67;64.686;;;;NaN;;;;;0 / 0;17011;2022-11-04 15:29:18:731
1.4126;-8.052;-0.5746;0.1973;-9.7989;-0.336;0.0589;1.3327;-4.5171;0.7215;1.3418;0.171;0.0;-0.6;49.68;2.04;356.02;83.34;-159.85;2.0;989.57;71.464;;;;NaN;;;;;0 / 0;17511;2022-11-04 15:29:19:231
-1.1516;-8.4135;-2.8156;0.2685;-9.5601;-2.1684;0.1122;2.6645;-0.403;1.154;0.9307;-0.1351;0.0;-1.74;49.02;10.8;340.63;72.81;-176.7;2.0;989.65;50.702;;;;NaN;;;;;0 / 0;18011;2022-11-04 15:29:19:731
0.5866;-9.0025;-0.7254;-0.3548;-9.7961;-0.283;-0.1336;0.4632;-3.6171;0.763;0.8067;-0.0215;0.0;0.12;50.64;2.34;349.57;81.99;150.27;2.0;989.6;58.77;;;;NaN;;;;;0 / 0;18511;2022-11-04 15:29:20:231
-0.6416;-5.6602;-0.7638;-1.0487;-9.3564;-2.7436;0.2084;2.7003;0.6367;-0.4819;-0.3753;0.0714;0.0;3.06;43.56;12.48;198.93;85.44;152.36;2.0;989.63;62.401;;;;NaN;;;;;0 / 0;19012;2022-11-04 15:29:20:732
3.3567;-15.5438;2.2793;-0.7787;-9.5727;-1.9818;2.9215;-11.6645;5.0248;1.4301;1.6784;-0.909;0.0;9.12;33.06;15.06;137.81;72.98;167.74;2.0;989.62;64.856;;;;NaN;;;;;0 / 0;19511;2022-11-04 15:29:21:231
0.34;-16.0801;0.4334;-0.1042;-8.9213;-4.0705;1.1672;0.5916;0.9772;-2.163;-1.0363;0.4263;0.0;35.22;33.6;-8.82;57.68;81.6;-168.54;2.0;989.67;68.285;;;;NaN;;;;;0 / 0;20011;2022-11-04 15:29:21:731
4.3;-10.3002;3.0167;-1.0773;-9.6323;-1.4924;0.1915;0.0888;2.1603;0.0587;-3.2671;-0.3727;0.0;-6.3;46.38;-3.66;344.74;74.32;165.47;2.0;989.65;64.405;;;;NaN;;;;;0 / 0;20511;2022-11-04 15:29:22:231
1.391;-10.9226;-1.5107;-1.449;-9.3677;2.5135;5.4114;-1.9165;-4.1967;0.1155;0.4915;0.2021;0.0;-2.58;45.18;-19.98;101.62;72.72;26.73;2.0;989.63;63.711;;;;NaN;;;;;0 / 0;21011;2022-11-04 15:29:22:731
-0.5459;-8.969;-7.5899;-0.6322;-8.9908;-3.8646;1.7072;-4.8264;-7.8002;2.2682;2.2673;0.7024;0.0;-5.22;44.52;21.66;322.63;54.84;176.71;2.0;989.63;65.171;;;;NaN;;;;;0 / 0;21511;2022-11-04 15:29:23:231
1.5036;-7.2619;-3.4189;0.014;-9.7527;-1.0274;2.7825;2.0358;1.6571;-2.119;0.6198;0.659;0.0;-7.14;47.1;11.64;228.28;78.43;-166.61;2.0;989.78;60.401;;;;NaN;;;;;0 / 0;22011;2022-11-04 15:29:23:731
1.8268;-8.4997;4.2689;0.5757;-9.2972;-3.0662;1.3804;3.3664;6.0996;-0.4678;-6.3746;0.4184;0.0;-12.72;41.94;23.94;294.64;53.29;-176.06;2.0;989.79;63.214;;;;NaN;;;;;0 / 0;22511;2022-11-04 15:29:24:231
3.5961;-5.4782;-1.4533;1.2482;-8.513;-4.7053;3.1452;-4.4663;-2.1783;-3.2852;-1.1584;-1.7924;0.0;-19.38;35.64;28.02;210.75;81.86;-171.91;2.0;989.71;62.709;;;;NaN;;;;;0 / 0;23011;2022-11-04 15:29:24:731
-1.5179;-10.3337;-5.064;0.4486;-9.7146;-1.2632;2.4268;-0.6023;6.0301;-0.0097;2.1036;0.3054;0.0;-16.62;39.6;24.0;220.6;83.85;-179.67;2.0;989.64;61.31;;;;NaN;;;;;0 / 0;23512;2022-11-04 15:29:25:232
7.2188;-15.6036;-5.1047;2.9339;-8.1813;-4.5418;3.1214;-6.0046;3.067;-4.1367;-0.4071;-2.7294;0.0;-35.52;26.04;28.38;215.92;82.76;-161.15;2.0;989.75;58.678;;;;NaN;;;;;0 / 0;24011;2022-11-04 15:29:25:731
6.7304;-21.1127;2.0925;1.5783;-9.5706;-1.4432;3.7395;-9.7153;0.9979;-0.262;-1.5848;0.4556;0.0;-22.5;38.88;27.12;165.28;80.62;-128.95;2.0;989.84;63.192;;;;NaN;;;;;0 / 0;24511;2022-11-04 15:29:26:231
7.3984;-7.6378;-7.1781;4.5284;-7.0053;-5.1565;2.5108;-10.1282;3.3034;0.2585;3.7529;-0.9921;0.0;-32.34;27.24;32.82;174.73;72.24;-131.81;2.0;989.86;66.949;;;;NaN;;;;;0 / 0;25012;2022-11-04 15:29:26:732
4.0917;-11.9689;-0.6608;3.5528;-9.083;-1.0232;5.6963;-10.9355;-1.7421;1.7734;1.3339;1.2876;0.0;-23.82;46.02;17.88;137.94;72.29;-104.8;2.0;989.85;63.989;;;;NaN;;;;;0 / 0;25511;2022-11-04 15:29:27:231
2.5881;-4.4604;0.1676;5.4019;-7.872;-2.2405;-4.5304;5.4946;1.1153;1.2194;-0.8609;0.7892;0.0;-40.86;34.62;14.82;183.92;45.83;-110.72;2.0;989.84;70.288;;;;NaN;;;;;0 / 0;26012;2022-11-04 15:29:27:732
-2.1763;-8.2914;1.4605;1.6802;-9.4811;1.8589;-2.9347;7.4604;-10.8375;1.0514;3.957;-1.1326;0.0;-26.52;46.14;-0.48;219.99;69.21;-104.58;2.0;989.83;70.938;;;;NaN;;;;;0 / 0;26511;2022-11-04 15:29:28:231
-2.9401;-4.1037;1.8818;0.2948;-8.6672;-4.5785;-2.7776;3.807;5.4907;-0.8582;2.1518;1.0799;0.0;-17.88;47.58;13.38;263.22;72.13;-164.95;2.0;989.78;66.46;;;;NaN;;;;;0 / 0;27011;2022-11-04 15:29:28:731
0.9816;-12.0647;-4.5705;0.3587;-9.504;-2.3906;-2.3148;3.0729;3.4656;1.0954;7.5574;-0.5993;0.0;-17.28;49.74;1.5;283.8;75.85;-155.37;2.0;989.8;62.148;;;;NaN;;;;;0 / 0;27511;2022-11-04 15:29:29:231
-0.2634;-13.5611;-3.1699;0.4251;-9.6916;-1.4357;-6.624;-2.464;-1.6241;-2.3634;-1.3765;0.4764;0.0;-2.28;51.0;-11.16;109.39;81.71;21.35;2.0;990.0;60.848;;;;NaN;;;;;0 / 0;28011;2022-11-04 15:29:29:731
-1.7262;-2.4086;2.2721;0.6916;-9.5682;-2.0348;3.9843;-0.9139;-6.6972;-0.0567;-1.7198;-0.1571;0.0;-0.78;51.66;-4.5;356.93;72.39;-179.33;2.0;989.85;60.311;;;;NaN;;;;;0 / 0;28511;2022-11-04 15:29:30:231
2.5714;-11.1405;-2.7222;-0.9107;-9.6863;1.2311;3.0176;-2.3975;-2.3875;-0.8026;-0.3985;-0.3238;0.0;7.8;41.88;-20.88;160.58;75.6;30.78;2.0;989.93;67.184;;;;NaN;;;;;0 / 0;29012;2022-11-04 15:29:30:732
-1.3599;-3.0239;-1.5538;-0.3803;-9.1134;-3.6016;-1.3938;-12.6529;-31.8003;2.7612;-3.5225;0.7452;0.0;-1.62;46.14;2.7;354.51;64.1;-173.64;2.0;990.01;65.143;;;;NaN;;;;;0 / 0;29512;2022-11-04 15:29:31:232
-0.0479;-7.5061;2.2601;-1.0196;-9.5962;1.7444;2.2622;0.4381;0.0321;1.0776;1.4029;1.0628;0.0;9.12;38.82;-19.98;270.56;87.71;-62.25;2.0;989.88;63.342;;;;NaN;;;;;0 / 0;30011;2022-11-04 15:29:31:731
-0.9481;-3.7086;0.1149;0.5287;-8.531;-4.8075;-0.6292;4.3172;4.7261;2.1082;-1.4626;0.1728;0.0;4.62;45.0;8.04;22.83;64.62;-179.27;2.0;989.85;63.069;;;;NaN;;;;;0 / 0;30512;2022-11-04 15:29:32:232
-2.2338;-7.8748;-0.419;-0.146;-9.7956;-0.4412;-1.7933;3.4603;1.5976;1.6384;3.9576;0.7446;0.0;-0.6;41.64;-11.76;355.77;71.88;-176.15;2.0;989.82;65.565;;;;NaN;;;;;0 / 0;31011;2022-11-04 15:29:32:731
-1.2258;-4.5633;1.4054;0.4383;-9.453;-2.5727;1.5321;-8.1737;0.054;-0.4843;-0.5897;-0.1601;0.0;4.2;44.16;-6.48;110.26;84.54;70.22;2.0;989.8;63.564;;;;NaN;;;;;0 / 0;31511;2022-11-04 15:29:33:231
-1.4533;-14.4876;2.4636;0.0448;-9.541;-2.2665;-1.6226;1.4339;5.2832;1.4081;-1.3258;-1.0453;0.0;-5.58;44.64;-6.18;345.59;67.59;178.72;2.0;989.96;68.506;;;;NaN;;;;;0 / 0;32011;2022-11-04 15:29:33:731
-0.486;-13.4964;0.7805;0.6414;-9.6063;-1.865;-1.228;-2.784;4.6591;-2.7653;-0.9929;-1.5059;0.0;5.22;43.2;-13.38;169.53;80.21;25.88;2.0;990.0;63.821;;;;NaN;;;;;0 / 0;32511;2022-11-04 15:29:34:231
-2.5714;-5.5477;-10.7981;-0.4687;-8.9653;-3.9463;-3.0867;-3.595;-10.8481;0.2744;0.4048;-0.7533;0.0;-3.96;45.9;-0.54;349.7;66.63;166.03;2.0;990.03;59.66;;;;NaN;;;;;0 / 0;33011;2022-11-04 15:29:34:731
2.8826;-13.5802;-2.1213;-1.6886;-9.5112;1.6897;6.2184;-1.658;-0.7344;-1.1367;-1.9684;-1.4271;0.0;14.94;34.8;-25.44;171.57;80.09;37.54;2.0;989.99;66.967;;;;NaN;;;;;0 / 0;33511;2022-11-04 15:29:35:231
-1.9632;-5.3011;-4.2282;-0.3387;-8.8632;-4.1832;-2.3164;4.4985;6.5918;-1.4935;-2.5842;-0.4961;0.0;-5.46;45.72;1.92;343.48;65.98;178.66;2.0;989.84;62.803;;;;NaN;;;;;0 / 0;34011;2022-11-04 15:29:35:731
-0.2346;-6.9004;0.4262;-0.2901;-9.8002;0.2049;-2.9134;2.2007;-4.5552;1.6445;2.5343;1.1111;0.0;-4.44;40.08;-18.06;3.06;73.27;162.64;2.0;989.88;60.972;;;;NaN;;;;;0 / 0;34512;2022-11-04 15:29:36:232
0.7853;-6.0672;1.4509;-0.0963;-8.6618;-4.5973;0.6661;2.9824;5.2844;-0.8612;1.2215;-0.3324;0.0;-1.44;44.82;0.9;356.12;69.96;-178.94;2.0;989.87;60.734;;;;NaN;;;;;0 / 0;35011;2022-11-04 15:29:36:731
0.3807;-12.6872;2.5211;-1.1955;-9.4359;-2.3884;1.5809;0.6609;4.6365;0.9988;-2.0595;-0.5706;0.0;-5.4;43.14;-5.4;350.52;67.05;166.78;2.0;989.92;67.002;;;;NaN;;;;;0 / 0;35511;2022-11-04 15:29:37:231
-1.992;-12.4693;-2.2601;-0.1615;-9.7393;-1.1354;-0.3197;-4.2335;6.5657;-2.8569;-1.663;-1.2004;0.0;1.98;38.52;-17.52;114.09;76.81;44.36;2.0;990.01;60.594;;;;NaN;;;;;0 / 0;36011;2022-11-04 15:29:37:731
-0.1413;-31.6977;-12.771;0.0911;-8.9755;-3.9499;0.7469;7.4456;-4.1236;-1.2534;0.9827;0.7861;0.0;-6.9;44.16;-1.56;342.89;66.46;167.35;2.0;989.94;68.327;;;;NaN;;;;;0 / 0;36512;2022-11-04 15:29:38:232
6.7711;-9.3616;-1.6472;-1.8219;-9.4893;1.6747;6.2751;-0.3225;-4.3083;-0.1581;-1.3386;-0.3006;0.0;15.66;32.34;-23.52;175.86;83.08;37.25;2.0;989.92;66.304;;;;NaN;;;;;0 / 0;37011;2022-11-04 15:29:38:731
-1.2234;-1.4102;0.1245;-0.2311;-8.3566;-5.1267;-2.1057;3.1729;7.0085;4.2841;-3.8462;0.0653;0.0;-2.16;44.4;3.42;352.49;66.21;-179.51;2.0;989.84;65.491;;;;NaN;;;;;0 / 0;37511;2022-11-04 15:29:39:231
-0.1724;-9.9051;0.4022;-0.993;-9.7075;0.9739;1.752;0.3435;-6.2031;2.5492;1.3284;0.6566;0.0;4.98;37.44;-22.68;29.29;84.52;158.87;2.0;989.83;62.906;;;;NaN;;;;;0 / 0;38011;2022-11-04 15:29:39:731
0.4645;-7.8437;0.4405;0.1783;-8.6998;-4.5223;0.9111;0.9375;4.4361;-1.3096;-0.5005;0.0384;0.0;-1.38;45.0;1.08;355.56;73.63;-174.73;2.0;989.91;59.863;;;;NaN;;;;;0 / 0;38512;2022-11-04 15:29:40:232
-5.5596;-3.0335;-3.5075;-0.6994;-9.2982;-3.0371;-4.6041;-8.2878;7.9045;0.2023;-5.1486;-0.3135;0.0;-4.68;43.02;-2.52;340.69;71.5;-169.58;2.0;989.99;68.739;;;;NaN;;;;;0 / 0;39012;2022-11-04 15:29:40:732
-1.2857;-12.5292;1.968;-0.9552;-9.7541;0.3405;3.5098;-4.4223;-1.6908;-2.9681;0.5166;-1.8815;0.0;8.58;35.34;-19.68;134.1;76.46;53.53;2.0;990.02;60.442;;;;NaN;;;;;0 / 0;39511;2022-11-04 15:29:41:231
2.4756;-6.1366;-9.2922;-0.5282;-9.0936;-3.6328;-2.8739;-9.8882;-18.2293;-0.2418;-2.586;-0.143;0.0;-2.16;42.78;-3.48;355.33;60.25;179.21;2.0;990.02;61.021;;;;NaN;;;;;0 / 0;40012;2022-11-04 15:29:41:732
0.4669;-10.0775;-1.8962;-1.2892;-9.6413;1.2466;4.9092;-0.3524;0.1708;-0.0457;0.4793;0.546;0.0;6.78;35.82;-20.4;82.6;88.37;113.95;2.0;989.99;64.812;;;;NaN;;;;;0 / 0;40511;2022-11-04 15:29:42:231
-1.0678;-4.9826;-0.3591;0.0598;-8.5204;-4.8548;-0.6392;3.6817;4.8764;-0.6981;-1.0723;-0.4118;0.0;0.3;42.72;3.84;0.7;64.96;-177.43;2.0;989.95;62.726;;;;NaN;;;;;0 / 0;41011;2022-11-04 15:29:42:731
-0.5938;-8.0807;0.3136;-1.0231;-9.7355;-0.5859;0.0846;1.8535;5.2163;1.0685;1.3327;0.6364;0.0;5.64;39.96;-12.66;22.11;74.51;166.99;2.0;989.91;66.333;;;;NaN;;;;;0 / 0;41512;2022-11-04 15:29:43:232
2.1476;-15.46;-4.1156;0.3448;-8.9213;-4.0572;1.1156;-2.5304;1.6678;-2.5069;-4.8523;-1.3257;0.0;5.22;43.08;-1.44;35.31;80.03;165.8;2.0;989.98;66.733;;;;NaN;;;;;0 / 0;42012;2022-11-04 15:29:43:732
-1.2091;-15.6228;3.9409;0.1801;-9.3968;-2.7997;-1.4753;-3.0199;10.5381;0.7288;-1.5292;-0.8932;0.0;-1.92;43.86;-7.92;352.19;72.49;-173.97;2.0;989.87;66.207;;;;NaN;;;;;0 / 0;42511;2022-11-04 15:29:44:231
1.98;-12.5627;-1.2761;-1.476;-9.4757;2.0499;8.9534;-1.7749;-5.9357;-3.4134;-0.2434;-1.5034;0.0;9.3;33.42;-26.64;158.21;75.06;33.16;2.0;990.07;61.96;;;;NaN;;;;;0 / 0;43011;2022-11-04 15:29:44:731
-4.7501;-16.0394;-12.7877;-0.7139;-9.4532;-2.5096;-0.1887;8.2154;2.3109;-0.2461;2.5349;-1.4313;0.0;-6.06;44.04;-3.48;345.74;61.42;-179.75;2.0;990.12;63.852;;;;NaN;;;;;0 / 0;43511;2022-11-04 15:29:45:231
3.3279;-8.641;-0.5267;-1.5899;-9.4903;1.8913;8.4185;-1.8825;-3.6176;0.7294;0.9161;0.769;0.0;5.28;34.2;-25.5;154.42;82.58;32.43;2.0;989.9;68.353;;;;NaN;;;;;0 / 0;44012;2022-11-04 15:29:45:732
-1.1325;-6.807;0.103;-0.3206;-8.6338;-4.6395;-1.1877;4.8486;6.1718;-0.6725;-1.9849;-0.5816;0.0;-7.68;44.34;3.06;332.47;66.21;172.74;2.0;989.9;62.275;;;;NaN;;;;;0 / 0;44511;2022-11-04 15:29:46:231
-1.1349;-8.4877;1.221;-0.282;-9.7968;0.3361;-3.0818;2.6618;-1.9953;4.1033;0.4824;-0.6225;0.0;-10.56;40.5;-15.66;344.0;74.35;169.98;2.0;989.89;68.091;;;;NaN;;;;;0 / 0;45011;2022-11-04 15:29:46:731
-0.1748;-7.9347;-1.4533;0.2435;-9.5086;-2.3868;0.5418;-7.6249;-1.8198;-1.2748;-1.2;0.339;0.0;-1.56;44.34;-8.82;56.24;81.25;74.04;2.0;989.94;60.887;;;;NaN;;;;;0 / 0;45512;2022-11-04 15:29:47:232
-5.5381;-12.5124;4.9539;-0.0827;-9.4409;-2.6519;3.8991;-15.9242;17.118;2.0587;-2.6795;-0.3855;0.0;-8.46;43.74;-5.82;344.31;70.19;165.55;2.0;990.08;69.96;;;;NaN;;;;;0 / 0;46012;2022-11-04 15:29:47:732
-5.2675;-11.945;-2.4373;-1.9037;-9.6008;0.6094;8.9645;-2.8877;-4.6341;-2.0091;-1.01;-1.6647;0.0;7.38;37.2;-20.76;117.85;75.01;56.64;2.0;990.08;61.564;;;;NaN;;;;;0 / 0;46511;2022-11-04 15:29:48:231
5.9547;-4.4508;-4.4628;-0.2034;-9.417;-2.7294;8.921;-5.7485;4.4508;0.1571;-2.5683;-0.9365;0.0;-8.46;43.14;-1.74;338.43;73.56;157.86;2.0;989.99;62.585;;;;NaN;;;;;0 / 0;47011;2022-11-04 15:29:48:731
-0.3184;-7.3409;-4.7333;-2.1821;-9.4821;1.224;6.6856;1.6528;-1.3844;-1.298;1.2087;0.576;0.0;3.72;36.84;-19.44;120.06;74.18;43.31;2.0;990.02;63.628;;;;NaN;;;;;0 / 0;47511;2022-11-04 15:29:49:231
-0.6752;0.5339;-1.0534;-1.1219;-9.1517;-3.3402;-1.0736;6.5301;-6.5146;3.7398;-1.3105;-0.1375;0.0;-8.04;42.42;3.42;337.96;58.04;173.54;2.0;989.98;67.598;;;;NaN;;;;;0 / 0;48012;2022-11-04 15:29:49:732
4.9395;-8.4255;-2.5809;-1.7822;-9.4937;1.6922;1.8804;0.6492;1.947;0.8571;1.5996;0.1893;0.0;3.42;36.96;-18.36;100.2;83.65;76.38;2.0;989.99;67.109;;;;NaN;;;;;0 / 0;48511;2022-11-04 15:29:50:231
-2.1332;-2.9521;1.9393;0.0889;-9.2885;-3.1442;-0.8431;2.8166;4.1714;-1.163;-1.0448;-0.3428;0.0;-5.22;43.5;0.3;331.48;77.4;-174.96;2.0;990.0;63.012;;;;NaN;;;;;0 / 0;49011;2022-11-04 15:29:50:731
-3.0191;-6.2276;2.6145;-0.8705;-9.5706;-1.9535;-0.0704;-3.0232;3.3134;2.4906;3.792;0.1991;0.0;-6.0;43.08;-1.02;342.49;68.33;168.0;2.0;989.94;69.67;;;;NaN;;;;;0 / 0;49512;2022-11-04 15:29:51:232
1.3288;-15.0601;-1.9249;-0.9936;-9.1573;-3.3654;-0.7398;2.4844;2.9464;-1.4245;-4.5011;-0.3861;0.0;0.72;43.38;0.66;5.73;80.79;158.42;2.0;990.03;62.597;;;;NaN;;;;;0 / 0;50012;2022-11-04 15:29:51:732
-3.2777;-8.5931;10.1852;-0.7024;-9.3105;-2.9986;-3.2528;-2.1676;3.0704;-0.5192;0.2777;0.0256;0.0;-1.56;43.8;1.5;349.66;71.84;174.16;2.0;989.91;64.904;;;;NaN;;;;;0 / 0;50512;2022-11-04 15:29:52:232
7.4989;-11.2028;1.3479;-1.75;-9.4719;1.8417;4.6015;-4.2496;-5.3276;-0.0121;-1.7583;-0.1522;0.0;11.7;35.64;-19.62;141.34;71.62;50.1;2.0;990.1;64.262;;;;NaN;;;;;0 / 0;51011;2022-11-04 15:29:52:731
-3.541;-16.7911;-10.1685;-0.9932;-9.4215;-2.5334;-0.3619;8.0401;1.2453;0.3159;2.3913;-0.8773;0.0;-2.82;43.74;2.88;351.06;59.16;176.66;2.0;990.11;63.942;;;;NaN;;;;;0 / 0;51511;2022-11-04 15:29:53:231
5.2053;-8.9833;-1.7142;-1.4773;-9.6452;0.979;2.2626;1.3466;-2.5664;0.5645;1.0999;0.4929;0.0;6.66;39.3;-15.24;71.03;86.01;125.08;2.0;990.01;68.503;;;;NaN;;;;;0 / 0;52011;2022-11-04 15:29:53:731
-0.328;-5.3681;-0.1125;-0.8113;-8.8944;-4.0499;1.0268;2.1568;6.1712;-0.276;-1.5488;-0.5315;0.0;3.96;43.5;4.32;30.87;76.53;174.33;2.0;989.99;61.886;;;;NaN;;;;;0 / 0;52512;2022-11-04 15:29:54:232
-1.9082;-9.2347;1.2929;-0.9425;-9.7544;0.3641;-0.8149;0.9219;-6.0649;3.5278;1.9723;0.1001;0.0;1.02;40.86;-11.28;14.81;74.19;155.91;2.0;989.97;64.842;;;;NaN;;;;;0 / 0;53011;2022-11-04 15:29:54:731
1.2282;-13.3073;3.3375;0.0584;-9.6129;-1.939;-2.4454;-8.6675;-2.5023;-2.9596;0.8947;-1.7924;0.0;4.5;42.36;-6.6;53.91;76.41;53.23;2.0;990.02;59.494;;;;NaN;;;;;0 / 0;53511;2022-11-04 15:29:55:231
-0.2682;-23.028;4.063;-0.6702;-9.4315;-2.6015;2.1714;3.9676;10.122;1.8993;-1.7852;-1.559;0.0;-0.24;44.1;-1.92;1.76;66.33;162.68;2.0;990.12;69.308;;;;NaN;;;;;0 / 0;54012;2022-11-04 15:29:55:732
0.7063;-11.4398;-0.7949;-2.3996;-9.2127;2.3532;8.8858;-2.8591;-3.6389;-2.3206;0.2362;-0.5132;0.0;15.66;35.16;-20.58;164.37;73.98;46.68;2.0;990.09;60.764;;;;NaN;;;;;0 / 0;54511;2022-11-04 15:29:56:231
-2.3176;-4.4149;-3.4716;-0.1623;-8.8539;-4.2133;-2.0451;5.6696;4.7208;2.6195;-0.707;1.7415;0.0;-3.36;44.82;6.96;347.43;65.28;-178.04;2.0;990.0;63.57;;;;NaN;;;;;0 / 0;55011;2022-11-04 15:29:56:731
1.0223;-8.55;1.8052;-0.9586;-9.7285;0.7801;-0.2864;0.6853;-6.0524;1.625;2.1366;0.5747;0.0;1.62;40.32;-16.26;19.35;80.28;160.04;2.0;990.03;69.393;;;;NaN;;;;;0 / 0;55512;2022-11-04 15:29:57:232
0.5435;-7.1829;-0.1173;-0.2532;-8.8096;-4.3009;-0.7021;2.6226;4.2889;-1.5448;0.227;-0.7026;0.0;0.9;44.46;4.5;358.78;72.35;166.67;2.0;990.03;62.803;;;;NaN;;;;;0 / 0;56012;2022-11-04 15:29:57:732
-0.0024;-16.9611;2.3128;-0.1944;-9.7115;-1.3489;-2.5111;2.6866;4.3752;0.9616;-0.6221;-0.6482;0.0;-4.02;44.88;-6.78;347.26;75.24;-179.11;2.0;990.0;65.655;;;;NaN;;;;;0 / 0;56511;2022-11-04 15:29:58:231
2.5019;-11.4973;-2.1404;-0.9316;-9.7578;0.2963;-0.7467;-4.9959;-0.203;-2.3383;-0.4651;0.0164;0.0;6.84;40.14;-16.44;123.0;71.88;41.05;2.0;990.14;59.626;;;;NaN;;;;;0 / 0;57011;2022-11-04 15:29:58:731
10.2283;-24.2754;8.3154;-0.4547;-9.4152;-2.705;-0.5988;-5.003;-5.4547;0.7294;-0.1297;-0.1992;0.0;3.78;45.18;-1.14;13.81;68.16;166.48;2.0;990.18;62.693;;;;NaN;;;;;0 / 0;57511;2022-11-04 15:29:59:231
7.5779;-10.0799;3.8259;-2.2522;-9.4053;1.624;7.1196;1.1307;-4.7509;0.3953;0.5831;-0.3171;0.0;13.68;37.32;-17.7;151.54;80.49;58.64;2.0;990.01;65.451;;;;NaN;;;;;0 / 0;58012;2022-11-04 15:29:59:732
-0.5267;-2.5905;0.3591;-0.4566;-8.8903;-4.1138;-0.5777;3.4097;4.4179;1.3153;-0.8292;-0.1736;0.0;3.78;44.28;5.94;10.99;68.76;161.03;2.0;989.98;61.374;;;;NaN;;;;;0 / 0;58511;2022-11-04 15:30:00:231
0.1149;-10.3409;-2.15;-1.2755;-9.6889;0.817;-0.8314;2.4653;-4.5376;2.0251;2.4273;-0.1125;0.0;6.0;40.26;-14.4;42.5;81.29;145.36;2.0;989.99;69.384;;;;NaN;;;;;0 / 0;59011;2022-11-04 15:30:00:731
-0.2442;-14.0112;-2.964;-0.7553;-9.419;-2.6233;1.0067;-6.1942;1.7949;-2.7201;-1.583;-0.7502;0.0;7.02;43.56;-1.56;101.44;81.5;90.28;2.0;990.14;61.021;;;;NaN;;;;;0 / 0;59511;2022-11-04 15:30:01:231
4.2425;-12.5076;-12.8787;0.1349;-9.5604;-2.1795;3.0805;-3.7947;20.5556;0.5743;0.3162;-1.4906;0.0;1.92;43.62;-2.7;9.69;72.02;165.04;2.0;990.03;59.79;;;;NaN;;;;;0 / 0;60011;2022-11-04 15:30:01:731
1.5251;-11.9234;-0.5914;-2.0457;-9.2901;2.3833;9.6883;-2.0995;2.5033;-1.0524;-0.1914;-0.4961;0.0;16.68;34.44;-20.1;183.51;75.12;38.14;2.0;990.17;61.343;;;;NaN;;;;;0 / 0;60511;2022-11-04 15:30:02:231
-0.2155;-4.7788;-2.1404;-0.4055;-8.9448;-3.9995;-0.1572;5.8443;4.5047;3.1228;-1.6068;1.185;0.0;5.7;43.32;5.76;29.6;68.01;179.7;2.0;990.02;62.478;;;;NaN;;;;;0 / 0;61011;2022-11-04 15:30:02:731
1.063;-9.8812;1.2234;-0.8976;-9.7561;0.4287;-0.9915;1.5197;-8.3921;1.6366;2.0602;0.3982;0.0;5.34;39.9;-15.12;34.24;79.35;149.31;2.0;990.04;69.539;;;;NaN;;;;;0 / 0;61512;2022-11-04 15:30:03:232
0.4693;-8.1741;0.1437;-0.133;-9.0215;-3.8425;-1.7009;2.3079;3.0356;-1.017;1.1262;-0.8076;0.0;6.06;45.24;1.92;29.88;73.79;172.23;2.0;990.08;60.451;;;;NaN;;;;;0 / 0;62011;2022-11-04 15:30:03:731
-0.8643;-17.7033;3.2896;-0.741;-9.5863;-1.9299;-0.5039;-1.3627;3.7902;0.245;-1.9574;-0.5999;0.0;-2.94;45.42;-5.7;353.33;74.79;171.68;2.0;990.04;67.353;;;;NaN;;;;;0 / 0;62511;2022-11-04 15:30:04:231
1.7765;-12.2778;-1.9154;-1.1955;-9.7213;0.4878;0.8819;-3.1143;-1.1151;-1.984;0.4921;0.0182;0.0;10.68;39.06;-20.16;153.06;72.06;40.68;2.0;990.14;58.917;;;;NaN;;;;;0 / 0;63012;2022-11-04 15:30:04:732
3.1029;-9.9386;-3.8044;-0.6919;-9.512;-2.2832;0.9241;-12.6852;-19.0258;-0.0085;0.0541;-0.3147;0.0;3.84;44.58;-7.8;11.66;69.22;174.45;2.0;990.21;61.192;;;;NaN;;;;;0 / 0;63512;2022-11-04 15:30:05:232
1.6281;-9.4526;-0.7302;-2.062;-9.468;1.5084;6.2207;-0.4586;-1.5539;0.3813;0.6937;0.1606;0.0;16.32;38.16;-19.02;155.32;83.26;60.33;2.0;990.14;59.303;;;;NaN;;;;;0 / 0;64011;2022-11-04 15:30:05:731
-1.5443;-4.8507;-0.0575;0.0712;-9.1246;-3.5926;-0.4495;0.8954;5.563;-0.0744;-1.1529;-0.6171;0.0;3.18;47.1;0.6;15.57;75.64;175.88;2.0;990.02;59.482;;;;NaN;;;;;0 / 0;64511;2022-11-04 15:30:06:231
-1.1492;-6.5317;3.6368;-0.5695;-9.7722;0.5912;-1.6427;0.4154;2.1645;1.6873;-0.233;0.6126;0.0;-1.2;43.92;-16.92;1.93;83.4;174.14;2.0;990.01;67.781;;;;NaN;;;;;0 / 0;65011;2022-11-04 15:30:06:731
-0.3112;-12.6225;2.4014;-0.1328;-9.5414;-2.2613;0.456;-6.1532;-1.5024;-3.1257;0.5343;-1.8608;0.0;8.76;47.82;-4.74;155.56;78.5;62.26;2.0;990.12;61.712;;;;NaN;;;;;0 / 0;65512;2022-11-04 15:30:07:232
2.1739;-4.1084;-9.2922;0.9015;-9.5297;-2.1314;10.4689;-4.8095;-7.5654;0.457;-1.4687;-1.8217;0.0;-3.6;48.66;-3.72;352.13;74.06;161.58;2.0;990.14;66.427;;;;NaN;;;;;0 / 0;66011;2022-11-04 15:30:07:731
2.9401;-11.5499;-6.1103;-1.6558;-9.2719;2.7312;2.4603;-1.2102;-4.0432;-0.838;0.3223;-0.2292;0.0;7.68;38.7;-26.34;168.81;75.81;24.05;2.0;990.16;63.191;;;;NaN;;;;;0 / 0;66511;2022-11-04 15:30:08:231
-2.071;-0.5938;-2.4684;0.4137;-8.9742;-3.9322;-1.5223;6.24;5.7086;3.7929;-3.6581;0.6041;0.0;-8.22;46.86;5.46;323.42;70.73;-179.1;2.0;990.05;59.178;;;;NaN;;;;;0 / 0;67012;2022-11-04 15:30:08:732
-0.8547;-8.9522;1.6975;0.0362;-9.8034;0.2476;0.0524;2.9964;-7.306;1.209;1.8733;1.1526;0.0;-10.74;42.42;-13.38;312.77;76.25;-147.92;2.0;990.01;68.754;;;;NaN;;;;;0 / 0;67512;2022-11-04 15:30:09:232
0.2011;-5.8134;-0.8475;0.5242;-9.0722;-3.6865;-0.2848;2.1311;2.3506;-1.2479;0.866;-0.355;0.0;1.74;48.84;-3.18;5.6;77.68;-168.24;2.0;990.22;65.287;;;;NaN;;;;;0 / 0;68011;2022-11-04 15:30:09:731
-0.8188;-11.4278;3.4285;-0.1275;-9.5101;-2.3901;0.0222;-5.5668;4.7244;-0.1056;-1.6813;0.8191;0.0;-3.54;49.44;-9.06;340.92;75.24;-160.91;2.0;990.05;64.523;;;;NaN;;;;;0 / 0;68511;2022-11-04 15:30:10:231
0.5483;-12.3592;-3.9145;-1.3387;-9.5989;1.4962;1.2142;-2.8895;-2.94;-1.1074;-0.0179;-0.0056;0.0;7.32;39.18;-30.0;142.34;71.47;34.82;2.0;990.17;57.16;;;;NaN;;;;;0 / 0;69011;2022-11-04 15:30:10:731
-0.5818;-13.257;-10.7574;-0.534;-9.4453;-2.5829;-3.4882;-5.5358;-7.3007;-2.5039;-5.1596;-0.6128;0.0;-15.18;52.74;-4.44;328.99;66.98;178.49;2.0;990.21;63.067;;;;NaN;;;;;0 / 0;69511;2022-11-04 15:30:11:231
4.7333;-11.4853;-6.9004;-0.6737;-9.3942;2.7321;0.815;0.8538;-0.6037;-0.2351;3.1555;-0.3519;0.0;-8.22;41.58;-30.06;213.26;81.85;-41.86;2.0;990.08;64.467;;;;NaN;;;;;0 / 0;70012;2022-11-04 15:30:11:732
-0.8547;-0.9553;0.6369;0.8183;-8.8821;-4.0753;0.2495;2.2834;5.1431;1.0783;-1.076;0.1142;0.0;-15.42;50.46;-0.24;310.38;74.41;-177.26;2.0;990.13;58.962;;;;NaN;;;;;0 / 0;70511;2022-11-04 15:30:12:231
1.901;-9.1749;-1.8268;-0.9327;-9.6209;1.655;2.0819;1.5162;2.1446;0.4448;5.7492;0.058;0.0;1.86;40.08;-28.74;35.11;88.75;147.85;2.0;990.0;67.247;;;;NaN;;;;;0 / 0;71011;2022-11-04 15:30:12:731
1.087;-10.8628;-5.9044;0.7371;-8.1301;-5.434;-2.6309;-6.1373;2.4772;-3.218;2.6937;-0.6873;0.0;1.74;53.88;2.82;10.07;74.46;-178.77;2.0;990.17;59.445;;;;NaN;;;;;0 / 0;71512;2022-11-04 15:30:13:232
5.6554;-35.1193;17.5453;-0.0389;-9.4931;-2.4595;-1.1246;11.1116;2.4068;-0.5729;-0.5494;0.62;0.0;-7.14;53.1;-8.58;342.38;65.76;-166.11;2.0;990.2;70.103;;;;NaN;;;;;0 / 0;72012;2022-11-04 15:30:13:732
-0.1844;-10.2068;-6.4718;-0.024;-9.5658;2.1598;0.2059;1.0182;-2.8278;0.1461;0.4976;0.7091;0.0;-16.56;42.48;-29.76;160.46;85.71;-11.79;2.0;990.09;61.024;;;;NaN;;;;;0 / 0;72511;2022-11-04 15:30:14:231
-0.4932;-8.3489;-1.7142;0.2912;-9.2399;-3.2726;-0.0518;1.48;2.0133;-0.3035;-1.4083;-1.0147;0.0;-15.9;54.0;-5.46;303.37;80.67;-170.26;2.0;990.09;54.822;;;;NaN;;;;;0 / 0;73011;2022-11-04 15:30:14:731
-5.0569;-10.5204;2.6073;1.1115;-9.356;-2.7203;0.8709;-1.4948;3.1704;2.7985;-0.0314;0.1374;0.0;-26.7;50.58;-7.02;298.12;68.98;-157.69;2.0;990.06;58.359;;;;NaN;;;;;0 / 0;73511;2022-11-04 15:30:15:231
0.9409;-13.5036;-2.7318;-0.6639;-9.6149;1.8117;0.5275;-1.3628;-1.8524;-0.6481;-0.9623;-0.3416;0.0;-5.58;43.56;-34.92;129.71;73.08;22.77;2.0;990.15;61.79;;;;NaN;;;;;0 / 0;74011;2022-11-04 15:30:15:731
-2.1476;-2.241;-1.0487;-0.1133;-9.4013;-2.7878;-1.8547;2.6135;-3.6745;-2.681;2.4432;-0.3141;0.0;-20.28;56.22;-5.88;316.83;66.54;-163.17;2.0;990.19;62.416;;;;NaN;;;;;0 / 0;74511;2022-11-04 15:30:16:231
-3.7541;-7.9299;-5.7967;0.1074;-9.7536;1.0131;-0.5863;2.3672;0.8256;1.1467;1.2563;0.1148;0.0;-24.78;50.04;-22.98;300.76;84.34;-161.08;2.0;990.15;66.096;;;;NaN;;;;;0 / 0;75012;2022-11-04 15:30:16:732
-0.1149;-8.1406;1.142;1.1075;-9.163;-3.314;0.6714;1.1302;2.8638;-1.0616;0.0181;-0.7313;0.0;-32.52;52.74;0.48;238.82;79.99;-134.45;2.0;990.09;64.42;;;;NaN;;;;;0 / 0;75512;2022-11-04 15:30:17:232
-0.0479;-14.1812;1.5706;1.3849;-9.2036;-3.0896;-14.1534;6.4455;-3.7222;0.9316;-1.1584;3.7928;0.0;-45.36;43.98;6.42;250.27;66.53;-143.16;2.0;990.19;62.632;;;;NaN;;;;;0 / 0;76012;2022-11-04 15:30:17:732
0.9098;-11.8755;-2.4972;0.2924;-9.4744;2.514;3.7227;-2.4346;-6.7493;-0.8044;-0.3356;-0.5908;0.0;-28.5;42.9;-31.5;127.73;76.07;-2.17;2.0;990.24;61.488;;;;NaN;;;;;0 / 0;76511;2022-11-04 15:30:18:231
0.1101;-24.7809;-25.1616;0.4783;-9.1161;-3.5829;4.8898;4.8425;-4.7564;-0.2614;0.0615;-0.1375;0.0;-32.34;54.24;2.16;290.2;68.36;-166.76;2.0;990.09;61.116;;;;NaN;;;;;0 / 0;77011;2022-11-04 15:30:18:731
2.1165;-8.9402;-1.2426;-0.9629;-9.4988;2.2395;4.2669;0.1037;-3.1876;-0.0396;2.0706;0.2449;0.0;-20.52;45.96;-34.62;137.01;85.85;8.76;2.0;990.03;66.834;;;;NaN;;;;;0 / 0;77511;2022-11-04 15:30:19:231
0.5531;-8.2651;-0.6967;1.1369;-8.7614;-4.2562;-0.7514;-0.7032;4.8763;-0.8209;-1.3973;-1.1546;0.0;-36.6;52.44;5.46;277.09;72.23;-168.87;2.0;990.07;58.655;;;;NaN;;;;;0 / 0;78011;2022-11-04 15:30:19:731
0.1604;-8.1382;0.4836;0.8804;-9.5716;-1.9441;-0.6266;-7.2267;5.3439;1.9396;-1.2366;0.0653;0.0;-39.42;49.68;7.68;235.47;69.27;-132.73;2.0;990.08;61.766;;;;NaN;;;;;0 / 0;78511;2022-11-04 15:30:20:231
1.6376;-10.5851;4.3024;0.0822;-9.6728;1.6125;0.4397;-0.9865;-3.3794;-3.0665;0.8568;-1.5059;0.0;-30.48;47.04;-26.1;99.39;73.74;11.25;2.0;990.18;57.995;;;;NaN;;;;;0 / 0;79011;2022-11-04 15:30:20:731
3.4836;-5.009;-9.1126;0.8238;-8.9771;-3.8604;-1.3338;1.7056;-3.9857;-1.1111;2.4096;-0.1363;0.0;-38.16;48.6;13.32;284.76;54.99;-162.26;2.0;990.17;60.354;;;;NaN;;;;;0 / 0;79512;2022-11-04 15:30:21:232
2.0782;-9.953;-1.5036;-0.7307;-9.494;2.3451;0.52;-2.9633;-6.8726;0.3538;-0.448;0.1001;0.0;-27.06;47.76;-28.38;129.13;80.78;-2.35;2.0;990.0;59.989;;;;NaN;;;;;0 / 0;80011;2022-11-04 15:30:21:731
-0.7757;-7.7647;-0.6225;1.6627;-8.0158;-5.3992;-2.8191;2.4682;5.5094;0.5089;-0.9556;-0.267;0.0;-41.34;42.42;19.68;245.76;64.5;-156.36;2.0;990.01;61.293;;;;NaN;;;;;0 / 0;80515;2022-11-04 15:30:22:235
-1.664;-8.052;1.4269;0.6508;-9.7766;-0.4056;-1.2374;1.3822;-8.7382;2.1632;3.3864;0.0134;0.0;-38.16;49.02;0.54;274.41;74.14;-164.68;2.0;990.04;68.417;;;;NaN;;;;;0 / 0;81011;2022-11-04 15:30:22:731
-0.8499;-15.7257;-3.2322;1.0057;-9.7301;-0.6953;0.3374;-2.2101;3.8293;-3.4153;-0.3063;-1.3165;0.0;-31.5;49.2;-17.46;87.89;76.8;11.95;2.0;990.02;60.33;;;;NaN;;;;;0 / 0;81512;2022-11-04 15:30:23:232
7.4295;-9.9267;7.5636;2.3752;-8.9244;-3.2991;4.8843;-2.7118;-5.2581;0.1058;0.136;-2.2218;0.0;-42.84;44.94;5.52;270.7;66.53;-161.96;2.0;990.12;61.698;;;;NaN;;;;;0 / 0;82011;2022-11-04 15:30:23:731
4.525;-11.0711;0.498;-0.0592;-9.568;2.1496;1.8117;0.3859;-4.3451;0.8553;0.8196;0.4898;0.0;-25.74;44.34;-30.72;185.72;84.85;-45.12;2.0;990.1;59.954;;;;NaN;;;;;0 / 0;82511;2022-11-04 15:30:24:231
-0.4262;-7.2523;-0.2155;1.992;-7.738;-5.6855;-3.2777;3.5865;6.2266;1.3031;-0.8188;0.0335;0.0;-43.86;40.62;19.08;242.64;62.93;-150.98;2.0;990.0;60.717;;;;NaN;;;;;0 / 0;83011;2022-11-04 15:30:24:731
-2.3846;-6.9483;-1.7382;0.6458;-9.7853;-0.0057;-4.5603;1.6519;-2.4029;1.2365;2.759;0.62;0.0;-40.08;47.64;-2.82;282.1;76.44;-171.79;2.0;989.97;63.516;;;;NaN;;;;;0 / 0;83511;2022-11-04 15:30:25:231
-0.0958;-13.0822;0.3232;1.3882;-9.3674;-2.5484;-1.2901;-6.9353;-0.454;-2.3701;-2.6428;0.7079;0.0;-40.56;46.38;-3.9;124.72;84.59;-34.25;2.0;990.08;63.569;;;;NaN;;;;;0 / 0;84011;2022-11-04 15:30:25:731
-3.9097;-8.4614;0.4166;1.1466;-9.4004;-2.547;8.421;-6.7658;13.4936;0.1913;0.381;-0.0392;0.0;-41.04;46.32;8.1;274.94;68.16;-170.29;2.0;990.12;67.093;;;;NaN;;;;;0 / 0;84511;2022-11-04 15:30:26:231
2.0135;-14.4014;-1.8028;-0.4922;-9.4752;2.4794;6.3487;-2.6708;1.471;0.1082;-0.4541;-0.3025;0.0;-29.16;44.76;-26.94;124.29;79.13;-2.14;2.0;990.07;62.176;;;;NaN;;;;;0 / 0;85011;2022-11-04 15:30:26:731
-0.8212;-6.6753;-5.8996;1.1849;-8.4694;-4.7995;-3.4809;5.5222;5.398;1.65;-1.1768;0.1319;0.0;-41.76;39.84;21.0;257.05;59.61;-162.77;2.0;990.11;60.239;;;;NaN;;;;;0 / 0;85511;2022-11-04 15:30:27:231
1.4006;-9.2994;2.2314;0.4935;-9.5592;2.1327;2.03;-0.0969;-0.0067;0.8504;1.0889;0.6652;0.0;-37.56;43.02;-18.06;217.9;83.83;-98.51;2.0;989.98;62.472;;;;NaN;;;;;0 / 0;86011;2022-11-04 15:30:27:731
1.8651;-6.8908;-1.075;1.6439;-8.332;-4.9035;-1.529;-0.7495;5.514;-1.8747;-0.225;-0.672;0.0;-41.46;42.54;13.86;244.7;69.47;-152.7;2.0;989.94;62.782;;;;NaN;;;;;0 / 0;86512;2022-11-04 15:30:28:232
-7.5085;-8.1166;-3.1125;0.5957;-9.4675;-2.4862;-0.452;-4.7974;6.0655;1.7636;-1.1706;-0.0208;0.0;-38.88;44.34;9.42;243.29;73.31;-148.31;2.0;989.99;65.196;;;;NaN;;;;;0 / 0;87011;2022-11-04 15:30:28:731
-0.3591;-11.6385;2.8587;-0.133;-9.682;1.5526;0.2719;-3.1943;-2.5175;-2.7323;0.0651;-0.4992;0.0;-32.94;42.78;-24.12;94.51;76.02;16.22;2.0;990.04;58.626;;;;NaN;;;;;0 / 0;87512;2022-11-04 15:30:29:232
3.0981;-16.1255;-6.3066;0.5924;-9.3708;-2.8298;-1.7583;7.8935;-0.6298;-0.5705;-0.3649;0.9046;0.0;-40.08;45.6;6.9;275.53;62.79;-160.77;2.0;989.98;60.709;;;;NaN;;;;;0 / 0;88011;2022-11-04 15:30:29:731
4.6208;-9.2563;-1.4365;0.3143;-9.7636;0.8617;0.3441;1.7188;4.2382;0.9298;4.4053;0.1142;0.0;-36.48;45.18;-17.16;270.72;82.13;-146.46;2.0;989.97;66.365;;;;NaN;;;;;0 / 0;88511;2022-11-04 15:30:30:231
0.0;-7.305;0.6225;1.4346;-8.9946;-3.6344;-1.3532;-0.3072;3.4525;-1.1141;-1.5561;-1.3819;0.0;-36.78;48.54;-0.6;269.9;74.33;-156.55;2.0;990.05;64.488;;;;NaN;;;;;0 / 0;89011;2022-11-04 15:30:30:731
-4.9324;-2.7988;5.4088;1.3756;-9.603;-1.4356;-6.9711;-8.3589;3.1714;1.3195;1.2844;0.5717;0.0;-41.64;45.66;-5.88;252.26;69.92;-131.03;2.0;989.94;62.072;;;;NaN;;;;;0 / 0;89512;2022-11-04 15:30:31:232
3.5913;-10.8819;0.7087;-0.0247;-9.4615;2.5788;3.9368;-4.3079;-0.9723;0.2212;1.497;0.4025;0.0;-26.34;40.08;-36.18;126.13;76.88;7.64;2.0;990.09;62.81;;;;NaN;;;;;0 / 0;90011;2022-11-04 15:30:31:731
6.7639;-5.495;-14.4804;1.9789;-7.5319;-5.9603;-2.0483;8.7194;4.1263;1.9384;-0.9153;0.1423;0.0;-44.04;41.16;14.58;267.65;54.18;-156.45;2.0;990.14;64.127;;;;NaN;;;;;0 / 0;90511;2022-11-04 15:30:32:231
1.8292;-7.8748;0.9074;0.1436;-9.7653;0.8883;0.8595;-0.7432;-1.6329;0.928;-0.9721;0.1649;0.0;-32.94;45.66;-23.1;261.15;85.67;-131.34;2.0;990.01;69.482;;;;NaN;;;;;0 / 0;91011;2022-11-04 15:30:32:731
0.8619;-8.1597;-1.4796;1.6414;-9.2678;-2.7539;-1.4642;0.8997;2.7611;-1.4617;1.1708;-0.1003;0.0;-41.76;45.18;-5.52;197.94;83.6;-97.61;2.0;989.91;63.488;;;;NaN;;;;;0 / 0;91511;2022-11-04 15:30:33:231
0.079;-13.3145;2.6839;0.5689;-9.7362;-1.0261;-3.3102;2.6539;-2.2085;2.6683;0.5679;0.2296;0.0;-40.74;46.92;-0.18;276.52;70.16;-162.69;2.0;989.86;61.226;;;;NaN;;;;;0 / 0;92011;2022-11-04 15:30:33:731
2.6384;-12.6297;2.3942;0.648;-9.7674;0.5894;1.8013;-3.2525;3.847;-2.4611;-1.7216;-1.7991;0.0;-34.98;45.3;-21.54;93.95;73.3;9.02;2.0;989.97;57.105;;;;NaN;;;;;0 / 0;92512;2022-11-04 15:30:34:232
2.739;-2.4588;-3.814;1.7477;-9.0968;-3.2191;1.9011;4.1836;-3.8345;2.096;-0.7351;-1.2945;0.0;-43.92;43.86;11.04;259.19;64.34;-154.95;2.0;990.05;64.202;;;;NaN;;;;;0 / 0;93012;2022-11-04 15:30:34:732
3.4572;-8.1837;-4.3191;-0.5198;-9.6224;1.819;3.7663;2.2743;-2.6809;0.68;1.4658;0.6438;0.0;-27.0;45.42;-30.48;187.39;86.25;-48.83;2.0;989.94;68.288;;;;NaN;;;;;0 / 0;93511;2022-11-04 15:30:35:231
-3.4213;-8.4566;-0.7159;1.4364;-9.3411;-2.6175;-3.3279;0.092;2.1267;-1.4312;0.026;-0.6849;0.0;-34.32;50.58;-10.02;264.24;77.28;-138.85;2.0;989.88;61.98;;;;NaN;;;;;0 / 0;94011;2022-11-04 15:30:35:731
1.5036;-18.3186;5.3346;0.5322;-9.5468;-2.1783;-4.8226;3.1732;10.5942;4.697;-0.2715;-1.647;0.0;-37.62;49.62;1.02;266.22;63.38;-136.18;2.0;989.86;65.314;;;;NaN;;;;;0 / 0;94512;2022-11-04 15:30:36:232
2.3942;-11.8779;-3.067;0.7022;-9.7404;-0.8955;-0.5849;-3.5717;-0.5075;-1.9052;-1.1071;-1.6201;0.0;-24.0;51.0;-24.84;88.68;78.74;30.49;2.0;990.03;62.52;;;;NaN;;;;;0 / 0;95011;2022-11-04 15:30:36:731
2.3104;-5.0832;-7.1063;2.2355;-8.8092;-3.6837;0.446;3.3693;-3.504;0.9744;-0.2849;-0.3923;0.0;-46.92;42.96;9.0;252.09;66.67;-150.01;2.0;990.04;59.244;;;;NaN;;;;;0 / 0;95511;2022-11-04 15:30:37:231
2.2865;-8.7128;-5.155;-0.1932;-9.5364;2.2784;2.4797;2.2697;-3.8873;0.6678;1.6705;0.4165;0.0;-33.6;45.3;-23.46;163.69;86.36;-40.77;2.0;989.88;63.601;;;;NaN;;;;;0 / 0;96012;2022-11-04 15:30:37:732
-1.9345;-9.7998;0.9816;1.6612;-9.0665;-3.3481;-3.0211;1.376;6.0176;-1.7427;-0.7052;-1.1479;0.0;-42.96;47.22;3.48;241.82;74.76;-139.89;2.0;989.87;58.572;;;;NaN;;;;;0 / 0;96511;2022-11-04 15:30:38:231
0.9553;-6.4982;0.4573;0.5055;-9.7447;-0.9771;0.4067;3.3208;3.1007;1.0538;-0.6123;0.4379;0.0;-41.64;48.06;5.1;259.59;69.77;-151.48;2.0;989.84;68.206;;;;NaN;;;;;0 / 0;97011;2022-11-04 15:30:38:731
1.7573;-13.02;3.5075;0.3413;-9.7797;0.6407;2.3139;-2.5603;1.7487;-1.9987;-0.5384;-1.8663;0.0;-35.4;47.16;-19.02;81.52;74.09;17.9;2.0;989.95;57.683;;;;NaN;;;;;0 / 0;97511;2022-11-04 15:30:39:231
1.6975;-7.8006;-11.4494;1.2515;-9.2756;-2.927;-7.8597;-2.7388;-2.5992;-2.5515;2.7688;3.1954;0.0;-46.26;41.16;8.04;269.28;64.2;-163.95;2.0;990.03;60.526;;;;NaN;;;;;0 / 0;98011;2022-11-04 15:30:39:731
4.5322;-12.9194;-1.7741;-0.8396;-9.4164;2.6071;6.8637;-2.7512;-2.121;0.3104;-0.7082;-0.1736;0.0;-26.46;40.86;-34.38;118.8;77.67;12.71;2.0;989.95;59.92;;;;NaN;;;;;0 / 0;98512;2022-11-04 15:30:40:232
-0.8739;-3.237;-0.2801;1.3242;-8.5007;-4.7068;-2.3776;4.0092;5.1449;0.2499;-1.1755;-0.4594;0.0;-41.28;45.24;6.0;269.02;68.31;-161.69;2.0;989.84;62.056;;;;NaN;;;;;0 / 0;99011;2022-11-04 15:30:40:731
-1.3695;-9.6298;0.431;0.338;-9.8008;-0.0088;-1.5853;-0.4108;1.7183;1.3764;-0.473;0.4923;0.0;-37.08;45.78;-17.46;288.01;80.6;-163.33;2.0;989.84;65.261;;;;NaN;;;;;0 / 0;99511;2022-11-04 15:30:41:231
-1.3072;-14.6001;-2.6695;1.0851;-9.6436;-1.4122;-0.2303;-4.4849;-2.4832;-2.6499;-2.4895;-0.1461;0.0;-39.48;47.34;-15.42;78.46;81.55;23.29;2.0;989.95;58.677;;;;NaN;;;;;0 / 0;100011;2022-11-04 15:30:41:731
-1.9896;-12.0;9.0193;1.1967;-9.3112;-2.8355;5.7731;-7.6572;12.834;1.647;-0.6905;0.0983;0.0;-45.78;45.3;7.38;281.43;66.53;-176.87;2.0;989.9;64.788;;;;NaN;;;;;0 / 0;100511;2022-11-04 15:30:42:231
4.4891;-11.4039;3.0287;-0.7829;-9.5849;1.92;2.7773;-4.0863;-4.4147;-2.4385;0.9527;-0.5639;0.0;-29.1;44.76;-32.7;98.04;75.85;25.59;2.0;990.0;62.32;;;;NaN;;;;;0 / 0;101012;2022-11-04 15:30:42:732
-0.893;-7.9658;-8.3345;0.2426;-9.1157;-3.6076;-1.9449;5.1509;0.0953;1.5175;-1.9116;0.7165;0.0;-42.6;46.26;13.74;269.94;63.47;-167.45;2.0;989.97;64.903;;;;NaN;;;;;0 / 0;101512;2022-11-04 15:30:43:232
0.5722;-7.6665;-1.4605;-0.048;-9.7482;1.0675;-0.4309;2.8383;-2.3029;1.2847;3.1042;0.5094;0.0;-38.88;48.48;-12.54;279.31;84.69;-164.77;2.0;989.85;64.219;;;;NaN;;;;;0 / 0;102011;2022-11-04 15:30:43:731
-1.1325;-9.7375;-0.2945;0.2736;-9.488;-2.4641;-2.5457;0.0546;2.8783;-0.9333;0.957;-0.6061;0.0;-39.12;50.82;0.48;131.35;86.0;-45.36;2.0;989.89;60.384;;;;NaN;;;;;0 / 0;102511;2022-11-04 15:30:44:231
-4.8722;-2.0877;1.8124;-0.3174;-8.8114;-4.2929;-9.1088;4.7556;-1.8078;2.2737;-4.1395;0.4007;0.0;-39.96;49.02;13.26;280.42;64.17;-176.0;2.0;989.94;60.827;;;;NaN;;;;;0 / 0;103012;2022-11-04 15:30:44:732
5.7416;-14.9404;-2.6288;-1.1447;-9.3499;2.7275;8.1744;-6.6919;-2.7946;-0.1062;-0.3784;-0.3306;0.0;-31.44;48.6;-25.56;101.81;78.58;14.1;2.0;989.89;54.888;;;;NaN;;;;;0 / 0;103511;2022-11-04 15:30:45:231
-1.0534;-2.4948;-1.4437;0.2244;-8.9799;-3.9347;4.7534;-6.9781;-5.5826;0.2255;0.9509;-1.1369;0.0;-39.3;46.62;18.48;267.95;64.41;-170.93;2.0;989.82;62.637;;;;NaN;;;;;0 / 0;104011;2022-11-04 15:30:45:731
2.6025;-8.3321;-0.1891;-0.9599;-9.6132;1.6837;3.2799;1.3146;-2.5384;1.515;0.1103;0.5289;0.0;-31.68;49.56;-17.82;110.08;88.61;7.49;2.0;989.88;66.833;;;;NaN;;;;;0 / 0;104511;2022-11-04 15:30:46:231
-1.9489;-7.9874;0.6991;0.2492;-9.4606;-2.5699;-1.3553;1.7175;1.945;-1.2559;0.7456;-0.7337;0.0;-37.86;47.22;9.18;208.8;84.05;-128.54;2.0;989.8;60.585;;;;NaN;;;;;0 / 0;105012;2022-11-04 15:30:46:732
-1.3815;-17.5022;1.0439;0.6658;-9.2623;-3.1521;-9.6635;-3.5397;5.1393;-0.6077;-0.6038;1.8234;0.0;-41.7;40.8;17.28;262.62;64.08;-168.04;2.0;989.76;59.716;;;;NaN;;;;;0 / 0;105511;2022-11-04 15:30:47:231
2.3128;-14.7297;-0.012;-0.6444;-9.3454;2.9013;2.6507;-3.0903;-5.511;0.5047;-1.3863;-0.3556;0.0;-31.26;44.28;-21.18;93.81;75.11;12.01;2.0;989.79;62.039;;;;NaN;;;;;0 / 0;106011;2022-11-04 15:30:47:731
-1.415;-2.3703;-0.1006;1.0849;-8.6289;-4.5316;-2.0976;4.9466;5.3337;0.5321;-1.1358;-0.1125;0.0;-39.0;37.92;20.94;243.23;68.45;-162.5;2.0;989.83;64.644;;;;NaN;;;;;0 / 0;106511;2022-11-04 15:30:48:231
-0.4908;-8.4016;-0.6536;-0.5839;-9.672;1.5107;1.2614;2.0605;-2.8706;1.4472;-0.9672;0.5131;0.0;-30.12;46.26;-11.1;164.67;88.02;-55.29;2.0;989.78;69.169;;;;NaN;;;;;0 / 0;107011;2022-11-04 15:30:48:731
-2.5881;-7.7815;-2.3535;0.9471;-9.4835;-2.3099;-1.3086;1.2328;2.6188;-0.4862;0.9601;-0.8028;0.0;-33.06;44.4;3.6;240.44;83.13;-149.22;2.0;989.8;65.636;;;;NaN;;;;;0 / 0;107512;2022-11-04 15:30:49:232
-7.1087;-5.2173;1.4581;0.5226;-9.1107;-3.5906;-10.3942;4.0706;0.21;2.0233;-3.4632;2.6004;0.0;-36.48;39.18;14.58;254.79;62.57;-155.83;2.0;989.97;60.017;;;;NaN;;;;;0 / 0;108011;2022-11-04 15:30:49:731
0.8332;-14.3248;-3.869;-0.8348;-9.3707;2.7681;2.3192;-4.7601;-3.7282;-0.0488;-0.101;0.1245;0.0;-24.12;41.7;-20.04;92.41;75.59;17.13;2.0;989.89;60.966;;;;NaN;;;;;0 / 0;108511;2022-11-04 15:30:50:231
-1.8675;-2.5211;-0.2753;1.5334;-9.023;-3.5219;-4.0162;4.9936;3.8834;-0.4422;-1.1053;-0.016;0.0;-34.68;38.16;13.2;237.12;75.31;-153.8;2.0;989.71;63.547;;;;NaN;;;;;0 / 0;109011;2022-11-04 15:30:50:731
-1.1995;-8.9546;1.1756;0.3293;-9.7994;0.1851;-0.4394;-1.0419;2.3025;1.6842;1.6351;0.8069;0.0;-29.1;43.5;2.04;260.45;78.72;-156.9;2.0;989.78;68.048;;;;NaN;;;;;0 / 0;109512;2022-11-04 15:30:51:232
1.7478;-15.0601;-3.8283;0.663;-9.4912;-2.3766;-2.4898;1.5804;1.8283;-1.8533;1.9735;-0.5004;0.0;-27.78;44.16;4.86;173.59;84.99;-94.6;2.0;989.82;66.54;;;;NaN;;;;;0 / 0;110011;2022-11-04 15:30:51:731
-4.0677;-10.0368;0.5674;0.4122;-9.2919;-3.1082;-3.5893;2.0994;5.8519;0.4527;-0.7974;0.0402;0.0;-27.72;44.88;9.18;274.08;66.25;-160.11;2.0;989.81;61.928;;;;NaN;;;;;0 / 0;110511;2022-11-04 15:30:52:231
2.0446;-14.792;-0.8452;-1.3453;-9.3209;2.7351;3.9981;-4.5155;-6.0894;0.1778;-0.7699;-0.1174;0.0;-15.24;44.46;-24.42;99.49;74.9;23.75;2.0;989.82;66.084;;;;NaN;;;;;0 / 0;111011;2022-11-04 15:30:52:731
-0.893;-3.5913;-2.0351;0.67;-9.3906;-2.7456;-2.2239;6.2518;2.6713;-0.0128;-0.5201;0.0512;0.0;-28.62;46.14;12.3;255.82;74.96;-165.43;2.0;989.85;64.545;;;;NaN;;;;;0 / 0;111511;2022-11-04 15:30:53:231
-0.5219;-8.6242;-0.2777;0.3717;-9.7994;0.0654;-0.9176;-1.8176;-2.4452;1.7325;1.5416;0.9223;0.0;-29.16;46.38;7.32;243.59;80.64;-153.73;2.0;989.77;71.926;;;;NaN;;;;;0 / 0;112012;2022-11-04 15:30:53:732
1.7095;-14.0806;-3.3998;0.8507;-9.7525;-0.5782;1.0718;-2.8628;-2.2374;-2.6615;-2.2055;-1.3629;0.0;-28.08;43.02;-2.88;54.34;75.53;24.19;2.0;989.73;59.528;;;;NaN;;;;;0 / 0;112511;2022-11-04 15:30:54:231
9.7878;-22.5229;-6.5341;0.7762;-9.2577;-3.1405;-8.3302;-0.8414;6.4828;1.3702;0.1952;3.3078;0.0;-32.64;35.7;16.5;228.61;70.25;-149.41;2.0;989.71;61.593;;;;NaN;;;;;0 / 0;113011;2022-11-04 15:30:54:731
2.7102;-14.0974;-0.6369;-1.0915;-9.3997;2.5739;3.4953;-4.4726;-3.7638;-0.893;-1.0961;-0.5511;0.0;-19.5;39.24;-19.38;84.82;74.0;25.91;2.0;989.87;66.899;;;;NaN;;;;;0 / 0;113511;2022-11-04 15:30:55:231
-0.68;-5.5261;-5.6674;0.6818;-9.2725;-3.1186;-1.9219;6.8687;1.007;2.198;-1.6618;0.9443;0.0;-29.28;37.68;13.38;263.17;66.41;-165.52;2.0;989.7;63.965;;;;NaN;;;;;0 / 0;114011;2022-11-04 15:30:55:731
-0.6464;-5.5309;1.2186;-0.1271;-9.7346;1.1799;0.096;2.6378;-3.4256;0.4863;1.3651;0.6487;0.0;-26.28;40.56;-7.02;266.39;84.87;-153.46;2.0;989.75;66.007;;;;NaN;;;;;0 / 0;114511;2022-11-04 15:30:56:231
0.2753;-6.7615;1.7573;0.5115;-9.4648;-2.5149;-0.5858;2.021;3.5085;-0.8521;-1.4633;0.6004;0.0;-26.64;40.56;4.38;113.05;86.44;-36.45;2.0;989.73;61.413;;;;NaN;;;;;0 / 0;115012;2022-11-04 15:30:56:732
-7.8174;-8.4614;-8.8445;0.6479;-9.1521;-3.4626;-9.7533;-7.1028;-14.4179;0.0044;-3.9214;3.4128;0.0;-29.52;37.08;10.32;264.74;68.45;-165.41;2.0;989.7;69.465;;;;NaN;;;;;0 / 0;115511;2022-11-04 15:30:57:231
6.1462;-14.0375;-4.3191;0.1227;-9.7754;0.7719;3.6865;-2.7585;2.4436;-1.8362;-1.4455;-2.2725;0.0;-21.48;41.4;-12.0;67.35;72.79;24.58;2.0;989.83;61.918;;;;NaN;;;;;0 / 0;116011;2022-11-04 15:30:57:731
1.8028;-6.5748;-8.1478;0.7119;-9.1058;-3.5704;4.6203;-4.4529;-4.8144;0.0777;0.0224;-1.3672;0.0;-26.76;38.64;17.64;259.46;65.47;-169.63;2.0;989.82;61.386;;;;NaN;;;;;0 / 0;116511;2022-11-04 15:30:58:231
4.2737;-7.9131;-1.5802;-0.7633;-9.4024;2.6799;4.8311;1.0488;-2.292;1.6983;0.4066;0.1325;0.0;-19.92;40.38;-14.82;111.92;82.83;4.04;2.0;989.64;67.67;;;;NaN;;;;;0 / 0;117011;2022-11-04 15:30:58:731
-2.4229;-6.2396;0.3184;1.1567;-9.1677;-3.284;-4.8557;2.1213;3.1332;-0.4953;-0.6594;-0.3739;0.0;-25.74;40.86;6.78;251.71;77.99;-158.52;2.0;989.71;63.837;;;;NaN;;;;;0 / 0;117511;2022-11-04 15:30:59:231
-1.3408;-7.1638;0.7398;0.339;-9.7132;-1.307;-1.6797;-1.954;2.904;1.1149;2.3052;-0.0215;0.0;-24.42;40.38;9.18;237.84;69.66;-137.99;2.0;989.72;65.514;;;;NaN;;;;;0 / 0;118012;2022-11-04 15:30:59:732
3.1699;-12.3568;0.8452;-0.4792;-9.7386;1.0485;4.2501;-3.3484;-5.9159;-2.6804;-1.324;-1.4723;0.0;-18.24;40.8;-14.82;74.24;74.68;28.72;2.0;989.77;61.655;;;;NaN;;;;;0 / 0;118512;2022-11-04 15:31:00:232
3.474;-18.8885;-11.3967;1.9688;-9.2493;-2.5971;-1.9927;-4.3956;16.6968;0.2157;0.3046;-0.8412;0.0;-30.78;36.06;13.98;264.5;69.63;-175.42;2.0;989.81;68.195;;;;NaN;;;;;0 / 0;119012;2022-11-04 15:31:00:732
6.807;-11.8588;-0.735;-1.0075;-9.3645;2.7315;8.4777;-2.5062;-1.9031;0.6427;0.0914;0.163;0.0;-16.08;39.96;-19.02;108.03;77.66;11.95;2.0;989.79;65.454;;;;NaN;;;;;0 / 0;119511;2022-11-04 15:31:01:231
-3.5171;-2.2529;0.2251;1.1992;-8.7665;-4.2285;-4.1633;5.7115;5.2963;0.6812;-1.8652;-0.5205;0.0;-27.78;37.02;20.16;248.35;71.34;-173.24;2.0;989.66;63.084;;;;NaN;;;;;0 / 0;120011;2022-11-04 15:31:01:731
-0.0599;-9.0743;4.5849;0.6082;-9.7831;0.3032;-1.7;-0.2585;3.1182;1.5254;6.5311;0.7452;0.0;-26.52;40.74;5.52;251.56;74.88;-151.24;2.0;989.62;63.39;;;;NaN;;;;;0 / 0;120512;2022-11-04 15:31:02:232
0.4764;-11.6289;-4.0893;1.824;-9.5544;-1.2479;1.6213;-7.6318;-2.4871;-2.0634;-2.3631;-0.3031;0.0;-27.0;40.56;-5.94;89.56;81.08;-0.49;2.0;989.74;62.511;;;;NaN;;;;;0 / 0;121011;2022-11-04 15:31:02:731
-3.7445;-6.5532;0.0646;1.106;-9.3075;-2.884;-5.5233;3.9896;-2.6565;-0.7965;-2.2268;2.2736;0.0;-29.04;39.36;7.56;261.15;69.22;-156.94;2.0;989.66;65.826;;;;NaN;;;;;0 / 0;121511;2022-11-04 15:31:03:231
6.6729;-13.1804;-1.5275;-0.3281;-9.6766;1.5573;2.8444;-2.4599;-6.4944;-2.3536;-0.4132;-1.5107;0.0;-18.9;42.6;-12.66;69.38;71.6;20.73;2.0;989.77;58.929;;;;NaN;;;;;0 / 0;122011;2022-11-04 15:31:03:731
2.1955;-17.5836;-11.6337;-0.1882;-9.204;-3.3795;-0.0225;-12.9214;-21.5498;-1.0421;0.2026;-0.3202;0.0;-21.42;40.8;16.86;270.87;64.64;-173.96;2.0;989.8;63.185;;;;NaN;;;;;0 / 0;122511;2022-11-04 15:31:04:231
2.9688;-8.7032;-0.5411;-0.4887;-9.6068;1.908;4.3123;1.5165;-4.1154;1.5871;-0.7369;0.8649;0.0;-19.86;42.18;-12.72;142.89;88.42;-21.55;2.0;989.62;67.274;;;;NaN;;;;;0 / 0;123011;2022-11-04 15:31:04:731
-0.9002;-7.7431;-0.7135;0.1095;-9.3807;-2.8566;0.252;1.8004;3.0888;-1.4171;0.8849;-0.1277;0.0;-23.34;41.7;11.04;190.23;84.27;-124.07;2.0;989.65;58.536;;;;NaN;;;;;0 / 0;123512;2022-11-04 15:31:05:232
-0.1245;-10.7622;6.309;-0.3627;-9.3322;-2.9914;-1.3539;-0.4053;2.9076;4.3195;-1.5897;-1.614;0.0;-20.7;40.68;17.46;255.08;69.11;-169.23;2.0;989.8;59.909;;;;NaN;;;;;0 / 0;124012;2022-11-04 15:31:05:732
-0.4166;-13.6999;-3.4955;-0.5057;-9.3411;2.9426;1.7866;-5.3599;-6.3544;-1.2424;0.3431;-0.3782;0.0;-19.62;40.44;-17.7;88.77;72.56;15.44;2.0;989.72;56.247;;;;NaN;;;;;0 / 0;124511;2022-11-04 15:31:06:231
-0.3232;-5.8541;-4.8459;0.1879;-9.2932;-3.1259;-0.0682;3.7096;-8.0194;0.7166;-1.7436;-0.0068;0.0;-22.32;41.94;15.48;274.2;67.8;-178.91;2.0;989.7;61.067;;;;NaN;;;;;0 / 0;125011;2022-11-04 15:31:06:731
3.2034;-12.692;-0.182;-0.8523;-9.4702;2.3998;1.3455;-2.4317;-4.3295;0.4173;1.0456;0.6096;0.0;-18.42;41.4;-13.86;104.82;84.67;13.67;2.0;989.7;64.697;;;;NaN;;;;;0 / 0;125511;2022-11-04 15:31:07:231
-0.9888;-6.23;-0.3759;0.6406;-8.6991;-4.4817;-2.0627;0.6207;2.4898;-0.813;-1.1878;-0.4026;0.0;-24.18;39.06;16.62;252.87;72.59;-174.1;2.0;989.61;62.806;;;;NaN;;;;;0 / 0;126011;2022-11-04 15:31:07:731
-1.5299;-8.6577;-3.6416;-0.0748;-9.7163;-1.3258;0.173;2.6651;0.3298;2.9738;-3.7625;-0.8089;0.0;-21.9;42.36;9.36;263.02;74.92;-166.84;2.0;989.56;66.271;;;;NaN;;;;;0 / 0;126511;2022-11-04 15:31:08:231
2.0183;-11.2459;4.774;0.3467;-9.7872;0.5109;3.0818;-0.4076;1.6679;-2.0433;-0.0992;-1.5627;0.0;-19.8;42.18;-11.16;76.91;73.47;10.39;2.0;989.79;61.5;;;;NaN;;;;;0 / 0;127011;2022-11-04 15:31:08:731
2.7007;-8.9905;-8.0735;-0.2621;-9.0755;-3.7064;1.6244;-9.2168;-4.3695;-0.5253;0.3559;-1.2517;0.0;-18.9;43.14;14.16;293.19;61.5;-179.61;2.0;989.83;58.136;;;;NaN;;;;;0 / 0;127511;2022-11-04 15:31:09:231
2.3463;-9.8477;-1.3264;-1.729;-9.2724;2.684;9.1872;-2.4547;-0.3305;0.399;0.4659;-0.6171;0.0;-10.38;41.94;-21.0;103.36;75.53;23.85;2.0;989.65;58.476;;;;NaN;;;;;0 / 0;128012;2022-11-04 15:31:09:732
-2.0231;-1.9345;0.6416;0.3826;-8.5433;-4.7996;-2.3171;5.8857;6.1906;0.7459;-0.8506;0.2247;0.0;-22.98;39.0;18.72;260.71;66.01;-174.47;2.0;989.59;61.009;;;;NaN;;;;;0 / 0;128511;2022-11-04 15:31:10:231
-0.4501;-10.3361;4.6017;-0.0498;-9.8035;0.2416;-1.5926;-0.2141;2.0856;1.3391;7.8158;0.2052;0.0;-21.54;42.78;0.72;290.94;76.65;-178.52;2.0;989.6;68.869;;;;NaN;;;;;0 / 0;129011;2022-11-04 15:31:10:731
1.2306;-9.9937;-1.4892;0.863;-9.4961;-2.2909;1.2343;-9.1289;-1.8032;-0.7256;-2.6037;-0.7765;0.0;-19.86;43.32;-1.2;34.23;83.91;51.41;2.0;989.67;66.62;;;;NaN;;;;;0 / 0;129512;2022-11-04 15:31:11:232
-2.0446;-8.21;0.4908;0.8282;-9.4849;-2.3497;0.017;-3.6357;8.6037;-0.8875;0.687;0.9455;0.0;-25.2;40.68;9.42;292.68;69.03;168.76;2.0;989.72;64.635;;;;NaN;;;;;0 / 0;130011;2022-11-04 15:31:11:731
8.4279;-14.2243;-3.134;-1.0007;-9.3728;2.7055;7.8364;-4.964;-0.5651;0.4191;0.2698;-0.4649;0.0;-17.22;42.78;-12.18;82.83;75.94;11.74;2.0;989.71;53.464;;;;NaN;;;;;0 / 0;130512;2022-11-04 15:31:12:232
-2.7294;-2.3296;0.2682;-0.3523;-8.9829;-3.9183;-2.4011;-18.0461;-13.0237;-0.8209;1.3278;-0.493;0.0;-16.86;37.86;26.34;244.08;60.84;-171.12;2.0;989.58;58.843;;;;NaN;;;;;0 / 0;131011;2022-11-04 15:31:12:731
2.0997;-9.9099;1.3096;-0.0648;-9.7779;0.7469;1.7216;0.4762;-0.1124;1.5535;2.2264;0.7574;0.0;-22.62;43.44;1.44;230.87;85.13;-136.17;2.0;989.62;59.404;;;;NaN;;;;;0 / 0;131511;2022-11-04 15:31:13:231
-2.727;-7.4056;-1.2522;0.1488;-9.4051;-2.7734;-2.057;2.0666;0.1542;-0.6175;0.5667;-0.7392;0.0;-20.58;44.46;6.54;283.97;76.74;174.21;2.0;989.66;57.631;;;;NaN;;;;;0 / 0;132011;2022-11-04 15:31:13:731
2.4373;-2.8252;-0.826;0.6811;-9.1087;-3.5688;-0.0922;6.681;-0.0488;1.7643;-0.5726;-0.1284;0.0;-24.96;39.78;18.36;250.63;68.8;-166.97;2.0;989.64;59.204;;;;NaN;;;;;0 / 0;132512;2022-11-04 15:31:14:232
0.8308;-9.364;0.7254;-0.9255;-9.4302;2.5267;0.8417;1.1604;-8.0001;0.8205;1.9069;0.4092;0.0;-16.62;42.78;-18.42;103.81;83.04;20.84;2.0;989.59;67.123;;;;NaN;;;;;0 / 0;133011;2022-11-04 15:31:14:731
-0.9433;-9.2419;0.1628;0.4561;-9.364;-2.877;-0.7745;0.7302;4.462;-1.612;-0.0699;-1.0508;0.0;-22.26;44.52;8.1;255.29;80.71;-167.39;2.0;989.59;62.901;;;;NaN;;;;;0 / 0;133511;2022-11-04 15:31:15:231
-0.905;-12.3711;2.2889;-0.3096;-9.8008;-0.1322;-1.3447;-0.0013;-4.0122;1.3336;1.497;0.408;0.0;-22.62;43.38;3.78;284.59;80.53;172.63;2.0;989.65;66.99;;;;NaN;;;;;0 / 0;134011;2022-11-04 15:31:15:731
-0.5195;-13.4605;-3.0646;-0.007;-9.7989;-0.39;-1.3793;-1.6888;0.5935;-3.2784;-2.1242;-0.8192;0.0;-21.0;42.84;-4.5;45.65;73.58;31.79;2.0;989.7;53.52;;;;NaN;;;;;0 / 0;134512;2022-11-04 15:31:16:232
6.2947;-1.3144;-4.5873;1.0349;-9.2873;-2.9741;1.2851;7.5204;-5.5113;1.2352;0.3504;-2.0734;0.0;-26.04;39.9;12.96;265.31;73.03;-176.94;2.0;989.73;58.89;;;;NaN;;;;;0 / 0;135011;2022-11-04 15:31:16:731
3.6296;-10.5683;2.2314;-1.4484;-9.4266;2.283;0.9959;-0.6581;-2.8552;0.2915;-1.1462;0.3652;0.0;-15.78;42.3;-17.04;96.07;80.5;23.16;2.0;989.69;65.627;;;;NaN;;;;;0 / 0;135511;2022-11-04 15:31:17:231
-2.3703;-6.0816;0.3926;0.7721;-9.0048;-3.8062;-3.231;2.2984;4.0384;-0.4819;-1.3588;-0.7679;0.0;-25.26;39.78;13.38;260.14;72.78;-171.52;2.0;989.57;62.218;;;;NaN;;;;;0 / 0;136011;2022-11-04 15:31:17:731
-1.7549;-7.5899;-2.7294;-0.0013;-9.7899;-0.572;-1.7274;0.6127;1.7044;2.2016;-0.4303;0.1007;0.0;-23.46;43.08;4.86;280.77;76.51;-177.85;2.0;989.52;64.71;;;;NaN;;;;;0 / 0;136512;2022-11-04 15:31:18:232
1.8196;-13.1564;2.6384;0.5227;-9.396;-2.759;-0.5946;1.9521;3.7118;-0.9297;-1.8444;0.0164;0.0;-24.48;42.66;4.56;334.1;89.35;104.62;2.0;989.63;57.192;;;;NaN;;;;;0 / 0;137012;2022-11-04 15:31:18:732
-8.3704;-3.5889;-6.7041;0.4735;-9.2044;-3.3503;-6.0811;2.7948;-0.7654;0.5413;-2.9018;2.2632;0.0;-27.9;39.0;11.34;264.41;71.89;-170.62;2.0;989.7;64.159;;;;NaN;;;;;0 / 0;137511;2022-11-04 15:31:19:231
2.3367;-11.7391;-1.3934;-0.9457;-9.456;2.4206;5.612;-4.1026;-6.1364;-1.4623;0.3382;-0.3434;0.0;-17.88;42.66;-16.98;80.03;74.01;24.41;2.0;989.69;62.231;;;;NaN;;;;;0 / 0;138011;2022-11-04 15:31:19:731
-0.5698;-15.3618;-27.0482;-0.2033;-9.3974;-2.796;0.9766;3.2153;-5.3637;0.2493;3.2624;1.1166;0.0;-23.46;42.84;14.46;277.09;64.21;-169.34;2.0;989.56;61.295;;;;NaN;;;;;0 / 0;138511;2022-11-04 15:31:20:231
2.6791;-8.8995;1.0008;-1.0022;-9.6148;1.6499;2.2232;1.6226;-1.3099;1.6745;-0.3099;0.4306;0.0;-17.76;44.1;-11.76;86.62;87.37;31.72;2.0;989.56;63.436;;;;NaN;;;;;0 / 0;139011;2022-11-04 15:31:20:731
-2.5139;-6.3952;0.644;-0.0322;-9.2751;-3.1846;-1.5432;2.152;2.7609;-1.2284;2.3009;-0.2933;0.0;-21.66;43.2;12.72;220.66;82.05;-152.21;2.0;989.54;62.944;;;;NaN;;;;;0 / 0;139511;2022-11-04 15:31:21:231
0.7135;-14.0279;2.4229;-0.3725;-9.7995;-0.0246;0.8825;0.6342;-5.5327;1.5779;3.9478;0.2198;0.0;-22.14;45.6;4.26;300.56;72.44;171.53;2.0;989.65;66.054;;;;NaN;;;;;0 / 0;140012;2022-11-04 15:31:21:732
-3.1268;-12.1389;-0.7015;0.259;-9.5058;-2.3962;-2.7131;-8.1305;-0.7354;-2.4031;-1.514;0.6279;0.0;-23.1;43.26;5.22;38.38;82.01;30.52;2.0;989.64;57.123;;;;NaN;;;;;0 / 0;140511;2022-11-04 15:31:22:231
-3.6607;-18.752;8.2986;0.5618;-9.5358;-2.2188;3.4604;-1.8753;12.1431;2.0727;-0.6233;1.4733;0.0;-26.16;40.62;12.48;279.53;70.01;175.93;2.0;989.68;60.19;;;;NaN;;;;;0 / 0;141012;2022-11-04 15:31:22:732
7.4582;-11.1022;2.0183;-1.6918;-9.2372;2.8253;8.1182;-1.9488;-1.4893;0.2994;-2.0E-4;-0.468;0.0;-13.98;41.7;-17.94;91.35;76.54;24.59;2.0;989.65;64.15;;;;NaN;;;;;0 / 0;141511;2022-11-04 15:31:23:231
-1.8244;-3.2417;1.4557;0.2802;-8.7575;-4.4042;-1.913;4.7233;5.8336;0.5547;-1.2262;-0.3599;0.0;-24.78;38.22;19.26;252.89;70.54;-175.17;2.0;989.52;59.29;;;;NaN;;;;;0 / 0;142011;2022-11-04 15:31:23:731
-2.5235;-9.9913;-0.0215;0.0774;-9.7968;0.4314;-3.8674;2.3673;-3.3068;1.7129;5.329;0.0787;0.0;-23.46;42.66;3.84;286.59;76.38;178.35;2.0;989.55;66.071;;;;NaN;;;;;0 / 0;142511;2022-11-04 15:31:24:231
-2.1165;-11.4063;0.7183;0.3561;-9.077;-3.6947;-1.6801;3.1966;4.4129;-1.5265;0.6253;-0.4387;0.0;-22.74;41.82;13.08;232.7;77.0;-154.66;2.0;989.53;62.534;;;;NaN;;;;;0 / 0;143012;2022-11-04 15:31:24:732
-0.5842;-9.1342;-0.2945;-0.2399;-9.7393;-1.1219;0.6062;-3.5704;2.647;1.4307;-0.5952;0.1215;0.0;-20.7;43.38;13.2;244.37;78.49;-167.11;2.0;989.6;63.513;;;;NaN;;;;;0 / 0;143512;2022-11-04 15:31:25:232
-0.7183;-12.6201;2.2577;-0.4214;-9.7877;0.4405;1.585;-2.6242;1.2115;-2.7604;-0.0314;-1.2847;0.0;-19.98;43.98;-7.86;52.81;71.52;28.25;2.0;989.7;57.686;;;;NaN;;;;;0 / 0;144011;2022-11-04 15:31:25:731
0.6512;-4.6017;-8.8134;0.3013;-9.1379;-3.5465;4.7795;2.3524;-3.7393;-0.2174;-0.8664;-1.6989;0.0;-23.4;40.44;19.5;251.64;69.9;-174.61;2.0;989.64;59.257;;;;NaN;;;;;0 / 0;144512;2022-11-04 15:31:26:232
3.4477;-9.1916;-3.2896;-1.1493;-9.3128;2.8498;5.2745;1.5601;-3.1156;0.9188;0.8397;0.5271;0.0;-18.9;41.58;-16.56;109.83;84.64;13.55;2.0;989.51;63.958;;;;NaN;;;;;0 / 0;145011;2022-11-04 15:31:26:731
-2.6767;-7.7001;-0.9385;0.8418;-8.501;-4.816;-2.7524;1.1625;3.2933;-1.7213;-1.7791;-0.5651;0.0;-26.16;39.3;17.22;245.28;72.3;-166.24;2.0;989.5;57.842;;;;NaN;;;;;0 / 0;145511;2022-11-04 15:31:27:231
-0.6393;-7.9036;0.2729;-0.4696;-9.7235;1.1848;-0.4115;0.1104;-0.4067;2.0379;1.4976;0.4514;0.0;-22.56;43.26;-4.32;309.02;84.02;159.29;2.0;989.47;68.002;;;;NaN;;;;;0 / 0;146011;2022-11-04 15:31:27:731
3.3232;-7.3697;-2.6839;-0.0384;-9.3815;-2.8558;0.7303;-0.6361;0.8039;-1.907;-0.5897;-0.4155;0.0;-24.36;42.0;12.3;65.48;87.96;-4.94;2.0;989.5;62.661;;;;NaN;;;;;0 / 0;146512;2022-11-04 15:31:28:232
-0.0359;-10.4486;0.51;-0.6152;-9.458;-2.5174;-1.0296;2.9646;1.1432;-0.8857;-1.1847;0.5515;0.0;-21.42;42.3;14.16;272.45;71.3;177.96;2.0;989.56;65.686;;;;NaN;;;;;0 / 0;147012;2022-11-04 15:31:28:732
0.5004;-12.249;-0.3352;-1.2975;-9.2553;2.9709;2.1929;-4.6912;-5.6931;-1.5937;0.5514;-0.2023;0.0;-17.52;42.42;-18.0;70.94;69.49;29.86;2.0;989.66;56.298;;;;NaN;;;;;0 / 0;147511;2022-11-04 15:31:29:231
-1.5921;-8.9235;-10.2906;-0.481;-9.3276;-2.9892;-0.0888;6.2175;-0.1592;2.6256;-1.7265;0.4795;0.0;-22.44;39.54;22.26;268.99;61.65;-179.95;2.0;989.49;60.733;;;;NaN;;;;;0 / 0;148011;2022-11-04 15:31:29:731
3.0095;-8.143;-4.719;-0.9712;-9.5579;1.9679;2.2497;2.7509;-4.5249;0.4973;2.2771;-0.151;0.0;-21.78;43.44;-8.52;331.54;89.27;141.33;2.0;989.52;66.674;;;;NaN;;;;;0 / 0;148511;2022-11-04 15:31:30:231
0.2155;-7.8006;0.0239;0.3997;-8.4056;-5.0354;-3.3135;2.2762;5.7872;-0.2553;-0.9727;-0.5645;0.0;-27.84;37.26;22.92;256.82;70.26;175.4;2.0;989.53;61.859;;;;NaN;;;;;0 / 0;149011;2022-11-04 15:31:30:731
3.201;-9.9195;-1.2282;-0.5825;-9.7845;0.306;2.9743;2.0581;-3.5381;2.5046;3.343;0.1636;0.0;-24.6;44.64;-0.36;265.57;83.02;-162.84;2.0;989.44;69.342;;;;NaN;;;;;0 / 0;149512;2022-11-04 15:31:31:232
2.2769;-8.0616;1.0223;-0.2346;-9.1088;-3.6255;1.5753;1.2005;2.6989;-1.9193;-2.1248;-0.5633;0.0;-25.2;44.04;9.3;312.84;85.68;122.53;2.0;989.55;62.078;;;;NaN;;;;;0 / 0;150011;2022-11-04 15:31:31:731
-2.2314;-17.8901;2.9592;0.2955;-9.6557;-1.6881;-3.4008;0.4138;4.4127;0.6109;-2.3398;2.6951;0.0;-32.1;41.76;11.82;246.59;76.81;-161.33;2.0;989.49;65.435;;;;NaN;;;;;0 / 0;150511;2022-11-04 15:31:32:231
3.7134;-13.1708;-2.1476;-1.2448;-9.448;2.3144;4.3501;-3.9359;-4.5147;-3.3224;-0.8231;-1.3739;0.0;-20.34;43.14;-19.32;68.68;67.25;29.46;2.0;989.66;60.708;;;;NaN;;;;;0 / 0;151011;2022-11-04 15:31:32:731
-2.6624;-20.8613;-13.6137;-0.9229;-9.354;-2.7966;-1.5815;-17.0789;-32.0044;-1.3786;1.0755;0.7605;0.0;-23.46;43.74;20.04;279.37;62.24;176.75;2.0;989.61;64.68;;;;NaN;;;;;0 / 0;151511;2022-11-04 15:31:33:231
2.6504;-4.7908;3.7158;-2.5353;-8.8136;3.4732;4.9272;-2.4682;-0.7031;0.3428;-0.1059;0.5503;0.0;-17.46;43.5;-22.44;88.98;74.9;28.08;2.0;989.45;58.528;;;;NaN;;;;;0 / 0;152011;2022-11-04 15:31:33:731
-2.1237;2.1452;3.5482;-0.1018;-9.1588;-3.5038;-3.2884;10.0446;8.2251;0.2878;-1.9996;0.2272;0.0;-27.18;37.74;25.86;245.52;72.37;178.51;2.0;989.46;64.182;;;;NaN;;;;;0 / 0;152511;2022-11-04 15:31:34:231
4.0869;-6.9698;4.0247;-0.5729;-9.7227;1.145;1.9208;2.9013;2.5421;2.0489;2.5233;-0.1797;0.0;-26.64;43.92;-1.62;289.01;86.25;170.97;2.0;989.52;69.509;;;;NaN;;;;;0 / 0;153012;2022-11-04 15:31:34:732
-0.5387;-9.7615;1.4916;-0.648;-9.6502;-1.6197;-1.0878;1.3995;3.5446;-1.3567;0.5685;0.4801;0.0;-25.86;41.58;12.6;86.24;86.39;-28.03;2.0;989.51;57.1;;;;NaN;;;;;0 / 0;153511;2022-11-04 15:31:35:231
-8.2364;-4.9922;-4.3886;-0.1203;-9.4324;-2.6806;-4.3138;5.628;2.3095;-2.2613;-2.3392;1.4965;0.0;-25.86;39.6;13.86;275.03;72.31;171.9;2.0;989.54;59.741;;;;NaN;;;;;0 / 0;154012;2022-11-04 15:31:35:732
2.1715;-14.3799;-1.2019;-1.7541;-9.2323;2.8031;4.1172;-4.47;-6.6099;-1.0042;-0.7522;-0.8223;0.0;-16.08;41.4;-18.36;68.09;70.2;37.19;2.0;989.58;61.223;;;;NaN;;;;;0 / 0;154511;2022-11-04 15:31:36:231
-0.8835;-12.9577;-15.3355;-0.0671;-9.3454;-2.9713;2.5619;7.2242;-8.3919;0.4216;-0.817;-1.785;0.0;-24.96;40.92;16.5;274.14;75.94;161.33;2.0;989.62;64.887;;;;NaN;;;;;0 / 0;155011;2022-11-04 15:31:36:731
5.0281;-12.7614;2.1955;-2.0387;-9.1187;2.9772;6.0083;-3.3243;-2.3451;0.5334;0.1849;0.0421;0.0;-15.3;40.74;-21.24;86.17;76.41;35.89;2.0;989.63;62.062;;;;NaN;;;;;0 / 0;155511;2022-11-04 15:31:37:231
-2.8323;-5.0066;2.9808;-0.5778;-8.8946;-4.0892;-3.2816;2.9711;5.1905;-0.5656;-2.2164;0.1209;0.0;-25.08;41.64;14.88;277.51;74.03;165.33;2.0;989.47;62.464;;;;NaN;;;;;0 / 0;156011;2022-11-04 15:31:37:731
-2.7438;-6.9004;-5.2771;-0.7075;-9.7548;0.7166;-4.1;2.3684;-7.8181;0.6708;6.6686;0.0054;0.0;-24.72;44.82;8.28;301.3;75.55;152.1;2.0;989.52;65.8;;;;NaN;;;;;0 / 0;156511;2022-11-04 15:31:38:231
-2.5283;-13.5515;-0.905;-0.3917;-9.6755;-1.5497;-0.3697;-9.2321;-1.3737;-2.6926;-3.2262;1.0146;0.0;-26.76;43.8;4.62;30.37;77.03;39.24;2.0;989.57;61.324;;;;NaN;;;;;0 / 0;157012;2022-11-04 15:31:38:732
-2.162;-2.6049;1.8794;-0.351;-9.5409;-2.2402;-1.5165;4.1584;9.6337;-0.8002;1.1415;-0.6305;0.0;-25.8;42.42;16.68;286.74;69.71;157.47;2.0;989.41;67.478;;;;NaN;;;;;0 / 0;157511;2022-11-04 15:31:39:231
0.7278;-14.5163;-4.7357;-1.1084;-9.7039;0.8806;2.7197;-1.8628;1.6333;-2.1538;-0.8817;-1.8253;0.0;-21.78;44.22;-11.16;48.49;66.35;36.28;2.0;989.65;59.422;;;;NaN;;;;;0 / 0;158011;2022-11-04 15:31:39:731
2.2146;0.2825;-9.7519;-0.3624;-9.3641;-2.8901;1.7535;4.1803;-5.7844;0.4057;-1.9782;-1.5376;0.0;-27.0;42.24;16.14;279.41;71.73;165.25;2.0;989.61;63.635;;;;NaN;;;;;0 / 0;158512;2022-11-04 15:31:40:232
6.4934;-8.5715;-6.4503;-2.6877;-9.1083;2.4464;5.8313;-2.7098;-0.7848;2.2334;0.7481;1.0922;0.0;-19.26;43.38;-16.68;68.55;76.79;42.27;2.0;989.43;59.018;;;;NaN;;;;;0 / 0;159011;2022-11-04 15:31:40:731
-1.8675;-4.8435;3.2034;-0.3603;-9.223;-3.3131;-2.1656;4.0943;3.9811;0.7411;-1.0845;0.003;0.0;-26.04;39.84;15.72;272.65;70.13;173.79;2.0;989.4;61.52;;;;NaN;;;;;0 / 0;159511;2022-11-04 15:31:41:231
-1.008;-6.2228;1.7765;-0.5657;-9.7842;0.3467;-0.5931;1.6771;4.0514;2.6702;3.4139;0.3206;0.0;-26.7;42.66;0.36;28.6;86.12;58.5;2.0;989.45;67.969;;;;NaN;;;;;0 / 0;160011;2022-11-04 15:31:41:731
-1.561;-7.4271;1.1492;-0.1451;-9.8053;-0.0712;0.4252;-6.2963;-2.0166;-1.7818;-3.7314;1.0274;0.0;-30.24;41.34;2.22;330.69;89.06;116.12;2.0;989.52;63.105;;;;NaN;;;;;0 / 0;160511;2022-11-04 15:31:42:231
-3.644;-7.0177;2.1093;-0.4657;-9.7017;-1.3526;-1.4592;-2.2815;4.094;0.1113;-0.6453;0.3164;0.0;-31.68;39.18;10.98;267.34;75.73;-179.2;2.0;989.59;65.789;;;;NaN;;;;;0 / 0;161011;2022-11-04 15:31:42:731
3.1867;-14.7154;-1.336;-1.5476;-9.4554;2.0904;4.1908;-2.5781;-3.8046;-0.4507;-0.8951;-0.6653;0.0;-18.3;40.08;-21.84;70.66;68.52;40.17;2.0;989.67;62.533;;;;NaN;;;;;0 / 0;161511;2022-11-04 15:31:43:231
-1.1492;-5.5477;-3.9576;-1.2969;-9.5221;-1.954;-5.8597;-21.0264;-20.09;2.1216;-1.9122;0.2498;0.0;-25.26;39.54;20.76;271.61;65.53;172.07;2.0;989.4;67.454;;;;NaN;;;;;0 / 0;162011;2022-11-04 15:31:43:731
1.0463;-7.6115;1.1109;-2.3392;-9.3139;1.9875;6.7277;0.9219;-3.8167;0.2799;1.1922;0.6511;0.0;-14.52;39.72;-21.96;69.6;71.76;49.65;2.0;989.53;62.09;;;;NaN;;;;;0 / 0;162512;2022-11-04 15:31:44:232
0.0934;-5.7057;0.984;-1.8525;-9.0513;-3.2882;3.2962;3.5707;4.3105;-0.3402;-1.0925;-0.7716;0.0;-22.08;42.24;13.38;301.53;67.37;150.6;2.0;989.43;59.73;;;;NaN;;;;;0 / 0;163011;2022-11-04 15:31:44:731
-3.4836;-8.2316;0.9266;-1.019;-9.6621;-1.3321;-2.3568;-1.7202;3.9131;3.2071;1.2172;0.0134;0.0;-26.76;41.82;3.84;310.25;80.15;142.59;2.0;989.53;69.574;;;;NaN;;;;;0 / 0;163511;2022-11-04 15:31:45:231
1.8986;-17.5238;-3.4261;-0.6943;-9.6282;-1.7279;-0.5387;-2.0654;1.1269;-3.155;-1.3563;-1.2261;0.0;-23.1;42.12;-10.62;44.52;76.69;56.18;2.0;989.56;62.778;;;;NaN;;;;;0 / 0;164011;2022-11-04 15:31:45:731
-0.395;-26.1983;11.8779;-1.2589;-9.5769;-1.6938;-1.9374;2.1282;0.025;1.7264;0.0554;-0.9646;0.0;-25.26;40.32;14.76;298.02;69.54;145.86;2.0;989.62;61.411;;;;NaN;;;;;0 / 0;164511;2022-11-04 15:31:46:231
7.736;-12.0503;0.929;-2.9314;-8.884;2.9412;6.142;-3.7074;-8.9869;-0.0891;1.3938;0.3536;0.0;-15.48;39.6;-21.12;67.82;68.13;43.45;2.0;989.61;66.715;;;;NaN;;;;;0 / 0;165011;2022-11-04 15:31:46:731
-1.6281;-2.1763;1.7262;-1.438;-9.1635;-3.1832;0.9688;7.964;1.6054;-1.9205;2.1977;1.2394;0.0;-21.3;40.26;17.28;286.72;69.13;155.69;2.0;989.6;62.392;;;;NaN;;;;;0 / 0;165512;2022-11-04 15:31:47:232
-1.5586;-8.301;-5.0784;-1.5765;-9.5593;1.5181;1.4903;0.4754;-1.1806;1.672;-1.247;0.9944;0.0;-18.36;41.1;-13.38;59.25;77.1;46.08;2.0;989.55;64.893;;;;NaN;;;;;0 / 0;166011;2022-11-04 15:31:47:731
-1.4006;-6.1079;0.2155;-0.8398;-9.5498;-2.0657;1.8118;3.3173;-1.3532;-1.2027;0.7627;0.141;0.0;-24.48;40.32;8.88;290.89;76.86;157.88;2.0;989.44;60.013;;;;NaN;;;;;0 / 0;166512;2022-11-04 15:31:48:232
-0.0072;-9.0743;0.8284;-1.5466;-9.6824;-0.1679;-0.3113;1.7573;-0.4259;2.0697;-1.5604;-1.0917;0.0;-20.04;42.48;12.6;299.16;76.25;139.04;2.0;989.58;68.112;;;;NaN;;;;;0 / 0;167012;2022-11-04 15:31:48:732
0.9864;-12.838;2.0111;-1.5509;-9.6819;0.1621;0.0569;-5.2394;-0.4135;-3.4965;0.012;-0.7185;0.0;-16.5;39.6;-18.48;56.39;65.89;47.5;2.0;989.53;61.959;;;;NaN;;;;;0 / 0;167511;2022-11-04 15:31:49:231
-0.4597;-5.0018;-8.8421;-1.334;-9.4259;-2.3544;-0.6676;2.5351;-6.9881;-1.2052;1.7994;0.5161;0.0;-21.54;41.4;14.28;296.59;73.05;145.03;2.0;989.59;65.95;;;;NaN;;;;;0 / 0;168011;2022-11-04 15:31:49:731
3.9241;-8.3776;-3.9073;-3.2036;-8.9776;2.3042;6.9362;-1.9307;-3.0057;-1.006;-1.1609;-0.702;0.0;-13.32;40.44;-22.26;61.19;66.27;54.27;2.0;989.67;70.488;;;;NaN;;;;;0 / 0;168511;2022-11-04 15:31:50:231
-1.0726;-3.1508;0.8236;-1.7356;-9.1348;-3.1164;0.3757;7.1979;3.0638;0.9781;-0.0051;-0.4863;0.0;-22.32;41.64;13.08;299.87;68.67;150.89;2.0;989.48;62.946;;;;NaN;;;;;0 / 0;169011;2022-11-04 15:31:50:731
3.0167;-8.9977;2.0662;-1.5403;-9.5605;1.5472;1.368;0.6514;-1.3198;1.2688;1.4182;1.2956;0.0;-19.86;41.7;-13.62;60.81;77.14;44.87;2.0;989.45;67.862;;;;NaN;;;;;0 / 0;169511;2022-11-04 15:31:51:231
0.6632;-6.4144;3.1508;-1.8252;-9.1698;-2.9586;1.6026;3.014;4.2897;-1.3011;-1.2354;-0.1705;0.0;-21.54;42.12;10.26;307.14;74.97;139.01;2.0;989.54;61.147;;;;NaN;;;;;0 / 0;170011;2022-11-04 15:31:51:731
-0.5578;-8.6386;1.9345;-1.4295;-9.6976;-0.2868;-0.5649;2.917;4.2899;0.4588;-2.0845;-0.972;0.0;-20.82;42.42;16.74;295.11;77.19;133.91;2.0;989.52;68.877;;;;NaN;;;;;0 / 0;170512;2022-11-04 15:31:52:232
-2.241;-13.5156;3.6727;-1.2083;-9.7318;-0.0551;1.3759;-5.1464;-4.2305;-2.524;-1.1383;-1.6219;0.0;-19.62;41.64;-13.56;51.7;66.37;41.0;2.0;989.67;58.655;;;;NaN;;;;;0 / 0;171011;2022-11-04 15:31:52:731
-3.7828;-15.9101;-12.8811;-1.0518;-9.5504;-1.9629;6.0248;3.6987;16.3883;7.0E-4;0.6931;1.9932;0.0;-27.96;39.24;14.16;287.25;76.87;151.82;2.0;989.52;66.379;;;;NaN;;;;;0 / 0;171514;2022-11-04 15:31:53:234
4.1659;-11.5475;0.4405;-3.3968;-8.6222;3.2079;12.8518;-2.5447;-2.3316;-1.3206;-0.9477;-0.8205;0.0;-16.92;40.32;-20.46;55.75;61.55;46.64;2.0;989.52;64.771;;;;NaN;;;;;0 / 0;172011;2022-11-04 15:31:53:731
-7.0704;-25.9301;-18.8693;-1.2894;-9.2826;-2.8879;-0.4176;9.206;3.5918;-1.4141;0.7505;0.3347;0.0;-23.04;38.7;19.86;278.13;71.19;155.94;2.0;989.51;61.337;;;;NaN;;;;;0 / 0;172511;2022-11-04 15:31:54:231
3.6583;-9.8429;-1.7142;-3.0183;-8.6119;3.591;6.0566;-2.0881;-6.8807;1.8907;-0.8377;0.9901;0.0;-21.96;41.4;-10.74;57.05;73.72;36.81;2.0;989.52;70.932;;;;NaN;;;;;0 / 0;173012;2022-11-04 15:31:54:732
-0.5052;-4.2377;3.1196;-1.262;-9.3041;-2.8304;-0.3325;4.4271;5.5;-1.1508;0.1244;-0.3312;0.0;-24.42;39.06;15.3;292.03;76.73;142.88;2.0;989.44;58.718;;;;NaN;;;;;0 / 0;173511;2022-11-04 15:31:55:231
-1.4126;-7.4965;2.6001;-1.4085;-9.5617;1.6613;1.2768;1.7108;-11.7987;3.7343;-0.4614;-0.0153;0.0;-23.1;40.38;13.8;298.71;77.58;135.96;2.0;989.53;66.167;;;;NaN;;;;;0 / 0;174011;2022-11-04 15:31:55:731
-0.7111;-15.4576;-1.585;-1.3729;-9.7048;-0.3189;0.8797;-9.052;-1.8814;-0.8845;-1.9226;0.0445;0.0;-23.28;41.64;8.1;333.8;81.74;103.08;2.0;989.54;58.232;;;;NaN;;;;;0 / 0;174511;2022-11-04 15:31:56:231
11.6241;-32.0281;2.1284;-1.2112;-9.6234;-1.4471;-0.0362;9.2546;7.069;1.0007;0.7664;1.8527;0.0;-23.64;39.36;16.2;290.26;78.91;140.07;2.0;989.52;69.794;;;;NaN;;;;;0 / 0;175012;2022-11-04 15:31:56:732
-6.3952;-14.6337;-0.1173;-2.7095;-8.6408;3.7638;8.9993;-8.1767;-5.8826;-4.1049;-1.1542;0.028;0.0;-22.38;39.78;-11.7;48.94;61.78;35.75;2.0;989.62;63.265;;;;NaN;;;;;0 / 0;175511;2022-11-04 15:31:57:231
1.3216;-4.4628;-7.9586;-0.7983;-9.5447;-2.1051;15.6214;-11.6781;7.569;-0.4587;2.0309;-1.1821;0.0;-20.34;39.78;16.98;298.98;77.4;127.29;2.0;989.67;66.827;;;;NaN;;;;;0 / 0;176011;2022-11-04 15:31:57:731
0.8284;-11.6218;-0.9026;-3.3208;-8.7476;2.9364;11.763;-2.6683;0.8943;0.2426;1.3638;0.5668;0.0;-17.28;41.04;-17.34;57.74;69.9;47.71;2.0;989.65;67.391;;;;NaN;;;;;0 / 0;176511;2022-11-04 15:31:58:231
-1.8435;-5.5932;1.7406;-2.1334;-9.0345;-3.1616;-0.39;5.2206;4.2438;-0.5253;-1.2268;-0.3238;0.0;-19.74;40.62;18.36;295.52;69.11;142.12;2.0;989.53;60.164;;;;NaN;;;;;0 / 0;177011;2022-11-04 15:31:58:731
0.2777;-6.8573;-3.9073;-1.4162;-9.5784;1.5551;-0.7506;1.6773;1.543;2.052;5.4169;0.7714;0.0;-22.26;41.7;-6.84;48.71;77.62;42.32;2.0;989.45;65.53;;;;NaN;;;;;0 / 0;177512;2022-11-04 15:31:59:232
-1.1923;-19.5253;-0.838;-1.5565;-9.5873;-1.353;-0.7371;2.0094;2.0761;-1.2534;1.2734;-0.2676;0.0;-21.6;41.58;12.84;304.6;77.86;131.0;2.0;989.6;61.453;;;;NaN;;;;;0 / 0;178012;2022-11-04 15:31:59:732
-2.6097;-7.4415;1.5083;-1.1843;-9.6367;-1.379;-2.9409;-4.9587;6.019;0.7337;-0.5671;-0.9115;0.0;-20.88;39.54;16.62;286.86;79.32;139.34;2.0;989.51;70.046;;;;NaN;;;;;0 / 0;178511;2022-11-04 15:32:00:231
-1.0894;-14.6576;4.5298;-1.2787;-9.7212;0.1816;-0.2871;-7.7954;-3.3707;-2.4348;-1.7632;-1.8302;0.0;-16.8;41.58;-11.34;42.33;65.03;45.41;2.0;989.71;63.39;;;;NaN;;;;;0 / 0;179011;2022-11-04 15:32:00:731
0.0694;-7.2811;-8.8636;-1.2862;-9.5474;-1.8337;4.6572;-12.9371;16.1705;1.716;3.0914;-1.4051;0.0;-20.28;39.12;19.08;286.75;75.73;139.31;2.0;989.73;64.6;;;;NaN;;;;;0 / 0;179512;2022-11-04 15:32:01:232
1.3958;-11.7774;1.3048;-3.5186;-8.58;3.1895;10.9338;-2.017;-1.3795;0.4161;0.3577;0.8038;0.0;-14.22;39.9;-16.98;58.2;67.36;45.46;2.0;989.57;66.069;;;;NaN;;;;;0 / 0;180011;2022-11-04 15:32:01:731
-2.0901;-4.0247;2.1572;-1.2093;-9.4939;-2.1386;-0.0237;7.0757;4.2718;1.3519;-3.5713;0.8331;0.0;-24.06;40.32;16.56;283.7;75.49;150.51;2.0;989.47;60.333;;;;NaN;;;;;0 / 0;180511;2022-11-04 15:32:02:231
-3.699;-8.2435;-2.296;-0.8034;-9.5715;1.9774;1.6318;-0.6424;-6.2606;1.9054;3.0046;0.2638;0.0;-24.78;41.82;-8.22;67.03;77.43;22.11;2.0;989.53;68.766;;;;NaN;;;;;0 / 0;181011;2022-11-04 15:32:02:731
-0.8068;-5.1407;2.545;-1.5193;-9.5081;-1.8595;2.149;3.7713;1.2897;-0.7714;0.7927;-0.3599;0.0;-24.3;41.28;15.72;293.95;75.83;140.75;2.0;989.57;57.48;;;;NaN;;;;;0 / 0;181511;2022-11-04 15:32:03:231
-1.4581;-8.0281;1.7262;-0.7687;-9.6967;1.2467;-3.7635;1.9727;-3.5403;1.7539;-1.4523;-0.7918;0.0;-23.34;40.62;19.02;294.44;78.8;129.88;2.0;989.66;68.229;;;;NaN;;;;;0 / 0;182011;2022-11-04 15:32:03:731
-2.3487;-16.3338;-1.1325;-1.1042;-9.7328;-0.4731;-0.1743;-7.9825;-0.202;-2.9296;0.0865;-1.1607;0.0;-25.08;42.78;-7.26;42.01;67.93;40.3;2.0;989.63;62.253;;;;NaN;;;;;0 / 0;182512;2022-11-04 15:32:04:232
13.7263;-18.5628;2.6288;-0.4048;-9.7634;-0.8261;-0.3853;-1.1377;2.8708;-0.0641;-5.5835;-1.749;0.0;-27.24;38.22;19.62;286.74;74.14;143.97;2.0;989.62;67.742;;;;NaN;;;;;0 / 0;183012;2022-11-04 15:32:04:732
4.7357;-11.2507;2.8204;-3.2533;-8.6008;3.4076;9.1458;-2.6977;-6.1322;-1.2113;-1.0955;-0.9323;0.0;-19.26;40.38;-20.04;56.79;61.29;43.67;2.0;989.71;65.156;;;;NaN;;;;;0 / 0;183511;2022-11-04 15:32:05:231
-1.2378;-3.0071;1.9369;-1.183;-9.3741;-2.626;0.2732;7.3199;3.9069;2.333;-1.8096;-0.0685;0.0;-24.42;39.6;18.12;280.61;72.92;155.75;2.0;989.54;63.183;;;;NaN;;;;;0 / 0;184011;2022-11-04 15:32:05:731
3.4261;-9.218;0.6129;-1.4505;-9.3486;2.5825;0.4449;1.8593;-6.6885;1.5407;1.0291;0.8148;0.0;-22.62;41.7;-9.96;58.8;72.42;29.32;2.0;989.61;69.202;;;;NaN;;;;;0 / 0;184511;2022-11-04 15:32:06:231
-1.9872;-5.5884;1.6688;-0.6554;-9.5719;-2.0296;-1.4994;5.7914;4.4597;-1.2058;-2.8872;-0.5352;0.0;-28.5;39.78;5.28;317.79;81.2;130.11;2.0;989.71;59.233;;;;NaN;;;;;0 / 0;185011;2022-11-04 15:32:06:731
-1.1253;-9.3305;2.6743;-0.9521;-9.7466;0.5164;-0.5682;1.7928;0.7717;1.0324;-2.6428;-0.9866;0.0;-21.96;39.36;21.12;279.79;81.0;137.96;2.0;989.47;67.554;;;;NaN;;;;;0 / 0;185511;2022-11-04 15:32:07:231
0.7039;-12.9362;4.5586;-1.2785;-9.6847;0.8621;1.0989;-7.5087;-5.1309;-2.739;-0.583;-1.7087;0.0;-20.82;42.42;-7.86;41.76;62.07;34.74;2.0;989.7;58.007;;;;NaN;;;;;0 / 0;186011;2022-11-04 15:32:07:731
2.4636;-2.7988;-8.5404;-0.4158;-9.7343;-1.1141;12.9426;-16.8303;14.3759;-1.4049;0.0541;0.3603;0.0;-26.64;37.74;16.14;268.33;83.04;159.53;2.0;989.62;67.063;;;;NaN;;;;;0 / 0;186511;2022-11-04 15:32:08:231
1.0319;-10.6306;-2.5809;-3.509;-8.4723;3.4751;10.7997;-2.3043;-0.966;-0.7024;-1.2507;-0.5676;0.0;-16.5;40.62;-17.22;49.21;59.76;45.28;2.0;989.66;60.747;;;;NaN;;;;;0 / 0;187011;2022-11-04 15:32:08:731
-0.4477;-20.5548;-34.1638;-1.247;-9.443;-2.3335;-0.6205;6.8477;4.0453;1.7649;-4.0173;0.0879;0.0;-22.62;38.22;20.22;277.11;74.35;151.88;2.0;989.71;66.065;;;;NaN;;;;;0 / 0;187511;2022-11-04 15:32:09:231
1.3455;-7.0871;1.3838;-2.4745;-8.9297;3.2104;5.6875;-0.2954;-3.3421;0.8645;2.1018;0.6884;0.0;-23.28;41.46;-2.76;47.62;76.79;32.96;2.0;989.6;69.202;;;;NaN;;;;;0 / 0;188012;2022-11-04 15:32:09:732
-0.3759;-7.0488;0.668;-1.0037;-9.5665;-1.9091;0.1514;4.0236;2.8357;-0.9938;-0.7882;0.2107;0.0;-24.96;39.6;12.96;301.55;84.34;127.73;2.0;989.52;60.414;;;;NaN;;;;;0 / 0;188511;2022-11-04 15:32:10:231
-2.071;-12.1724;1.5347;-0.621;-9.7797;0.3763;-1.3087;3.0733;0.3899;0.8137;-1.2953;-0.4918;0.0;-25.26;39.18;15.24;281.88;85.55;142.97;2.0;989.73;60.214;;;;NaN;;;;;0 / 0;189011;2022-11-04 15:32:10:731
1.5227;-12.6321;1.7789;-1.565;-9.594;1.2945;0.605;-5.3057;-0.8324;-2.8117;-1.6606;0.006;0.0;-25.2;40.2;0.24;30.43;78.05;50.4;2.0;989.66;58.687;;;;NaN;;;;;0 / 0;189511;2022-11-04 15:32:11:231
3.8188;-3.7948;-8.7631;-0.8303;-9.6891;-1.2659;16.7331;-9.9033;1.0193;-0.196;0.1458;0.4202;0.0;-27.0;38.16;14.4;286.44;81.12;146.74;2.0;989.67;69.071;;;;NaN;;;;;0 / 0;190012;2022-11-04 15:32:11:732
1.7837;-13.6018;-1.166;-3.3626;-8.465;3.6341;8.7331;-3.7338;-3.1912;-0.2999;-1.4217;-0.3849;0.0;-16.26;40.2;-17.7;52.83;59.68;42.78;2.0;989.71;61.489;;;;NaN;;;;;0 / 0;190511;2022-11-04 15:32:12:231
-3.8882;-19.8725;-30.096;-1.7615;-9.5171;-1.5787;-2.8521;-3.5532;-6.3369;3.909;-4.3612;0.3683;0.0;-23.28;38.52;21.6;269.95;75.06;155.41;2.0;989.51;62.212;;;;NaN;;;;;0 / 0;191011;2022-11-04 15:32:12:731
2.4134;-8.3656;1.5874;-2.4611;-8.6637;3.8799;6.9981;-1.8807;-8.9272;1.1839;2.1329;0.8735;0.0;-25.8;41.46;-4.86;61.62;74.46;18.1;2.0;989.57;70.684;;;;NaN;;;;;0 / 0;191512;2022-11-04 15:32:13:232
-1.4485;-6.1438;2.4014;-0.8371;-9.5765;-1.939;-2.4693;3.8445;2.176;-1.4843;1.241;-0.369;0.0;-26.76;39.48;13.5;300.87;82.04;130.31;2.0;989.55;64.092;;;;NaN;;;;;0 / 0;192011;2022-11-04 15:32:13:731
-1.008;-7.5971;1.2522;-0.9952;-9.6735;1.2661;-1.9089;0.8458;-1.6683;0.9768;6.3021;0.0231;0.0;-25.98;41.94;7.38;29.77;80.55;38.17;2.0;989.56;66.814;;;;NaN;;;;;0 / 0;192511;2022-11-04 15:32:14:231
-0.814;-14.581;2.8754;-0.764;-9.7607;0.5616;1.2643;-8.7208;-3.7458;-1.3719;-3.9318;0.6853;0.0;-28.38;38.52;11.52;11.73;84.45;53.68;2.0;989.7;56.979;;;;NaN;;;;;0 / 0;193011;2022-11-04 15:32:14:731
-3.8906;-13.087;2.6121;-1.3178;-9.5558;-1.7666;5.704;-7.6041;13.9726;0.2078;-0.2519;0.8564;0.0;-21.78;36.84;24.3;274.27;77.01;143.28;2.0;989.54;60.87;;;;NaN;;;;;0 / 0;193511;2022-11-04 15:32:15:231
1.1349;-11.4111;-1.5921;-2.5668;-9.2614;1.9514;2.1574;-4.97;-0.5412;-1.5686;-1.4694;-1.1705;0.0;-18.24;41.64;-16.38;45.3;59.77;48.58;2.0;989.68;60.67;;;;NaN;;;;;0 / 0;194011;2022-11-04 15:32:15:731
-6.6682;-23.0376;-25.5566;-1.3386;-9.6332;-1.2565;8.7634;6.0826;-4.9185;-1.0946;5.2025;0.1343;0.0;-23.04;39.78;19.32;281.48;72.88;152.27;2.0;989.65;64.673;;;;NaN;;;;;0 / 0;194512;2022-11-04 15:32:16:232
6.819;-9.2754;-0.1772;-3.444;-8.7166;2.8863;6.1805;-2.3809;-1.4354;2.752;1.0022;0.2638;0.0;-20.82;41.58;-11.7;54.31;70.64;37.97;2.0;989.61;66.153;;;;NaN;;;;;0 / 0;195012;2022-11-04 15:32:16:732
-0.2993;-6.5796;0.8428;-1.1752;-9.4466;-2.356;-2.3802;4.0282;4.2546;0.0318;-0.7834;0.0763;0.0;-25.74;37.92;19.5;277.33;74.43;153.49;2.0;989.52;64.452;;;;NaN;;;;;0 / 0;195511;2022-11-04 15:32:17:231
-1.5083;-9.3137;0.9936;-0.9629;-9.7395;0.6207;-2.6236;3.4975;0.55;2.322;4.8494;0.4379;0.0;-25.2;41.28;8.34;12.83;83.29;57.19;2.0;989.51;68.843;;;;NaN;;;;;0 / 0;196011;2022-11-04 15:32:17:731
-0.0455;-6.5604;-0.1891;-1.0159;-9.7539;-0.0039;1.8203;-8.3924;-4.2434;-1.4135;-2.5695;1.1783;0.0;-27.54;40.08;10.86;340.83;84.05;90.22;2.0;989.56;61.171;;;;NaN;;;;;0 / 0;196512;2022-11-04 15:32:18:232
-4.288;-12.917;1.1325;-1.3209;-9.6869;-0.7676;1.0528;-2.8303;2.489;-0.6157;-0.7107;1.0329;0.0;-26.94;39.42;14.64;294.55;82.24;135.18;2.0;989.57;60.325;;;;NaN;;;;;0 / 0;197011;2022-11-04 15:32:18:731
-0.9529;-9.6729;-1.1995;-2.3284;-9.2632;2.2228;4.1456;-4.8245;0.667;-1.543;-1.4877;-0.986;0.0;-18.84;41.7;-15.18;46.34;59.85;43.53;2.0;989.7;61.717;;;;NaN;;;;;0 / 0;197512;2022-11-04 15:32:19:232
-9.4023;-26.5071;-18.5868;-1.5335;-9.455;-2.1029;5.3211;6.1653;-6.5261;-0.7837;5.2086;0.7647;0.0;-22.02;38.22;21.54;274.17;75.59;148.93;2.0;989.69;65.484;;;;NaN;;;;;0 / 0;198012;2022-11-04 15:32:19:732
3.3088;-11.5882;-0.1867;-3.354;-8.5758;3.3729;9.4524;-0.3741;-10.6636;0.377;0.0951;-0.38;0.0;-14.46;41.64;-18.66;53.56;60.98;44.84;2.0;989.68;67.084;;;;NaN;;;;;0 / 0;198511;2022-11-04 15:32:20:231
-1.3934;-5.3657;3.6488;-0.9657;-9.4349;-2.4941;-1.1292;4.8787;2.2235;0.3953;-1.0204;0.0152;0.0;-26.46;37.2;19.5;272.15;74.17;158.83;2.0;989.53;64.137;;;;NaN;;;;;0 / 0;199011;2022-11-04 15:32:20:731
-0.7159;-6.8357;-5.8062;-1.0844;-9.729;0.5842;-1.8389;1.1072;0.7279;1.8406;3.4139;0.149;0.0;-26.22;41.76;4.56;14.65;82.78;61.69;2.0;989.62;71.436;;;;NaN;;;;;0 / 0;199512;2022-11-04 15:32:21:232
0.6776;-7.0369;0.2514;-1.37;-9.5127;-1.9498;2.9286;2.3202;2.0001;-1.5863;-3.3734;0.1722;0.0;-26.88;40.68;4.68;355.56;82.56;84.76;2.0;989.71;58.766;;;;NaN;;;;;0 / 0;200011;2022-11-04 15:32:21:731
-3.711;-5.9499;1.312;-0.9829;-9.6581;-1.3875;-1.0833;-6.0221;4.1528;-1.5582;-1.9409;1.6157;0.0;-30.96;37.02;12.06;262.76;81.32;175.86;2.0;989.61;60.595;;;;NaN;;;;;0 / 0;200512;2022-11-04 15:32:22:232
4.6328;-13.2139;-1.8076;-2.4633;-9.0223;2.9497;4.915;-3.5931;-5.5905;-0.2266;-1.8059;-0.421;0.0;-18.6;39.72;-18.66;58.21;63.87;42.67;2.0;989.71;61.114;;;;NaN;;;;;0 / 0;201011;2022-11-04 15:32:22:731
-2.4421;-7.1494;-6.2276;-1.3641;-9.5901;-1.5292;-6.9536;-15.2482;-21.1134;0.4045;0.9429;-1.6714;0.0;-24.12;38.52;21.06;284.84;77.94;138.27;2.0;989.68;61.987;;;;NaN;;;;;0 / 0;201511;2022-11-04 15:32:23:231
0.0575;-6.1079;1.1133;-2.5549;-8.9287;3.1498;8.0092;-3.4281;-4.4067;0.0441;1.2429;0.5143;0.0;-19.74;41.88;-14.88;53.87;65.57;39.05;2.0;989.54;67.021;;;;NaN;;;;;0 / 0;202012;2022-11-04 15:32:23:732
-1.9896;-3.7206;2.3104;-1.1799;-9.5134;-2.0672;1.3259;3.7646;5.1079;-0.794;-1.1542;-0.2689;0.0;-25.62;37.68;19.86;278.53;75.95;150.28;2.0;989.55;64.044;;;;NaN;;;;;0 / 0;202512;2022-11-04 15:32:24:232
-1.2234;-9.6968;1.0942;-1.3036;-9.5009;2.0502;2.3498;1.1736;-7.1765;2.3238;4.1366;-0.3806;0.0;-23.34;41.16;15.06;319.21;84.13;103.26;2.0;989.51;69.406;;;;NaN;;;;;0 / 0;203011;2022-11-04 15:32:24:731
-1.8076;-17.1407;-2.0423;-0.9615;-9.6379;-1.5352;1.0597;3.2331;1.9398;-3.2949;-1.9574;-0.724;0.0;-27.48;40.62;0.48;29.78;78.06;51.73;2.0;989.63;62.136;;;;NaN;;;;;0 / 0;203511;2022-11-04 15:32:25:231
-3.3303;-4.8028;2.3535;-0.5829;-9.6998;-1.3204;-3.4944;-0.3513;3.9708;1.1528;-1.1364;0.0164;0.0;-27.06;37.5;16.5;275.71;77.92;156.66;2.0;989.63;61.035;;;;NaN;;;;;0 / 0;204011;2022-11-04 15:32:25:731
3.1364;-13.3911;-4.312;-2.3465;-8.9188;3.3344;4.4295;-4.331;-3.9664;-2.7348;-0.8133;-1.8486;0.0;-21.12;41.64;-12.42;50.96;65.43;35.14;2.0;989.71;65.014;;;;NaN;;;;;0 / 0;204511;2022-11-04 15:32:26:231
-0.091;-1.2139;-2.9353;-1.632;-9.5382;-1.5902;-1.4613;-6.7238;-27.2105;-0.2608;1.5654;-1.595;0.0;-22.86;40.62;17.7;294.73;76.56;134.26;2.0;989.7;63.915;;;;NaN;;;;;0 / 0;205012;2022-11-04 15:32:26:732
0.723;-10.2571;-4.5274;-2.1265;-9.2401;2.5037;6.0482;0.5082;-4.589;0.6476;2.249;0.7079;0.0;-19.62;40.98;-15.24;58.72;70.43;40.34;2.0;989.7;67.525;;;;NaN;;;;;0 / 0;205511;2022-11-04 15:32:27:231
-1.561;-6.6083;2.0183;-1.3383;-9.2648;-2.9226;-1.1564;6.308;5.4053;-0.4758;-0.3191;-0.8803;0.0;-22.44;39.78;20.46;290.72;71.98;140.03;2.0;989.54;61.231;;;;NaN;;;;;0 / 0;206011;2022-11-04 15:32:27:731
-1.6113;-6.1582;1.7454;-0.833;-9.6823;1.3149;-0.0505;-0.9195;2.1472;1.1607;1.6876;-0.0105;0.0;-25.92;40.32;14.52;290.64;84.24;136.51;2.0;989.59;69.208;;;;NaN;;;;;0 / 0;206511;2022-11-04 15:32:28:231
2.4565;-19.0848;-0.6608;-0.4479;-9.7511;-0.9405;-1.3741;-3.4723;-0.2111;-3.3114;-0.2592;-1.4436;0.0;-25.14;41.4;-8.82;37.01;73.53;58.44;2.0;989.73;66.345;;;;NaN;;;;;0 / 0;207012;2022-11-04 15:32:28:732
-3.5506;-5.2388;8.0975;-0.4647;-9.6829;-1.4819;-0.8257;5.2296;4.2113;0.7856;-0.1047;-0.6787;0.0;-26.4;39.0;16.02;267.65;80.89;162.59;2.0;989.51;65.866;;;;NaN;;;;;0 / 0;207511;2022-11-04 15:32:29:231
2.6839;-13.0176;-5.1263;-2.9096;-8.8957;2.9275;7.4299;-4.5121;-2.4654;-2.3536;-1.2287;-1.6415;0.0;-18.12;41.22;-13.92;48.88;65.11;44.82;2.0;989.68;61.182;;;;NaN;;;;;0 / 0;208011;2022-11-04 15:32:29:731
-3.5386;-6.4718;-9.9889;-1.8296;-9.4608;-1.8206;-1.0674;-19.0047;-39.2148;1.245;3.26;-0.7233;0.0;-20.1;39.72;18.9;292.24;74.74;134.86;2.0;989.81;62.434;;;;NaN;;;;;0 / 0;208511;2022-11-04 15:32:30:231
3.2489;-12.0312;2.2051;-3.1508;-8.6115;3.4762;12.3137;-1.8993;-3.5552;-0.1899;3.9851;0.7965;0.0;-18.36;40.74;-16.2;58.59;68.06;40.05;2.0;989.61;59.796;;;;NaN;;;;;0 / 0;209011;2022-11-04 15:32:30:731
-0.4645;-4.2545;1.5874;-1.1549;-9.3963;-2.5584;0.1805;8.3213;3.5663;-0.4281;-1.0558;-0.4564;0.0;-22.2;39.18;20.58;276.86;74.71;149.58;2.0;989.58;63.059;;;;NaN;;;;;0 / 0;209511;2022-11-04 15:32:31:231
-3.5506;-8.2435;1.6783;-1.3769;-9.5733;1.6204;0.1343;1.5405;-0.5622;2.0269;0.9081;0.5253;0.0;-26.22;41.16;7.62;301.15;85.69;137.25;2.0;989.6;69.171;;;;NaN;;;;;0 / 0;210012;2022-11-04 15:32:31:732
-1.652;-6.3904;-1.2905;-1.736;-9.4066;-2.1613;2.7272;4.2564;2.5467;-0.5735;0.6705;-0.6018;0.0;-21.36;40.14;18.06;290.73;73.58;141.23;2.0;989.66;61.511;;;;NaN;;;;;0 / 0;210512;2022-11-04 15:32:32:232
2.3942;-20.5141;3.8499;0.1987;-9.7843;-0.6313;-0.656;0.6094;4.5985;1.6409;4.1909;-1.5297;0.0;-19.32;39.24;24.3;202.86;86.13;-162.53;2.0;989.68;61.826;;;;NaN;;;;;0 / 0;211011;2022-11-04 15:32:32:731
-0.7087;-16.9372;1.798;-2.7818;-9.1841;2.0211;10.9774;-7.2096;4.3335;-3.1514;-0.5647;-1.3024;0.0;-21.12;42.24;-9.78;39.11;69.47;54.0;2.0;989.79;69.048;;;;NaN;;;;;0 / 0;211511;2022-11-04 15:32:33:231
2.8563;-24.3592;5.9379;-1.6463;-9.4731;-1.9285;-1.3273;-0.8533;7.6989;2.5981;3.0138;-1.8394;0.0;-21.06;40.32;19.62;294.51;73.07;133.19;2.0;989.7;62.229;;;;NaN;;;;;0 / 0;212012;2022-11-04 15:32:33:732
5.7847;-10.0607;1.3791;-3.5265;-8.5521;3.2552;10.774;-3.0793;-6.6526;0.1675;0.5697;0.4489;0.0;-15.9;43.02;-12.24;43.89;63.54;41.84;2.0;989.69;62.032;;;;NaN;;;;;0 / 0;212512;2022-11-04 15:32:34:232
-1.968;-2.8563;0.6225;-1.0096;-9.3991;-2.6091;-0.9057;8.3504;1.764;0.3929;-1.0601;-0.2896;0.0;-24.36;34.92;25.86;258.53;70.99;164.28;2.0;989.66;59.192;;;;NaN;;;;;0 / 0;213012;2022-11-04 15:32:34:732
-0.9697;-8.6146;-0.4812;-1.5758;-9.3489;2.507;2.8184;-0.8507;-3.6227;1.8266;0.1635;0.6853;0.0;-21.66;42.6;-6.12;48.5;72.43;32.15;2.0;989.65;71.108;;;;NaN;;;;;0 / 0;213511;2022-11-04 15:32:35:231
-0.3903;-5.7105;2.3415;-0.8812;-9.6529;-1.4882;0.0288;4.2489;0.6646;-0.8997;-1.5653;-0.38;0.0;-25.32;37.86;21.0;272.58;79.84;149.37;2.0;989.71;61.041;;;;NaN;;;;;0 / 0;214011;2022-11-04 15:32:35:731
-2.138;-8.9067;1.6975;-1.0927;-9.6587;-1.2986;1.2794;-1.3167;3.281;3.2859;1.3742;-0.4723;0.0;-19.92;39.54;21.54;275.86;80.03;139.92;2.0;989.7;71.246;;;;NaN;;;;;0 / 0;214512;2022-11-04 15:32:36:232
0.1053;-18.0505;-4.7525;-0.818;-9.7057;-1.1402;-1.4661;-0.0079;3.5487;-3.4715;-1.2012;-1.377;0.0;-24.66;41.76;0.06;31.35;73.82;45.43;2.0;989.73;60.256;;;;NaN;;;;;0 / 0;215012;2022-11-04 15:32:36:732
-0.2562;-15.7808;12.0383;-0.9795;-9.6908;-1.1397;-1.2471;2.7353;1.7981;3.0562;0.4567;-0.7618;0.0;-22.62;36.96;23.4;276.08;73.42;148.32;2.0;989.68;62.019;;;;NaN;;;;;0 / 0;215511;2022-11-04 15:32:37:231
7.9634;-10.9657;2.7581;-2.8934;-8.5671;3.7952;3.5589;-3.488;-11.3756;-0.1862;0.34;-0.0178;0.0;-18.12;43.38;-10.68;45.16;62.25;34.3;2.0;989.69;58.645;;;;NaN;;;;;0 / 0;216012;2022-11-04 15:32:37:732
-2.7414;-0.4286;0.996;-0.1499;-9.6755;-1.5913;-2.2515;6.6899;-2.3927;-0.8142;2.9912;1.0024;0.0;-18.0;36.42;29.76;223.39;80.62;174.62;2.0;989.74;59.574;;;;NaN;;;;;0 / 0;216511;2022-11-04 15:32:38:231
-0.7207;-8.2579;-3.3232;-1.4846;-9.2671;2.8438;0.2779;3.0754;-2.4727;1.4564;1.5685;0.6548;0.0;-21.84;42.6;-6.18;50.05;70.91;27.57;2.0;989.61;68.598;;;;NaN;;;;;0 / 0;217011;2022-11-04 15:32:38:731
-2.0494;-5.2747;1.3862;-0.8572;-9.6424;-1.5682;2.2554;2.1602;1.3599;-1.2632;-0.5738;-0.6189;0.0;-27.0;37.5;17.28;278.91;79.5;151.34;2.0;989.63;60.291;;;;NaN;;;;;0 / 0;217511;2022-11-04 15:32:39:231
-1.1205;-8.2675;0.8308;-0.5507;-9.7234;1.1495;-1.5826;2.1072;0.2008;2.2456;-0.9037;-0.0526;0.0;-23.1;38.76;21.24;268.96;81.5;149.44;2.0;989.59;68.993;;;;NaN;;;;;0 / 0;218011;2022-11-04 15:32:39:731
-0.6009;-13.5467;2.1452;-0.5076;-9.7935;-0.0124;0.4956;-8.7598;-4.2302;-2.5491;-0.5158;-1.5327;0.0;-24.42;42.36;-3.72;41.28;66.55;32.61;2.0;989.73;59.954;;;;NaN;;;;;0 / 0;218511;2022-11-04 15:32:40:231
0.3472;-3.4069;-11.8779;-0.5949;-9.6894;-1.39;7.8592;-8.6819;16.5076;1.2304;1.3247;-0.851;0.0;-21.6;34.92;28.26;262.78;77.17;148.39;2.0;989.78;61.313;;;;NaN;;;;;0 / 0;219012;2022-11-04 15:32:40:732
-0.893;-11.3752;-4.889;-2.9501;-8.4551;3.9974;9.9247;-2.9536;-3.2384;-0.4788;-1.0619;-0.7123;0.0;-18.66;42.36;-11.64;44.66;59.56;36.43;2.0;989.76;59.408;;;;NaN;;;;;0 / 0;219511;2022-11-04 15:32:41:231
-2.6552;-5.6578;0.4908;-0.1076;-9.2563;-3.2372;-1.6832;6.9124;4.7096;2.964;-2.1126;0.7745;0.0;-26.7;33.18;27.06;243.79;70.71;178.1;2.0;989.63;60.352;;;;NaN;;;;;0 / 0;220012;2022-11-04 15:32:41:732
2.5857;-7.1422;-1.1444;-1.0411;-9.5983;1.7199;-2.543;0.4594;-0.1206;2.2792;2.7994;0.7965;0.0;-24.24;42.54;2.04;40.71;78.17;31.19;2.0;989.56;68.299;;;;NaN;;;;;0 / 0;220512;2022-11-04 15:32:42:232
-0.2298;-7.3936;-0.9098;-1.2396;-9.3623;-2.642;0.6793;2.0022;3.3674;-1.4031;-0.8738;0.3622;0.0;-24.54;37.98;19.98;288.44;83.28;130.4;2.0;989.73;59.755;;;;NaN;;;;;0 / 0;221011;2022-11-04 15:32:42:731
-0.9553;-15.345;0.4932;-1.3674;-9.6934;-0.5814;1.6236;1.4331;0.9884;0.0318;0.3693;1.8075;0.0;-24.48;38.04;21.3;271.3;81.8;147.38;2.0;989.58;62.986;;;;NaN;;;;;0 / 0;221511;2022-11-04 15:32:43:231
3.6703;-13.0702;-4.3551;-1.6302;-9.357;2.4413;3.2319;-4.1059;2.6635;-1.9767;-0.3032;-0.9585;0.0;-19.68;43.74;-7.56;39.23;60.27;34.05;2.0;989.71;59.956;;;;NaN;;;;;0 / 0;222011;2022-11-04 15:32:43:731
3.2896;-14.1045;-19.803;-0.7957;-9.0849;-3.6058;2.9313;-0.679;-7.5898;1.8889;1.0883;-0.6067;0.0;-23.64;30.78;31.8;247.63;67.88;167.56;2.0;989.72;66.35;;;;NaN;;;;;0 / 0;222512;2022-11-04 15:32:44:232
0.3591;-9.0959;-2.1284;-2.1931;-8.8872;3.5184;3.814;-0.982;-5.9604;0.3696;2.6393;0.3383;0.0;-20.52;42.84;-6.06;41.62;64.99;31.94;2.0;989.61;62.426;;;;NaN;;;;;0 / 0;223012;2022-11-04 15:32:44:732
-1.2689;-3.4955;0.6249;-0.8148;-9.5504;-2.0726;-0.9617;-0.0147;0.2459;-0.8936;-0.525;-0.8791;0.0;-27.96;35.28;21.24;268.12;76.87;158.54;2.0;989.57;64.565;;;;NaN;;;;;0 / 0;223511;2022-11-04 15:32:45:231
-0.3998;-9.9075;0.3472;-2.0425;-9.4491;1.6468;0.5964;-0.3339;-0.603;1.2945;4.0242;0.6438;0.0;-23.7;41.94;10.98;351.37;82.03;75.82;2.0;989.6;64.59;;;;NaN;;;;;0 / 0;224011;2022-11-04 15:32:45:731
-1.245;-15.3714;-3.1747;-1.3138;-9.7168;0.1667;-1.0756;-4.8618;-1.9192;-2.0989;-1.4419;-1.7502;0.0;-21.72;43.68;-2.16;27.18;65.32;47.41;2.0;989.7;64.477;;;;NaN;;;;;0 / 0;224511;2022-11-04 15:32:46:231
0.668;-1.9273;-14.1907;-0.2982;-9.7513;-0.9971;4.3085;-10.5378;16.9;0.154;0.5929;-1.0202;0.0;-24.72;37.32;23.58;277.23;78.45;141.29;2.0;989.86;60.598;;;;NaN;;;;;0 / 0;225011;2022-11-04 15:32:46:731
-0.1269;-11.6241;-6.7256;-2.8973;-8.5104;3.9178;6.2708;-3.1832;-4.1883;-0.3432;-0.6331;-0.4149;0.0;-18.6;42.42;-11.76;45.14;60.21;36.48;2.0;989.73;67.561;;;;NaN;;;;;0 / 0;225511;2022-11-04 15:32:47:231
-1.6903;-4.9898;0.2538;-0.3394;-9.2707;-3.1795;-0.817;5.1694;4.2401;2.7245;-1.2372;0.328;0.0;-26.64;33.66;27.42;248.7;70.97;173.91;2.0;989.56;62.96;;;;NaN;;;;;0 / 0;226012;2022-11-04 15:32:47:732
2.9664;-7.6665;1.2953;-0.8338;-9.6232;1.6939;-2.0201;0.9798;0.4752;1.5981;3.8513;0.6878;0.0;-25.38;41.94;4.32;42.64;78.9;26.21;2.0;989.56;68.039;;;;NaN;;;;;0 / 0;226511;2022-11-04 15:32:48:231
-0.8811;-6.3066;0.2945;-0.6738;-9.4876;-2.3876;-0.564;3.43;3.429;-1.7366;2.7242;-0.0239;0.0;-23.46;39.0;20.64;299.93;84.42;113.64;2.0;989.57;61.652;;;;NaN;;;;;0 / 0;227011;2022-11-04 15:32:48:731
-0.498;-14.7968;0.8356;-0.8232;-9.7218;-0.9892;0.0451;1.7728;2.002;-0.2412;0.516;0.4489;0.0;-24.96;37.8;21.9;257.72;84.61;157.02;2.0;989.6;66.942;;;;NaN;;;;;0 / 0;227511;2022-11-04 15:32:49:231
4.5298;-11.5906;0.4932;-0.6862;-9.6895;1.3463;2.5824;-3.4454;2.2642;-3.2772;0.2148;-1.3073;0.0;-23.76;41.64;-7.74;47.47;63.19;28.42;2.0;989.77;64.091;;;;NaN;;;;;0 / 0;228011;2022-11-04 15:32:49:731
4.2497;-4.0654;-8.2316;-0.7703;-9.5195;-2.226;2.2236;0.6176;-6.5203;0.826;0.3767;-0.7264;0.0;-23.46;37.2;23.52;258.86;76.1;160.91;2.0;989.57;63.107;;;;NaN;;;;;0 / 0;228511;2022-11-04 15:32:50:231
2.5594;-10.846;-5.9666;-2.622;-8.7308;3.6151;5.5932;-3.3195;-1.8458;0.3904;-0.6105;-0.2395;0.0;-19.86;42.06;-9.78;44.6;62.91;35.95;2.0;989.64;64.813;;;;NaN;;;;;0 / 0;229011;2022-11-04 15:32:50:731
-1.3838;-1.8938;0.1293;-0.8667;-9.3146;-2.9422;-0.1054;3.6042;3.6437;0.7136;-0.9874;0.0683;0.0;-22.68;34.56;29.04;252.91;71.77;163.59;2.0;989.58;58.986;;;;NaN;;;;;0 / 0;229511;2022-11-04 15:32:51:231
-0.1628;-7.7767;-1.3408;-1.9902;-9.334;2.2551;4.6956;1.6292;-0.6988;1.2853;5.5843;0.1392;0.0;-23.16;42.66;11.28;355.72;84.05;69.44;2.0;989.49;66.721;;;;NaN;;;;;0 / 0;230011;2022-11-04 15:32:51:731
-0.9744;-8.3896;0.3424;-1.3389;-9.5377;-1.8463;0.2399;3.0515;1.2358;-1.6829;-2.5072;1.0042;0.0;-25.38;40.2;13.44;0.38;84.52;62.1;2.0;989.56;63.855;;;;NaN;;;;;0 / 0;230511;2022-11-04 15:32:52:231
-3.3734;-4.4556;0.668;-1.0564;-9.6453;-1.4217;-2.4655;-3.5446;2.8223;0.6305;1.7444;-0.7459;0.0;-21.84;37.98;23.34;269.23;73.95;154.61;2.0;989.54;65.248;;;;NaN;;;;;0 / 0;231011;2022-11-04 15:32:52:731
5.3585;-12.7853;-1.8531;-2.7578;-8.9408;2.937;4.8025;-3.8397;-5.0678;-2.7164;-0.5512;-1.5321;0.0;-19.98;42.48;-9.36;41.12;65.74;43.2;2.0;989.68;62.657;;;;NaN;;;;;0 / 0;231512;2022-11-04 15:32:53:232
-1.1013;-4.0845;0.2322;-1.5806;-9.5781;-1.3897;0.9198;-3.1976;-6.5186;0.3006;1.6644;-0.4766;0.0;-19.98;40.56;20.88;288.91;77.61;131.32;2.0;989.52;57.857;;;;NaN;;;;;0 / 0;232011;2022-11-04 15:32:53:731
1.3024;-9.1294;-5.7033;-1.8773;-9.4732;1.704;1.7767;2.2975;-1.4406;2.2927;-1.6416;0.8435;1.0;-20.94;44.82;-1.2;29.74;75.02;47.77;2.0;989.58;65.862;;;;NaN;;;;;0 / 0;232511;2022-11-04 15:32:54:231
0.6704;-10.2595;1.6017;-0.0097;-9.5403;-2.2698;-0.8258;1.5123;2.3703;-1.5692;-0.5842;-1.344;1.0;-21.54;38.58;23.52;294.99;81.28;116.83;2.0;989.55;56.493;;;;NaN;;;;;0 / 0;233011;2022-11-04 15:32:54:731
-1.0295;-14.9739;4.209;-0.5559;-9.7824;-0.4059;4.2047;-7.126;-3.8103;4.1405;0.8141;0.4807;1.0;-18.12;31.02;36.42;194.83;73.8;-164.54;2.0;989.52;61.34;;;;NaN;;;;;0 / 0;233512;2022-11-04 15:32:55:232
6.7424;-14.5403;0.5507;-1.6877;-9.076;3.3089;1.9103;-5.6056;-7.0606;-0.1581;-0.9886;-0.7948;1.0;-19.26;46.44;-1.68;35.44;64.12;24.32;2.0;989.51;65.963;;;;NaN;;;;;0 / 0;234011;2022-11-04 15:32:55:731
-0.6177;-3.1101;-5.5548;0.1969;-9.0093;-3.8681;3.5141;-0.1943;-12.0922;-0.127;0.0291;-1.1962;1.0;-22.8;25.74;37.86;219.34;66.74;-177.09;2.0;989.58;58.884;;;;NaN;;;;;0 / 0;234511;2022-11-04 15:32:56:231
3.3495;-7.0225;-1.7214;-0.8687;-9.3931;2.6804;2.1544;0.8264;-1.275;1.3226;-0.2757;0.0189;1.0;-22.02;44.4;5.94;37.79;73.3;17.96;2.0;989.57;68.17;;;;NaN;;;;;0 / 0;235011;2022-11-04 15:32:56:731
-1.0511;-3.1819;0.103;0.9795;-9.4682;-2.3588;-3.491;1.9788;0.7978;-0.262;-0.7125;-0.8003;1.0;-29.52;29.4;28.32;210.75;74.9;-157.45;2.0;989.54;61.747;;;;NaN;;;;;0 / 0;235511;2022-11-04 15:32:57:231
-0.8571;-10.5563;1.2617;-0.6974;-9.6603;1.537;0.0078;2.736;-2.7988;2.3415;4.6185;0.5332;1.0;-24.3;39.54;19.32;76.96;88.72;-26.95;2.0;989.49;63.787;;;;NaN;;;;;0 / 0;236011;2022-11-04 15:32:57:731
2.4995;-11.5475;2.8778;-0.5173;-9.676;1.5095;3.2826;-2.4677;-3.9779;-2.105;0.2771;-1.4692;1.0;-21.72;43.14;-1.32;40.43;64.43;20.36;2.0;989.47;59.613;;;;NaN;;;;;0 / 0;236512;2022-11-04 15:32:58:232
3.6464;-10.6665;-11.4613;1.5826;-9.0471;-3.4374;7.9131;3.3342;-11.9364;0.0221;-0.0528;-0.4729;1.0;-24.42;26.82;34.62;202.24;68.03;-161.11;2.0;989.57;64.247;;;;NaN;;;;;0 / 0;237011;2022-11-04 15:32:58:731
0.5387;-7.4918;-0.2634;-1.3453;-8.9397;3.8002;3.3731;-0.2352;-6.69;0.7282;0.1971;-0.005;1.0;-19.38;44.64;0.96;34.96;65.73;19.49;2.0;989.45;68.904;;;;NaN;;;;;0 / 0;237511;2022-11-04 15:32:59:231
-1.2977;-6.989;0.5076;0.3498;-9.7224;-1.234;-4.1542;2.0726;0.4607;-1.3591;-0.5164;-0.8174;1.0;-26.88;33.48;25.8;214.21;82.48;-164.17;2.0;989.37;62.529;;;;NaN;;;;;0 / 0;238011;2022-11-04 15:32:59:731
3.5817;-9.8548;2.715;-0.1206;-9.7951;-0.4598;0.6904;-3.3589;0.6298;1.2988;0.9234;-0.3208;1.0;-22.32;38.1;21.12;244.18;87.22;165.3;2.0;989.38;59.96;;;;NaN;;;;;0 / 0;238511;2022-11-04 15:33:00:231
2.3631;-13.1804;5.4208;0.3765;-9.6595;1.6501;2.6283;-3.5807;-3.6732;-1.9889;-0.729;-1.7154;1.0;-24.96;42.6;-0.6;46.13;64.6;15.1;2.0;989.55;60.159;;;;NaN;;;;;0 / 0;239011;2022-11-04 15:33:00:731
3.565;-10.1278;-10.099;1.4196;-9.3497;-2.5958;4.7554;-2.4421;-9.931;0.212;-1.2647;-2.066;1.0;-28.32;30.06;28.38;220.78;74.07;-166.74;2.0;989.71;66.718;;;;NaN;;;;;0 / 0;239511;2022-11-04 15:33:01:231
2.8443;-9.1869;-2.332;-1.0376;-8.8232;4.1528;1.9354;-0.7779;-7.4472;0.5205;0.9252;0.2589;1.0;-24.42;42.6;-2.94;59.75;74.33;13.07;2.0;989.44;67.448;;;;NaN;;;;;0 / 0;240011;2022-11-04 15:33:01:731
-3.2106;-5.7751;-0.9601;0.2308;-9.4195;-2.7184;0.6216;4.904;1.8685;-0.8698;-0.4071;-0.5554;1.0;-28.8;34.62;21.72;238.38;85.46;178.24;2.0;989.42;61.767;;;;NaN;;;;;0 / 0;240511;2022-11-04 15:33:02:231
3.8475;-11.277;1.0008;-0.6124;-9.7571;0.7708;0.0689;3.9197;-0.7948;3.3385;-5.8994;-0.8235;1.0;-25.8;39.96;13.02;193.59;80.81;-127.02;2.0;989.36;66.31;;;;NaN;;;;;0 / 0;241011;2022-11-04 15:33:02:731
-0.4788;-6.3306;2.2003;-0.4441;-9.7298;1.1414;1.2486;-6.8961;-6.8184;-4.4745;-2.2568;-0.6378;1.0;-28.5;40.44;0.54;40.27;64.11;25.8;2.0;989.39;63.182;;;;NaN;;;;;0 / 0;241512;2022-11-04 15:33:03:232
-3.3279;-11.514;2.4493;-1.716;-9.5791;-1.2112;2.3098;-3.6181;2.0229;-0.1343;-1.3392;-0.1956;1.0;-21.6;40.02;20.82;283.21;78.57;137.84;2.0;989.67;62.26;;;;NaN;;;;;0 / 0;242011;2022-11-04 15:33:03:731
-2.8994;-13.2738;0.3065;-1.4766;-9.6864;0.4053;-1.9686;-4.1476;2.8843;-2.0885;-0.4614;-1.3983;1.0;-24.9;42.3;1.2;28.42;64.09;40.85;2.0;989.5;56.618;;;;NaN;;;;;0 / 0;242511;2022-11-04 15:33:04:231
1.9201;-6.8429;-7.566;-0.3533;-9.5937;-2.0014;8.8242;2.1666;-3.7881;1.0587;-0.6374;-1.7239;1.0;-26.76;35.64;20.76;280.99;79.95;141.52;2.0;989.52;60.853;;;;NaN;;;;;0 / 0;243011;2022-11-04 15:33:04:731
2.9257;-10.53;-6.9578;-3.4787;-8.632;3.0915;9.4502;-3.0257;0.811;0.6207;0.2777;0.3047;1.0;-17.52;41.28;-17.76;50.73;61.67;48.37;2.0;989.49;63.405;;;;NaN;;;;;0 / 0;243513;2022-11-04 15:33:05:233
-2.2841;-5.8685;-0.1604;-0.8471;-8.9796;-3.8495;-3.2565;6.8871;6.3299;0.4943;-1.8585;-0.1406;1.0;-28.32;36.18;20.82;279.11;72.15;152.64;2.0;989.38;66.669;;;;NaN;;;;;0 / 0;244012;2022-11-04 15:33:05:732
-0.5986;-7.6306;-1.3838;-1.3674;-9.6048;1.4314;-1.8169;2.1393;-1.7044;2.6897;7.0883;-0.5981;1.0;-22.2;43.02;11.94;319.14;75.82;117.56;2.0;989.4;65.62;;;;NaN;;;;;0 / 0;244511;2022-11-04 15:33:06:231
0.656;-7.5205;0.9984;-1.2408;-9.4989;-2.0978;2.2033;3.0032;2.9501;-0.7024;-0.0247;-0.7044;1.0;-25.5;39.48;17.34;283.55;81.06;143.45;2.0;989.47;63.774;;;;NaN;;;;;0 / 0;245011;2022-11-04 15:33:06:731
0.6081;-12.4621;0.8045;-0.9486;-9.7264;-0.8175;-1.4001;2.9433;2.2971;2.7594;-1.2617;-1.3073;1.0;-19.92;38.82;23.94;258.0;84.12;149.1;2.0;989.36;69.47;;;;NaN;;;;;0 / 0;245511;2022-11-04 15:33:07:231
0.68;-17.088;-3.8499;-1.1453;-9.5256;-2.0301;3.6353;2.5989;1.3405;-1.3102;-3.3478;0.254;1.0;-26.64;39.84;15.24;2.42;78.47;57.95;2.0;989.48;59.832;;;;NaN;;;;;0 / 0;246011;2022-11-04 15:33:07:731
0.0024;0.4477;3.6751;-0.5722;-9.6962;-1.3512;-2.7797;-0.2544;5.1054;0.873;2.4585;2.8068;1.0;-24.24;36.42;24.36;264.99;78.23;152.83;2.0;989.37;62.296;;;;NaN;;;;;0 / 0;246511;2022-11-04 15:33:08:231
1.8435;-11.7199;-4.446;-3.5747;-8.7785;2.5158;7.6472;-4.5551;-5.1015;-1.7421;-0.0796;-1.4246;0.0;-13.8;42.06;-18.48;47.93;62.62;55.62;2.0;989.51;60.79;;;;NaN;;;;;0 / 0;247011;2022-11-04 15:33:08:731
-0.5626;-4.4101;-7.1709;-1.6983;-9.6128;-0.9378;3.0175;-11.9835;-30.6905;-2.5576;-1.7962;-0.5004;0.0;-22.44;40.14;20.4;284.26;74.42;144.21;2.0;989.76;67.139;;;;NaN;;;;;0 / 0;247511;2022-11-04 15:33:09:231
8.9426;-11.9713;-6.9698;-3.7984;-8.5187;3.0289;10.4163;-4.6473;0.9981;0.446;-0.2782;0.0341;1.0;-15.24;42.24;-16.44;58.23;68.37;41.33;2.0;989.48;57.915;;;;NaN;;;;;0 / 0;248011;2022-11-04 15:33:09:731
-1.4964;-4.5011;1.6113;-1.5188;-9.4331;-2.2091;0.4485;7.9607;3.6792;0.4289;-1.1236;-0.1277;0.0;-23.64;38.1;21.72;284.57;77.05;137.59;2.0;989.4;58.384;;;;NaN;;;;;0 / 0;248511;2022-11-04 15:33:10:231
-2.5857;-8.0209;-10.6449;-2.0267;-9.3512;2.1488;-0.8319;3.6623;-0.4154;1.7563;5.4438;0.9083;1.0;-24.42;42.66;0.42;349.94;78.85;103.34;2.0;989.38;69.813;;;;NaN;;;;;0 / 0;249012;2022-11-04 15:33:10:732
-1.6616;-9.9578;1.9417;-1.6663;-9.612;-1.0009;1.5753;4.2272;1.7;-0.5644;-1.944;-0.3782;0.0;-23.16;40.32;16.8;358.52;78.0;55.41;2.0;989.37;56.827;;;;NaN;;;;;0 / 0;249511;2022-11-04 15:33:11:231
-3.2441;-10.2499;3.1699;-1.5461;-9.6323;-0.999;1.1463;-4.4507;2.2871;0.2267;-2.283;-0.4014;0.0;-21.36;38.94;22.92;270.1;77.8;148.0;2.0;989.55;67.938;;;;NaN;;;;;0 / 0;250011;2022-11-04 15:33:11:731
1.1971;-17.6028;-2.2529;-1.6964;-9.4275;2.101;4.1672;-2.9149;-0.8464;-2.9791;0.3309;-1.3458;0.0;-24.0;41.58;-4.92;39.32;63.52;35.22;2.0;989.53;59.8;;;;NaN;;;;;0 / 0;250511;2022-11-04 15:33:12:231
-3.5362;-14.6648;-5.8206;-1.5638;-9.5482;-1.5988;-0.8376;-6.5606;8.6572;0.5315;0.0792;-0.6757;0.0;-24.84;39.18;18.24;296.43;75.89;133.57;2.0;989.5;62.053;;;;NaN;;;;;0 / 0;251011;2022-11-04 15:33:12:731
5.143;-11.3081;2.5977;-3.7104;-8.5236;3.1227;10.6372;-2.7031;-6.1777;0.2866;-0.9263;-0.1015;1.0;-16.14;42.54;-17.22;51.48;65.08;47.98;2.0;989.59;62.217;;;;NaN;;;;;0 / 0;251512;2022-11-04 15:33:13:232
-1.9944;-3.6799;2.1093;-1.9862;-9.3122;-2.347;0.0541;7.6793;2.5553;1.0196;-0.8072;0.1288;1.0;-22.26;38.46;25.62;279.28;72.03;141.39;2.0;989.45;66.663;;;;NaN;;;;;0 / 0;252011;2022-11-04 15:33:13:731
-0.5962;-11.0687;-15.3067;-1.2643;-9.3997;2.4935;-1.3334;2.7052;-4.0856;0.859;8.6008;0.6383;1.0;-25.98;42.66;6.06;337.53;80.6;104.98;2.0;989.34;67.673;;;;NaN;;;;;0 / 0;252512;2022-11-04 15:33:14:232
-0.5818;-5.9978;-1.5945;-1.705;-9.3917;-2.2493;0.2876;3.9446;3.2693;-0.8551;0.381;-0.4344;1.0;-24.0;39.42;22.02;276.7;79.29;143.67;2.0;989.49;62.547;;;;NaN;;;;;0 / 0;253011;2022-11-04 15:33:14:731
-0.2083;-8.2938;-1.7142;-1.4729;-9.6931;-0.2095;0.52;3.3889;0.3532;2.0123;-0.3741;0.4617;1.0;-23.88;41.28;16.56;289.98;82.72;134.19;2.0;989.35;69.069;;;;NaN;;;;;0 / 0;253512;2022-11-04 15:33:15:232
0.2251;-6.1893;-0.6081;-1.6713;-9.5507;-1.4701;1.4965;3.2943;2.5331;-0.8417;0.5153;-0.2682;1.0;-24.96;40.38;14.94;332.97;79.9;92.0;2.0;989.52;63.242;;;;NaN;;;;;0 / 0;254011;2022-11-04 15:33:15:731
-3.2058;-14.4349;2.2314;-1.296;-9.719;-0.1787;-1.1269;0.3047;1.3998;1.9286;-0.7974;-0.5108;1.0;-21.72;40.26;18.84;288.0;80.46;133.63;2.0;989.41;66.722;;;;NaN;;;;;0 / 0;254512;2022-11-04 15:33:16:232
4.6471;-15.1272;5.6099;-2.3071;-9.3853;1.6621;0.4516;-5.3468;1.5605;-2.8075;-0.5763;-1.369;1.0;-20.7;42.96;-5.52;29.93;58.72;47.88;2.0;989.6;60.5;;;;NaN;;;;;0 / 0;255011;2022-11-04 15:33:16:731
-1.6975;-4.0366;-9.9626;-1.722;-9.525;-1.5747;2.7659;-7.4649;-12.9704;-1.0225;-4.0741;-1.1393;1.0;-22.44;39.96;19.8;295.19;74.71;131.03;2.0;989.66;62.771;;;;NaN;;;;;0 / 0;255512;2022-11-04 15:33:17:232
3.0167;-9.309;-4.0893;-3.6815;-8.4643;3.3125;8.8509;-3.8374;-1.4187;0.0923;0.227;-0.1638;1.0;-17.16;42.54;-13.5;48.74;68.21;45.05;2.0;989.54;62.65;;;;NaN;;;;;0 / 0;256011;2022-11-04 15:33:17:731
-2.4804;-22.1518;-39.7809;-1.7652;-9.4354;-2.0068;0.0772;8.1449;3.441;0.7087;-1.1181;-0.0343;1.0;-22.32;37.74;24.06;287.66;75.26;131.25;2.0;989.55;59.436;;;;NaN;;;;;0 / 0;256511;2022-11-04 15:33:18:231
3.4644;-10.269;0.0455;-3.2194;-8.5832;3.4836;9.8301;1.0148;-9.1078;0.3428;2.7297;0.2314;1.0;-20.4;43.56;-9.54;55.27;73.11;33.54;2.0;989.36;68.898;;;;NaN;;;;;0 / 0;257011;2022-11-04 15:33:18:731
-1.0175;-4.5346;1.7621;-2.0123;-9.3142;-2.3164;0.2885;4.8634;4.1336;0.1003;-1.1028;-0.4411;1.0;-21.84;38.34;22.38;298.13;74.46;123.25;2.0;989.35;60.962;;;;NaN;;;;;0 / 0;257511;2022-11-04 15:33:19:231
-1.8052;-7.9251;1.4269;-1.6263;-9.4801;1.9111;-0.2746;3.468;-8.0909;2.3091;3.0877;-0.6757;1.0;-20.4;42.84;13.2;315.06;75.07;120.41;2.0;989.44;67.715;;;;NaN;;;;;0 / 0;258012;2022-11-04 15:33:19:732
-0.6105;-14.6624;-1.5993;-1.9921;-9.4898;-1.4644;1.815;3.1928;2.592;-1.6493;-2.8664;0.4843;1.0;-24.54;40.74;13.62;352.85;72.69;70.62;2.0;989.47;61.531;;;;NaN;;;;;0 / 0;258511;2022-11-04 15:33:20:231
0.8739;-2.5738;1.9728;-2.0647;-9.5712;-0.5469;0.1517;-0.8822;3.3409;-0.0091;-1.3105;1.232;1.0;-20.16;41.46;19.32;294.33;73.15;135.2;2.0;989.56;65.221;;;;NaN;;;;;0 / 0;259011;2022-11-04 15:33:20:731
-5.1814;-15.9987;0.2107;-2.8183;-8.8219;3.2251;5.9116;-5.285;-6.9265;-3.0005;-1.1639;-1.1088;0.0;-18.54;43.2;-13.26;44.47;58.88;37.83;2.0;989.54;59.065;;;;NaN;;;;;0 / 0;259512;2022-11-04 15:33:21:232
9.1701;-21.4143;8.5141;-1.6954;-9.6009;-1.058;3.2731;8.1643;7.2592;0.2524;-2.2781;-0.3104;0.0;-19.14;38.94;24.9;290.15;75.67;123.76;2.0;989.54;61.314;;;;NaN;;;;;0 / 0;260012;2022-11-04 15:33:21:732
9.3233;-11.5404;-2.0853;-3.0269;-8.4779;3.89;5.9024;-4.9993;-6.0185;-1.0231;-2.2891;-0.994;1.0;-19.5;43.2;-14.58;47.91;59.56;38.51;2.0;989.61;59.194;;;;NaN;;;;;0 / 0;260511;2022-11-04 15:33:22:231
0.0814;-2.1931;1.0965;-1.7258;-9.6258;-0.7317;-2.0019;-8.2978;-27.2311;-1.5595;2.6894;-0.0166;1.0;-20.52;38.88;24.72;274.65;72.67;146.96;2.0;989.43;59.94;;;;NaN;;;;;0 / 0;261011;2022-11-04 15:33:22:731
1.6855;-9.2898;-0.8667;-2.7521;-8.7705;3.4169;6.159;-0.6965;-7.8534;0.6525;0.5624;0.6132;1.0;-22.62;42.0;-8.46;41.28;63.42;38.85;2.0;989.66;69.876;;;;NaN;;;;;0 / 0;261511;2022-11-04 15:33:23:231
-1.2977;-4.4796;1.5395;-1.3683;-9.42;-2.3582;-0.8032;4.5478;4.7356;-0.9804;-0.4553;-0.2401;1.0;-23.58;36.18;24.18;284.7;79.86;130.63;2.0;989.52;58.092;;;;NaN;;;;;0 / 0;262011;2022-11-04 15:33:23:731
-3.5985;-7.6737;-3.0502;-1.6104;-9.6231;0.9861;1.5984;1.3628;-0.809;2.096;1.1451;-0.7875;1.0;-18.9;41.52;20.34;295.23;76.67;126.64;2.0;989.52;66.67;;;;NaN;;;;;0 / 0;262511;2022-11-04 15:33:24:231
1.0942;-8.5763;-0.3232;-1.8371;-9.5436;-1.3093;1.7533;1.427;2.0276;-1.3786;-1.0973;-0.0819;1.0;-23.88;40.08;15.18;350.79;75.87;70.1;2.0;989.67;57.672;;;;NaN;;;;;0 / 0;263011;2022-11-04 15:33:24:731
-2.7988;-10.9897;2.6959;-2.4267;-9.4902;-0.4661;5.1537;-6.1541;1.4765;-0.1404;-2.3203;-0.3538;1.0;-18.48;39.9;22.68;288.62;76.11;127.56;2.0;989.63;60.024;;;;NaN;;;;;0 / 0;263511;2022-11-04 15:33:25:231
0.5483;-11.7343;-1.4437;-2.7834;-9.2368;1.7616;1.1122;-4.2979;2.1481;-3.0714;-0.3386;-1.2792;1.0;-21.06;43.08;-5.58;29.53;58.31;48.35;2.0;989.71;58.805;;;;NaN;;;;;0 / 0;264011;2022-11-04 15:33:25:731
-4.525;-14.0016;-8.5213;-1.8849;-9.46;-1.7677;4.6574;4.6429;-7.8717;1.3452;2.6222;-0.7808;1.0;-21.78;38.58;22.32;290.6;73.4;133.95;2.0;989.7;60.609;;;;NaN;;;;;0 / 0;264512;2022-11-04 15:33:26:232
3.1173;-8.6984;-3.7493;-4.1055;-8.3846;3.0023;8.7167;-3.2946;-1.8004;0.0874;0.3645;0.3799;1.0;-16.14;42.36;-14.88;51.33;68.54;49.03;2.0;989.54;62.617;;;;NaN;;;;;0 / 0;265011;2022-11-04 15:33:26:731
-2.2649;-9.7471;-9.704;-1.8468;-9.2967;-2.516;0.5563;6.0095;3.9789;-0.0085;-0.9654;0.0207;1.0;-24.6;37.32;23.16;294.7;73.82;128.35;2.0;989.49;59.649;;;;NaN;;;;;0 / 0;265511;2022-11-04 15:33:27:231
0.7518;-8.8157;1.3862;-3.2742;-8.5533;3.5059;8.4651;-3.3199;-6.6064;1.479;2.723;0.5228;1.0;-20.58;42.24;-10.32;55.02;72.41;34.25;2.0;989.42;67.809;;;;NaN;;;;;0 / 0;266011;2022-11-04 15:33:27:731
-0.486;-5.2843;0.826;-1.6881;-9.2765;-2.6958;-0.1483;4.6461;3.62;-1.0946;-1.0992;-0.0434;1.0;-24.9;36.78;21.66;299.67;76.71;121.4;2.0;989.49;60.279;;;;NaN;;;;;0 / 0;266511;2022-11-04 15:33:28:231
-2.2865;-6.6658;1.1396;-1.1958;-9.7103;0.6713;-2.7809;2.6088;-0.3457;5.091;-2.2287;-0.9243;1.0;-20.4;39.66;22.62;292.75;80.38;119.78;2.0;989.57;69.848;;;;NaN;;;;;0 / 0;267011;2022-11-04 15:33:28:731
-3.1268;-13.3121;4.4963;-1.5283;-9.6857;0.1477;-0.3775;-6.6338;-5.4439;-3.8215;-2.0643;-0.9946;1.0;-25.26;41.64;4.98;22.04;64.1;42.8;2.0;989.55;56.886;;;;NaN;;;;;0 / 0;267512;2022-11-04 15:33:29:232
1.0678;-6.8621;-8.2555;-1.6772;-9.6004;-1.0909;5.1416;-13.5737;16.6179;0.9469;1.1739;0.474;1.0;-24.18;38.04;20.88;297.25;79.14;122.82;2.0;989.66;57.691;;;;NaN;;;;;0 / 0;268012;2022-11-04 15:33:29:732
3.9911;-13.3216;-0.2897;-4.1178;-8.2595;3.3157;12.1195;-2.2777;-0.074;0.4191;0.1568;-0.504;1.0;-15.6;41.88;-15.66;49.16;62.56;45.58;2.0;989.63;59.732;;;;NaN;;;;;0 / 0;268511;2022-11-04 15:33:30:231
-5.7991;-23.5188;-40.0011;-2.2053;-9.4293;-1.548;1.9754;-1.3521;-7.5359;-0.6322;1.3131;-0.9304;1.0;-22.08;39.54;20.22;288.85;69.79;145.46;2.0;989.49;59.115;;;;NaN;;;;;0 / 0;269012;2022-11-04 15:33:30:732
2.7749;-10.8724;-3.644;-3.3486;-8.6334;3.2283;6.6933;-1.5016;-6.1444;0.5615;1.9741;0.6694;1.0;-20.46;41.88;-12.48;59.38;71.03;31.36;2.0;989.6;66.924;;;;NaN;;;;;0 / 0;269512;2022-11-04 15:33:31:232
-0.7039;-6.2659;1.3096;-1.6106;-9.307;-2.6373;-0.6495;3.7091;3.8799;-1.1429;-1.5359;-0.3263;1.0;-25.74;38.04;22.5;297.42;76.49;123.85;2.0;989.57;63.812;;;;NaN;;;;;0 / 0;270011;2022-11-04 15:33:31:731
-1.6544;-7.7815;0.747;-1.8217;-9.5807;1.0305;-1.3554;-0.0443;-4.8588;2.4686;-0.6991;-0.4307;1.0;-24.72;42.42;13.38;315.5;78.91;118.19;2.0;989.54;69.097;;;;NaN;;;;;0 / 0;270511;2022-11-04 15:33:32:231
-4.7764;-12.7494;0.9266;-1.8862;-9.6131;-0.4473;0.2533;-8.1093;-4.0777;-3.1862;-3.7485;-0.2499;1.0;-25.86;42.84;-2.04;26.56;63.59;50.72;2.0;989.65;59.46;;;;NaN;;;;;0 / 0;271012;2022-11-04 15:33:32:732
1.075;-20.9618;2.6863;-1.848;-9.5206;-1.4536;3.2654;4.9333;11.6365;0.6647;-3.3252;-0.9726;1.0;-24.72;39.84;19.44;306.77;74.13;121.54;2.0;989.54;63.179;;;;NaN;;;;;0 / 0;271512;2022-11-04 15:33:33:232
3.1173;-13.5204;-3.7278;-2.3258;-9.2822;2.145;5.5436;-2.9165;3.4673;-2.4336;-1.4626;-1.749;1.0;-23.28;42.78;-7.5;34.89;59.13;42.73;2.0;989.66;59.655;;;;NaN;;;;;0 / 0;272011;2022-11-04 15:33:33:731
-6.6729;-18.5269;-19.2045;-2.0141;-9.4171;-1.8527;7.545;8.3037;-5.584;1.8406;3.4182;-1.5376;1.0;-21.42;38.16;24.42;280.55;71.21;143.5;2.0;989.78;59.962;;;;NaN;;;;;0 / 0;272511;2022-11-04 15:33:34:231
5.3825;-10.0727;-4.7262;-3.8792;-8.4353;3.1571;5.7754;-1.3094;-6.1595;0.2469;2.0792;0.4868;1.0;-18.6;42.78;-12.84;50.97;69.79;43.84;2.0;989.53;60.982;;;;NaN;;;;;0 / 0;273012;2022-11-04 15:33:34:732
-1.3671;-5.009;1.4724;-1.8561;-9.4159;-2.0164;-0.7225;3.7437;3.9965;-0.8863;-1.9;-0.1943;1.0;-24.48;37.8;20.64;305.17;76.39;116.38;2.0;989.5;56.776;;;;NaN;;;;;0 / 0;273512;2022-11-04 15:33:35:232
-0.8882;-8.0568;0.7901;-1.4736;-9.611;1.2755;-2.8503;1.9181;-0.7105;4.1601;2.3137;-0.3251;1.0;-22.5;41.46;16.02;318.15;77.52;107.83;2.0;989.55;69.497;;;;NaN;;;;;0 / 0;274011;2022-11-04 15:33:35:731
-0.9313;-5.7272;1.4605;-1.6877;-9.6118;-0.9674;-0.2181;-2.4601;-0.5386;-2.2314;-2.7907;0.1875;1.0;-26.04;41.46;5.04;14.3;66.75;57.21;2.0;989.62;62.131;;;;NaN;;;;;0 / 0;274511;2022-11-04 15:33:36:231
-2.0758;-11.5811;2.1811;-1.7925;-9.6299;0.4707;1.0216;3.0144;0.7264;2.1479;-0.9898;0.0427;1.0;-24.84;40.98;12.66;319.49;80.24;111.89;2.0;989.53;66.322;;;;NaN;;;;;0 / 0;275011;2022-11-04 15:33:36:731
1.2258;-12.9481;3.3758;-2.6497;-9.4139;0.7266;0.2076;-7.6167;-0.9301;-3.0579;0.3437;-1.358;1.0;-21.3;42.84;-6.84;28.87;58.78;53.06;2.0;989.63;59.266;;;;NaN;;;;;0 / 0;275511;2022-11-04 15:33:37:231
3.7709;-4.3958;-9.5675;-1.6933;-9.5955;-1.1087;15.216;-19.8325;-2.9998;1.49;0.0389;-2.107;1.0;-24.66;40.86;14.64;322.0;75.76;108.62;2.0;989.61;64.285;;;;NaN;;;;;0 / 0;276012;2022-11-04 15:33:37:732
1.4174;-10.0368;-5.3418;-4.4141;-8.335;2.6857;13.0048;-2.8318;-2.5612;-0.0751;0.5056;-0.4772;1.0;-13.98;43.14;-16.68;46.22;62.07;53.29;2.0;989.75;64.157;;;;NaN;;;;;0 / 0;276511;2022-11-04 15:33:38:231
-1.6592;-1.0056;1.9106;-2.1079;-9.3637;-2.0119;1.6435;6.6415;1.0997;3.1729;-3.3954;0.2168;1.0;-22.68;37.56;24.24;283.78;70.3;142.52;2.0;989.54;60.706;;;;NaN;;;;;0 / 0;277011;2022-11-04 15:33:38:731
5.6291;-10.858;-0.7853;-2.5542;-9.1161;2.5581;3.3442;1.2867;-0.2333;2.3623;1.6687;0.8362;1.0;-22.98;43.14;-0.24;22.17;80.09;61.15;2.0;989.67;64.362;;;;NaN;;;;;0 / 0;277511;2022-11-04 15:33:39:231
-1.7023;-3.3615;1.6855;-1.5455;-9.3178;-2.6383;0.6237;7.9722;3.1985;-0.6193;-0.338;-0.245;1.0;-25.2;37.14;21.12;304.78;75.98;117.67;2.0;989.55;61.192;;;;NaN;;;;;0 / 0;278011;2022-11-04 15:33:39:731
-0.3567;-7.4271;0.3112;-1.3742;-9.4636;2.1729;0.0335;1.5696;-7.9049;1.6073;1.3528;-0.1613;1.0;-22.68;42.12;11.64;325.51;81.65;104.32;2.0;989.64;70.683;;;;NaN;;;;;0 / 0;278511;2022-11-04 15:33:40:231
-2.162;-16.9132;-2.7342;-1.9359;-9.5864;-0.7232;0.5089;-5.6509;0.4072;-2.7048;-1.9074;-0.3153;1.0;-24.42;43.32;3.18;14.92;64.39;57.88;2.0;989.72;58.891;;;;NaN;;;;;0 / 0;279012;2022-11-04 15:33:40:732
8.0352;-31.4104;5.4711;-0.6023;-9.7364;-1.0045;-2.9962;4.2223;3.133;-0.1172;-1.3698;0.557;1.0;-30.36;37.2;18.6;303.13;75.57;126.53;2.0;989.69;59.202;;;;NaN;;;;;0 / 0;279511;2022-11-04 15:33:41:231
8.1933;-11.0424;-0.6081;-3.7075;-8.4351;3.3577;6.4393;-4.525;-6.4318;-0.4678;-0.8426;-0.5841;1.0;-17.4;43.02;-16.44;47.12;60.4;44.49;2.0;989.82;62.464;;;;NaN;;;;;0 / 0;280011;2022-11-04 15:33:41:731
1.47;-5.1957;-9.2012;-1.9218;-9.4834;-1.5946;0.0064;4.5749;-2.5976;2.8394;-4.8236;0.1111;1.0;-22.5;38.16;23.4;278.42;73.92;144.85;2.0;989.71;62.513;;;;NaN;;;;;0 / 0;280512;2022-11-04 15:33:42:232
5.2771;-10.2451;-5.2149;-4.1472;-8.1605;3.5181;6.1607;-3.241;-3.4654;0.0929;0.5398;0.3848;1.0;-16.14;41.94;-16.56;51.25;66.77;52.31;2.0;989.56;63.951;;;;NaN;;;;;0 / 0;281011;2022-11-04 15:33:42:731
-2.1596;-2.8371;1.3815;-1.4262;-9.406;-2.3795;-0.1707;8.3047;4.2446;0.14;-0.773;0.4416;1.0;-26.94;37.56;19.32;296.3;75.76;132.94;2.0;989.53;67.592;;;;NaN;;;;;0 / 0;281511;2022-11-04 15:33:43:231
-2.0566;-9.218;-0.1077;-1.962;-9.3305;2.294;-0.6596;1.98;-10.3365;1.7783;5.6436;-0.1668;1.0;-22.32;42.96;7.56;334.59;75.71;106.02;2.0;989.62;68.365;;;;NaN;;;;;0 / 0;282012;2022-11-04 15:33:43:732
0.0527;-19.7264;-1.4365;-1.8289;-9.5996;-0.8197;0.7994;1.155;1.0854;-1.692;-4.2848;0.0836;1.0;-25.02;40.92;10.56;4.2;68.76;60.05;2.0;989.66;62.737;;;;NaN;;;;;0 / 0;282512;2022-11-04 15:33:44:232
-0.893;-20.0281;1.573;-1.5906;-9.6342;-0.9069;1.0758;4.3595;4.7639;-0.014;-1.9049;0.149;1.0;-22.2;38.64;21.6;291.38;74.31;131.91;2.0;989.7;67.164;;;;NaN;;;;;0 / 0;283011;2022-11-04 15:33:44:731
-2.2362;-13.1493;2.6695;-3.6429;-8.2678;3.8136;7.0259;-6.7205;-4.958;-1.4507;-0.6716;-1.1387;1.0;-15.72;43.02;-12.36;38.42;56.88;42.38;2.0;989.77;59.938;;;;NaN;;;;;0 / 0;283511;2022-11-04 15:33:45:231
0.498;-8.0664;-5.2316;-1.5983;-9.6274;-0.9639;1.651;-10.6042;14.4531;0.7221;1.3284;0.6871;1.0;-21.78;38.04;23.16;301.04;75.94;116.64;2.0;989.68;61.025;;;;NaN;;;;;0 / 0;284011;2022-11-04 15:33:45:731
3.802;-11.0184;1.5155;-4.2886;-8.1976;3.2523;12.8409;-2.2869;-2.898;0.2487;-0.7009;-0.4802;1.0;-13.5;43.8;-15.0;43.04;60.54;47.79;2.0;989.77;64.581;;;;NaN;;;;;0 / 0;284511;2022-11-04 15:33:46:231
-1.1827;-2.3607;1.9249;-1.8308;-9.4739;-1.7502;0.8803;8.8514;2.5284;1.4472;-1.236;0.1948;1.0;-23.34;37.74;23.16;284.24;73.07;140.24;2.0;989.6;63.351;;;;NaN;;;;;0 / 0;285012;2022-11-04 15:33:46:732
-0.7733;-7.2284;-9.2467;-2.2436;-9.1528;2.7135;0.3738;3.3992;-0.5587;1.1454;4.2697;0.7873;1.0;-24.84;43.02;-1.2;17.33;79.26;69.76;2.0;989.6;68.336;;;;NaN;;;;;0 / 0;285512;2022-11-04 15:33:47:232
1.9417;-7.2763;1.2905;-1.8453;-9.5032;-1.5665;-0.9487;0.9101;-6.6579;-1.7128;-0.3148;-0.4802;1.0;-25.2;41.28;10.92;352.27;74.72;76.76;2.0;989.78;63.529;;;;NaN;;;;;0 / 0;286011;2022-11-04 15:33:47:731
-1.8555;-6.6418;2.3918;-2.2286;-9.5288;-0.6361;5.8271;-11.6748;2.5563;0.7814;2.7878;0.535;1.0;-18.06;38.1;25.8;276.45;76.18;135.12;2.0;989.63;67.329;;;;NaN;;;;;0 / 0;286511;2022-11-04 15:33:48:231
-1.6879;-18.5868;-1.5634;-1.3864;-9.698;-0.4436;-1.2951;-7.7899;-1.6513;-2.623;-4.0057;-0.1143;1.0;-26.04;40.26;6.84;20.37;64.38;43.35;2.0;989.74;62.581;;;;NaN;;;;;0 / 0;287011;2022-11-04 15:33:48:731
5.3442;-19.4152;9.9075;-1.3715;-9.6731;-0.849;-1.2094;-6.589;-2.1988;-2.1575;1.7896;0.1343;1.0;-24.48;37.68;23.94;297.24;74.66;122.63;2.0;989.75;62.697;;;;NaN;;;;;0 / 0;287512;2022-11-04 15:33:49:232
4.8988;-12.5004;-1.8435;-3.279;-8.1348;4.3866;4.4306;-4.0567;-9.1056;-0.4972;0.2716;-0.6629;1.0;-21.0;40.74;-17.1;50.86;56.88;37.92;2.0;989.8;59.258;;;;NaN;;;;;0 / 0;288011;2022-11-04 15:33:49:731
-1.4748;0.68;0.8906;-1.6968;-9.5335;-1.5503;2.3863;7.0004;-11.0339;3.6115;-3.4351;0.3646;1.0;-25.38;35.16;26.58;270.86;73.13;148.66;2.0;989.77;65.637;;;;NaN;;;;;0 / 0;288511;2022-11-04 15:33:50:231
-0.0742;-7.9897;1.7957;-3.7634;-8.7256;2.423;3.8256;2.5267;-3.2873;1.658;-0.1487;1.8172;1.0;-21.78;43.62;-8.64;56.49;74.6;31.88;2.0;989.6;66.143;;;;NaN;;;;;0 / 0;289011;2022-11-04 15:33:50:731
-0.2035;-1.3838;2.1859;-2.2667;-8.9782;-3.2287;2.2068;3.7561;3.5495;-1.2595;0.8031;-0.9323;1.0;-24.78;40.62;13.68;314.08;73.81;122.52;2.0;989.62;63.903;;;;NaN;;;;;0 / 0;289511;2022-11-04 15:33:51:231
-1.4581;-8.3345;0.067;-3.1828;-9.1414;1.5733;3.8029;1.1301;-2.5046;1.1057;3.5794;0.7226;1.0;-23.52;40.5;-10.38;11.97;76.18;96.5;2.0;989.61;67.001;;;;NaN;;;;;0 / 0;290012;2022-11-04 15:33:51:732
-1.5371;-8.3369;0.2107;-3.3032;-8.6384;-3.2614;1.9457;2.6239;3.7379;-1.4275;0.8141;0.3035;1.0;-18.48;45.18;5.4;337.63;72.33;112.16;2.0;989.68;64.732;;;;NaN;;;;;0 / 0;290512;2022-11-04 15:33:52:232
-9.6489;-4.8291;-4.8363;-2.7663;-8.8968;-3.0601;0.0441;-7.5544;6.9603;1.4753;2.0779;1.4782;1.0;-22.56;43.44;6.48;321.17;62.84;143.7;2.0;989.68;67.29;;;;NaN;;;;;0 / 0;291011;2022-11-04 15:33:52:731
2.1021;-13.6233;-2.5211;-3.4844;-9.1573;0.4146;4.8515;-1.3822;-4.0753;-1.8282;0.0859;-0.727;1.0;-5.76;37.98;-27.42;55.94;64.32;82.45;2.0;989.78;61.349;;;;NaN;;;;;0 / 0;291511;2022-11-04 15:33:53:231
1.142;-1.6185;-2.3559;-3.4199;-8.0756;-4.3885;-0.9591;-16.3698;-30.1156;-1.3108;3.5147;0.9798;1.0;-12.18;46.56;3.9;338.42;49.16;155.24;2.0;989.65;62.983;;;;NaN;;;;;0 / 0;292012;2022-11-04 15:33:53:732
2.569;-11.186;-0.5818;-2.8744;-9.3416;-0.8011;6.1257;-0.3456;-0.4463;2.0446;0.1109;0.9297;1.0;-0.48;40.38;-24.66;44.87;69.65;113.09;2.0;989.66;66.281;;;;NaN;;;;;0 / 0;292511;2022-11-04 15:33:54:231
-0.4956;-3.5745;0.589;-2.2504;-7.0108;-6.4772;1.6423;4.1569;7.4469;0.6164;-0.9911;0.3096;1.0;-5.16;48.66;6.24;345.7;51.95;156.04;2.0;989.63;64.578;;;;NaN;;;;;0 / 0;293011;2022-11-04 15:33:54:731
-0.5339;-10.7981;1.1109;-3.0359;-9.1292;-1.9001;2.2506;0.8234;-1.8708;2.4496;5.7718;-0.0887;1.0;-6.0;45.6;-15.6;12.28;60.84;132.39;2.0;989.6;66.883;;;;NaN;;;;;0 / 0;293511;2022-11-04 15:33:55:231
-2.7677;-15.4671;-1.1995;-2.7815;-8.0995;-4.7782;1.6251;-1.5255;5.3959;-1.9101;-1.7235;0.5173;1.0;-3.78;49.62;-7.38;4.35;70.22;136.99;2.0;989.72;65.866;;;;NaN;;;;;0 / 0;294011;2022-11-04 15:33:55:731
-2.2793;-0.5914;7.6163;-2.1473;-8.3633;-4.6492;-1.5805;4.9611;2.8105;-0.7886;-1.1743;0.5949;1.0;-13.02;52.32;-7.98;349.25;53.87;152.48;2.0;989.78;68.982;;;;NaN;;;;;0 / 0;294511;2022-11-04 15:33:56:231
5.7847;-12.2203;-1.5395;-2.554;-9.4364;-0.7756;6.8636;-4.4167;0.7971;0.0563;-1.718;-0.7215;1.0;8.7;46.14;-49.5;63.54;73.47;113.77;2.0;989.77;60.353;;;;NaN;;;;;0 / 0;295011;2022-11-04 15:33:56:731
-6.2683;-10.4582;-8.7008;-2.7442;-6.7603;-6.5527;4.0658;6.2072;6.7466;4.0159;-3.8487;-0.2731;1.0;-8.04;48.06;15.6;337.85;40.29;167.63;2.0;989.8;63.106;;;;NaN;;;;;0 / 0;295512;2022-11-04 15:33:57:232
2.5115;-8.7774;-0.5602;-2.8038;-9.3916;0.3264;6.8189;-2.7281;-9.7023;0.6592;1.8941;0.105;1.0;-7.02;39.84;-23.7;28.62;71.21;121.95;2.0;989.59;58.865;;;;NaN;;;;;0 / 0;296011;2022-11-04 15:33:57:731
-7.463;-5.5668;-1.2067;-4.7154;-6.4466;-5.6901;3.6404;1.0473;8.0484;0.2029;-1.244;0.5815;1.0;-4.8;46.32;13.2;330.94;53.38;133.73;2.0;989.64;62.008;;;;NaN;;;;;0 / 0;296511;2022-11-04 15:33:58:231
-1.0654;-10.0057;0.7757;-2.7973;-8.4353;-4.1461;1.3919;0.527;4.2084;1.1705;0.6522;0.455;1.0;-5.64;47.16;-5.16;354.22;55.92;154.46;2.0;989.68;62.003;;;;NaN;;;;;0 / 0;297011;2022-11-04 15:33:58:731
1.3192;-12.4406;-2.4229;-1.0602;-9.2799;-2.9882;9.5335;-1.5781;8.1528;-2.4446;-0.1927;-2.3018;1.0;12.42;40.26;-18.12;67.63;76.75;122.97;2.0;989.77;61.968;;;;NaN;;;;;0 / 0;297511;2022-11-04 15:33:59:231
-5.5812;-14.229;-14.9811;-3.1005;-7.2903;-5.78;-0.4597;-6.5078;-5.9926;-0.9969;1.5239;-0.1644;1.0;-0.24;48.18;0.6;359.5;42.85;162.5;2.0;989.77;62.997;;;;NaN;;;;;0 / 0;298011;2022-11-04 15:33:59:731
3.9816;-12.4549;-3.3232;-2.0513;-9.2971;-2.3508;4.6323;0.0456;1.9988;2.096;-1.5744;0.5424;1.0;0.66;43.68;-18.24;27.09;65.03;129.74;2.0;989.78;62.326;;;;NaN;;;;;0 / 0;298511;2022-11-04 15:34:00:231
-1.2067;-9.1366;-0.5578;-4.3118;-8.4542;-2.4708;2.7292;-0.0287;0.0287;2.2957;-2.4834;-1.2016;1.0;-12.78;45.24;10.44;333.89;55.78;119.0;2.0;989.57;57.45;;;;NaN;;;;;0 / 0;299012;2022-11-04 15:34:00:732
2.478;-9.2706;-0.723;-3.6103;-8.9707;1.6316;4.0437;0.3872;-3.4967;1.212;0.0095;0.0903;1.0;-17.64;42.9;-11.52;27.0;67.85;78.23;2.0;989.66;55.369;;;;NaN;;;;;0 / 0;299512;2022-11-04 15:34:01:232
-1.5897;-15.3714;-0.9481;-3.403;-9.1584;-0.8444;1.593;-14.5735;2.9656;-4.6046;-4.0093;0.1624;1.0;-18.72;43.44;-0.66;17.05;56.72;57.0;2.0;989.68;56.936;;;;NaN;;;;;0 / 0;300011;2022-11-04 15:34:01:731
0.4788;-16.8821;2.9975;-2.1855;-9.4146;-1.6611;0.4592;3.8047;1.0338;1.1363;-2.6563;-0.6348;1.0;-21.36;37.74;24.72;284.24;70.14;138.88;2.0;989.52;69.286;;;;NaN;;;;;0 / 0;300511;2022-11-04 15:34:02:231
4.8818;-16.7217;-4.1515;-2.4886;-8.9925;3.0185;8.915;-4.2094;-5.0152;-3.5802;-1.5946;-1.6946;1.0;-22.86;41.64;-10.02;38.1;58.74;45.2;2.0;989.75;64.483;;;;NaN;;;;;0 / 0;301011;2022-11-04 15:34:02:731
