sep=;
ACCELEROMETER X (m/s²);ACCELEROMETER Y (m/s²);ACCELEROMETER Z (m/s²);GRAVITY X (m/s²);GRAVITY Y (m/s²);GRAVITY Z (m/s²);LINEAR ACCELERATION X (m/s²);LINEAR ACCELERATION Y (m/s²);LINEAR ACCELERATION Z (m/s²);GYROSCOPE X (rad/s);GYROSCOPE Y (rad/s);GYROSCOPE Z (rad/s);LIGHT (lux);MAGNETIC FIELD X (μT);MAGNETIC FIELD Y (μT);MAGNETIC FIELD Z (μT);ORIENTATION Z (azimuth °);ORIENTATION X (pitch °);ORIENTATION Y (roll °);PROXIMITY (i);ATMOSPHERIC PRESSURE (hPa);SOUND LEVEL (dB);LOCATION Latitude : ;LOCATION Longitude : ;LOCATION Altitude ( m);LOCATION Altitude-google ( m);LOCATION Altitude-atmospheric pressure ( m);LOCATION Speed ( Kmh);LOCATION Accuracy ( m);LOCATION ORIENTATION (°);Satellites in range;Time since start in ms ;YYYY-MO-DD HH-MI-SS_SSS
-2.2098;4.5346;9.3999;-1.2365;4.0414;8.8492;-0.0295;-0.2771;-1.2699;-0.1503;-0.1217;-0.553;2.0;17.58;-14.88;-34.44;275.16;-24.77;5.74;2.0;984.66;52.174;;;;NaN;;;;;0 / 0;12;2022-10-31 20:20:25:305
0.5626;4.367;8.0137;0.548;4.1663;8.8607;0.0817;-0.4508;-3.139;0.0629;-0.1993;-0.192;2.0;13.26;-19.74;-37.86;265.93;-25.73;0.99;2.0;984.72;63.418;;;;NaN;;;;;0 / 0;511;2022-10-31 20:20:25:804
0.1556;3.5099;6.4168;0.0883;4.1909;8.8656;-0.3931;-0.966;-1.2982;-0.0079;0.1752;-0.4375;2.0;8.16;-17.4;-40.5;281.38;-25.3;-0.57;2.0;984.62;47.848;;;;NaN;;;;;0 / 0;1012;2022-10-31 20:20:26:305
0.9242;3.7182;7.7862;0.5863;4.0072;8.9314;0.698;-0.7408;-1.0265;-0.6243;0.2607;0.235;2.0;8.34;-18.72;-41.4;265.51;-24.12;-3.76;2.0;984.66;53.17;;;;NaN;;;;;0 / 0;1512;2022-10-31 20:20:26:805
1.2115;3.2513;9.0863;0.5642;4.0247;8.9249;1.6608;-1.0217;0.7561;0.2101;-0.308;-0.8822;5.0;3.54;-18.36;-43.02;279.27;-24.23;-3.62;2.0;984.67;52.47;;;;NaN;;;;;0 / 0;2012;2022-10-31 20:20:27:305
-1.0534;2.7509;11.3129;-0.0011;3.5878;9.1268;-0.1772;-0.4435;9.184;-0.0867;0.0347;0.951;10.0;5.52;-18.3;-40.98;270.36;-23.67;1.45;2.0;984.7;61.184;;;;NaN;;;;;0 / 0;2512;2022-10-31 20:20:27:805
1.8555;2.9473;13.8699;0.5187;3.3688;9.1952;0.7782;0.6758;2.5413;-0.8033;-0.0435;-0.9232;14.0;5.16;-19.14;-40.62;257.96;-23.12;-2.8;2.0;984.67;60.638;;;;NaN;;;;;0 / 0;3012;2022-10-31 20:20:28:305
-0.8284;3.7781;7.463;-0.4277;4.6221;8.6385;0.5159;0.0842;-2.908;-0.0079;0.5099;0.2711;17.0;3.42;-21.0;-40.62;305.66;-28.71;1.64;2.0;984.7;56.776;;;;NaN;;;;;0 / 0;3512;2022-10-31 20:20:28:805
2.7414;3.1915;9.2347;-0.1151;3.5667;9.1343;-0.9107;-1.5593;0.048;0.7727;0.0249;0.2943;21.0;8.76;-21.66;-39.42;233.62;-21.33;0.72;2.0;984.92;62.379;;;;NaN;;;;;0 / 0;4012;2022-10-31 20:20:29:305
5.7009;3.1843;6.1989;6.0458;2.2628;7.3823;-2.3144;0.326;-1.1231;-0.9084;0.4097;-0.6587;8.0;-22.92;-16.08;-36.66;234.07;-15.17;-39.41;2.0;984.71;58.778;;;;NaN;;;;;0 / 0;4512;2022-10-31 20:20:29:805
7.147;-3.5721;5.3489;8.2008;-3.1411;4.3647;-0.0421;0.4895;-0.6804;2.2504;-0.5481;2.0004;1.0;-28.98;-3.96;-27.6;221.21;9.09;-58.76;2.0;984.69;58.406;;;;NaN;;;;;0 / 0;5012;2022-10-31 20:20:30:305
6.6562;-0.0551;6.218;9.2287;-1.394;3.0096;-3.0584;-1.0598;4.7636;1.1875;-0.1962;-0.5304;1.0;-35.58;-10.56;-23.04;203.22;11.38;-68.46;2.0;984.89;60.92;;;;NaN;;;;;0 / 0;5512;2022-10-31 20:20:30:805
2.5043;-6.8166;1.4796;7.877;-5.8312;-0.3452;1.4286;-0.5825;0.7804;1.5791;-0.4742;2.6925;1.0;-36.0;-1.8;-14.76;236.17;19.73;-97.81;2.0;984.96;72.403;;;;NaN;;;;;0 / 0;6013;2022-10-31 20:20:31:306
2.8706;-13.2785;-0.9218;4.5354;-8.6476;-0.9046;0.521;-0.6963;4.2933;-3.5839;2.3095;2.0377;1.0;-19.14;12.24;-15.3;242.27;53.31;-90.47;2.0;984.79;51.755;;;;NaN;;;;;0 / 0;6512;2022-10-31 20:20:31:805
-9.0935;-4.4053;6.0169;3.3452;-8.4467;-3.6923;1.3121;-2.6472;0.4069;-0.6872;-0.6391;1.8288;1.0;-22.32;18.48;-3.0;251.01;63.58;-129.13;2.0;984.93;50.336;;;;NaN;;;;;0 / 0;7012;2022-10-31 20:20:32:305
-4.5945;-14.2362;-4.7214;-2.6046;-9.2499;1.9562;1.8418;-5.7814;-0.1387;-0.631;1.0133;-0.1596;1.0;10.74;5.88;-26.04;145.69;72.51;53.9;2.0;984.85;71.748;;;;NaN;;;;;0 / 0;7512;2022-10-31 20:20:32:805
-5.2628;-6.9291;-8.617;-2.6876;-8.702;-3.6363;-1.9382;-23.5852;-6.8352;-0.5302;-2.4436;0.513;1.0;4.02;23.04;-2.28;18.1;54.11;156.29;2.0;984.76;70.419;;;;NaN;;;;;0 / 0;8012;2022-10-31 20:20:33:305
5.641;-12.8189;0.7781;-3.3483;-9.0214;1.8904;2.8709;1.0592;-3.4705;0.4178;-0.0203;-0.2738;1.0;14.52;7.26;-25.98;132.28;72.32;73.24;2.0;984.65;67.937;;;;NaN;;;;;0 / 0;8512;2022-10-31 20:20:33:805
-1.5778;-2.4541;-0.9361;-2.7795;-8.3366;-4.3526;2.0346;5.6656;6.1007;2.0146;-0.9067;-0.8456;1.0;4.32;26.28;5.34;11.96;57.33;158.42;2.0;984.57;63.695;;;;NaN;;;;;0 / 0;9012;2022-10-31 20:20:34:305
-2.4157;-4.9587;1.1085;-2.1321;-9.571;0.1423;-1.7718;0.9089;0.04;2.014;2.1165;0.7989;1.0;5.28;20.94;-17.94;42.43;72.16;140.76;2.0;984.66;60.823;;;;NaN;;;;;0 / 0;9512;2022-10-31 20:20:34:805
-1.2522;-9.6609;1.3479;-2.0216;-8.6664;-4.1203;1.2277;1.2557;5.5504;-3.3286;-2.4296;-0.7631;1.0;10.44;25.98;1.56;113.25;72.33;119.27;2.0;984.61;57.306;;;;NaN;;;;;0 / 0;10012;2022-10-31 20:20:35:305
2.6647;-14.5403;0.6393;-2.9026;-8.6671;-3.5532;-0.1363;2.7874;3.4003;2.7752;1.0328;-1.0179;1.0;2.58;33.54;4.62;356.73;48.84;138.85;2.0;984.81;64.243;;;;NaN;;;;;0 / 0;10512;2022-10-31 20:20:35:805
2.3918;-14.5139;-0.261;-3.1678;-9.2794;0.1663;-5.0267;-2.6458;6.2075;-2.9199;0.9094;-0.2152;1.0;13.14;22.74;-21.72;131.57;67.7;61.33;2.0;984.77;57.167;;;;NaN;;;;;0 / 0;11012;2022-10-31 20:20:36:305
-5.8469;-3.9313;1.5897;-3.2661;-8.2101;-4.254;-3.2797;2.1099;-1.357;2.463;1.7231;-0.4186;1.0;1.26;35.82;12.18;330.56;57.35;145.34;2.0;985.25;67.527;;;;NaN;;;;;0 / 0;11512;2022-10-31 20:20:36:805
-5.337;-12.273;-3.2825;-3.1847;-9.1503;1.5165;4.2808;-1.8861;-3.0577;-1.7123;0.4745;-0.0753;1.0;9.6;23.22;-25.86;123.82;69.86;61.26;2.0;984.71;60.684;;;;NaN;;;;;0 / 0;12012;2022-10-31 20:20:37:305
-6.8238;-7.8222;-9.1653;-2.7545;-8.7415;-3.4884;2.8826;4.7532;4.1381;-0.5119;-1.275;0.1575;1.0;-1.8;36.84;7.56;342.35;52.56;150.9;2.0;984.82;68.091;;;;NaN;;;;;0 / 0;12512;2022-10-31 20:20:37:805
3.0502;-9.3712;-0.3065;-2.5684;-9.443;0.6344;1.3743;-0.0311;-3.8168;1.777;1.0194;0.2656;1.0;4.44;30.06;-17.64;55.24;75.98;118.81;2.0;984.69;57.187;;;;NaN;;;;;0 / 0;13012;2022-10-31 20:20:38:305
0.0862;-4.0821;0.0718;-2.4394;-7.8877;-5.2917;1.7155;5.129;5.747;-1.3854;-2.3098;-0.2231;1.0;2.04;34.38;14.7;280.51;66.19;147.23;2.0;984.63;60.669;;;;NaN;;;;;0 / 0;13513;2022-10-31 20:20:38:806
-3.3567;-6.7783;0.5459;-2.3163;-9.2497;-2.2909;-1.7729;0.2527;1.5724;2.7012;1.0267;0.2778;1.0;-3.84;33.48;4.14;342.98;55.07;141.77;2.0;985.09;61.396;;;;NaN;;;;;0 / 0;14012;2022-10-31 20:20:39:305
-0.6464;-11.83;1.5347;-1.7532;-8.7899;-3.9791;-2.6814;-5.741;1.9609;-2.9205;-3.7356;-1.1339;1.0;2.16;31.56;5.22;333.71;70.52;120.61;2.0;984.73;58.584;;;;NaN;;;;;0 / 0;14512;2022-10-31 20:20:39:805
-7.0321;-9.8237;-0.4046;-2.9924;-8.4533;-3.9696;4.5506;-16.7536;5.9798;1.1307;0.8361;0.191;1.0;-4.5;31.08;14.58;309.95;54.5;142.27;2.0;984.96;64.704;;;;NaN;;;;;0 / 0;15013;2022-10-31 20:20:40:306
-3.1819;-14.3727;0.4836;-2.7801;-9.2986;1.4057;8.2917;-2.2333;-1.2585;0.3164;0.4103;-0.1468;1.0;2.22;20.94;-22.2;106.68;71.66;60.19;2.0;984.73;67.244;;;;NaN;;;;;0 / 0;15512;2022-10-31 20:20:40:805
-7.6019;-12.7686;-13.2761;-2.9539;-8.6612;-3.5253;-3.2983;-8.2323;-7.9952;-1.0977;-1.5304;0.2222;1.0;-3.54;30.54;7.44;335.84;52.7;149.43;2.0;984.75;67.516;;;;NaN;;;;;0 / 0;16012;2022-10-31 20:20:41:305
1.2594;-9.1916;1.0127;-2.4038;-9.481;0.709;2.4329;0.9047;-4.4863;0.8015;0.3419;0.4922;1.0;0.54;23.7;-16.2;51.43;76.04;116.28;2.0;984.68;64.534;;;;NaN;;;;;0 / 0;16512;2022-10-31 20:20:41:805
1.5778;-0.7063;1.9106;-1.7513;-8.2861;-4.9441;2.1919;3.6815;5.7079;-0.3427;-1.575;-0.2866;1.0;-3.0;30.66;7.86;311.52;69.54;146.96;2.0;984.65;66.493;;;;NaN;;;;;0 / 0;17013;2022-10-31 20:20:42:306
-3.3112;-7.7599;-0.4788;-1.7865;-9.5905;-1.0003;-1.7761;1.6496;1.1206;3.1148;1.5209;-0.5774;1.0;-6.48;26.7;-9.24;359.46;65.13;147.36;2.0;984.87;69.531;;;;NaN;;;;;0 / 0;17513;2022-10-31 20:20:42:806
-0.1101;-13.0487;1.0894;-1.3561;-8.9276;-3.8247;-4.5189;-8.3042;3.4425;-2.3561;1.3144;-0.8877;1.0;3.36;27.3;0.24;13.35;73.25;114.1;2.0;984.79;60.508;;;;NaN;;;;;0 / 0;18012;2022-10-31 20:20:43:305
0.5866;-7.9347;0.2059;-3.8152;-7.9047;-4.3737;-6.9922;-6.5973;1.4774;0.0312;-1.1425;-0.159;1.0;1.38;28.92;7.62;341.44;53.46;144.02;2.0;985.42;61.312;;;;NaN;;;;;0 / 0;18512;2022-10-31 20:20:43:805
-5.337;-14.2195;-3.0095;-2.5984;-9.3492;1.4183;7.1585;-5.1217;-1.0187;-3.3262;1.1128;0.5478;1.0;10.2;13.68;-22.86;133.39;73.35;62.06;2.0;984.69;61.131;;;;NaN;;;;;0 / 0;19012;2022-10-31 20:20:44:305
-1.4724;-2.9856;-5.2532;-3.184;-8.4694;-3.7817;-6.1142;-1.8484;-3.7608;-2.116;-0.3844;0.3322;1.0;1.02;29.58;7.2;347.49;50.3;145.22;2.0;985.01;68.112;;;;NaN;;;;;0 / 0;19512;2022-10-31 20:20:44:805
-1.0343;-6.0409;0.4645;-2.4401;-9.4935;0.3008;4.1146;1.4833;-0.8916;1.6927;1.3517;0.5124;1.0;5.16;19.32;-14.1;57.47;71.0;122.26;2.0;984.76;61.379;;;;NaN;;;;;0 / 0;20012;2022-10-31 20:20:45:305
0.3304;-2.9185;1.2043;-3.1211;-7.9969;-4.7411;2.6766;5.2112;5.1827;-0.5064;-2.5218;-0.432;1.0;-1.8;29.52;11.22;322.21;58.08;156.88;2.0;984.79;63.718;;;;NaN;;;;;0 / 0;20513;2022-10-31 20:20:45:806
-2.7581;-5.914;-0.5746;-2.3345;-9.5247;0.0155;0.4949;-3.3151;0.9976;2.2614;2.337;-0.597;1.0;-6.9;23.64;-12.6;16.28;69.09;127.04;2.0;984.87;67.877;;;;NaN;;;;;0 / 0;21012;2022-10-31 20:20:46:305
-0.5267;-6.8381;2.8323;-2.077;-8.692;-4.0379;-5.6403;-6.1944;3.7115;-1.5064;-2.3538;-1.6623;1.0;-6.54;29.76;2.4;336.9;69.3;131.05;2.0;984.64;60.429;;;;NaN;;;;;0 / 0;21512;2022-10-31 20:20:46:805
6.6682;-13.0152;-1.8507;-2.2049;-9.1229;-2.8427;1.004;4.0703;3.6176;2.2816;1.2582;0.2356;1.0;-14.76;29.94;4.44;331.02;52.74;135.24;2.0;985.33;66.93;;;;NaN;;;;;0 / 0;22012;2022-10-31 20:20:47:305
-5.8374;-11.9737;0.5914;-2.6874;-9.4209;-0.4419;-5.3213;-3.2087;5.0216;-3.0317;0.0762;-0.6422;1.0;-0.48;21.3;-19.74;98.92;69.71;57.99;2.0;984.69;61.876;;;;NaN;;;;;0 / 0;22512;2022-10-31 20:20:47:805
-4.051;1.336;-7.4367;-3.2831;-8.1863;-4.2866;-4.183;3.8139;-1.0591;-0.2101;1.5441;-0.9183;1.0;-12.78;34.5;14.76;304.98;59.87;144.64;2.0;985.01;67.362;;;;NaN;;;;;0 / 0;23013;2022-10-31 20:20:48:306
-0.3448;-12.51;-0.3376;-2.6834;-9.3792;1.0002;7.7012;-2.0458;-4.1333;-0.1093;0.593;-0.3532;1.0;0.48;21.3;-20.7;100.0;70.97;59.62;2.0;984.76;66.006;;;;NaN;;;;;0 / 0;23512;2022-10-31 20:20:48:805
-3.7397;-27.7377;-13.3504;-3.2595;-8.3665;-3.9429;-0.992;5.0278;2.6623;1.3207;-0.4681;-0.4571;1.0;-8.82;31.92;9.36;323.87;53.3;146.53;2.0;984.72;66.923;;;;NaN;;;;;0 / 0;24012;2022-10-31 20:20:49:305
2.624;-7.6641;-1.9944;-2.2503;-9.4822;1.0927;0.047;3.174;-1.854;1.5504;1.3169;0.3761;1.0;-4.02;24.66;-18.6;56.56;78.64;99.68;2.0;984.67;60.051;;;;NaN;;;;;0 / 0;24513;2022-10-31 20:20:49:806
-0.4501;-4.2497;0.4094;-3.5932;-7.5886;-5.0668;2.6119;3.1219;5.5142;1.1551;-0.5585;-1.0496;1.0;-4.26;30.6;16.02;289.75;63.0;144.76;2.0;984.56;61.856;;;;NaN;;;;;0 / 0;25012;2022-10-31 20:20:50:305
-1.5251;-6.6658;1.2067;-2.8164;-9.3211;-1.1637;-2.0312;-3.5761;0.5909;1.959;2.841;-0.0038;1.0;-12.42;29.64;-2.4;344.29;58.24;133.7;2.0;984.75;67.885;;;;NaN;;;;;0 / 0;25513;2022-10-31 20:20:50:806
-5.5788;-14.7079;-2.0758;-2.5556;-9.1652;-2.3743;2.4009;-3.2735;0.8161;-2.2064;-1.5194;-0.9055;1.0;-6.78;29.04;-6.78;35.16;73.14;71.26;2.0;984.67;57.87;;;;NaN;;;;;0 / 0;26012;2022-10-31 20:20:51:305
0.7063;-8.1717;1.7837;-2.7408;-9.2375;-1.824;-1.7858;-1.259;0.7063;2.8295;1.3321;-1.6611;1.0;-18.84;29.28;7.44;321.39;55.67;135.76;2.0;985.27;65.08;;;;NaN;;;;;0 / 0;26512;2022-10-31 20:20:51:805
-4.0318;-15.4624;5.8876;-2.4907;-9.3911;-1.3319;7.6741;-3.8258;-2.3563;-3.6682;0.5808;-0.1254;1.0;-13.44;27.72;-8.04;38.78;69.66;60.46;2.0;984.68;64.615;;;;NaN;;;;;0 / 0;27012;2022-10-31 20:20:52:305
-11.3297;-14.9093;-4.6998;-4.0912;-7.9882;-3.9524;-0.9308;-12.9555;-8.639;-1.1576;-0.9342;-0.1113;1.0;-15.96;27.42;26.76;279.04;61.66;137.57;2.0;985.17;64.559;;;;NaN;;;;;0 / 0;27512;2022-10-31 20:20:52:805
1.5945;-11.5954;-3.541;-2.5171;-9.2453;2.0877;8.0636;-5.5011;-1.9625;-0.868;0.3816;-0.1969;1.0;-19.62;23.76;-17.1;58.72;75.02;60.58;2.0;984.7;66.378;;;;NaN;;;;;0 / 0;28012;2022-10-31 20:20:53:305
-0.917;-2.7509;-0.0646;-3.3268;-8.1421;-4.3369;2.2303;4.5926;-2.3663;0.2181;-2.5493;0.2619;1.0;-18.42;26.82;27.78;274.74;55.32;150.93;2.0;984.74;69.19;;;;NaN;;;;;0 / 0;28512;2022-10-31 20:20:53:805
-2.9281;-5.3801;-0.4693;-2.1474;-9.5662;0.2149;1.577;2.2319;-0.0287;2.1118;0.1898;0.0041;1.0;-23.46;29.64;0.72;332.7;71.36;124.71;2.0;984.71;65.834;;;;NaN;;;;;0 / 0;29013;2022-10-31 20:20:54:306
-1.2641;-2.6863;0.7925;-2.787;-8.3193;-4.3808;2.3153;1.7211;5.709;-1.9749;-1.8767;-0.1999;1.0;-20.4;26.58;27.48;270.02;68.39;145.07;2.0;984.66;60.959;;;;NaN;;;;;0 / 0;29514;2022-10-31 20:20:54:807
-2.8276;-12.0623;0.0934;-1.8767;-9.5937;-0.7798;5.5928;1.2096;1.365;2.4001;1.5459;1.1171;1.0;-25.68;27.6;12.12;300.85;65.66;143.69;2.0;985.25;69.577;;;;NaN;;;;;0 / 0;30012;2022-10-31 20:20:55:305
-3.2729;-16.1112;-0.0311;-2.0524;-9.4847;-1.4135;4.5274;-2.9939;-2.5145;-2.5705;0.5741;-0.2873;1.0;-22.5;29.4;0.84;28.14;73.04;49.77;2.0;984.6;60.211;;;;NaN;;;;;0 / 0;30512;2022-10-31 20:20:55:805
7.4606;-5.5477;6.0983;-2.9568;-8.4692;-3.9624;-7.931;3.926;2.9586;2.5901;1.4555;-1.366;1.0;-18.18;24.96;31.32;269.92;63.87;140.23;2.0;985.22;61.473;;;;NaN;;;;;0 / 0;31012;2022-10-31 20:20:56:305
3.1987;-12.1078;-3.5362;-2.4713;-9.1602;2.4808;3.6138;-6.1529;-3.5873;-2.1869;-0.5976;-0.1602;1.0;-22.02;24.6;-14.28;58.25;74.07;51.93;2.0;984.73;65.952;;;;NaN;;;;;0 / 0;31513;2022-10-31 20:20:56:806
-0.735;-4.446;-5.7703;-2.5098;-8.6977;-3.7711;-5.8659;-4.8301;-6.2465;-1.5418;-1.3001;0.2882;1.0;-21.72;25.14;27.6;278.51;55.81;145.89;2.0;984.73;67.845;;;;NaN;;;;;0 / 0;32012;2022-10-31 20:20:57:305
-1.7813;-10.1278;-1.9585;-2.0533;-9.3661;2.0569;5.8553;2.1465;-1.6564;1.1753;1.0939;0.0768;1.0;-24.06;24.06;-8.88;40.15;78.34;63.93;2.0;984.68;67.171;;;;NaN;;;;;0 / 0;32512;2022-10-31 20:20:57:805
-1.5371;-4.7956;-0.8068;-3.0813;-8.0059;-4.752;2.4129;2.2144;4.8604;-1.6634;-1.9995;-0.0392;1.0;-17.64;21.48;31.56;257.37;64.15;148.94;2.0;984.53;62.707;;;;NaN;;;;;0 / 0;33012;2022-10-31 20:20:58:305
-0.2251;-13.573;2.5019;-1.3795;-9.7079;-0.1546;6.2227;1.9316;-1.1823;1.565;1.0615;1.1782;1.0;-25.68;23.46;8.58;297.62;72.01;145.85;2.0;984.84;66.411;;;;NaN;;;;;0 / 0;33512;2022-10-31 20:20:58:805
-2.6432;-16.9037;2.9353;-1.7049;-9.6206;-0.8416;2.6472;-4.6108;1.7342;-3.1179;-1.1687;0.5661;1.0;-21.0;23.94;-1.2;38.68;71.77;42.32;2.0;984.73;58.136;;;;NaN;;;;;0 / 0;34012;2022-10-31 20:20:59:305
-7.7408;-24.4598;-3.2394;-3.3202;-8.2155;-4.2015;1.5916;8.1886;1.7996;1.711;2.0328;-0.8786;1.0;-15.12;19.14;30.66;264.42;57.17;143.17;2.0;985.62;63.944;;;;NaN;;;;;0 / 0;34512;2022-10-31 20:20:59:805
2.2889;-11.3799;-2.5953;-1.8773;-9.248;2.6683;2.8929;-3.9244;-4.0183;-0.3134;1.0414;-0.316;1.0;-23.22;19.68;-12.0;57.82;77.51;52.1;2.0;984.62;66.761;;;;NaN;;;;;0 / 0;35012;2022-10-31 20:21:00:305
-4.0917;-10.4821;-10.9538;-2.968;-8.4198;-4.058;1.0328;4.8923;2.4449;0.7532;-1.0991;-0.5744;1.0;-18.36;22.68;27.3;274.6;53.66;149.25;2.0;984.85;69.601;;;;NaN;;;;;0 / 0;35512;2022-10-31 20:21:00:805
1.0056;-7.9347;-1.6999;-1.9556;-9.4054;1.9706;0.1312;4.7873;-0.1343;1.4612;0.0481;0.2784;1.0;-22.38;22.38;-8.7;26.35;79.22;81.88;2.0;984.75;63.375;;;;NaN;;;;;0 / 0;36012;2022-10-31 20:21:01:305
-2.2242;-3.6703;0.4717;-2.7183;-8.2787;-4.4992;3.8525;0.7412;5.1678;-2.6047;-2.4882;-0.0686;1.0;-18.3;21.0;29.52;256.51;71.51;146.38;2.0;984.53;67.466;;;;NaN;;;;;0 / 0;36512;2022-10-31 20:21:01:805
-4.7573;-7.1709;-3.0071;-1.7109;-9.6029;-1.0131;-0.1323;-3.9173;1.068;1.1435;1.9748;-0.1724;1.0;-23.1;23.16;18.06;289.32;64.42;141.28;2.0;985.15;69.202;;;;NaN;;;;;0 / 0;37012;2022-10-31 20:21:02:305
0.17;-12.1796;0.0215;-1.7702;-9.6263;0.6087;-0.3947;-5.9622;3.0686;-2.3024;-1.8462;-0.8114;1.0;-22.32;23.4;-3.84;52.95;70.85;32.73;2.0;984.62;61.035;;;;NaN;;;;;0 / 0;37512;2022-10-31 20:21:02:805
-4.4412;-8.2364;-13.5251;-2.5762;-8.4149;-4.3269;-3.4724;2.3773;-4.6219;0.7159;-0.0851;-0.3624;1.0;-17.28;18.9;33.3;257.49;56.94;150.88;2.0;984.91;62.902;;;;NaN;;;;;0 / 0;38012;2022-10-31 20:21:03:305
-3.7254;-13.7741;-3.0526;-1.8669;-9.2334;2.7256;4.0749;-1.9687;-3.4075;0.5278;0.5649;-0.1064;1.0;-21.9;20.22;-11.64;70.93;72.83;35.1;2.0;984.58;67.439;;;;NaN;;;;;0 / 0;38512;2022-10-31 20:21:03:805
-0.984;-3.6583;-0.8523;-2.3039;-8.3187;-4.6542;0.8362;6.2716;3.359;0.1753;-0.5249;-0.6385;1.0;-18.18;19.26;33.3;256.63;56.07;153.67;2.0;984.49;67.513;;;;NaN;;;;;0 / 0;39012;2022-10-31 20:21:04:305
1.312;-8.6266;-1.0965;-1.4054;-9.6536;1.0016;2.3751;4.4363;-0.1469;1.6151;3.7188;-0.1859;1.0;-22.98;24.66;-2.28;344.53;81.97;112.61;2.0;984.46;66.508;;;;NaN;;;;;0 / 0;39512;2022-10-31 20:21:04:805
0.8811;-4.7238;-0.158;-1.7048;-8.935;-3.6646;-0.5864;-0.3572;4.3756;-1.6744;-1.8242;0.0047;1.0;-21.78;23.52;18.84;298.02;77.97;119.53;2.0;984.42;62.124;;;;NaN;;;;;0 / 0;40018;2022-10-31 20:21:05:311
-5.4495;-5.6674;0.1867;-1.6144;-9.259;-2.7991;6.3693;-5.2526;0.843;1.7104;1.2759;1.0047;1.0;-19.56;20.88;27.66;270.49;58.69;146.75;2.0;984.85;68.795;;;;NaN;;;;;0 / 0;40519;2022-10-31 20:21:05:812
1.0487;-15.2134;-0.2203;-1.9824;-9.3232;2.3059;0.0766;-1.9921;-5.2029;-1.3598;-0.0918;0.1037;1.0;-20.52;22.5;-9.12;58.77;72.12;39.81;2.0;984.58;58.187;;;;NaN;;;;;0 / 0;41012;2022-10-31 20:21:06:305
2.9137;-1.5012;-9.0743;-2.3992;-8.4481;-4.3639;-5.4206;-7.0406;1.5388;0.5858;-0.6886;-0.7643;1.0;-17.7;17.28;35.7;248.6;59.58;154.05;2.0;985.22;63.451;;;;NaN;;;;;0 / 0;41512;2022-10-31 20:21:06:805
-0.8404;-9.7615;-1.8699;-1.4453;-9.4302;2.2699;2.7406;-1.9258;-4.8173;0.7697;0.2607;0.3199;1.0;-24.48;22.02;-3.9;37.68;81.66;57.46;2.0;984.57;70.011;;;;NaN;;;;;0 / 0;42012;2022-10-31 20:21:07:305
-1.4485;-5.3442;-0.996;-2.3331;-8.1066;-5.0009;2.1512;4.7882;4.6442;-1.1839;-1.6171;0.3352;1.0;-21.78;18.66;30.12;248.53;72.39;157.29;2.0;984.52;62.192;;;;NaN;;;;;0 / 0;42512;2022-10-31 20:21:07:805
-0.577;-10.2044;-0.9864;-1.9989;-9.5182;-1.256;1.2974;-4.8233;0.3247;2.2834;1.3993;0.2314;1.0;-23.16;23.88;15.3;292.37;60.93;147.75;2.0;985.37;58.925;;;;NaN;;;;;0 / 0;43013;2022-10-31 20:21:08:306
1.7047;-13.0248;-0.3089;-1.8855;-9.592;0.7801;1.3492;-5.0488;2.3802;-3.2235;0.4433;-0.2708;1.0;-22.92;23.94;-6.12;54.94;68.92;33.45;2.0;984.4;61.609;;;;NaN;;;;;0 / 0;43512;2022-10-31 20:21:08:805
-2.2218;-6.0792;-11.2243;-3.0936;-7.8383;-5.0161;-4.0031;5.4441;-7.7669;-0.3079;-0.5738;0.0689;1.0;-17.76;17.4;37.86;255.66;54.22;148.97;2.0;984.97;68.289;;;;NaN;;;;;0 / 0;44012;2022-10-31 20:21:09:305
2.5211;-13.0966;-0.8045;-1.9227;-9.2618;2.587;0.9315;-5.1564;-3.2382;0.6212;0.6187;-0.0606;1.0;-24.48;20.76;-9.12;56.74;76.4;45.11;2.0;984.4;63.951;;;;NaN;;;;;0 / 0;44513;2022-10-31 20:21:09:806
-0.9433;-4.0821;-1.063;-2.9459;-7.8614;-5.0684;0.8653;4.579;2.0733;-0.0629;-0.4607;-0.2091;1.0;-20.28;17.64;35.04;249.54;62.46;154.96;2.0;984.33;60.78;;;;NaN;;;;;0 / 0;45013;2022-10-31 20:21:10:306
-1.4748;-13.3504;-0.9385;-1.8387;-9.6317;-0.1424;0.3232;5.0755;-0.9661;1.3152;1.2057;-0.2359;1.0;-26.04;24.3;9.48;300.08;71.43;143.96;2.0;984.63;68.211;;;;NaN;;;;;0 / 0;45512;2022-10-31 20:21:10:805
1.9106;-14.0758;1.4988;-1.4982;-9.6403;-0.9946;0.4951;-2.2591;1.3729;-2.3072;-3.2274;-0.9097;1.0;-26.58;25.5;3.9;29.27;73.89;45.77;2.0;984.44;63.549;;;;NaN;;;;;0 / 0;46012;2022-10-31 20:21:11:305
1.5586;-23.4111;-6.6514;-2.8935;-8.1758;-4.5775;-9.2166;6.7633;12.6463;0.7245;1.3431;-0.4406;1.0;-18.36;16.26;41.28;252.82;56.22;147.05;2.0;985.69;62.169;;;;NaN;;;;;0 / 0;46513;2022-10-31 20:21:11:806
0.4429;-10.2786;-2.4565;-1.681;-9.2712;2.7183;2.6195;-4.9578;-4.5666;0.5192;0.5362;-0.0118;1.0;-29.82;22.38;-7.56;49.62;77.94;49.38;2.0;984.4;60.936;;;;NaN;;;;;0 / 0;47012;2022-10-31 20:21:12:305
-6.0935;-5.8422;-7.7384;-4.1758;-7.4335;-4.8452;-3.6344;1.589;-6.4677;0.3286;0.0603;-0.8114;1.0;-13.14;18.12;40.56;256.91;48.25;145.8;2.0;984.67;63.907;;;;NaN;;;;;0 / 0;47512;2022-10-31 20:21:12:805
0.6776;-6.6418;0.7087;-1.5905;-9.5361;1.6443;1.3726;0.2319;-4.0696;1.7599;0.7671;-0.2396;1.0;-26.88;24.66;-0.72;1.3;79.1;90.61;2.0;984.54;67.306;;;;NaN;;;;;0 / 0;48013;2022-10-31 20:21:13:306
0.7614;-6.2827;0.5986;-2.2208;-8.5087;-4.3404;1.9527;2.0585;2.8273;-2.4135;-2.1632;0.6144;1.0;-24.6;20.7;28.68;268.12;77.94;139.41;2.0;984.22;56.415;;;;NaN;;;;;0 / 0;48512;2022-10-31 20:21:13:805
0.2035;-7.2452;-2.5067;-1.5233;-9.3421;-2.5642;2.4235;-0.1895;1.8843;3.4954;2.6938;0.1214;1.0;-24.9;20.76;27.72;275.31;53.4;149.53;2.0;985.59;65.277;;;;NaN;;;;;0 / 0;49013;2022-10-31 20:21:14:306
2.7869;-16.353;-3.158;-1.964;-9.4106;1.9374;4.5497;-3.7746;-3.9557;-3.4007;-0.991;0.1513;1.0;-24.6;21.06;-11.4;66.79;71.92;34.8;2.0;984.38;61.339;;;;NaN;;;;;0 / 0;49512;2022-10-31 20:21:14:805
-0.8882;-6.3904;-10.5085;-3.3585;-7.547;-5.2852;1.0983;-0.0932;-6.9974;-0.5351;-0.7503;-0.5707;1.0;-17.52;18.66;37.26;259.65;50.17;151.33;2.0;984.84;63.823;;;;NaN;;;;;0 / 0;50012;2022-10-31 20:21:15:305
-2.162;-10.0152;0.5866;-1.8074;-9.3112;2.4909;0.9766;-1.8197;-4.6816;0.9658;0.3212;0.191;1.0;-27.72;23.58;-6.06;29.21;77.31;68.3;2.0;984.27;63.03;;;;NaN;;;;;0 / 0;50512;2022-10-31 20:21:15:805
-1.2665;-6.8836;-0.0646;-2.5568;-8.1265;-4.8572;2.1809;3.8433;4.7303;-2.0885;-1.7649;0.2253;1.0;-22.86;18.24;33.66;253.95;73.33;148.02;2.0;984.19;60.202;;;;NaN;;;;;0 / 0;51012;2022-10-31 20:21:16:305
0.328;-7.7192;-2.0638;-1.3436;-9.4201;-2.3721;2.8448;-1.5002;0.5956;3.196;2.2576;-0.0661;1.0;-27.18;21.3;27.12;276.47;53.45;150.78;2.0;984.84;66.109;;;;NaN;;;;;0 / 0;51512;2022-10-31 20:21:16:805
-2.6959;-14.7561;-3.4309;-1.3895;-9.4944;2.0237;1.7462;-6.8442;1.0768;-2.934;-0.057;0.0053;1.0;-27.18;20.94;-10.08;69.76;71.09;28.16;2.0;984.37;61.27;;;;NaN;;;;;0 / 0;52012;2022-10-31 20:21:17:305
-2.0734;-6.8405;-12.024;-3.4227;-7.488;-5.3278;-0.4128;1.3394;-7.5198;-0.661;-1.2237;-0.1999;1.0;-17.1;16.2;39.48;252.66;50.92;151.93;2.0;985.15;62.654;;;;NaN;;;;;0 / 0;52512;2022-10-31 20:21:17:805
4.7262;-8.2938;1.506;-1.67;-9.6445;0.6038;2.7713;4.2573;1.5845;1.7379;0.8477;-0.5585;1.0;-26.46;26.34;4.98;329.59;78.69;114.65;2.0;984.23;63.153;;;;NaN;;;;;0 / 0;53012;2022-10-31 20:21:18:305
0.7159;-8.0281;-0.7254;-2.3817;-8.5449;-4.1811;1.7473;4.0582;4.7725;-2.1118;-1.5676;-0.7179;1.0;-22.44;21.18;28.74;274.99;74.78;131.01;2.0;984.04;55.484;;;;NaN;;;;;0 / 0;53512;2022-10-31 20:21:18:805
0.4836;-9.886;-3.6009;-1.7084;-9.253;-2.7629;1.8353;3.2911;2.3702;3.2712;1.7756;-0.7338;1.0;-21.3;20.64;32.52;271.52;55.15;142.57;2.0;985.34;68.974;;;;NaN;;;;;0 / 0;54013;2022-10-31 20:21:19:306
5.6363;-16.5326;-2.1787;-1.7144;-9.3814;2.2851;-1.1659;-4.2444;-6.1325;-1.9401;-0.2647;-0.1009;1.0;-24.72;23.64;-7.62;64.46;72.66;29.56;2.0;984.33;59.978;;;;NaN;;;;;0 / 0;54513;2022-10-31 20:21:19:806
-2.648;-4.8435;-6.74;-2.5906;-8.1815;-4.7458;0.5483;-1.094;-7.0292;-0.4844;-1.3935;-0.2506;1.0;-19.68;18.96;36.48;257.03;56.26;151.81;2.0;984.24;65.69;;;;NaN;;;;;0 / 0;55012;2022-10-31 20:21:20:305
-0.0072;-5.088;0.1077;-1.4117;-9.7018;0.2273;4.4093;1.8342;3.2347;1.8399;1.8269;0.1281;1.0;-29.16;24.78;5.58;312.71;79.39;131.73;2.0;984.13;63.752;;;;NaN;;;;;0 / 0;55512;2022-10-31 20:21:20:805
0.8882;-11.3009;-0.814;-1.0928;-9.4409;-2.4179;0.7098;4.3792;2.9542;-2.8918;-1.7478;-0.0362;1.0;-29.58;23.82;14.7;352.39;80.13;71.86;2.0;984.1;61.322;;;;NaN;;;;;0 / 0;56013;2022-10-31 20:21:21:306
0.8835;-5.8014;1.0367;-1.1641;-9.5003;-2.1352;-0.4544;1.6087;0.5431;2.9236;1.9326;-0.1516;1.0;-28.08;21.96;25.86;279.85;56.72;147.1;2.0;985.21;67.019;;;;NaN;;;;;0 / 0;56512;2022-10-31 20:21:21:805
2.2673;-14.7079;-2.3846;-1.4213;-9.3934;2.4319;1.3926;-3.842;-4.6585;-1.9187;-0.2512;0.064;1.0;-26.88;21.12;-12.54;75.56;73.34;29.07;2.0;984.11;66.993;;;;NaN;;;;;0 / 0;57012;2022-10-31 20:21:22:305
-3.1364;-6.2156;-7.396;-2.7079;-8.418;-4.2396;0.2371;-1.1256;-8.019;-0.3977;-1.8896;-0.0564;1.0;-19.8;20.88;32.94;263.64;59.14;147.43;2.0;984.36;64.578;;;;NaN;;;;;0 / 0;57512;2022-10-31 20:21:22:805
0.1987;-6.3521;0.4501;-1.4707;-9.661;0.8195;2.6511;3.4693;1.5076;1.9047;1.9296;0.0835;1.0;-27.66;25.92;2.28;330.4;78.02;120.46;2.0;984.54;66.221;;;;NaN;;;;;0 / 0;58012;2022-10-31 20:21:23:305
-0.8499;-7.7384;-0.8428;-1.5919;-9.2853;-2.7238;1.8098;3.1511;4.0789;-2.8564;-1.5023;0.1147;1.0;-25.74;25.68;13.92;326.75;80.0;99.38;2.0;984.01;63.752;;;;NaN;;;;;0 / 0;58513;2022-10-31 20:21:23:806
-7.1494;-4.0151;2.8706;-3.1016;-8.4161;-3.9647;7.5884;-7.245;-1.3005;1.887;0.0799;-0.1413;1.0;-17.22;19.86;35.28;261.14;56.97;145.62;2.0;985.06;62.021;;;;NaN;;;;;0 / 0;59012;2022-10-31 20:21:24:305
10.961;-16.3913;2.3607;-1.7934;-9.4627;1.8469;0.9938;-2.7313;-0.2906;-3.0946;-1.6031;-0.2127;1.0;-22.92;21.54;-10.02;68.85;69.79;28.53;2.0;984.22;59.737;;;;NaN;;;;;0 / 0;59512;2022-10-31 20:21:24:805
-3.79;-12.8739;-13.1157;-2.789;-8.3582;-4.3048;-0.8933;2.7268;-5.3801;-1.1026;-1.4803;0.1452;1.0;-19.68;19.86;31.74;265.66;56.33;147.8;2.0;984.18;62.886;;;;NaN;;;;;0 / 0;60012;2022-10-31 20:21:25:305
1.8675;-7.1183;0.9313;-1.1855;-9.6344;1.394;0.8431;1.5441;-2.4354;1.766;0.5887;-0.3221;1.0;-27.36;23.34;0.6;41.87;79.25;40.38;2.0;984.17;67.771;;;;NaN;;;;;0 / 0;60515;2022-10-31 20:21:25:808
0.2466;-8.3609;0.6464;-1.9778;-8.9436;-3.5029;3.376;1.2292;3.5029;-2.4215;-1.5017;0.1831;1.0;-23.22;24.42;20.46;301.03;80.93;113.81;2.0;984.02;67.654;;;;NaN;;;;;0 / 0;61012;2022-10-31 20:21:26:305
5.2963;-18.8525;1.1181;-2.2217;-8.8981;-3.4725;3.9527;2.7112;2.6225;2.3121;0.9375;-1.5499;1.0;-17.94;22.14;32.76;270.61;55.15;141.92;2.0;984.74;63.362;;;;NaN;;;;;0 / 0;61512;2022-10-31 20:21:26:805
2.7054;-16.2524;-1.6041;-1.9248;-9.1949;2.8139;1.9775;-6.3536;-5.5002;-1.3182;-0.4956;0.0206;1.0;-23.76;24.0;-10.32;65.1;71.39;32.5;2.0;984.2;60.506;;;;NaN;;;;;0 / 0;62012;2022-10-31 20:21:27:305
-5.89;-4.3718;-8.969;-3.5015;-7.7713;-4.8494;6.0107;-12.8554;-9.6717;-2.0965;-2.6867;-0.7802;1.0;-15.06;15.78;39.9;244.76;56.4;152.56;2.0;984.78;66.999;;;;NaN;;;;;0 / 0;62513;2022-10-31 20:21:27:806
0.9194;-9.7136;-0.4381;-1.4476;-9.4499;2.1849;0.0733;1.0723;-4.0715;1.6481;1.1788;-0.0728;1.0;-26.34;24.18;-1.56;19.28;82.85;73.09;2.0;984.19;63.122;;;;NaN;;;;;0 / 0;63012;2022-10-31 20:21:28:305
0.6632;-6.898;-1.6496;-1.8932;-8.5606;-4.3934;0.5141;2.5628;2.988;-2.0476;-2.0343;0.3566;1.0;-24.18;19.14;30.78;259.98;76.77;144.47;2.0;984.0;59.986;;;;NaN;;;;;0 / 0;63512;2022-10-31 20:21:28:805
0.419;-7.9562;-2.0997;-1.2702;-9.4023;-2.4808;2.5439;-0.522;-0.591;3.1264;1.8361;-0.1755;1.0;-25.2;20.22;29.4;267.95;55.03;154.67;2.0;985.17;67.032;;;;NaN;;;;;0 / 0;64013;2022-10-31 20:21:29:306
3.553;-18.0744;-1.6161;-1.4482;-9.3054;2.7353;-0.2732;-3.9659;-6.1303;-1.9914;-0.2793;-0.2066;1.0;-26.04;21.78;-8.46;68.48;71.55;25.24;2.0;984.03;66.01;;;;NaN;;;;;0 / 0;64513;2022-10-31 20:21:29:806
-2.0207;-3.7924;-7.4151;-2.7817;-7.8893;-5.1178;0.1409;1.281;-7.2199;-0.259;-1.1865;-0.5536;1.0;-18.24;15.36;38.58;250.3;54.49;151.7;2.0;984.3;67.676;;;;NaN;;;;;0 / 0;65013;2022-10-31 20:21:30:306
-3.6033;-7.6426;0.4693;-1.3024;-9.3255;2.7403;2.071;-0.0936;-5.2734;0.8674;0.3487;0.2332;1.0;-27.24;21.54;-7.5;59.87;79.19;37.66;2.0;983.98;65.121;;;;NaN;;;;;0 / 0;65512;2022-10-31 20:21:30:805
-0.826;-6.2779;-0.486;-2.13;-8.3049;-4.7604;1.4572;5.712;5.5816;-1.711;-1.5499;0.1141;1.0;-21.9;19.62;30.18;250.56;75.62;153.71;2.0;983.84;63.023;;;;NaN;;;;;0 / 0;66012;2022-10-31 20:21:31:305
-1.1229;-8.198;-3.4453;-0.7978;-9.7134;-1.0875;1.1809;-3.0551;2.548;2.5204;2.3731;0.4409;1.0;-27.42;23.22;17.1;284.66;61.86;152.98;2.0;984.47;66.252;;;;NaN;;;;;0 / 0;66512;2022-10-31 20:21:31:805
0.9697;-13.7071;-0.6201;-1.5625;-9.6389;0.9053;1.0837;-5.7707;1.6086;-2.9175;0.1947;-0.1712;1.0;-23.7;23.94;-6.66;62.87;70.61;27.5;2.0;984.03;62.285;;;;NaN;;;;;0 / 0;67012;2022-10-31 20:21:32:305
-3.5003;-6.9219;-11.9713;-2.929;-7.8281;-5.1295;-4.6729;0.7673;-11.2282;-0.5027;-1.0832;-0.7448;1.0;-16.62;17.58;37.74;252.93;53.81;152.13;2.0;984.85;65.962;;;;NaN;;;;;0 / 0;67512;2022-10-31 20:21:32:805
1.9369;-7.2619;-0.1939;-1.3853;-9.5557;1.7145;0.0781;0.6705;-3.9531;1.8662;0.5508;-0.498;1.0;-26.88;23.76;0.06;4.79;81.57;84.64;2.0;983.97;67.21;;;;NaN;;;;;0 / 0;68013;2022-10-31 20:21:33:306
-1.1205;-4.8028;-1.494;-2.6354;-7.7523;-5.3969;0.1167;3.5912;1.243;-0.9041;-0.4925;-0.4974;1.0;-17.94;16.86;37.5;244.2;62.98;154.27;2.0;983.91;64.642;;;;NaN;;;;;0 / 0;68512;2022-10-31 20:21:33:805
-0.9649;-9.2132;-0.7422;-0.8447;-9.769;-0.1496;-0.4218;3.7952;-2.3787;0.763;0.976;0.3981;1.0;-28.08;23.34;11.22;281.59;72.93;159.71;2.0;985.16;68.663;;;;NaN;;;;;0 / 0;69013;2022-10-31 20:21:34:306
1.2761;-12.7279;1.7214;-1.5068;-9.69;-0.0644;-1.3615;-2.8057;1.8361;-2.6909;-0.3801;-0.4082;1.0;-23.82;25.38;-0.72;49.06;72.19;30.41;2.0;983.93;65.507;;;;NaN;;;;;0 / 0;69512;2022-10-31 20:21:34:805
-3.9145;-6.7639;-16.681;-2.6539;-7.4059;-5.8548;-2.0579;-2.8487;-1.7184;0.1686;-0.137;-1.3459;1.0;-15.72;11.76;42.42;242.14;50.54;155.7;2.0;984.13;66.143;;;;NaN;;;;;0 / 0;70012;2022-10-31 20:21:35:305
-0.2801;-8.1119;0.4381;-0.8161;-9.5868;1.8967;-1.6954;0.6082;-2.2582;1.8546;1.2411;0.3444;1.0;-28.26;23.04;-0.96;19.39;85.81;71.57;2.0;983.81;67.073;;;;NaN;;;;;0 / 0;70512;2022-10-31 20:21:35:805
1.3815;-6.2923;-0.6201;-2.0443;-8.7286;-3.9752;2.2238;4.6704;3.099;-2.3512;-1.7546;0.2137;1.0;-21.72;23.64;23.16;284.27;80.54;126.25;2.0;983.79;66.219;;;;NaN;;;;;0 / 0;71012;2022-10-31 20:21:36:305
0.1963;-6.1271;-0.2083;-1.3049;-9.7141;-0.3227;-0.8738;4.085;-0.7906;1.3683;0.7414;0.0182;1.0;-25.98;25.68;12.54;286.39;71.53;152.79;2.0;984.2;68.101;;;;NaN;;;;;0 / 0;71513;2022-10-31 20:21:36:806
-1.4054;-10.4965;0.7781;-1.5077;-9.6864;-0.2653;0.0903;-3.5778;2.1711;-2.0409;-1.3105;-0.3942;1.0;-25.2;24.84;3.96;41.34;70.5;28.35;2.0;983.83;60.734;;;;NaN;;;;;0 / 0;72012;2022-10-31 20:21:37:305
-5.0736;-2.5953;-13.403;-3.6267;-7.4212;-5.2861;-6.5393;-16.8949;-6.3716;0.2517;-0.316;-0.1504;1.0;-14.58;14.94;40.62;249.53;52.4;149.17;2.0;985.15;63.241;;;;NaN;;;;;0 / 0;72512;2022-10-31 20:21:37:805
0.4573;-7.9658;1.8914;-0.895;-9.6532;1.4783;-0.5511;0.5142;-3.5421;1.9273;0.403;-0.2781;1.0;-29.28;22.14;-2.1;355.34;82.0;99.05;2.0;983.82;66.6;;;;NaN;;;;;0 / 0;73012;2022-10-31 20:21:38:305
0.2993;-9.9027;-1.8507;-1.881;-8.7186;-4.0765;1.1483;-0.0277;2.3742;-2.6927;-1.4271;0.6089;1.0;-25.14;22.26;23.52;274.83;80.74;137.19;2.0;983.76;64.982;;;;NaN;;;;;0 / 0;73513;2022-10-31 20:21:38:806
-0.5243;-16.5948;-1.2426;-2.2633;-8.4411;-4.4493;0.4557;0.0898;3.2545;2.6328;2.1293;-0.746;1.0;-21.84;22.08;31.14;275.77;49.19;147.46;2.0;985.13;64.207;;;;NaN;;;;;0 / 0;74012;2022-10-31 20:21:39:305
5.2388;-19.8461;0.0694;-1.6065;-9.6;1.1958;-2.4684;-3.3673;1.852;-3.1851;-0.5689;-0.3929;1.0;-20.58;22.5;-17.22;79.27;70.66;33.31;2.0;983.84;60.697;;;;NaN;;;;;0 / 0;74512;2022-10-31 20:21:39:805
-5.6195;-6.242;-10.8245;-3.8036;-7.298;-5.3331;-4.7632;-1.6255;-12.4541;-0.8057;-0.9165;-0.586;1.0;-14.28;25.62;32.7;275.02;47.89;146.86;2.0;984.05;68.354;;;;NaN;;;;;0 / 0;75012;2022-10-31 20:21:40:305
1.6017;-6.9914;2.5019;-1.6523;-9.5878;1.2303;1.535;0.4656;-3.33;2.0678;-0.0075;-0.0038;1.0;-20.1;24.72;-11.76;17.12;79.88;100.91;2.0;983.78;66.271;;;;NaN;;;;;0 / 0;75512;2022-10-31 20:21:40:805
-0.5195;-8.119;0.5914;-2.1894;-8.7862;-3.7655;2.2277;1.6751;2.7001;-2.1741;-2.1302;-0.5432;1.0;-22.56;28.68;16.68;300.03;75.57;125.64;2.0;983.66;62.524;;;;NaN;;;;;0 / 0;76013;2022-10-31 20:21:41:306
4.3239;-13.6089;1.3623;-2.2671;-9.1276;-2.7779;1.8817;0.5489;1.5425;1.4099;1.4085;-0.8505;1.0;-20.64;24.78;29.04;279.4;61.0;137.54;2.0;984.21;61.208;;;;NaN;;;;;0 / 0;76512;2022-10-31 20:21:41:805
-1.3815;-11.0711;-1.4892;-1.0198;-9.5074;2.1772;5.4515;-4.6235;-0.1876;0.2993;0.9082;-0.2341;1.0;-29.46;24.72;-6.36;60.26;81.01;35.09;2.0;983.9;62.952;;;;NaN;;;;;0 / 0;77013;2022-10-31 20:21:42:306
-2.2098;-4.6663;-7.044;-3.1875;-8.0621;-4.5839;0.5706;0.6183;-6.3579;0.3916;-0.6171;-0.0362;1.0;-17.28;23.58;34.68;263.95;53.17;150.71;2.0;984.12;64.605;;;;NaN;;;;;0 / 0;77512;2022-10-31 20:21:42:805
-0.6201;-8.9355;-1.3791;-0.8334;-9.7674;-0.2713;0.7137;0.0107;-0.8396;1.3494;2.1293;-0.1358;1.0;-29.34;27.06;5.16;307.63;74.9;142.76;2.0;984.41;65.452;;;;NaN;;;;;0 / 0;78012;2022-10-31 20:21:43:305
2.7438;-12.2419;-0.7997;-1.2048;-9.6984;0.8122;1.8249;-1.0136;-0.4938;-3.0916;-1.1913;0.1709;1.0;-22.08;23.7;-15.18;83.07;73.78;26.42;2.0;983.95;61.933;;;;NaN;;;;;0 / 0;78512;2022-10-31 20:21:43:805
-2.4732;-7.3457;-9.4526;-2.894;-7.9102;-5.0224;0.1;-0.8194;-6.7574;0.2462;-0.4363;-0.2036;1.0;-19.02;25.14;30.0;274.33;49.22;153.81;2.0;984.06;67.66;;;;NaN;;;;;0 / 0;79012;2022-10-31 20:21:44:305
-0.7661;-7.5779;-1.5395;-1.1253;-9.7402;-0.1823;0.7781;1.8534;2.1623;1.8448;2.1825;-0.1449;1.0;-23.7;26.7;-3.12;324.9;76.54;140.15;2.0;983.9;66.37;;;;NaN;;;;;0 / 0;79512;2022-10-31 20:21:44:805
-0.0646;-12.6153;0.7446;-1.1695;-9.4866;-2.1926;-0.6333;-0.6388;2.1686;-2.2559;-2.5157;-0.597;1.0;-21.3;27.24;-0.36;22.71;78.92;62.18;2.0;983.84;59.127;;;;NaN;;;;;0 / 0;80013;2022-10-31 20:21:45:306
7.6091;-18.3569;-0.3879;-1.8207;-8.7496;-4.0373;-0.5544;1.945;3.1825;2.0843;1.9589;-1.1651;1.0;-24.24;26.52;17.04;295.26;54.6;149.0;2.0;984.81;63.335;;;;NaN;;;;;0 / 0;80512;2022-10-31 20:21:45:805
-1.5083;-14.3009;-1.992;-1.4862;-9.3988;2.3717;4.376;-6.8561;-3.4251;0.1264;0.9339;-0.1999;1.0;-19.86;12.48;-26.04;105.7;78.87;32.48;2.0;983.75;65.197;;;;NaN;;;;;0 / 0;81012;2022-10-31 20:21:46:305
-0.5938;-3.2729;-1.5251;-2.3922;-8.2299;-4.7662;0.6014;5.3784;1.0911;1.1985;-0.0081;-0.7094;1.0;-22.26;25.86;16.68;288.65;56.92;154.77;2.0;983.99;65.996;;;;NaN;;;;;0 / 0;81513;2022-10-31 20:21:46:806
3.7062;-11.0424;0.6488;-1.5261;-9.6626;-0.6895;1.8685;0.1693;-0.5554;1.0776;1.8386;-0.2164;1.0;-22.62;25.26;-9.3;329.99;71.92;149.3;2.0;984.16;65.862;;;;NaN;;;;;0 / 0;82012;2022-10-31 20:21:47:305
-3.2872;-14.6217;1.494;-1.634;-9.5653;-1.4163;0.7721;-3.232;0.4874;-2.6438;-1.611;-0.1944;1.0;-5.58;28.86;-16.26;89.74;74.61;41.86;2.0;983.75;65.372;;;;NaN;;;;;0 / 0;82512;2022-10-31 20:21:47:805
-4.3862;-5.0162;-9.8069;-4.0836;-6.7519;-5.823;-4.1719;2.72;-2.2482;-0.4026;-0.6098;-1.2237;1.0;-1.74;30.9;33.54;274.25;46.57;146.52;2.0;984.78;60.621;;;;NaN;;;;;0 / 0;83012;2022-10-31 20:21:48:305
-0.8954;-10.8053;-2.5067;-1.4986;-9.5813;1.4571;3.663;-3.1202;-4.1075;0.6347;1.2039;0.1776;1.0;-9.24;28.5;-19.92;55.63;84.26;94.0;2.0;983.59;60.997;;;;NaN;;;;;0 / 0;83513;2022-10-31 20:21:48:806
0.3783;-6.3282;-0.3065;-2.4779;-8.1218;-4.9058;1.8482;2.3466;4.3168;-1.5687;-1.6434;-0.1113;1.0;-10.5;31.68;17.4;278.07;68.95;149.96;2.0;983.55;55.469;;;;NaN;;;;;0 / 0;84012;2022-10-31 20:21:49:305
-2.7174;-7.4175;-1.1109;-2.2519;-9.0385;-3.0666;2.6517;-1.13;0.1289;2.7165;1.4433;0.141;1.0;-14.16;27.84;16.26;303.17;51.44;144.96;2.0;984.3;61.533;;;;NaN;;;;;0 / 0;84513;2022-10-31 20:21:49:806
-1.5323;-12.3735;-1.664;-1.3761;-9.5566;1.7168;3.0353;-5.8004;-2.9977;0.1509;0.9705;-0.137;1.0;-10.86;20.7;-15.72;84.21;79.25;49.59;2.0;983.63;58.507;;;;NaN;;;;;0 / 0;85012;2022-10-31 20:21:50:305
-1.9225;-5.7057;-3.1005;-3.8796;-6.9037;-5.7842;1.0928;2.2231;1.5537;-0.5547;-0.6012;0.3584;1.0;-1.92;25.56;21.36;270.35;55.32;153.53;2.0;983.97;63.487;;;;NaN;;;;;0 / 0;85512;2022-10-31 20:21:50:805
0.3519;-8.7224;-1.5347;-2.3178;-9.1964;-2.4947;2.5716;-1.1947;0.2585;2.1093;1.965;0.4818;1.0;-9.84;26.82;3.96;330.04;52.41;146.07;2.0;984.5;66.813;;;;NaN;;;;;0 / 0;86012;2022-10-31 20:21:51:305
0.1341;-10.0296;0.6416;-1.9555;-9.5662;-0.9126;3.1598;-2.0172;0.7259;-2.3121;-1.2207;0.0463;1.0;-5.22;22.14;-11.22;83.35;75.98;45.57;2.0;983.62;60.663;;;;NaN;;;;;0 / 0;86512;2022-10-31 20:21:51:805
-2.4636;-5.7847;-9.2371;-3.9629;-6.9789;-5.6356;-0.0617;2.3031;-6.1705;-0.1576;-0.3428;-0.6446;1.0;-2.46;25.38;21.18;290.49;47.08;147.39;2.0;983.91;69.273;;;;NaN;;;;;0 / 0;87012;2022-10-31 20:21:52:305
0.589;-8.8421;1.3815;-1.768;-9.6391;-0.3626;1.4281;1.7308;2.0577;1.4392;0.8221;-0.4614;1.0;-12.0;22.38;-8.88;1.38;74.4;124.99;2.0;983.53;62.841;;;;NaN;;;;;0 / 0;87512;2022-10-31 20:21:52:805
-1.3168;-12.6632;-2.5355;-1.6418;-9.6492;0.6068;3.2722;-3.2391;0.655;-2.5772;-0.4186;0.0994;1.0;-9.06;14.1;-17.16;96.77;77.14;45.67;2.0;983.6;65.807;;;;NaN;;;;;0 / 0;88012;2022-10-31 20:21:53:305
-1.5706;-4.6639;-11.3632;-3.7702;-6.7429;-6.0406;-3.8964;0.9606;-1.4128;0.4423;-0.1437;-0.5279;1.0;-8.82;23.82;22.68;285.67;46.22;150.35;2.0;984.06;65.374;;;;NaN;;;;;0 / 0;88512;2022-10-31 20:21:53:805
0.6823;-7.1709;1.0151;-1.0892;-9.7448;-0.1471;0.7372;1.2858;2.7974;1.5211;0.8239;0.3407;1.0;-12.18;21.12;-13.86;3.71;78.73;134.94;2.0;983.53;65.016;;;;NaN;;;;;0 / 0;89012;2022-10-31 20:21:54:305
1.0511;-8.1526;-1.4533;-2.3033;-8.0852;-5.0491;1.1277;1.2902;3.4354;-2.3738;-1.7564;-0.1297;1.0;-9.9;26.64;10.5;290.32;69.27;150.4;2.0;983.49;60.444;;;;NaN;;;;;0 / 0;89512;2022-10-31 20:21:54:805
-0.2179;-7.4343;-0.7446;-2.0594;-8.6793;-4.0741;1.6141;-1.3191;2.0127;2.2816;1.6095;-0.6794;1.0;-11.4;28.26;9.0;306.63;62.26;153.18;2.0;984.76;61.476;;;;NaN;;;;;0 / 0;90013;2022-10-31 20:21:55:306
-0.6081;-13.7478;-0.972;-1.6676;-9.5313;1.5951;3.6117;-8.0045;-3.0436;0.7929;0.7775;-0.0209;1.0;-5.1;17.7;-21.66;98.37;79.5;60.27;2.0;983.52;61.141;;;;NaN;;;;;0 / 0;90512;2022-10-31 20:21:55:805
-1.992;-5.1718;-1.3168;-2.8964;-7.5895;-5.4937;1.8358;2.5494;3.1258;0.1778;-0.1058;-0.035;1.0;-9.18;26.1;15.3;283.72;62.11;154.83;2.0;983.57;64.85;;;;NaN;;;;;0 / 0;91012;2022-10-31 20:21:56:305
-0.9481;-9.4239;-0.814;-1.7738;-9.3371;-2.4172;1.0148;-1.3174;2.3717;1.1802;0.469;0.0267;1.0;-9.6;26.34;-1.44;338.37;55.19;147.58;2.0;984.19;66.923;;;;NaN;;;;;0 / 0;91514;2022-10-31 20:21:56:807
-3.9792;-12.7973;-3.1556;-1.5642;-9.6054;1.2079;4.8993;-4.9205;-1.5838;-2.8442;0.0298;-0.1095;1.0;0.24;15.24;-21.3;131.52;76.2;40.19;2.0;983.53;65.234;;;;NaN;;;;;0 / 0;92012;2022-10-31 20:21:57:305
-5.6075;-3.4285;-5.5357;-3.2021;-7.7456;-5.0914;6.7934;-10.8292;-3.2622;-0.8283;-0.6141;0.0066;1.0;-9.06;21.42;16.08;282.14;55.36;154.58;2.0;983.84;64.93;;;;NaN;;;;;0 / 0;92512;2022-10-31 20:21:57:805
0.0215;-8.4877;1.0008;-1.4936;-9.6366;1.0374;1.9317;0.6221;-2.7133;1.3335;0.5777;-0.2317;1.0;-4.98;17.88;-16.38;95.7;79.31;55.22;2.0;983.61;66.609;;;;NaN;;;;;0 / 0;93012;2022-10-31 20:21:58:305
0.103;-6.5077;-0.2969;-1.5788;-8.3699;-4.8603;1.1144;1.8047;3.6775;-2.7849;-0.9617;-0.1553;1.0;-6.66;28.26;3.54;312.47;74.36;151.5;2.0;983.54;62.186;;;;NaN;;;;;0 / 0;93513;2022-10-31 20:21:58:806
2.1021;-10.9203;-3.3662;-2.1726;-8.3581;-4.6468;3.0297;0.4832;4.7928;2.7972;2.034;0.5527;1.0;-7.68;24.66;13.62;306.38;49.03;149.98;2.0;984.38;65.265;;;;NaN;;;;;0 / 0;94012;2022-10-31 20:21:59:305
-1.6688;-13.2259;-0.3879;-1.6999;-9.4366;2.0568;2.454;-7.1773;-1.6977;-2.1698;0.648;0.4103;1.0;3.54;14.76;-23.4;145.8;77.37;38.85;2.0;983.53;63.727;;;;NaN;;;;;0 / 0;94512;2022-10-31 20:21:59:805
-1.2498;-4.3407;0.0335;-2.056;-7.8988;-5.4361;-0.2065;4.9971;3.1688;1.0568;-0.2622;0.0683;1.0;-6.84;26.4;14.22;294.81;56.63;160.78;2.0;983.81;65.05;;;;NaN;;;;;0 / 0;95013;2022-10-31 20:22:00:306
0.6033;-7.3601;1.494;-1.2018;-9.7237;0.4197;1.6256;1.8081;-2.2896;1.6493;2.1318;0.2723;1.0;-5.64;19.98;-12.54;18.02;80.9;133.5;2.0;983.81;66.952;;;;NaN;;;;;0 / 0;95512;2022-10-31 20:22:00:805
-0.3998;-7.6426;0.4884;-1.4042;-8.7451;-4.2097;-0.1927;2.5965;3.9703;-2.2492;-2.2439;-0.8932;1.0;-4.56;25.8;4.02;312.86;76.11;144.17;2.0;983.47;64.58;;;;NaN;;;;;0 / 0;96012;2022-10-31 20:22:01:305
-9.9434;-7.226;-0.9481;-2.5873;-8.4307;-4.2894;13.6871;-6.3517;3.2742;0.7129;2.5979;-0.5163;1.0;-9.78;20.1;10.26;299.38;57.04;150.72;2.0;984.21;67.987;;;;NaN;;;;;0 / 0;96513;2022-10-31 20:22:01:806
0.9529;-12.9745;0.079;-1.5096;-9.4384;2.1925;-4.153;-4.0939;-5.0368;-1.2217;-0.203;-0.0612;1.0;-2.64;11.46;-17.34;118.82;78.28;44.05;2.0;983.61;66.378;;;;NaN;;;;;0 / 0;97012;2022-10-31 20:22:02:305
-0.9242;-3.9672;-0.5842;-2.5387;-8.0776;-4.9475;2.2538;4.7401;3.2979;1.9132;-0.0142;-0.5114;1.0;-4.44;22.92;10.2;304.0;59.42;157.17;2.0;983.53;69.123;;;;NaN;;;;;0 / 0;97512;2022-10-31 20:22:02:805
-5.9906;-14.557;0.498;-2.1077;-9.4724;-1.4146;6.1108;-1.716;0.749;1.8216;1.9229;-0.3929;1.0;-9.54;13.86;-4.56;342.47;63.21;142.2;2.0;983.68;68.06;;;;NaN;;;;;0 / 0;98013;2022-10-31 20:22:03:306
0.328;-11.9593;-2.2529;-1.6107;-9.0233;-3.4863;2.2667;0.5548;3.5893;-2.0269;-2.9616;-0.5316;1.0;-1.14;19.86;-3.84;25.86;78.83;116.23;2.0;983.61;64.874;;;;NaN;;;;;0 / 0;98512;2022-10-31 20:22:03:805
-7.9227;-10.1254;-2.241;-2.4979;-8.6449;-3.8981;-3.3442;5.9874;6.2133;-0.5962;-0.0545;-0.9751;1.0;-9.72;21.9;4.26;319.09;60.31;149.63;2.0;984.3;65.859;;;;NaN;;;;;0 / 0;99012;2022-10-31 20:22:04:305
5.756;-11.016;0.067;-1.3684;-9.4157;2.3755;1.3396;-5.3643;-3.4625;0.5956;0.6639;0.3444;1.0;-2.64;6.3;-22.68;136.93;78.93;33.14;2.0;983.54;68.943;;;;NaN;;;;;0 / 0;99513;2022-10-31 20:22:04:806
-0.7494;-3.9385;-1.4365;-2.6762;-8.3507;-4.3902;0.5166;6.4521;0.6576;1.4099;-0.6733;-0.2188;1.0;-0.78;25.32;5.16;342.74;56.54;151.44;2.0;983.72;68.34;;;;NaN;;;;;0 / 0;100012;2022-10-31 20:22:05:305
-2.2314;-5.4447;-0.249;-1.1352;-9.7232;0.5843;3.2349;3.5051;-1.1254;1.2578;0.5197;-0.3337;1.0;-8.52;16.44;-20.34;24.43;77.44;128.08;2.0;983.79;69.942;;;;NaN;;;;;0 / 0;100512;2022-10-31 20:22:05:805
-1.6257;-11.5332;0.6393;-1.3713;-9.2998;-2.7935;2.5612;-1.0531;4.7759;-2.1704;-2.129;-0.2115;1.0;-3.9;23.1;-6.6;43.87;81.37;89.35;2.0;983.53;68.962;;;;NaN;;;;;0 / 0;101012;2022-10-31 20:22:06:305
-3.6536;-6.546;-1.8411;-1.1956;-9.6423;-1.3293;0.9609;-2.3961;1.9686;1.9658;0.9345;-0.5915;1.0;-15.72;26.16;-7.86;343.74;64.25;141.54;2.0;984.21;66.314;;;;NaN;;;;;0 / 0;101512;2022-10-31 20:22:06:805
-2.0231;-15.8789;2.2817;-1.2975;-9.607;-1.4804;2.169;-7.7803;2.9074;-3.6731;-0.3764;0.2521;1.0;-3.36;19.38;-11.52;103.77;75.42;38.96;2.0;983.56;67.655;;;;NaN;;;;;0 / 0;102012;2022-10-31 20:22:07:305
-6.3641;-11.6936;-10.1254;-3.1238;-8.5699;-3.6012;15.0113;-7.0074;-1.5418;-2.0269;0.7891;0.458;1.0;-10.44;31.44;6.84;313.39;68.1;145.12;2.0;983.93;68.72;;;;NaN;;;;;0 / 0;102512;2022-10-31 20:22:07:805
-1.9178;-10.4558;-2.1237;-1.6455;-9.4149;2.1961;6.1466;-1.3474;-3.4985;0.3445;0.4861;-0.2518;1.0;-6.9;19.8;-26.52;102.7;80.95;56.22;2.0;983.65;68.53;;;;NaN;;;;;0 / 0;103012;2022-10-31 20:22:08:305
-0.5195;-4.1324;-0.2179;-2.5804;-8.1486;-4.8075;1.922;4.1024;4.4388;1.273;0.089;-0.7106;1.0;-7.26;28.74;16.08;273.74;66.13;156.67;2.0;983.55;67.974;;;;NaN;;;;;0 / 0;103512;2022-10-31 20:22:08:805
-4.7309;-10.0488;-0.1676;-0.8334;-9.6816;-1.3198;4.2379;0.3415;1.564;1.4074;2.6901;-0.3349;1.0;-13.5;28.38;-4.86;336.13;66.33;152.43;2.0;983.65;70.523;;;;NaN;;;;;0 / 0;104013;2022-10-31 20:22:09:306
0.1963;-12.3783;-1.0678;-1.0475;-9.1989;-3.2332;1.0356;0.2898;4.3584;-1.7202;-2.9335;-0.9769;1.0;-9.42;26.28;0.48;346.99;79.99;109.32;2.0;983.66;69.561;;;;NaN;;;;;0 / 0;104513;2022-10-31 20:22:09:806
-7.9227;-5.72;0.0263;-2.4196;-8.9005;-3.3312;6.8226;-4.0261;6.039;0.0049;1.4006;-0.6758;1.0;-6.42;25.92;9.48;305.24;64.71;149.17;2.0;984.0;71.977;;;;NaN;;;;;0 / 0;105012;2022-10-31 20:22:10:305
-2.9449;-12.2586;-2.818;-1.8118;-9.3618;2.2899;-0.5177;-3.3397;-3.6258;0.4606;-0.013;0.0298;1.0;-1.26;13.32;-22.86;133.47;75.46;37.1;2.0;983.62;66.168;;;;NaN;;;;;0 / 0;105512;2022-10-31 20:22:10:805
-1.652;-1.494;-2.3032;-1.9099;-9.008;-3.3732;-1.7125;1.7604;-5.3468;-1.5907;0.2014;0.4629;1.0;-10.02;24.06;9.78;303.97;57.59;153.76;2.0;983.84;68.19;;;;NaN;;;;;0 / 0;106012;2022-10-31 20:22:11:305
-0.4118;-6.5365;1.6735;-1.1118;-9.7305;0.5018;5.1364;1.3361;-1.3039;1.5974;1.2185;0.4238;1.0;-7.08;21.3;-17.1;25.99;79.99;126.97;2.0;983.67;69.252;;;;NaN;;;;;0 / 0;106513;2022-10-31 20:22:11:806
0.4142;-7.384;3.3998;-1.6244;-8.8345;-3.9348;3.535;5.3605;4.1311;-0.5351;-1.9219;0.1892;1.0;-12.6;24.12;4.8;305.31;77.11;141.57;2.0;983.59;64.148;;;;NaN;;;;;0 / 0;107012;2022-10-31 20:22:12:305
0.51;-11.1549;0.2682;-1.1023;-9.729;-0.5491;1.1622;1.574;0.1541;2.2749;2.4958;-0.0893;1.0;-11.16;23.16;-6.18;343.99;71.02;143.3;2.0;984.16;66.664;;;;NaN;;;;;0 / 0;107512;2022-10-31 20:22:12:805
-4.3048;-14.9715;0.1149;-1.4216;-9.4092;-2.3699;1.7592;-5.3445;2.4417;-3.0488;1.0444;-0.9293;1.0;-0.9;24.48;-5.28;50.27;76.44;59.55;2.0;983.62;64.557;;;;NaN;;;;;0 / 0;108013;2022-10-31 20:22:13:306
-10.3025;-11.186;-4.3646;-2.9217;-8.5827;-3.7379;6.9727;-7.0018;3.2447;-0.6585;-2.5591;1.7652;1.0;-4.86;24.12;11.76;278.83;70.14;144.37;2.0;983.89;63.919;;;;NaN;;;;;0 / 0;108512;2022-10-31 20:22:13:805
4.7429;-9.8022;-3.3303;-1.8453;-9.3532;2.2986;9.124;-5.2733;-2.064;-2.2633;-0.4852;-0.0576;1.0;0.96;12.66;-21.96;139.07;78.72;38.61;2.0;983.68;62.043;;;;NaN;;;;;0 / 0;109012;2022-10-31 20:22:14:305
-1.8507;-31.8366;-12.7375;-2.1104;-9.1072;-2.9623;0.3602;7.448;1.6192;-1.7336;-0.0295;0.5466;1.0;-9.36;23.04;6.54;310.93;60.8;150.41;2.0;983.66;68.619;;;;NaN;;;;;0 / 0;109512;2022-10-31 20:22:14:805
1.2953;-9.9171;-3.7062;-1.4518;-9.6675;0.7758;2.4238;3.6386;-2.5403;1.4655;1.1868;0.1324;1.0;-6.3;16.44;-12.36;25.19;78.98;123.06;2.0;983.7;62.213;;;;NaN;;;;;0 / 0;110012;2022-10-31 20:22:15:305
0.4717;-3.5219;1.4126;-2.3116;-8.9658;-3.2312;1.1552;5.4392;2.7907;-0.0104;-1.6947;-0.4045;1.0;-8.76;21.06;5.46;310.21;65.62;150.74;2.0;983.58;59.687;;;;NaN;;;;;0 / 0;110512;2022-10-31 20:22:15:805
0.0096;-12.1389;1.0678;-0.9755;-9.7535;-0.2972;2.6275;2.1636;-0.8233;2.0525;1.2075;-0.3642;1.0;-10.56;12.42;-7.26;337.49;74.78;149.61;2.0;983.78;68.424;;;;NaN;;;;;0 / 0;111012;2022-10-31 20:22:16:305
-2.8587;-16.9013;4.3766;-1.1386;-9.2832;-2.9487;1.991;-4.8069;2.4483;-1.0788;-2.0258;-1.0948;1.0;-3.9;14.88;-6.66;38.92;77.08;96.75;2.0;983.76;57.622;;;;NaN;;;;;0 / 0;111513;2022-10-31 20:22:16:806
14.0998;-8.0472;6.2923;-2.5709;-8.9145;-3.1767;-5.3494;-0.55;12.9573;2.5766;4.158;0.447;1.0;-16.5;14.76;4.14;310.62;67.22;139.27;2.0;984.43;65.03;;;;NaN;;;;;0 / 0;112012;2022-10-31 20:22:17:305
-7.8868;-14.2051;-2.0087;-2.1851;-9.3651;1.9211;3.083;-6.6862;-0.0536;-3.2089;2.5472;-0.6287;1.0;1.68;2.94;-26.82;137.1;71.87;44.31;2.0;983.83;68.949;;;;NaN;;;;;0 / 0;112512;2022-10-31 20:22:17:805
-13.7023;-15.108;-3.2944;-2.0353;-9.3739;-2.0389;-4.1947;-10.0796;-4.9596;-2.1582;-2.9238;2.6284;1.0;-15.06;21.6;-6.78;340.82;62.82;143.84;2.0;984.28;61.17;;;;NaN;;;;;0 / 0;113012;2022-10-31 20:22:18:305
6.1055;-10.032;-0.9577;-2.1777;-9.2165;2.5463;7.5602;-4.1362;-4.5741;0.5913;0.7677;0.2888;1.0;-0.9;7.14;-24.9;134.91;74.67;38.71;2.0;983.8;56.104;;;;NaN;;;;;0 / 0;113512;2022-10-31 20:22:18:805
0.4094;-0.1077;-1.1875;-1.7361;-9.4908;-1.755;-4.7333;1.4772;-6.9649;2.8332;-0.0533;-1.3551;1.0;-18.42;23.94;-6.24;330.82;65.83;150.36;2.0;983.85;67.711;;;;NaN;;;;;0 / 0;114012;2022-10-31 20:22:19:305
1.8148;-4.9874;4.2689;-1.3252;-9.5347;1.8715;1.2318;2.1699;-7.1534;2.4551;1.4775;0.0469;1.0;-12.42;12.06;-21.36;55.36;83.09;92.26;2.0;983.74;66.29;;;;NaN;;;;;0 / 0;114513;2022-10-31 20:22:19:806
-0.5315;0.7374;1.5538;-2.7696;-8.7763;-3.3876;3.2053;6.8633;4.5081;2.4239;-0.0515;-1.0124;1.0;-14.88;24.96;10.14;288.82;67.71;158.32;2.0;983.92;61.066;;;;NaN;;;;;0 / 0;115012;2022-10-31 20:22:20:305
-0.3448;-6.6179;0.3639;-1.2336;-9.7064;0.6582;-0.6817;3.1412;-5.145;1.7825;-0.0502;0.4097;1.0;-19.74;19.14;-8.4;346.41;76.06;127.88;2.0;983.79;68.343;;;;NaN;;;;;0 / 0;115512;2022-10-31 20:22:20:805
-1.9872;0.1628;2.3463;-1.5697;-9.115;-3.2592;3.26;4.1731;5.8019;-0.1839;-2.3459;0.7378;1.0;-17.46;20.52;3.54;320.66;77.9;124.75;2.0;983.85;59.734;;;;NaN;;;;;0 / 0;116012;2022-10-31 20:22:21:305
-2.8323;-3.3399;-1.0175;-1.6528;-9.5387;1.5655;1.3512;4.9897;1.1471;2.1228;3.6345;-0.1694;1.0;-12.78;14.58;-21.06;50.1;81.7;94.56;2.0;984.0;69.628;;;;NaN;;;;;0 / 0;116512;2022-10-31 20:22:21:805
1.5754;-4.2234;5.4543;-2.1461;-8.4817;-4.4301;3.0607;8.0435;6.7189;-3.4135;-5.0905;0.0432;1.0;-22.8;21.72;18.72;270.75;76.17;150.13;2.0;983.83;64.389;;;;NaN;;;;;0 / 0;117012;2022-10-31 20:22:22:305
4.4819;-7.5325;0.0886;-1.6953;-9.6574;-0.1722;-1.8074;-0.8845;-1.2643;2.2571;2.5282;0.0023;1.0;-19.8;20.82;-0.78;326.77;68.99;136.44;2.0;984.35;65.602;;;;NaN;;;;;0 / 0;117512;2022-10-31 20:22:22:805
-3.0622;-17.7536;-0.577;-1.5953;-9.3669;-2.4263;-3.9332;-2.9683;2.9362;-2.3463;-2.7564;-0.5896;1.0;-16.2;22.32;-1.44;23.86;77.3;63.2;2.0;983.69;65.163;;;;NaN;;;;;0 / 0;118012;2022-10-31 20:22:23:305
6.8741;-11.2171;-0.3543;-2.1889;-8.9291;-3.4133;-7.9006;5.3401;10.2419;2.5412;2.0426;-1.1015;1.0;-18.48;20.1;20.7;272.63;63.73;148.56;2.0;984.55;66.128;;;;NaN;;;;;0 / 0;118512;2022-10-31 20:22:23:805
-3.5745;-13.1157;3.644;-1.6263;-9.3632;2.4197;1.1044;-6.5109;-2.2832;-2.6866;1.9931;-0.1492;1.0;-16.68;15.36;-19.26;95.15;71.37;31.36;2.0;983.82;62.788;;;;NaN;;;;;0 / 0;119012;2022-10-31 20:22:24:305
-6.7424;-11.107;-12.8835;-2.4217;-8.5871;-4.0701;16.555;4.007;15.9385;-1.3622;-5.6317;1.45;1.0;-15.06;18.24;26.52;257.13;67.81;146.26;2.0;984.12;69.973;;;;NaN;;;;;0 / 0;119512;2022-10-31 20:22:24:805
13.1325;-15.1631;-1.573;-1.6001;-9.1964;3.006;-2.8364;-5.5142;-9.3821;0.6457;0.7445;-0.2414;1.0;-19.98;16.68;-14.82;86.11;73.56;29.38;2.0;983.72;62.639;;;;NaN;;;;;0 / 0;120012;2022-10-31 20:22:25:305
-0.8284;-2.32;-1.9513;-1.1905;-9.1998;-3.1805;-2.0417;1.7679;-4.5889;2.2321;0.8019;-1.3795;1.0;-23.76;17.04;22.68;266.93;58.01;158.43;2.0;983.7;68.86;;;;NaN;;;;;0 / 0;120512;2022-10-31 20:22:25:805
-0.7973;-6.005;0.3711;-0.8543;-9.6325;1.6295;1.9245;2.3514;1.2124;0.9249;0.753;0.6584;1.0;-26.46;18.54;-5.34;350.68;86.0;110.65;2.0;983.73;64.954;;;;NaN;;;;;0 / 0;121012;2022-10-31 20:22:26:305
0.0335;-3.1627;1.4916;-1.9242;-8.5017;-4.4932;3.5643;5.7244;5.573;0.2902;-1.4992;-0.6055;1.0;-22.26;18.0;23.88;262.73;76.57;147.5;2.0;983.67;65.588;;;;NaN;;;;;0 / 0;121512;2022-10-31 20:22:26:805
0.486;-9.4478;-0.1867;-0.5924;-9.7181;-1.1735;-1.457;2.5113;1.2549;1.8033;4.0279;-0.4656;1.0;-28.56;19.02;16.98;280.85;65.14;152.54;2.0;984.02;65.714;;;;NaN;;;;;0 / 0;122013;2022-10-31 20:22:27:306
-3.778;-12.613;-1.9872;-1.6389;-9.135;-3.168;3.923;-2.1803;1.4849;-3.4777;-4.0722;-0.0863;1.0;-23.88;21.3;16.14;321.75;81.64;98.03;2.0;983.78;63.119;;;;NaN;;;;;0 / 0;122512;2022-10-31 20:22:27:805
-16.3626;-5.0138;-0.0335;-1.307;-9.298;-2.8299;13.5393;-4.9621;7.3525;0.8955;-1.2561;0.6895;1.0;-20.88;15.66;29.04;266.39;61.75;143.87;2.0;984.4;69.854;;;;NaN;;;;;0 / 0;123012;2022-10-31 20:22:28:305
-2.0087;-13.4078;-1.8507;-1.3862;-9.6172;1.3263;3.845;-3.7787;-3.5314;-1.1252;-0.3557;-0.0973;1.0;-22.32;20.52;-4.26;55.86;71.68;31.19;2.0;983.82;61.26;;;;NaN;;;;;0 / 0;123512;2022-10-31 20:22:28:805
-7.3122;-17.9787;-15.7808;-1.4763;-9.0331;-3.5203;-6.0082;-3.3978;-11.5925;0.4258;0.3554;-0.2451;1.0;-18.3;17.22;30.18;250.46;63.89;155.32;2.0;984.33;64.504;;;;NaN;;;;;0 / 0;124012;2022-10-31 20:22:29:305
7.9467;-14.7513;-0.067;-1.1751;-9.3339;2.7692;0.3563;-0.9735;-5.1658;0.4435;0.1025;-0.1217;1.0;-23.7;19.68;-5.1;71.51;83.02;24.95;2.0;983.73;63.899;;;;NaN;;;;;0 / 0;124512;2022-10-31 20:22:29:805
-1.4006;-2.5067;-2.3343;-1.8556;-8.5587;-4.4131;-0.2609;4.704;5.9047;2.3744;0.389;-1.4803;1.0;-15.6;13.74;33.84;229.18;70.52;163.28;2.0;984.0;66.773;;;;NaN;;;;;0 / 0;125012;2022-10-31 20:22:30:305
0.6847;-6.0624;1.1732;-0.3874;-9.5451;2.2161;4.2469;1.0191;-1.8569;1.8302;2.6993;0.6089;1.0;-25.8;20.76;0.36;111.65;88.94;-22.45;2.0;983.93;69.878;;;;NaN;;;;;0 / 0;125512;2022-10-31 20:22:30:805
2.6097;-10.5492;1.1516;-1.3487;-8.839;-4.0278;2.8547;3.9234;4.1475;-2.4019;-2.9445;-0.4449;1.0;-19.98;17.28;29.4;248.95;80.58;150.18;2.0;983.71;64.848;;;;NaN;;;;;0 / 0;126012;2022-10-31 20:22:31:305
3.9241;-13.3216;-0.4453;-0.3151;-9.5939;-2.0068;7.1126;-1.3718;0.9438;2.4392;2.2265;-1.1461;1.0;-20.82;16.5;28.8;253.37;64.47;156.66;2.0;984.59;61.037;;;;NaN;;;;;0 / 0;126512;2022-10-31 20:22:31:805
0.5148;-13.8196;0.1724;-0.9081;-9.5882;1.847;-1.7615;-1.9114;-4.5883;-2.915;-0.6788;-0.3325;1.0;-24.9;20.58;-2.4;64.13;69.66;15.92;2.0;983.73;61.796;;;;NaN;;;;;0 / 0;127012;2022-10-31 20:22:32:305
-5.428;-15.041;-2.3607;-1.0896;-9.194;-3.2331;-1.5201;-14.4302;-8.1899;-1.0623;-1.6452;-0.0234;1.0;-20.22;14.22;30.12;246.94;63.77;159.03;2.0;984.0;66.582;;;;NaN;;;;;0 / 0;127513;2022-10-31 20:22:32:806
5.6985;-10.518;-1.4293;-0.4344;-9.3769;2.8381;-1.8927;0.554;-3.2403;0.3977;0.1996;0.2179;1.0;-28.08;18.36;-1.86;85.29;82.18;3.81;2.0;983.71;68.736;;;;NaN;;;;;0 / 0;128012;2022-10-31 20:22:33:305
-0.4741;-1.4796;-1.8196;-0.6105;-9.33;-2.9578;-0.103;4.9246;-2.1613;1.6616;0.7182;-0.757;1.0;-23.04;16.38;28.56;245.13;65.11;165.78;2.0;985.02;63.924;;;;NaN;;;;;0 / 0;128512;2022-10-31 20:22:33:805
-0.0982;-7.2882;-1.7238;-0.5013;-9.6679;1.5655;0.0153;3.4355;-1.1011;1.3616;2.4409;-0.2616;1.0;-24.0;21.06;5.4;308.51;87.58;131.32;2.0;983.87;70.815;;;;NaN;;;;;0 / 0;129012;2022-10-31 20:22:34:305
-2.7438;-11.253;-2.7366;-1.2599;-9.182;-3.2053;2.038;-0.0959;3.4376;-3.3799;-0.4436;0.4433;1.0;-18.42;18.66;20.82;295.17;84.64;108.68;2.0;983.58;52.977;;;;NaN;;;;;0 / 0;129512;2022-10-31 20:22:34:805
-19.4535;-5.1981;-1.901;-1.1726;-9.3368;-2.7602;16.2447;-8.1007;6.6891;2.1087;2.0359;0.4635;1.0;-14.58;15.0;27.84;252.6;63.09;150.6;2.0;984.36;49.143;;;;NaN;;;;;0 / 0;130013;2022-10-31 20:22:35:306
-0.9649;-10.6713;-0.8787;-0.8337;-9.3045;2.9835;-0.452;-4.7066;-4.1016;-3.2486;1.8941;0.0823;1.0;-21.72;17.04;-6.48;75.93;71.25;15.92;2.0;983.66;53.852;;;;NaN;;;;;0 / 0;130512;2022-10-31 20:22:35:805
-4.853;-4.142;-9.7423;-1.3882;-9.3621;-2.5679;-0.7714;1.777;-5.9174;-1.1875;-0.8157;-0.0075;1.0;-15.9;16.56;23.88;259.36;61.46;154.03;2.0;984.01;62.502;;;;NaN;;;;;0 / 0;131012;2022-10-31 20:22:36:305
-0.3208;-9.7184;-2.6791;-1.2366;-9.1253;3.372;0.1233;-2.427;-6.1349;1.4942;1.1177;0.0084;1.0;-19.92;16.5;-2.46;61.71;78.03;25.49;2.0;983.7;62.944;;;;NaN;;;;;0 / 0;131513;2022-10-31 20:22:36:806
-0.6656;-5.325;0.4932;-1.7468;-8.746;-4.0776;1.1483;4.9128;4.1398;-1.452;-2.1339;-0.1223;1.0;-12.96;6.54;31.74;229.13;71.74;157.28;2.0;983.61;59.386;;;;NaN;;;;;0 / 0;132012;2022-10-31 20:22:37:305
-2.3535;-7.2212;-0.2227;-0.5267;-9.7925;0.0073;-2.8108;-1.9442;-0.6945;1.8381;1.64;0.7561;1.0;-12.9;11.7;24.48;232.76;75.42;161.75;2.0;984.37;66.924;;;;NaN;;;;;0 / 0;132512;2022-10-31 20:22:37:805
-0.6728;-11.4877;1.6257;-0.8538;-9.7668;-0.2256;-1.0376;-4.5197;2.9143;-3.1637;-1.1559;0.0292;1.0;-12.24;11.4;23.52;7.53;71.15;18.44;2.0;983.57;61.667;;;;NaN;;;;;0 / 0;133012;2022-10-31 20:22:38:305
-13.3743;-0.9505;4.8602;-1.5049;-9.069;-3.4146;-2.6634;4.5918;-5.2192;1.6616;0.1355;0.6358;1.0;13.38;1.08;27.54;173.8;72.91;160.97;2.0;984.32;63.577;;;;NaN;;;;;0 / 0;133512;2022-10-31 20:22:38:805
-5.064;-14.095;-3.5267;-0.8748;-9.106;3.5335;3.4773;-1.5629;-5.705;-1.0311;0.469;-0.1046;1.0;5.28;12.36;6.42;325.87;74.8;6.6;2.0;983.73;63.409;;;;NaN;;;;;0 / 0;134012;2022-10-31 20:22:39:305
-4.4269;-15.9029;-9.9745;-0.5742;-9.2777;-3.1247;-4.9352;0.6847;-8.533;-0.1173;0.235;0.3041;1.0;7.68;3.06;23.46;170.43;68.7;169.32;2.0;983.81;64.993;;;;NaN;;;;;0 / 0;134512;2022-10-31 20:22:39:805
-0.6369;-8.131;-1.245;-0.3372;-9.1909;3.4036;1.5223;-2.0023;-5.7499;1.4056;0.436;0.436;1.0;0.0;7.26;12.36;6.95;77.98;-7.65;2.0;983.73;63.759;;;;NaN;;;;;0 / 0;135012;2022-10-31 20:22:40:305
-1.4533;-2.7414;0.1891;-1.2137;-8.7636;-4.2303;1.1825;4.9928;4.635;-0.2132;-1.5908;0.0951;1.0;6.12;-3.18;26.82;173.73;66.55;173.5;2.0;983.68;62.341;;;;NaN;;;;;0 / 0;135512;2022-10-31 20:22:40:805
-2.9281;-10.6329;-0.012;0.1004;-9.7796;0.7209;1.0297;-1.009;-0.3114;1.7202;1.0945;0.1581;1.0;5.58;7.02;19.68;167.6;80.4;174.85;2.0;983.79;66.249;;;;NaN;;;;;0 / 0;136013;2022-10-31 20:22:41:306
1.8818;-8.2699;1.1349;-0.1674;-9.7257;-1.2465;-4.8152;-4.149;2.6997;-2.5479;-2.8999;-0.4815;1.0;3.0;6.54;24.78;337.71;76.72;16.3;2.0;983.64;58.9;;;;NaN;;;;;0 / 0;136512;2022-10-31 20:22:41:805
0.5986;-6.7926;-1.2091;-0.8914;-9.0972;-3.5519;-1.8404;3.37;7.6819;2.0623;-0.0215;-0.7943;1.0;16.26;-0.96;27.3;157.39;70.38;171.01;2.0;984.17;62.477;;;;NaN;;;;;0 / 0;137012;2022-10-31 20:22:42:305
4.1396;-12.8404;-2.0375;-0.318;-9.7626;0.8726;-1.8655;-1.7874;0.698;-2.8863;-0.2188;-0.0771;1.0;8.82;6.78;24.18;338.41;73.6;-2.8;2.0;983.73;52.919;;;;NaN;;;;;0 / 0;137512;2022-10-31 20:22:42:805
-6.3162;-14.8399;-8.7774;-0.3462;-9.2635;-3.1996;-4.6987;-1.9752;-8.7765;0.8381;-0.8798;0.0408;1.0;21.66;-2.58;22.02;144.66;65.75;169.24;2.0;984.13;67.723;;;;NaN;;;;;0 / 0;138013;2022-10-31 20:22:43:306
3.304;-8.5332;-1.9992;0.1292;-9.2977;3.1154;0.0624;-0.0615;-5.6125;1.2969;0.6125;0.0475;1.0;18.12;2.34;17.34;339.61;81.02;-26.23;2.0;983.7;66.374;;;;NaN;;;;;0 / 0;138512;2022-10-31 20:22:43:805
1.8435;-6.4982;-0.2035;-0.9645;-8.6895;-4.4421;0.5479;4.9833;3.494;0.8039;-0.5793;-0.63;1.0;21.78;1.2;4.2;98.45;78.03;-178.87;2.0;983.65;61.634;;;;NaN;;;;;0 / 0;139012;2022-10-31 20:22:44:305
2.6552;-9.886;0.8356;0.0542;-9.7691;-0.8557;-3.0757;2.0475;0.2835;1.5901;2.7017;-0.5884;1.0;-1.92;8.52;-8.1;359.81;71.67;166.21;2.0;984.18;65.922;;;;NaN;;;;;0 / 0;139512;2022-10-31 20:22:44:805
-3.1005;-15.2588;-1.5658;-0.7205;-9.7181;1.0993;-1.542;-3.3856;0.0212;-2.5235;-0.5591;-0.5774;1.0;-12.0;7.2;-19.5;133.02;69.56;8.13;2.0;983.66;62.64;;;;NaN;;;;;0 / 0;140012;2022-10-31 20:22:45:305
1.3599;-16.2189;0.2418;-0.3064;-9.3271;-3.0134;-6.3139;5.5443;4.596;-1.2675;0.3065;-0.4155;1.0;-22.8;10.44;24.48;237.26;73.61;171.82;2.0;983.97;62.044;;;;NaN;;;;;0 / 0;140513;2022-10-31 20:22:45:806
2.1763;-10.281;-2.624;-0.4204;-9.0677;3.7109;5.0986;-1.673;-3.9863;0.6652;0.3877;0.3877;1.0;-22.8;12.12;-8.34;101.47;73.47;-1.0;2.0;983.65;59.096;;;;NaN;;;;;0 / 0;141013;2022-10-31 20:22:46:306
-0.7015;-4.3886;-0.4357;-1.5503;-8.8019;-4.0364;0.4753;5.0454;3.3325;-0.179;-1.2738;0.0701;1.0;-17.04;13.68;26.58;238.24;66.09;165.57;2.0;983.62;67.226;;;;NaN;;;;;0 / 0;141512;2022-10-31 20:22:46:805
-5.6243;-10.1948;-0.9577;-0.2791;-9.8009;0.1882;2.8433;-1.0141;0.4893;1.5876;2.4714;0.3291;1.0;-22.68;16.8;8.7;272.68;77.91;164.36;2.0;983.88;66.224;;;;NaN;;;;;0 / 0;142013;2022-10-31 20:22:47:306
2.4373;-9.4789;-1.2929;-1.2697;-9.6674;-1.0486;-2.0558;-5.9554;-1.403;-2.7642;-2.3508;-0.6361;1.0;-19.26;19.14;2.4;44.96;72.53;27.92;2.0;983.75;60.802;;;;NaN;;;;;0 / 0;142512;2022-10-31 20:22:47:805
-13.652;-3.2058;2.3918;-1.5029;-9.2957;-2.7388;-1.5209;1.6028;-1.6666;-0.8784;-0.2512;0.3413;1.0;-19.62;15.96;25.62;245.73;75.79;158.95;2.0;984.37;63.836;;;;NaN;;;;;0 / 0;143013;2022-10-31 20:22:48:306
0.8787;-14.1644;-1.5945;-0.9836;-9.3011;2.9483;3.1528;-3.7381;-3.7264;-2.1747;-0.5707;0.1129;1.0;-24.6;15.36;-12.42;85.34;69.68;19.1;2.0;983.67;67.793;;;;NaN;;;;;0 / 0;143512;2022-10-31 20:22:48:805
-2.8874;-2.0566;-4.0294;-1.3431;-9.4421;-2.2831;-4.4488;0.9448;-4.9908;0.5082;-1.3593;0.4;1.0;-22.02;17.4;20.52;270.41;62.78;152.57;2.0;984.01;66.262;;;;NaN;;;;;0 / 0;144012;2022-10-31 20:22:49:305
-0.747;-8.1262;0.4262;-0.8146;-9.5956;1.8522;1.5185;0.8182;-0.2745;1.8418;0.5985;-0.0637;1.0;-26.1;18.12;-0.6;8.47;85.98;83.34;2.0;983.71;64.935;;;;NaN;;;;;0 / 0;144512;2022-10-31 20:22:49:805
2.0111;-12.8643;-2.3439;-1.4253;-9.0766;-3.4284;1.3774;3.5002;4.0532;-2.1435;-1.9531;0.1611;1.0;-23.1;16.62;20.04;290.47;81.76;122.66;2.0;983.66;62.721;;;;NaN;;;;;0 / 0;145012;2022-10-31 20:22:50:305
0.0958;-10.7096;-0.1173;-0.5923;-9.6609;-1.5768;4.3297;-0.8404;1.0285;1.9212;2.8251;-0.4833;1.0;-22.2;20.88;16.56;279.25;69.19;148.86;2.0;984.13;66.388;;;;NaN;;;;;0 / 0;145512;2022-10-31 20:22:50:805
-2.5786;-16.1303;0.9146;-1.2254;-9.5368;1.9282;5.2477;-2.5015;-3.8172;-3.0806;0.5606;-0.2195;1.0;-19.02;20.22;-16.86;96.92;70.53;18.52;2.0;983.66;57.781;;;;NaN;;;;;0 / 0;146013;2022-10-31 20:22:51:306
-7.791;-6.5676;-4.13;-2.8301;-8.9118;-2.9566;-3.364;1.8366;-3.2782;-0.7611;-0.9934;-1.4638;1.0;-12.9;25.26;16.32;281.94;68.83;143.57;2.0;984.0;59.145;;;;NaN;;;;;0 / 0;146512;2022-10-31 20:22:51:805
0.1173;-8.5979;-2.1021;-1.4001;-9.3195;2.7125;-0.9366;-0.102;-4.1921;0.672;0.6816;0.2381;1.0;-16.32;19.5;-19.92;96.64;79.44;36.27;2.0;983.67;67.558;;;;NaN;;;;;0 / 0;147012;2022-10-31 20:22:52:305
1.2234;-6.9507;0.3496;-2.9365;-8.5937;-3.7007;1.9644;3.3429;5.4748;-0.5504;-1.1571;-0.0899;1.0;-11.34;26.76;12.9;288.91;73.87;136.2;2.0;983.62;65.336;;;;NaN;;;;;0 / 0;147512;2022-10-31 20:22:52:805
1.2953;-8.4758;0.237;-1.8259;-9.566;-1.1527;-3.298;0.9513;-0.1594;2.3072;0.8031;-0.3135;1.0;-15.0;26.04;7.2;316.23;64.3;135.39;2.0;983.89;64.723;;;;NaN;;;;;0 / 0;148013;2022-10-31 20:22:53:306
-1.7645;-13.3145;0.5291;-1.5505;-9.5821;1.3959;3.6622;-1.5608;-1.6065;-3.2083;0.3022;0.4293;1.0;-11.64;21.12;-18.48;101.46;70.34;24.34;2.0;983.71;55.529;;;;NaN;;;;;0 / 0;148512;2022-10-31 20:22:53:805
-3.6536;-12.5483;-11.7678;-2.4311;-9.0691;-2.8305;-1.9622;-13.5903;-7.891;-1.5211;-0.553;0.8801;1.0;-13.56;27.18;9.42;310.22;61.78;142.34;2.0;984.13;63.901;;;;NaN;;;;;0 / 0;149013;2022-10-31 20:22:54:306
-0.2227;-9.8812;-2.217;-2.0554;-9.1855;2.7519;8.2304;-2.465;-5.1533;0.4227;0.1483;-0.0881;1.0;-10.98;20.1;-21.36;100.46;76.24;39.89;2.0;983.66;68.157;;;;NaN;;;;;0 / 0;149512;2022-10-31 20:22:54:805
-0.9074;-2.8802;0.1604;-2.7124;-8.6504;-3.7393;1.7452;5.593;2.5159;1.6842;0.4177;-1.1095;1.0;-10.56;27.06;13.68;296.06;60.94;146.27;2.0;983.72;65.223;;;;NaN;;;;;0 / 0;150012;2022-10-31 20:22:55:305
3.0646;-11.6984;0.7925;-1.3142;-9.7163;-0.1919;-0.0146;0.5294;-0.3277;1.8253;2.5667;-0.1028;1.0;-16.02;26.76;-7.32;340.07;74.07;141.2;2.0;984.12;67.879;;;;NaN;;;;;0 / 0;150512;2022-10-31 20:22:55:805
-3.8499;-14.5499;1.5131;-2.0856;-9.3789;-1.9636;-4.2067;-2.1806;1.5734;-2.1967;-2.2371;-0.4229;1.0;-6.9;28.02;-7.92;45.1;74.31;63.86;2.0;983.59;58.472;;;;NaN;;;;;0 / 0;151012;2022-10-31 20:22:56:305
-2.8323;-9.1869;-3.5099;-2.6978;-8.7347;-3.5493;7.3354;-13.3237;6.08;0.4795;0.7934;-0.3172;1.0;-9.18;28.2;12.12;300.87;65.62;138.61;2.0;984.07;61.471;;;;NaN;;;;;0 / 0;151512;2022-10-31 20:22:56:805
-0.4453;-14.8159;-0.905;-1.8951;-9.3417;2.3045;6.2167;-2.8355;-3.8081;0.3696;0.6913;-0.3691;1.0;-7.44;19.62;-23.52;108.5;77.47;45.14;2.0;983.66;64.415;;;;NaN;;;;;0 / 0;152012;2022-10-31 20:22:57:305
-3.7685;-7.9945;-5.7105;-2.5919;-9.0688;-2.6848;-1.7871;-15.6713;-9.5714;-1.5809;-0.7081;0.7549;1.0;-12.36;28.26;7.62;315.82;60.54;141.65;2.0;983.66;64.328;;;;NaN;;;;;0 / 0;152512;2022-10-31 20:22:57:805
0.8859;-7.135;2.1141;-1.5058;-9.5355;1.7256;4.0173;1.493;-4.8404;1.4459;1.312;0.056;1.0;-11.88;22.2;-17.64;55.69;81.98;84.11;2.0;983.69;69.544;;;;NaN;;;;;0 / 0;153013;2022-10-31 20:22:58:306
0.1987;-6.4383;0.2059;-3.0545;-8.2685;-4.298;2.9276;2.4096;3.8981;-1.5882;-2.0545;-0.228;1.0;-4.86;28.14;8.1;311.33;68.6;136.37;2.0;983.59;58.771;;;;NaN;;;;;0 / 0;153512;2022-10-31 20:22:58:805
-2.5857;-6.9746;-0.1484;-1.8433;-9.4425;-1.9005;13.2112;-4.9159;2.614;1.8442;1.6015;-0.4956;1.0;-14.58;26.82;4.14;319.78;64.09;143.09;2.0;983.82;60.107;;;;NaN;;;;;0 / 0;154012;2022-10-31 20:22:59:305
-0.3448;-11.83;1.5419;-2.2402;-9.3524;1.9195;4.6679;-4.6779;-4.4789;-2.3757;-0.407;0.2558;1.0;-6.66;19.86;-22.74;104.59;71.33;41.98;2.0;983.72;60.065;;;;NaN;;;;;0 / 0;154512;2022-10-31 20:22:59:805
0.0287;0.9218;-13.4078;-2.4241;-9.1004;-2.7342;-1.9621;-0.4671;-6.2228;-0.1155;-1.3111;0.3065;1.0;-11.1;27.78;6.3;323.2;57.15;143.68;2.0;984.27;63.793;;;;NaN;;;;;0 / 0;155012;2022-10-31 20:23:00:305
-2.4253;-10.3025;-1.64;-2.1339;-9.3347;2.1164;4.8538;-2.1362;-3.7181;0.2828;0.3132;0.2082;1.0;-6.48;19.74;-22.08;99.33;77.98;54.6;2.0;983.58;65.438;;;;NaN;;;;;0 / 0;155513;2022-10-31 20:23:00:806
-0.3783;-5.507;-0.1891;-3.2236;-8.1397;-4.4186;2.1079;4.1365;4.33;0.022;-1.0796;-0.4388;1.0;-6.0;27.36;13.38;291.9;64.66;145.48;2.0;983.67;57.585;;;;NaN;;;;;0 / 0;156012;2022-10-31 20:23:01:305
-1.5706;-7.5013;0.5794;-2.1932;-9.5141;-0.9177;-1.774;-2.1316;1.0566;1.9816;2.0688;-0.3166;1.0;-10.8;26.1;-2.76;343.85;66.41;134.91;2.0;984.12;67.724;;;;NaN;;;;;0 / 0;156512;2022-10-31 20:23:01:805
0.0622;-13.7502;-1.2402;-2.1736;-9.5185;-0.9181;2.9924;-3.5014;3.1136;-3.2577;-0.0154;-0.0258;1.0;-6.36;24.72;-11.04;70.02;72.04;45.15;2.0;983.58;63.468;;;;NaN;;;;;0 / 0;157012;2022-10-31 20:23:02:305
2.7438;-9.4071;12.0336;-2.8907;-8.7124;-3.4507;3.0559;5.7005;-8.5709;-0.2199;-1.1956;-0.0118;1.0;-9.0;24.36;13.02;292.89;63.44;142.76;2.0;984.0;66.148;;;;NaN;;;;;0 / 0;157512;2022-10-31 20:23:02:805
6.2156;-11.5188;-1.0487;-2.0247;-9.2463;2.5644;0.3535;-0.3787;-3.2947;0.909;0.4165;0.4959;1.0;-9.96;18.78;-15.78;75.53;78.24;61.06;2.0;983.62;62.15;;;;NaN;;;;;0 / 0;158012;2022-10-31 20:23:03:305
-1.1684;-4.3503;-0.6416;-2.3863;-8.9305;-3.2745;0.7845;6.0431;-0.233;1.7013;-0.2091;-0.5957;1.0;-9.0;19.92;15.06;284.86;58.04;146.5;2.0;983.55;63.665;;;;NaN;;;;;0 / 0;158512;2022-10-31 20:23:03:805
-0.1963;-9.0791;-0.2658;-1.7181;-9.6116;0.9143;0.1044;2.455;-0.9694;1.7385;1.0444;0.3047;1.0;-11.88;19.02;-5.28;359.16;78.38;113.68;2.0;983.64;67.177;;;;NaN;;;;;0 / 0;159013;2022-10-31 20:23:04:306
-4.0438;-12.4118;1.0127;-1.7282;-9.431;-2.0592;2.0226;-2.8396;0.1175;-2.7526;-1.2194;-0.487;1.0;-10.02;19.38;-0.24;13.6;76.79;70.87;2.0;983.57;54.054;;;;NaN;;;;;0 / 0;159512;2022-10-31 20:23:04:805
-1.0942;-15.12;-1.1013;-2.3315;-8.8573;-3.5046;-5.73;3.6305;8.2475;0.5577;-0.5481;0.447;1.0;-10.02;18.06;13.56;279.17;64.76;144.46;2.0;984.42;59.084;;;;NaN;;;;;0 / 0;160013;2022-10-31 20:23:05:306
-3.5386;-12.8117;-2.4636;-1.9136;-9.2096;2.7734;7.4684;-2.8383;-2.1126;0.4985;0.2271;-0.2188;1.0;-8.94;13.92;-18.18;106.61;74.55;35.66;2.0;983.54;66.153;;;;NaN;;;;;0 / 0;160512;2022-10-31 20:23:05:805
-1.5251;-3.2082;-3.4955;-2.4215;-8.6051;-4.0321;1.2531;4.3841;3.6227;0.6158;-0.217;-0.776;1.0;-12.96;21.18;14.4;279.96;65.06;152.03;2.0;983.69;66.165;;;;NaN;;;;;0 / 0;161012;2022-10-31 20:23:06:305
-0.2442;-6.9842;-1.7214;-1.3169;-9.5926;1.555;2.4661;1.5262;-0.2957;1.7049;-0.327;0.1794;1.0;-15.42;19.26;-10.86;31.83;83.12;90.91;2.0;983.88;68.173;;;;NaN;;;;;0 / 0;161512;2022-10-31 20:23:06:805
-0.2274;-12.8715;-1.4174;-1.393;-9.2931;-2.805;2.9876;-0.9185;3.1618;-2.6053;-2.4424;-0.2537;1.0;-15.48;22.92;4.14;340.4;79.27;99.66;2.0;983.49;54.791;;;;NaN;;;;;0 / 0;162012;2022-10-31 20:23:07:305
-1.9632;-4.6902;4.4724;-1.7463;-9.2537;-2.7367;-7.3903;3.1243;1.5516;1.9468;1.2631;-0.9574;1.0;-15.66;22.14;14.94;282.34;67.99;146.82;2.0;984.07;64.504;;;;NaN;;;;;0 / 0;162512;2022-10-31 20:23:07:805
5.1407;-12.0767;0.4597;-1.8415;-9.2299;2.7546;-3.3997;-2.7773;-6.9899;-0.7172;0.3981;0.2088;1.0;-12.78;19.02;-19.2;99.64;72.26;30.44;2.0;983.55;63.341;;;;NaN;;;;;0 / 0;163012;2022-10-31 20:23:08:305
-4.1252;-29.9308;-13.2546;-2.0683;-9.2059;-2.6727;0.1026;7.372;-0.1621;2.2645;0.0396;-1.0014;1.0;-13.32;24.78;15.06;293.37;59.69;145.5;2.0;983.59;65.604;;;;NaN;;;;;0 / 0;163512;2022-10-31 20:23:08:805
1.6831;-8.7008;-1.4222;-1.1813;-9.6828;1.0093;-0.1571;1.717;-1.263;1.9138;2.8318;0.3719;1.0;-18.42;24.18;-5.46;351.26;79.91;116.09;2.0;983.62;66.321;;;;NaN;;;;;0 / 0;164012;2022-10-31 20:23:09:305
0.0479;-5.6865;0.261;-2.1169;-8.7467;-3.8965;1.4154;4.4875;3.8941;-0.664;-1.8932;0.0084;1.0;-15.3;23.88;17.52;268.47;75.27;147.0;2.0;983.5;63.921;;;;NaN;;;;;0 / 0;164512;2022-10-31 20:23:09:805
13.9346;-18.1846;-2.478;-0.4075;-9.7731;-0.7001;1.3269;2.8368;1.5309;2.1142;1.5869;1.3016;1.0;-22.02;24.18;5.4;301.5;70.97;152.17;2.0;983.78;69.829;;;;NaN;;;;;0 / 0;165012;2022-10-31 20:23:10:305
2.0016;-12.2395;-0.3831;-1.9575;-9.5887;0.6292;-2.6393;-1.844;0.3884;-3.061;1.7811;-0.5951;1.0;-10.92;24.06;-15.78;84.93;68.09;31.3;2.0;983.68;62.686;;;;NaN;;;;;0 / 0;165512;2022-10-31 20:23:10:805
-6.8429;-19.9778;-11.1549;-2.1208;-9.0801;-3.0372;-5.4141;-1.5289;-12.0612;-1.0201;-0.4632;0.2796;1.0;-14.34;28.08;13.92;291.21;67.01;145.7;2.0;984.23;61.587;;;;NaN;;;;;0 / 0;166012;2022-10-31 20:23:11:305
5.8996;-10.2235;-0.5052;-1.7911;-9.266;2.6653;1.5924;-0.0645;-5.0739;1.0201;0.5362;0.5234;1.0;-14.28;22.14;-18.48;78.07;80.48;55.11;2.0;983.6;64.068;;;;NaN;;;;;0 / 0;166512;2022-10-31 20:23:11:805
-0.3926;-4.7932;-0.0742;-2.2632;-8.7068;-3.9036;1.6862;3.7003;2.3714;-0.9334;-2.1095;-0.1382;1.0;-14.7;25.98;14.1;286.29;75.41;138.58;2.0;983.68;64.542;;;;NaN;;;;;0 / 0;167012;2022-10-31 20:23:12:305
0.8811;-9.601;0.2155;-1.3086;-9.6843;0.8192;0.9136;1.187;-0.9341;1.4453;1.94;0.119;1.0;-17.7;26.1;-5.16;352.48;79.62;114.8;2.0;983.82;64.117;;;;NaN;;;;;0 / 0;167513;2022-10-31 20:23:12:806
-1.719;-14.7058;0.6105;-1.6542;-9.5456;-1.5217;1.0892;-3.7114;2.9966;-2.0769;-3.1516;-1.3948;1.0;-14.16;27.9;-2.7;32.77;73.76;52.96;2.0;983.56;52.991;;;;NaN;;;;;0 / 0;168012;2022-10-31 20:23:13:305
-3.7996;-11.6625;-9.0695;-1.8678;-8.8769;-3.7258;10.437;-0.365;-3.8976;1.5296;3.7371;-0.9287;1.0;-13.62;23.82;25.44;252.8;74.4;149.92;2.0;983.86;64.349;;;;NaN;;;;;0 / 0;168513;2022-10-31 20:23:13:806
1.6951;-9.795;-1.9513;-1.0062;-9.4426;2.4484;-0.3561;1.6659;-4.0142;0.4484;0.2986;0.0603;1.0;-20.64;25.44;-10.74;82.61;84.33;29.12;2.0;983.61;62.306;;;;NaN;;;;;0 / 0;169012;2022-10-31 20:23:14:305
-0.8763;-4.6519;-0.6967;-1.2043;-8.6626;-4.436;0.2778;3.8527;2.7673;1.6109;0.2405;-0.4534;1.0;-19.44;22.8;23.4;246.32;71.96;167.5;2.0;983.69;65.291;;;;NaN;;;;;0 / 0;169512;2022-10-31 20:23:14:805
-0.4166;-8.3297;-1.5371;-0.2214;-9.7969;0.376;1.4975;0.871;-2.0471;1.0971;1.1489;0.2381;1.0;-22.32;25.2;1.08;290.43;82.34;165.02;2.0;983.63;65.76;;;;NaN;;;;;0 / 0;170012;2022-10-31 20:23:15:305
-2.7318;-14.071;-1.7214;-1.5566;-9.0422;-3.4621;1.1256;1.6701;3.3328;-2.496;-1.7937;-0.4436;1.0;-14.58;26.46;7.98;307.87;80.14;125.68;2.0;983.71;60.67;;;;NaN;;;;;0 / 0;170512;2022-10-31 20:23:15:805
4.1994;-12.4813;1.1085;-2.2391;-9.1838;-2.6105;-2.499;-2.2321;0.3767;1.3305;2.0969;-0.6574;1.0;-13.92;25.32;15.42;284.52;68.23;145.39;2.0;984.19;62.225;;;;NaN;;;;;0 / 0;171013;2022-10-31 20:23:16:306
1.8842;-12.5986;-0.0287;-1.2064;-9.3957;2.5369;5.0634;-2.4511;-4.0955;0.5632;0.4421;0.3499;1.0;-17.4;20.34;-14.46;93.2;78.87;25.94;2.0;983.6;65.183;;;;NaN;;;;;0 / 0;171512;2022-10-31 20:23:16:805
-2.0255;-5.3106;-1.652;-2.6336;-8.3874;-4.3458;0.6631;2.8206;3.1176;1.3476;0.2656;-0.7869;1.0;-11.76;23.1;21.3;265.71;64.76;151.02;2.0;983.67;62.689;;;;NaN;;;;;0 / 0;172012;2022-10-31 20:23:17:305
-3.3351;-8.4016;-1.9178;-1.4088;-9.6003;-1.4213;1.4998;1.3687;1.0981;1.1429;1.3138;-0.1028;1.0;-18.0;24.36;13.8;290.3;68.7;142.89;2.0;984.02;70.791;;;;NaN;;;;;0 / 0;172512;2022-10-31 20:23:17:805
3.6464;-13.1947;-0.0958;-0.806;-9.6243;1.7008;3.1906;-3.7404;-1.7247;-1.9731;0.5044;0.7066;1.0;-21.12;21.06;-9.84;83.1;78.97;22.43;2.0;983.66;49.451;;;;NaN;;;;;0 / 0;173012;2022-10-31 20:23:18:305
-2.6312;-5.2053;-2.1715;-2.7809;-9.2194;-1.8543;-2.41;-8.0529;-6.2169;1.7184;-1.1516;-0.9537;1.0;-13.8;24.3;10.56;307.75;62.02;133.18;2.0;983.63;55.372;;;;NaN;;;;;0 / 0;173512;2022-10-31 20:23:18:805
-0.5746;-8.3513;-2.0518;-1.7085;-9.6443;-0.4887;2.2233;0.5676;-0.8137;0.9261;0.6028;-0.429;1.0;-18.0;23.76;5.1;322.2;73.54;124.22;2.0;983.68;59.578;;;;NaN;;;;;0 / 0;174012;2022-10-31 20:23:19:305
-2.5163;-9.8117;-0.0527;-1.3131;-9.6176;-1.3958;-1.0595;-0.0338;1.2066;-1.9615;0.1776;0.4678;1.0;-18.3;22.62;1.2;38.58;83.94;43.57;2.0;983.67;59.141;;;;NaN;;;;;0 / 0;174513;2022-10-31 20:23:19:806
-2.0255;-9.1294;-1.0582;-1.6004;-9.6202;-1.0295;-0.6693;2.2434;-0.091;0.3928;-0.5047;-0.374;1.0;-16.62;23.04;11.4;297.99;72.72;135.98;2.0;983.71;62.629;;;;NaN;;;;;0 / 0;175012;2022-10-31 20:23:20:305
-0.2658;-9.5651;-0.2634;-0.79;-9.7727;0.2011;1.2377;-0.3431;-1.0319;0.0214;-0.0771;-0.1535;1.0;-21.24;22.8;5.46;350.13;84.83;87.39;2.0;983.71;55.931;;;;NaN;;;;;0 / 0;175512;2022-10-31 20:23:20:805
0.6704;-10.3432;0.1532;-0.0342;-9.8056;-0.1397;0.7357;-0.09;-0.047;0.1222;-0.2396;-0.0307;1.0;-22.86;22.44;4.68;314.38;87.27;125.15;2.0;983.76;51.055;;;;NaN;;;;;0 / 0;176012;2022-10-31 20:23:21:305
-0.5866;-10.1421;0.4573;-0.1771;-9.8012;0.2742;-0.1581;0.248;-0.0396;0.0855;-0.0619;-0.0063;1.0;-21.24;22.74;5.04;34.75;88.76;41.11;2.0;983.75;53.135;;;;NaN;;;;;0 / 0;176514;2022-10-31 20:23:21:807
0.1484;-9.9817;0.261;-0.3036;-9.7992;0.2306;-0.0292;-0.1059;0.0615;-0.0745;-0.1315;0.078;1.0;-20.04;22.38;7.14;25.94;86.76;43.33;2.0;983.68;61.894;;;;NaN;;;;;0 / 0;177014;2022-10-31 20:23:22:307
-1.2665;-9.9793;-2.8635;-1.4492;-9.5118;-1.8961;0.1922;-0.8889;-1.1708;-1.686;-0.4846;0.5667;1.0;-16.2;22.08;13.8;312.83;84.76;99.84;2.0;983.67;59.962;;;;NaN;;;;;0 / 0;177513;2022-10-31 20:23:22:806
-1.8411;-9.3377;0.5339;-0.2896;-9.3203;-3.036;-3.4765;-2.1027;-1.9107;0.9261;0.535;0.411;1.0;-21.3;18.12;16.68;259.21;66.99;168.8;2.0;983.94;62.65;;;;NaN;;;;;0 / 0;178013;2022-10-31 20:23:23:306
2.0423;-12.0431;-4.0965;-0.2209;-9.6763;1.5781;-1.4885;1.4232;-1.456;0.014;0.8496;0.1874;1.0;-20.88;20.64;-7.92;95.47;87.4;12.96;2.0;983.65;57.847;;;;NaN;;;;;0 / 0;178512;2022-10-31 20:23:23:805
-2.3415;-3.292;-2.818;-1.6565;-8.1677;-5.1686;0.153;3.4176;3.5046;1.7;-0.1822;-1.159;1.0;-14.34;19.02;30.42;230.98;62.27;170.35;2.0;983.8;65.074;;;;NaN;;;;;0 / 0;179012;2022-10-31 20:23:24:305
-0.8523;-8.8301;-1.5155;0.2987;-9.7965;0.3308;-0.0976;1.3447;-0.4768;0.9456;1.031;-0.2512;1.0;-24.84;25.86;8.64;254.02;84.93;-178.97;2.0;983.7;64.035;;;;NaN;;;;;0 / 0;179513;2022-10-31 20:23:24:806
-0.3065;-11.8564;1.5538;-0.6368;-9.0512;-3.7203;1.2617;-2.9824;3.0715;-1.5003;-2.005;-0.8529;1.0;-21.66;24.48;20.4;260.97;80.36;154.67;2.0;983.56;61.945;;;;NaN;;;;;0 / 0;180012;2022-10-31 20:23:25:305
0.905;-4.561;-3.5075;-0.7736;-8.9882;-3.8451;-1.6015;-6.1127;-1.5039;-0.0947;-0.9494;-0.7002;1.0;-17.64;21.6;31.74;234.97;66.07;169.02;2.0;983.78;56.571;;;;NaN;;;;;0 / 0;180513;2022-10-31 20:23:25:806
0.7805;-8.5404;0.2729;0.0529;-9.7758;-0.7755;0.5337;-1.7885;-4.7794;0.0116;0.3908;0.0255;1.0;-23.7;26.52;16.02;252.46;82.56;170.68;2.0;983.64;63.891;;;;NaN;;;;;0 / 0;181012;2022-10-31 20:23:26:305
-0.5076;-9.6417;0.2298;0.0208;-9.8064;0.0551;0.197;-0.1346;0.3615;0.0409;-0.0796;0.0298;1.0;-24.9;27.24;11.58;229.52;89.03;-164.44;2.0;983.68;61.925;;;;NaN;;;;;0 / 0;181512;2022-10-31 20:23:26:805
-0.1101;-9.2635;-0.1125;0.0407;-9.8024;0.2862;0.17;-0.1698;-1.6366;0.2162;0.4134;-0.024;1.0;-23.46;27.18;11.16;95.44;88.86;-32.21;2.0;983.79;57.494;;;;NaN;;;;;0 / 0;182012;2022-10-31 20:23:27:305
-0.2346;-9.2683;-1.1516;-0.9729;-9.6429;-1.4957;0.6186;0.1592;0.1453;-1.6725;-0.542;0.1019;1.0;-18.54;28.44;14.16;345.91;85.06;69.09;2.0;983.81;60.481;;;;NaN;;;;;0 / 0;182512;2022-10-31 20:23:27:805
-1.81;-7.0608;-6.3186;-0.4208;-9.0993;-3.6327;-1.9494;0.7576;-2.8392;0.3525;0.5734;-0.6892;1.0;-20.16;21.24;29.94;247.83;65.8;161.6;2.0;983.91;62.851;;;;NaN;;;;;0 / 0;183012;2022-10-31 20:23:28:305
1.3767;-7.9467;-1.6592;-0.1097;-9.6279;1.8607;0.6868;0.7882;-2.5383;1.1594;1.1141;0.1831;1.0;-26.34;25.86;-3.6;120.13;86.38;-24.53;2.0;983.68;65.705;;;;NaN;;;;;0 / 0;183512;2022-10-31 20:23:28:805
-2.0901;-4.0007;-0.0335;-1.5027;-8.6851;-4.299;0.0614;2.6442;4.4355;0.9896;-0.5591;-0.4669;1.0;-12.48;16.62;37.08;221.6;69.32;164.31;2.0;983.69;69.389;;;;NaN;;;;;0 / 0;184012;2022-10-31 20:23:29:305
-2.7653;-6.0193;-2.7414;-0.7511;-9.727;-0.9959;-2.505;2.1586;1.458;1.8882;3.4744;-0.2812;1.0;-13.38;21.78;27.9;247.44;68.6;153.72;2.0;984.11;61.543;;;;NaN;;;;;0 / 0;184513;2022-10-31 20:23:29:806
-5.7105;-11.8923;1.7166;-0.481;-9.7532;-0.9017;-0.1917;-3.0489;4.3422;-2.6078;-2.8175;-0.2195;1.0;-19.14;22.44;17.1;25.99;77.05;17.89;2.0;983.53;58.589;;;;NaN;;;;;0 / 0;185012;2022-10-31 20:23:30:305
-8.6889;-1.7142;7.4726;-0.7493;-9.1723;-3.3879;6.1797;-8.737;5.3559;0.8564;-1.1571;0.3126;1.0;-6.24;13.14;33.12;227.41;59.64;156.06;2.0;984.39;66.43;;;;NaN;;;;;0 / 0;185512;2022-10-31 20:23:30:805
-0.0168;-14.9596;-2.6671;-0.631;-9.7567;0.7604;-0.2908;-2.7413;-1.5337;-0.9029;0.7708;-0.2775;1.0;-18.54;22.86;5.28;47.41;77.93;17.97;2.0;983.68;64.356;;;;NaN;;;;;0 / 0;186012;2022-10-31 20:23:31:305
-1.4605;-3.5506;-2.5067;-0.8325;-9.1079;-3.5387;-4.2914;-6.0025;-3.0505;2.2663;0.2625;-0.4491;1.0;-16.5;16.8;27.0;243.7;61.54;164.82;2.0;983.68;60.701;;;;NaN;;;;;0 / 0;186512;2022-10-31 20:23:31:805
0.2131;-10.384;-1.1923;0.1844;-9.8002;0.3019;0.6703;1.109;0.1315;0.9536;0.8056;0.4024;1.0;-26.22;20.88;8.34;247.48;82.25;-168.83;2.0;983.67;66.069;;;;NaN;;;;;0 / 0;187012;2022-10-31 20:23:32:305
-0.9768;-8.04;-1.7334;-0.8945;-9.1358;-3.4506;3.9279;-4.3438;5.2342;-1.4722;-2.063;-0.2677;1.0;-22.2;20.46;18.42;280.79;81.48;135.75;2.0;983.61;60.156;;;;NaN;;;;;0 / 0;187512;2022-10-31 20:23:32:805
-6.9746;-4.4341;0.0622;-0.8792;-9.05;-3.6736;1.5208;-2.342;-2.973;1.471;0.4727;0.3474;1.0;-13.98;14.1;32.46;228.34;68.56;163.87;2.0;983.85;60.441;;;;NaN;;;;;0 / 0;188012;2022-10-31 20:23:33:305
1.3479;-10.6473;-1.0175;-0.2641;-9.6736;1.5881;5.7567;-0.9115;-1.5187;0.2517;-0.1162;0.3022;1.0;-21.24;23.52;9.84;56.02;83.77;3.32;2.0;983.62;59.37;;;;NaN;;;;;0 / 0;188513;2022-10-31 20:23:33:806
0.8787;-8.9546;-1.4653;-1.5941;-8.1976;-5.1408;0.8064;1.721;3.9509;-1.226;-2.4076;-0.8309;1.0;-5.94;8.64;37.68;209.95;62.63;165.03;2.0;983.71;63.941;;;;NaN;;;;;0 / 0;189013;2022-10-31 20:23:34:306
4.2234;-10.5539;-2.6887;-0.3888;-9.4912;-2.4364;6.0418;-2.9757;3.5833;1.8692;2.7213;-0.9415;1.0;-6.42;15.48;32.04;215.71;66.28;163.66;2.0;983.9;63.322;;;;NaN;;;;;0 / 0;189512;2022-10-31 20:23:34:805
2.8706;-10.7766;-0.5698;0.2182;-9.7922;0.4857;-2.9812;0.1552;-1.1944;-0.1332;0.5692;-0.0918;1.0;-16.8;21.72;17.52;78.16;88.17;-36.38;2.0;983.64;54.542;;;;NaN;;;;;0 / 0;190012;2022-10-31 20:23:35:305
-2.387;-6.4311;-3.2609;-1.7764;-8.2556;-4.9859;0.7229;0.8644;1.8328;-0.0611;-0.6214;-0.0759;1.0;-9.48;10.14;36.54;216.93;63.11;164.09;2.0;983.66;56.312;;;;NaN;;;;;0 / 0;190512;2022-10-31 20:23:35:805
2.6767;-11.3392;-1.0343;-1.3504;-9.1691;-3.2054;-1.9033;-3.3816;-0.939;1.1258;0.6742;-0.2146;1.0;-5.52;13.26;35.28;216.22;65.52;161.34;2.0;983.9;60.908;;;;NaN;;;;;0 / 0;191013;2022-10-31 20:23:36:306
0.1077;-10.3097;-0.7374;-0.073;-9.8063;0.0432;0.0275;-0.5083;-1.6737;0.1032;0.4873;-0.093;1.0;-12.36;19.2;22.92;230.0;87.87;158.77;2.0;983.64;66.52;;;;NaN;;;;;0 / 0;191512;2022-10-31 20:23:36:805
-0.261;-9.4239;-0.4286;-0.6106;-9.6381;-1.704;-0.2561;0.978;0.9906;-2.3146;-0.8804;0.1782;1.0;-13.38;17.04;25.2;346.54;88.58;41.13;2.0;983.66;52.496;;;;NaN;;;;;0 / 0;192012;2022-10-31 20:23:37:305
-3.0574;-12.2538;-4.9683;-0.9051;-9.5153;-2.1929;0.7782;0.5703;4.9056;1.2492;-0.36;0.2246;1.0;-5.34;13.14;31.98;202.69;71.21;170.17;2.0;983.66;53.745;;;;NaN;;;;;0 / 0;192513;2022-10-31 20:23:37:806
-0.4741;-9.2922;0.7757;-0.4331;-9.7966;0.093;0.0524;-0.0678;-0.6101;0.1466;-0.0637;-0.0118;1.0;-6.9;19.5;25.08;273.43;86.84;104.64;2.0;983.7;58.327;;;;NaN;;;;;0 / 0;193012;2022-10-31 20:23:38:305
-0.5746;-9.9841;0.4645;-0.3331;-9.7898;0.4686;0.0601;0.1696;0.2018;0.0397;0.1611;0.0121;1.0;-7.92;20.04;22.5;345.62;86.89;34.17;2.0;983.69;54.789;;;;NaN;;;;;0 / 0;193513;2022-10-31 20:23:38:806
-0.5052;-9.6417;0.8356;-0.4587;-9.7666;0.7565;-0.0728;0.0818;0.0455;0.0128;-0.0631;0.0047;1.0;-8.16;19.62;22.02;349.41;85.08;31.3;2.0;983.62;48.838;;;;NaN;;;;;0 / 0;194012;2022-10-31 20:23:39:305
-0.6297;-9.6394;0.9002;-0.5006;-9.7564;0.8557;-0.0596;0.0093;0.0685;-0.0299;0.0053;-0.0063;1.0;-8.58;19.5;21.84;353.38;84.22;29.39;2.0;983.66;52.394;;;;NaN;;;;;0 / 0;194513;2022-10-31 20:23:39:806
-0.5602;-9.7399;0.5531;-0.5169;-9.7698;0.6741;-0.0936;0.0347;0.001;-0.047;0.1654;0.0188;1.0;-8.76;20.1;21.78;347.12;84.81;36.05;2.0;983.68;50.576;;;;NaN;;;;;0 / 0;195013;2022-10-31 20:23:40:306
-0.5243;-9.6681;0.5387;-0.5298;-9.7753;0.5765;-0.131;0.1695;0.0987;0.0104;0.0053;-0.002;1.0;-9.12;20.64;22.62;339.57;85.44;43.09;2.0;983.68;48.991;;;;NaN;;;;;0 / 0;195512;2022-10-31 20:23:40:805
-0.5339;-9.6777;0.5243;-0.5059;-9.7781;0.5512;8.0E-4;0.0142;-0.0939;-0.0086;-0.0295;-0.005;1.0;-9.18;18.54;22.68;339.74;85.55;42.76;2.0;983.71;49.48;;;;NaN;;;;;0 / 0;196012;2022-10-31 20:23:41:305
-0.4932;-9.7495;0.4812;-0.4983;-9.7799;0.5252;0.0051;0.095;-0.0224;0.011;0.0035;0.0066;1.0;-9.06;19.86;23.34;338.68;85.84;43.86;2.0;983.7;47.976;;;;NaN;;;;;0 / 0;196512;2022-10-31 20:23:41:805
-0.4908;-9.7064;0.4764;-0.4841;-9.7816;0.5065;0.0556;0.0704;0.0131;-0.0061;-0.016;-0.0044;1.0;-8.4;19.26;23.04;336.52;85.85;43.89;2.0;983.71;47.845;;;;NaN;;;;;0 / 0;197012;2022-10-31 20:23:42:305
-0.4381;-9.7279;0.4621;-0.4464;-9.7841;0.4922;0.0681;0.0729;0.0322;0.0092;-0.0197;-0.002;1.0;-8.1;19.5;22.5;337.29;86.12;43.07;2.0;983.69;54.335;;;;NaN;;;;;0 / 0;197512;2022-10-31 20:23:42:805
-0.4429;-9.7303;0.4501;-0.4588;-9.7835;0.493;0.059;0.1322;0.0433;-0.0153;0.0664;0.0102;1.0;-8.46;19.26;24.3;337.43;86.06;42.1;2.0;983.74;52.881;;;;NaN;;;;;0 / 0;198012;2022-10-31 20:23:43:305
-0.6321;-9.558;0.7925;-0.3997;-9.7822;0.5643;0.2776;0.0304;-0.3632;-0.0208;-0.1168;0.0383;1.0;-8.7;19.68;23.16;342.65;86.3;39.58;2.0;983.78;53.648;;;;NaN;;;;;0 / 0;198512;2022-10-31 20:23:43:805
-0.7781;-9.8764;0.3711;-0.5078;-9.7803;0.5074;-0.0022;0.0739;-0.2345;-0.1008;-0.1791;0.1037;1.0;-4.92;19.02;23.58;336.86;85.9;36.1;2.0;983.77;52.692;;;;NaN;;;;;0 / 0;199012;2022-10-31 20:23:44:305
-1.1325;-8.6721;-2.0399;-1.1247;-9.5282;-2.0296;-0.1849;-0.7217;0.9402;-1.5547;-1.4027;-0.1938;1.0;2.34;14.04;31.92;232.84;83.12;126.18;2.0;983.69;57.791;;;;NaN;;;;;0 / 0;199512;2022-10-31 20:23:44:805
1.1588;-8.2675;-0.3328;-0.4127;-9.6648;-1.6099;-0.6791;0.387;-2.2951;0.292;0.728;-0.6074;1.0;-0.96;14.04;31.26;188.84;75.92;174.24;2.0;983.71;60.089;;;;NaN;;;;;0 / 0;200012;2022-10-31 20:23:45:305
0.7997;-9.85;-0.3112;0.3409;-9.8006;0.0397;0.339;0.257;0.0991;0.1136;0.2106;0.0701;1.0;-7.86;18.12;26.58;91.45;88.06;-76.19;2.0;983.77;56.601;;;;NaN;;;;;0 / 0;200512;2022-10-31 20:23:45:805
-0.3017;-9.9195;0.2298;0.2493;-9.7979;-0.3307;0.3708;-0.1599;0.1727;-0.6726;0.2234;0.0597;1.0;-7.56;18.0;25.74;103.72;86.78;-88.71;2.0;983.69;55.492;;;;NaN;;;;;0 / 0;201012;2022-10-31 20:23:46:305
-3.1077;-7.3792;-2.6169;-2.5829;-8.5047;-4.1436;0.1408;0.9004;0.9425;0.4991;0.3969;0.0078;1.0;6.12;6.24;38.28;203.57;59.88;152.18;2.0;983.87;56.283;;;;NaN;;;;;0 / 0;201512;2022-10-31 20:23:46:805
-3.9863;-10.8891;-2.2577;-1.5968;-9.3604;-2.4501;-0.6178;0.2909;0.0343;1.438;1.0322;-0.2109;1.0;-2.1;13.08;31.44;230.99;66.41;143.03;2.0;983.69;60.208;;;;NaN;;;;;0 / 0;202013;2022-10-31 20:23:47:306
-1.8723;-9.1797;-2.478;-1.8137;-9.3807;-2.2098;-0.1113;-0.2467;-0.1963;-0.1655;-0.0185;0.0634;1.0;-2.46;13.38;31.86;229.01;73.31;140.96;2.0;983.64;50.577;;;;NaN;;;;;0 / 0;202512;2022-10-31 20:23:47:805
-1.7406;-9.2635;-2.4349;-2.0011;-9.2945;-2.4039;0.0737;-0.0791;-0.0837;-0.0195;0.0725;0.006;1.0;-3.96;14.1;30.9;236.53;71.19;139.47;2.0;983.68;49.76;;;;NaN;;;;;0 / 0;203012;2022-10-31 20:23:48:305
-1.9249;-9.3305;-2.5067;-1.9506;-9.3068;-2.3977;-0.0581;0.0409;-0.0492;-0.0244;-0.013;0.0011;1.0;-4.32;13.44;32.76;233.18;71.81;140.94;2.0;983.7;44.733;;;;NaN;;;;;0 / 0;203512;2022-10-31 20:23:48:805
-2.0518;-9.2323;-2.2314;-2.0334;-9.295;-2.3744;-0.0256;0.0531;0.1454;-0.1264;-0.2292;0.1025;1.0;-3.72;13.62;31.14;235.52;71.62;140.16;2.0;983.73;42.67;;;;NaN;;;;;0 / 0;204013;2022-10-31 20:23:49:306
-2.2865;-9.1821;-2.4588;-2.2181;-9.2594;-2.3479;0.0346;-0.0375;0.0495;-0.0116;0.1226;-0.0081;1.0;-3.3;13.8;31.02;238.93;70.51;135.82;2.0;983.9;50.57;;;;NaN;;;;;0 / 0;204512;2022-10-31 20:23:49:805
-2.0662;-9.4071;-2.4397;-1.9074;-9.3194;-2.3833;-0.0104;0.1326;0.025;0.1802;0.0353;-0.0826;1.0;-4.86;13.5;31.74;234.24;70.72;143.13;2.0;983.64;51.602;;;;NaN;;;;;0 / 0;205013;2022-10-31 20:23:50:306
-2.0375;-9.2228;-2.2458;-2.0598;-9.3073;-2.3023;0.0176;-0.1141;0.0637;-0.0171;-0.0283;0.0023;1.0;-3.48;14.1;30.72;235.62;71.59;138.29;2.0;983.66;44.11;;;;NaN;;;;;0 / 0;205512;2022-10-31 20:23:50:805
-1.8794;-9.273;-2.3439;-1.9927;-9.3065;-2.364;0.0414;0.1029;0.0057;-0.0232;0.0292;0.009;1.0;-4.5;13.74;31.14;236.92;71.75;138.8;2.0;983.69;43.077;;;;NaN;;;;;0 / 0;206013;2022-10-31 20:23:51:306
-1.9106;-9.2898;-2.4541;-1.975;-9.3079;-2.3731;0.0524;0.0229;-0.1313;-0.0128;5.0E-4;-0.0032;1.0;-4.38;13.2;30.66;235.13;71.69;140.01;2.0;983.71;43.73;;;;NaN;;;;;0 / 0;206512;2022-10-31 20:23:51:805
-1.8627;-9.1821;-2.375;-1.9691;-9.3078;-2.3787;0.0777;0.0778;0.0061;0.011;-0.0362;-0.0014;1.0;-4.02;14.04;31.44;235.19;71.59;140.5;2.0;983.72;45.847;;;;NaN;;;;;0 / 0;207013;2022-10-31 20:23:52:306
-2.0638;-9.2228;-2.2673;-2.017;-9.3074;-2.3398;-0.03;0.0367;0.051;-6.0E-4;0.0017;-8.0E-4;1.0;-3.9;13.62;30.96;236.24;71.61;139.5;2.0;983.73;47.238;;;;NaN;;;;;0 / 0;207513;2022-10-31 20:23:52:806
-1.9082;-9.2419;-2.3894;-2.0004;-9.3079;-2.352;0.0683;0.0492;-0.0302;0.0;0.0127;0.0035;1.0;-3.9;13.26;31.14;235.78;71.63;139.43;2.0;983.73;49.973;;;;NaN;;;;;0 / 0;208012;2022-10-31 20:23:53:305
-2.0063;-9.2323;-2.308;-2.0097;-9.308;-2.3433;0.0034;0.047;0.0305;0.0;-0.0081;0.0053;1.0;-3.48;13.68;30.36;234.57;71.63;139.65;2.0;983.75;47.822;;;;NaN;;;;;0 / 0;208512;2022-10-31 20:23:53:805
-1.9704;-9.2491;-2.3439;-2.0201;-9.3043;-2.3495;0.0329;0.0169;8.0E-4;0.0043;0.0108;0.0078;1.0;-4.02;13.92;31.2;236.5;71.57;139.29;2.0;983.75;47.402;;;;NaN;;;;;0 / 0;209012;2022-10-31 20:23:54:305
-1.9992;-9.2132;-2.3343;-2.0342;-9.3024;-2.3445;-0.0416;-0.0113;0.0581;0.0098;-0.0032;0.0017;1.0;-3.84;14.52;31.26;237.26;71.56;139.09;2.0;983.76;52.64;;;;NaN;;;;;0 / 0;209512;2022-10-31 20:23:54:805
-1.9824;-9.273;-2.3272;-2.0334;-9.302;-2.3468;-0.0112;0.0122;0.0508;0.0043;0.0145;0.0029;1.0;-3.66;14.16;31.44;236.8;71.55;139.02;2.0;983.72;53.852;;;;NaN;;;;;0 / 0;210012;2022-10-31 20:23:55:305
-2.0303;-9.2635;-2.3343;-2.0332;-9.3037;-2.3404;0.07;0.1192;0.0109;6.0E-4;0.009;0.0017;1.0;-3.12;13.5;32.04;234.43;71.57;139.02;2.0;983.74;51.581;;;;NaN;;;;;0 / 0;210512;2022-10-31 20:23:55:805
-2.0255;-9.2874;-2.2482;-2.0442;-9.3074;-2.316;0.0331;0.0224;0.0055;-0.0079;-0.0209;5.0E-4;1.0;-3.9;13.68;30.66;237.18;71.65;138.61;2.0;983.74;50.444;;;;NaN;;;;;0 / 0;211012;2022-10-31 20:23:56:305
-2.0638;-9.2922;-2.2936;-2.0536;-9.307;-2.3092;0.0353;0.0818;0.0324;-0.0073;0.0053;-0.005;1.0;-3.6;14.04;31.44;237.51;71.66;138.29;2.0;983.72;55.511;;;;NaN;;;;;0 / 0;211512;2022-10-31 20:23:56:805
-1.8603;-8.6817;-1.4246;-2.1962;-9.1813;-2.6552;-0.7439;-1.1356;0.9697;-0.4936;-0.0673;0.2723;1.0;-3.66;13.44;31.98;235.8;71.53;139.03;2.0;983.74;52.816;;;;NaN;;;;;0 / 0;212013;2022-10-31 20:23:57:306
-2.5498;-8.3082;-4.6448;-1.8285;-9.2027;-2.8526;-0.0868;0.9089;-3.636;-0.0733;0.2979;0.1067;1.0;-4.14;12.0;33.06;226.65;69.84;147.44;2.0;983.73;55.457;;;;NaN;;;;;0 / 0;212512;2022-10-31 20:23:57:805
-2.3415;-7.0847;-2.4397;-2.0347;-8.4619;-4.5196;0.5001;0.9653;2.9562;1.1863;0.9204;-0.7057;1.0;-0.3;4.02;37.5;214.6;55.66;152.37;2.0;983.74;58.454;;;;NaN;;;;;0 / 0;213013;2022-10-31 20:23:58:306
-0.6488;-8.9355;-0.8906;0.4271;-9.7973;0.0334;-0.4032;-0.2922;-1.3095;0.0342;-0.0496;0.1159;1.0;-7.5;17.76;25.26;88.12;86.99;-74.56;2.0;983.66;61.251;;;;NaN;;;;;0 / 0;213512;2022-10-31 20:23:58:805
0.8116;-9.5364;-0.9936;0.3837;-9.7935;-0.3316;0.0712;0.5444;-0.5471;0.2034;0.4275;0.1367;1.0;-8.88;17.82;25.92;147.85;86.69;-129.95;2.0;983.73;54.487;;;;NaN;;;;;0 / 0;214013;2022-10-31 20:23:59:306
-2.7102;-10.1134;-1.7358;-0.5272;-9.6289;-1.7823;-0.0139;-1.1788;1.4519;-2.0476;-0.1242;0.8355;1.0;-11.34;16.86;25.08;181.22;88.28;-157.45;2.0;983.75;51.928;;;;NaN;;;;;0 / 0;214512;2022-10-31 20:23:59:805
0.0263;-8.696;-1.7478;-1.2956;-9.5633;-1.7422;-1.2686;0.2663;3.7773;1.0067;-0.3673;0.6712;1.0;-11.1;16.44;24.48;233.66;74.45;159.69;2.0;983.81;59.346;;;;NaN;;;;;0 / 0;215012;2022-10-31 20:24:00:305
-0.8116;-10.4582;-1.0415;-0.5693;-9.789;0.1466;-0.1514;-0.1999;-0.4914;0.1338;-0.1303;-0.1003;1.0;-13.62;20.04;17.82;324.84;86.26;74.86;2.0;983.65;56.85;;;;NaN;;;;;0 / 0;215512;2022-10-31 20:24:00:805
-0.1628;-9.1725;1.3647;-0.4021;-9.7971;0.1574;-0.3473;0.9814;0.8075;0.1582;-0.1547;-0.0698;1.0;-14.46;18.9;18.96;346.19;87.39;50.68;2.0;983.65;51.027;;;;NaN;;;;;0 / 0;216012;2022-10-31 20:24:01:305
-0.3184;-9.5747;0.5698;-0.3926;-9.7871;0.4786;0.1149;0.131;-0.2032;0.0342;0.0951;-0.0026;1.0;-13.98;19.8;18.78;352.38;86.74;44.36;2.0;983.68;49.544;;;;NaN;;;;;0 / 0;216512;2022-10-31 20:24:01:805
-0.4932;-9.4765;0.2346;-0.5503;-9.7621;0.7544;-0.1871;0.0557;-0.0649;-0.1448;0.0744;0.0481;1.0;-14.34;19.62;17.76;0.79;84.89;37.03;2.0;983.74;59.197;;;;NaN;;;;;0 / 0;217012;2022-10-31 20:24:02:305
-0.6752;-9.5963;0.146;-0.62;-9.7821;0.3098;-0.0599;0.035;-0.0656;-0.0702;-0.0166;0.0053;1.0;-13.5;18.9;18.84;338.57;85.84;57.01;2.0;983.75;49.957;;;;NaN;;;;;0 / 0;217512;2022-10-31 20:24:02:805
-0.4166;-9.6705;0.1053;-0.5462;-9.7891;0.2104;0.1296;0.1067;-0.1434;0.0049;-0.0619;-0.0087;1.0;-13.86;18.18;20.22;324.25;86.39;72.24;2.0;983.73;44.162;;;;NaN;;;;;0 / 0;218012;2022-10-31 20:24:03:305
-0.5722;-9.783;0.2562;-0.5655;-9.7867;0.2658;-0.069;0.1234;-0.0695;-0.0122;0.006;0.0096;1.0;-13.56;18.84;19.74;331.91;86.39;64.35;2.0;983.74;44.688;;;;NaN;;;;;0 / 0;218513;2022-10-31 20:24:03:806
-0.7638;-9.6561;0.3591;-0.7041;-9.7795;0.1874;-0.2655;0.1761;0.0904;-0.014;0.0469;0.0304;1.0;-13.32;19.08;19.44;325.91;86.25;70.15;2.0;983.71;47.877;;;;NaN;;;;;0 / 0;219013;2022-10-31 20:24:04:306
-0.1006;-9.7423;0.0024;-0.4813;-9.7936;0.1521;0.0432;-0.0085;-0.1066;0.014;-0.0276;-0.0313;1.0;-14.04;19.2;19.02;323.02;86.12;75.17;2.0;983.71;48.675;;;;NaN;;;;;0 / 0;219512;2022-10-31 20:24:04:805
-0.4764;-9.7734;0.2322;-0.4761;-9.7918;0.2548;-0.0147;0.0782;-0.0441;-0.0434;-0.0368;0.0249;1.0;-13.38;18.84;19.5;337.12;87.06;56.79;2.0;983.71;52.689;;;;NaN;;;;;0 / 0;220012;2022-10-31 20:24:05:305
-0.4525;-9.0169;-0.1365;-0.5606;-9.7878;0.2348;0.3451;-0.0024;0.1603;0.0183;-0.0307;0.0579;1.0;-12.84;18.72;19.62;325.11;86.54;69.44;2.0;983.73;57.044;;;;NaN;;;;;0 / 0;220512;2022-10-31 20:24:05:805
-2.3343;-9.4981;-0.1125;-0.889;-9.7657;0.1055;-0.9546;0.1096;-0.2204;-0.1191;0.4256;0.0548;1.0;-11.7;18.42;21.96;324.37;85.64;65.99;2.0;983.73;63.015;;;;NaN;;;;;0 / 0;221012;2022-10-31 20:24:06:305
-1.1684;-9.8644;-0.1748;-0.5803;-9.7773;-0.4871;0.0176;0.0877;0.1759;0.1955;0.9198;-0.2133;1.0;-18.6;17.82;17.88;274.15;83.12;137.12;2.0;983.78;52.3;;;;NaN;;;;;0 / 0;221512;2022-10-31 20:24:06:805
2.5953;-10.1086;0.1341;1.7754;-9.6446;-0.0048;-0.4681;0.3572;-0.1173;0.0257;0.2002;0.006;1.0;-24.42;17.04;9.84;157.23;82.52;-91.91;2.0;983.88;59.588;;;;NaN;;;;;0 / 0;222012;2022-10-31 20:24:07:305
1.1516;-9.9075;0.2777;1.071;-9.7419;-0.3453;-0.0487;0.1767;0.738;-0.215;-0.487;0.1141;1.0;-22.68;18.42;12.78;151.3;81.77;-93.72;2.0;983.78;56.444;;;;NaN;;;;;0 / 0;222512;2022-10-31 20:24:07:805
-1.1588;-9.3329;-1.3144;0.0098;-9.7069;-1.3952;-3.2324;0.6996;-0.264;-0.2077;0.1575;0.2582;1.0;-15.72;17.82;20.46;212.35;82.51;-170.66;2.0;983.66;57.641;;;;NaN;;;;;0 / 0;223013;2022-10-31 20:24:08:306
-0.6488;-9.9889;-1.8316;-0.9928;-9.714;-0.9066;-0.573;0.3572;0.0135;0.193;0.0023;-0.0209;1.0;-16.2;17.22;19.68;258.91;82.02;145.1;2.0;983.67;50.734;;;;NaN;;;;;0 / 0;223512;2022-10-31 20:24:08:805
-0.5076;-9.7543;-0.0335;-0.7475;-9.7577;-0.6308;-0.0641;-0.0755;-0.3221;0.091;-0.1724;-0.0594;1.0;-16.2;18.24;19.2;261.13;83.64;143.6;2.0;983.74;51.309;;;;NaN;;;;;0 / 0;224013;2022-10-31 20:24:09:306
-0.4525;-9.6896;0.0168;-0.4408;-9.7966;0.0474;-0.0309;0.0926;-0.0235;0.0342;0.0273;-0.0307;1.0;-17.16;18.66;18.0;317.42;87.15;87.39;2.0;983.75;56.298;;;;NaN;;;;;0 / 0;224513;2022-10-31 20:24:09:806
-0.2634;-9.7878;0.1365;-0.2278;-9.8031;0.1336;0.1488;0.1422;-0.0402;0.033;-0.068;-0.0234;1.0;-17.82;18.6;16.92;334.99;88.36;72.17;2.0;983.69;55.829;;;;NaN;;;;;0 / 0;225013;2022-10-31 20:24:10:306
-0.1867;-9.7088;0.3352;-0.1178;-9.8001;0.3374;0.1249;-0.0403;-0.0142;0.0489;-0.159;-0.0038;1.0;-16.32;17.88;17.7;14.25;88.2;27.06;2.0;983.68;52.697;;;;NaN;;;;;0 / 0;225512;2022-10-31 20:24:10:805
-0.7494;-9.6082;0.7278;-0.1703;-9.7954;0.438;-0.0931;-0.1959;0.0959;-0.2028;-0.0447;0.1031;1.0;-15.18;19.26;18.42;26.55;87.22;12.27;2.0;983.73;56.819;;;;NaN;;;;;0 / 0;226013;2022-10-31 20:24:11:306
-0.8068;-9.5125;-0.4334;-0.7711;-9.7738;-0.2211;-0.505;-0.1242;0.5539;-0.7227;-0.2836;0.3004;1.0;-11.4;18.3;22.08;334.43;86.44;53.22;2.0;983.72;63.808;;;;NaN;;;;;0 / 0;226513;2022-10-31 20:24:11:806
-1.9728;-9.7878;-2.399;-1.1065;-9.2568;-3.0424;-0.8161;-0.44;0.5285;-0.3427;0.2558;-0.2702;1.0;-7.5;11.34;31.56;226.66;72.01;151.55;2.0;983.7;56.799;;;;NaN;;;;;0 / 0;227012;2022-10-31 20:24:12:305
-1.1253;-8.3848;-2.6504;-0.4347;-9.6515;-1.682;2.331;-5.1213;-1.792;1.1448;0.4543;0.3737;1.0;-14.76;13.5;27.42;235.76;66.4;164.8;2.0;983.77;58.465;;;;NaN;;;;;0 / 0;227513;2022-10-31 20:24:12:806
2.0925;-9.874;-0.3807;0.7334;-9.7712;0.3943;-0.6999;0.6634;0.3479;0.2645;-0.3612;-0.0918;1.0;-16.68;16.62;21.6;115.94;87.18;-79.82;2.0;983.77;60.196;;;;NaN;;;;;0 / 0;228012;2022-10-31 20:24:13:305
0.9457;-9.3042;-0.0048;0.7676;-9.7323;0.9294;0.4559;-0.3955;-0.2662;0.1423;0.1452;0.1367;1.0;-13.26;18.9;21.54;75.22;83.34;-49.36;2.0;983.7;49.819;;;;NaN;;;;;0 / 0;228512;2022-10-31 20:24:13:805
-1.0894;-9.7399;-1.3264;-0.3571;-9.7744;-0.709;0.3571;0.6977;0.9125;-0.9707;-0.6544;0.1642;1.0;-12.3;16.44;24.54;28.79;88.29;-3.61;2.0;983.69;54.203;;;;NaN;;;;;0 / 0;229012;2022-10-31 20:24:14:305
-2.6791;-10.9705;-4.9563;-0.1303;-9.6592;-1.6891;-1.56;0.7788;1.6125;0.9627;-1.0576;0.4562;1.0;-1.68;12.18;31.26;193.42;72.29;172.45;2.0;983.68;53.179;;;;NaN;;;;;0 / 0;229512;2022-10-31 20:24:14:805
-0.6297;-10.044;0.2849;-0.173;-9.7989;0.3501;-0.629;-0.3098;-0.0245;0.0092;-0.0154;-0.002;1.0;1.68;17.34;24.72;302.54;87.88;54.08;2.0;983.71;53.849;;;;NaN;;;;;0 / 0;230012;2022-10-31 20:24:15:305
0.0048;-9.8668;0.5914;0.0899;-9.783;0.6751;-0.1306;0.3471;-0.0574;-0.0177;0.2283;-0.0179;1.0;-1.92;18.3;24.36;12.28;86.12;-8.11;2.0;983.72;55.966;;;;NaN;;;;;0 / 0;230513;2022-10-31 20:24:15:806
-0.1149;-9.5723;0.9433;0.1845;-9.7799;0.7002;-0.5293;0.2698;-0.0562;0.0525;-0.1852;-0.0063;1.0;-1.92;17.76;22.68;18.59;85.58;-14.66;2.0;983.77;45.261;;;;NaN;;;;;0 / 0;231012;2022-10-31 20:24:16:305
0.0383;-9.7016;0.6512;-0.0027;-9.7869;0.6223;0.0817;0.0685;0.3761;-0.0232;0.078;0.0237;1.0;-1.02;18.42;23.16;4.06;86.29;-1.77;2.0;983.76;44.704;;;;NaN;;;;;0 / 0;231513;2022-10-31 20:24:16:806
-0.4094;-9.6896;0.5363;-0.2141;-9.7943;0.4427;-0.0852;0.1118;0.1869;-0.1313;0.1379;0.0524;1.0;-1.56;18.12;23.82;351.24;86.79;13.88;2.0;983.69;45.366;;;;NaN;;;;;0 / 0;232012;2022-10-31 20:24:17:305
-0.7398;-8.0113;-3.0047;-0.8192;-9.474;-2.3964;-0.366;-1.5756;0.019;-1.1918;-0.4149;-0.1364;1.0;-0.66;11.88;32.28;218.13;83.39;145.38;2.0;983.68;48.108;;;;NaN;;;;;0 / 0;232512;2022-10-31 20:24:17:805
0.984;-10.372;1.0295;0.0888;-9.7909;-0.5483;-0.4742;0.3981;0.103;0.587;0.3034;0.0298;1.0;-9.48;15.54;26.4;218.13;81.92;164.14;2.0;983.78;51.705;;;;NaN;;;;;0 / 0;233012;2022-10-31 20:24:18:305
0.6752;-9.5723;-0.6249;0.9456;-9.7568;-0.2835;-0.2297;-0.2536;-0.6023;-0.0947;0.1257;-0.1736;1.0;-12.96;16.44;23.46;134.86;84.17;-108.04;2.0;983.84;59.026;;;;NaN;;;;;0 / 0;233513;2022-10-31 20:24:18:806
1.5706;-9.5029;-0.2083;0.9856;-9.7561;-0.1336;0.3408;-0.2209;-0.3284;-0.0318;-0.0392;-0.0142;1.0;-13.02;16.62;23.76;130.69;84.17;-105.15;2.0;983.82;49.903;;;;NaN;;;;;0 / 0;234012;2022-10-31 20:24:19:305
0.7111;-9.8453;0.1676;0.6494;-9.785;0.054;-0.0245;0.0522;0.0753;-0.011;0.0542;0.0725;1.0;-11.94;17.88;22.86;114.41;85.94;-89.48;2.0;983.8;49.926;;;;NaN;;;;;0 / 0;234513;2022-10-31 20:24:19:806
0.1963;-9.6705;0.5938;0.6634;-9.7827;0.1713;0.2608;-0.0075;0.0082;-0.2236;-0.0881;-0.2702;1.0;-12.18;16.38;22.8;89.06;86.51;-63.66;2.0;983.74;53.466;;;;NaN;;;;;0 / 0;235013;2022-10-31 20:24:20:306
0.4525;-9.7279;-0.0168;0.7241;-9.7778;0.2013;-0.2668;0.1983;-0.0649;-0.0024;-0.0142;-0.0044;1.0;-13.62;16.5;22.92;97.64;86.1;-68.78;2.0;983.75;46.95;;;;NaN;;;;;0 / 0;235512;2022-10-31 20:24:20:805
0.5004;-9.7543;0.0646;0.673;-9.7834;-0.0481;-0.0146;0.1321;-0.0141;0.0037;-0.1675;-0.0154;1.0;-12.36;16.8;23.88;115.53;86.21;-91.19;2.0;983.72;48.289;;;;NaN;;;;;0 / 0;236012;2022-10-31 20:24:21:305
0.9074;-9.7208;-0.2538;0.6154;-9.7861;-0.152;0.2489;0.0151;-0.0969;-0.0012;0.0615;0.0163;1.0;-12.24;15.78;23.28;126.67;86.42;-100.94;2.0;983.72;44.556;;;;NaN;;;;;0 / 0;236513;2022-10-31 20:24:21:806
0.8787;-9.6633;0.0168;0.7085;-9.7801;-0.1361;-0.0333;0.1096;-0.0219;0.0031;0.0322;0.0041;1.0;-13.74;16.38;24.48;130.77;85.88;-102.39;2.0;983.71;52.762;;;;NaN;;;;;0 / 0;237012;2022-10-31 20:24:22:305
0.5938;-9.6801;-0.4166;0.6885;-9.7794;-0.2419;0.1495;0.1209;-0.1172;0.0024;-0.0331;-0.0069;1.0;-13.62;16.08;22.98;134.4;85.65;-105.0;2.0;983.66;55.81;;;;NaN;;;;;0 / 0;237512;2022-10-31 20:24:22:805
0.7566;-9.6417;-0.1053;0.7275;-9.7792;-0.0926;-0.0332;-0.1882;0.016;-0.0385;0.0231;-0.0307;1.0;-13.44;16.02;23.04;127.63;85.75;-100.27;2.0;983.67;49.197;;;;NaN;;;;;0 / 0;238012;2022-10-31 20:24:23:305
1.1516;-9.7519;-0.158;0.749;-9.7761;-0.1908;-0.0379;0.2996;-0.1349;-0.0226;0.064;0.0396;1.0;-14.34;16.08;23.4;130.05;85.51;-100.85;2.0;983.71;45.61;;;;NaN;;;;;0 / 0;238512;2022-10-31 20:24:23:805
0.7183;-9.6202;-0.146;0.774;-9.7728;-0.2494;0.2028;0.0353;0.2637;-0.0421;-0.0209;-2.0E-4;1.0;-13.5;15.78;24.72;131.34;85.31;-105.96;2.0;983.72;43.612;;;;NaN;;;;;0 / 0;239013;2022-10-31 20:24:24:306
1.2522;-9.625;-0.316;0.9374;-9.7575;-0.2884;0.1639;-0.016;-0.0923;-0.022;-0.0154;-0.0166;1.0;-13.68;16.26;23.28;142.58;86.21;-112.68;2.0;983.71;44.896;;;;NaN;;;;;0 / 0;239512;2022-10-31 20:24:24:805
0.5339;-9.6705;0.0335;0.7557;-9.7768;-0.1146;0.2092;0.1303;-0.0458;0.0269;0.1025;0.0176;1.0;-13.44;17.04;23.46;132.35;85.2;-105.26;2.0;983.73;50.653;;;;NaN;;;;;0 / 0;240012;2022-10-31 20:24:25:305
0.5171;-9.7327;-0.3448;0.783;-9.7742;-0.1492;0.1435;0.0558;-0.1237;0.0043;-0.0606;0.017;1.0;-13.56;16.86;24.06;123.18;85.04;-95.57;2.0;983.74;50.734;;;;NaN;;;;;0 / 0;240512;2022-10-31 20:24:25:805
0.4405;-9.6465;0.182;0.5093;-9.7926;-0.123;0.173;-0.0431;0.099;-0.0043;0.0029;0.0041;1.0;-11.28;16.56;22.86;127.82;86.71;-104.04;2.0;983.82;48.133;;;;NaN;;;;;0 / 0;241012;2022-10-31 20:24:26:305
0.3448;-9.8046;-0.3615;0.5569;-9.7883;-0.2216;0.1446;0.2711;0.0157;0.0373;-0.1498;-0.0124;1.0;-13.2;16.2;24.18;139.2;86.82;-112.02;2.0;983.79;53.435;;;;NaN;;;;;0 / 0;241513;2022-10-31 20:24:26:806
-0.0862;-10.0464;-0.2634;0.622;-9.7828;-0.2838;0.0484;0.1003;0.1186;0.0318;-0.0502;0.0249;1.0;-12.3;15.96;23.58;146.19;85.86;-121.07;2.0;983.73;48.099;;;;NaN;;;;;0 / 0;242012;2022-10-31 20:24:27:305
0.0527;-9.7567;-0.237;0.6051;-9.7841;-0.2761;0.3047;0.1686;-0.1357;-0.0092;-0.1089;-0.049;1.0;-13.56;16.02;23.64;136.24;86.11;-107.6;2.0;983.71;51.0;;;;NaN;;;;;0 / 0;242512;2022-10-31 20:24:27:805
0.6895;-9.5149;-0.2083;0.6784;-9.7802;-0.2389;-0.3504;-0.0052;-0.0077;0.0855;-0.0832;0.0408;1.0;-13.38;15.6;24.42;143.62;85.46;-116.84;2.0;983.69;48.833;;;;NaN;;;;;0 / 0;243012;2022-10-31 20:24:28:305
0.6009;-9.6561;-0.3903;0.5585;-9.7878;-0.2374;0.2771;0.0743;-0.1074;-0.0116;0.009;0.0133;1.0;-12.18;16.38;24.66;129.65;86.66;-105.55;2.0;983.78;47.739;;;;NaN;;;;;0 / 0;243512;2022-10-31 20:24:28:805
0.3232;-9.7016;-0.2418;0.5506;-9.7858;-0.3243;-0.0957;0.0555;-0.0181;0.0018;0.0115;-0.0026;1.0;-12.72;16.08;23.52;148.07;86.23;-120.85;2.0;983.76;49.038;;;;NaN;;;;;0 / 0;244012;2022-10-31 20:24:29:305
0.7015;-9.7136;-0.2131;0.5156;-9.7897;-0.2574;-0.0176;0.0689;-0.0012;0.0012;0.0713;-0.002;1.0;-12.06;15.96;24.0;142.88;86.46;-117.64;2.0;983.74;53.654;;;;NaN;;;;;0 / 0;244512;2022-10-31 20:24:29:805
0.5507;-9.7495;-0.2777;0.5114;-9.793;-0.0763;-0.2696;0.0244;-0.3067;-0.0031;0.2167;0.0041;1.0;-13.98;16.38;23.16;124.96;86.67;-95.3;2.0;983.66;51.563;;;;NaN;;;;;0 / 0;245013;2022-10-31 20:24:30:306
0.589;-9.6513;-0.3376;0.8092;-9.7685;-0.3031;0.103;0.0597;0.0589;0.0214;0.1575;-0.0044;1.0;-17.88;16.08;20.7;151.91;84.54;-112.91;2.0;983.75;50.006;;;;NaN;;;;;0 / 0;245512;2022-10-31 20:24:30:805
0.6249;-9.8141;-0.0048;0.7336;-9.7788;-0.0875;-0.1638;0.1538;0.3365;0.0599;-0.079;0.0066;1.0;-17.64;16.68;20.46;142.05;85.39;-101.95;2.0;983.73;56.564;;;;NaN;;;;;0 / 0;246012;2022-10-31 20:24:31:305
0.3759;-9.8884;0.0192;0.5629;-9.787;0.2588;-0.266;0.1549;-0.0098;0.0031;0.1251;0.0182;1.0;-15.12;16.86;20.58;102.77;86.19;-69.71;2.0;983.69;54.829;;;;NaN;;;;;0 / 0;246512;2022-10-31 20:24:31:805
1.1277;-9.7208;0.249;0.7165;-9.7769;0.2626;-0.1276;0.0059;-0.0662;-0.0391;0.4464;-0.0166;1.0;-18.48;17.34;18.06;97.83;86.34;-55.27;2.0;983.75;59.641;;;;NaN;;;;;0 / 0;247012;2022-10-31 20:24:32:305
0.5962;-9.7232;0.3807;0.5494;-9.7866;0.3013;-0.2357;0.1089;-0.038;-0.0092;0.0786;0.0359;1.0;-20.34;17.1;15.78;112.79;86.12;-63.88;2.0;983.81;49.484;;;;NaN;;;;;0 / 0;247512;2022-10-31 20:24:32:805
0.4166;-9.6968;0.2705;0.4129;-9.7945;0.2586;-0.0562;0.0067;-0.1293;-0.0263;0.0628;0.0365;1.0;-21.24;16.5;15.84;107.54;86.93;-56.76;2.0;983.75;63.181;;;;NaN;;;;;0 / 0;248012;2022-10-31 20:24:33:305
0.4142;-9.7016;0.0599;0.1688;-9.8046;0.1031;-0.0419;0.0384;-0.1797;-0.1301;0.4464;0.0206;1.0;-22.14;16.86;13.56;100.18;88.47;-43.64;2.0;983.75;63.81;;;;NaN;;;;;0 / 0;248513;2022-10-31 20:24:33:806
0.838;-9.2706;-0.1987;0.4013;-9.7933;-0.3152;1.0568;0.2186;0.1261;0.11;-0.473;0.1196;1.0;-22.56;16.98;12.84;186.71;86.5;-125.91;2.0;983.76;48.67;;;;NaN;;;;;0 / 0;249012;2022-10-31 20:24:34:305
-1.2905;-9.5699;0.4022;-0.0599;-9.8064;0.0249;-0.9552;0.0498;0.1666;0.011;-0.6147;0.1703;1.0;-16.14;17.82;16.26;138.18;88.48;-94.0;2.0;983.7;55.907;;;;NaN;;;;;0 / 0;249512;2022-10-31 20:24:34:805
-2.138;-8.119;-1.3503;-2.0996;-9.2123;-2.6259;0.1483;0.8275;0.4209;-0.1765;-0.2109;0.1544;1.0;-5.82;13.38;28.5;237.26;76.89;140.02;2.0;983.74;55.946;;;;NaN;;;;;0 / 0;250012;2022-10-31 20:24:35:305
-0.9433;-9.443;-0.9673;-1.7847;-9.5585;-1.2729;0.1016;-0.3778;0.1213;0.0599;0.0041;-0.0826;1.0;-9.48;16.86;23.64;261.39;76.86;128.2;2.0;983.74;52.827;;;;NaN;;;;;0 / 0;250512;2022-10-31 20:24:35:805
-0.8356;-10.0536;0.3807;-0.6136;-9.7853;0.2048;-0.7463;-0.0217;0.1974;0.639;0.2002;-0.0667;1.0;-11.46;16.92;20.82;273.96;84.45;117.65;2.0;983.68;49.629;;;;NaN;;;;;0 / 0;251013;2022-10-31 20:24:36:306
-0.8308;-9.6992;0.4788;-0.4379;-9.7792;0.5885;0.0069;0.2068;0.2351;0.0171;-0.1859;-0.0283;1.0;-10.02;18.24;20.22;356.64;85.41;30.13;2.0;983.69;60.537;;;;NaN;;;;;0 / 0;251512;2022-10-31 20:24:36:805
-0.9122;-9.6872;0.3974;-0.6549;-9.7682;0.5687;-0.0082;0.1935;0.1472;0.0336;0.1232;0.0035;1.0;-11.46;18.3;19.74;325.65;84.73;65.39;2.0;983.74;59.213;;;;NaN;;;;;0 / 0;252012;2022-10-31 20:24:37:305
-0.0431;-9.5987;0.3735;-0.5182;-9.7812;0.4796;0.2189;0.0748;-0.1252;-0.0171;-0.2152;-0.0221;1.0;-10.98;18.54;19.32;339.33;84.81;52.24;2.0;983.7;58.228;;;;NaN;;;;;0 / 0;252512;2022-10-31 20:24:37:805
-0.34;-9.6394;0.5483;-0.621;-9.7707;0.5644;0.1254;0.1002;0.0342;0.036;-0.1364;-0.0081;1.0;-11.34;18.72;19.2;337.49;84.59;54.28;2.0;983.74;55.487;;;;NaN;;;;;0 / 0;253012;2022-10-31 20:24:38:305
-0.735;-9.7136;0.4908;-0.5285;-9.7821;0.4486;-0.0198;0.1451;0.0207;0.0055;0.0011;-2.0E-4;1.0;-11.34;18.96;19.32;339.94;85.42;51.43;2.0;983.71;66.007;;;;NaN;;;;;0 / 0;253512;2022-10-31 20:24:38:805
-0.7111;-9.7112;0.6009;-0.6182;-9.7733;0.5196;-0.0474;0.0598;-0.0383;-0.0018;-0.005;-0.0069;1.0;-11.46;19.14;18.12;342.62;85.45;49.99;2.0;983.72;52.871;;;;NaN;;;;;0 / 0;254012;2022-10-31 20:24:39:305
-0.2969;-9.7016;0.3496;-0.5868;-9.7785;0.4542;0.2827;0.12;-0.0736;-0.0055;-0.0973;-0.0118;1.0;-12.12;18.84;19.74;340.51;85.0;51.75;2.0;983.72;56.086;;;;NaN;;;;;0 / 0;254512;2022-10-31 20:24:39:805
-0.7446;-9.6681;0.4357;-0.6574;-9.7738;0.4593;-0.0967;0.0267;-0.0714;-0.0128;0.0872;0.009;1.0;-11.22;18.78;19.2;337.81;85.39;53.7;2.0;983.74;64.563;;;;NaN;;;;;0 / 0;255012;2022-10-31 20:24:40:305
-0.8068;-9.7423;0.4214;-0.5676;-9.779;0.4689;-0.2201;0.1204;0.0219;0.0263;-0.1089;-0.0228;1.0;-11.7;17.82;18.9;341.59;85.84;51.7;2.0;983.72;56.91;;;;NaN;;;;;0 / 0;255512;2022-10-31 20:24:40:805
-0.8045;-9.7782;0.4262;-0.5819;-9.7757;0.5165;-0.0789;-0.0696;-0.1215;-0.0391;0.0328;0.0017;1.0;-11.58;17.94;19.02;344.02;85.55;49.19;2.0;983.77;48.069;;;;NaN;;;;;0 / 0;256012;2022-10-31 20:24:41:305
-0.6393;-9.6034;0.2586;-0.5659;-9.7812;0.4207;0.53;0.0341;-0.4207;-0.025;-0.1168;0.0249;1.0;-10.56;18.36;20.34;335.71;85.63;54.46;2.0;983.71;52.709;;;;NaN;;;;;0 / 0;256512;2022-10-31 20:24:41:805
-0.4238;-9.6729;0.5052;-0.621;-9.7833;0.2658;-0.0063;0.0363;0.0789;0.0257;-2.0E-4;-0.0154;1.0;-11.46;18.54;20.58;331.79;86.0;57.32;2.0;983.73;50.266;;;;NaN;;;;;0 / 0;257012;2022-10-31 20:24:42:305
-0.4405;-9.5891;0.8116;-0.5938;-9.7572;0.784;-0.0574;0.1226;-0.0872;0.0299;0.0218;-0.0289;1.0;-12.12;18.6;18.9;338.62;84.45;55.27;2.0;983.71;53.137;;;;NaN;;;;;0 / 0;257512;2022-10-31 20:24:42:805
-0.8116;-9.771;0.6393;-0.4051;-9.7667;0.7863;-0.0234;0.2686;-0.0776;-0.0012;-0.0246;0.0237;1.0;-11.88;19.02;18.24;5.28;85.01;28.03;2.0;983.79;55.745;;;;NaN;;;;;0 / 0;258012;2022-10-31 20:24:43:305
-0.2945;-9.7184;0.7446;-0.2507;-9.7659;0.8573;-0.0126;0.1145;-0.1008;-0.0611;0.0469;0.0444;1.0;-11.52;19.14;18.66;17.55;84.57;13.42;2.0;983.82;45.963;;;;NaN;;;;;0 / 0;258512;2022-10-31 20:24:43:805
-0.7039;-9.6585;0.6704;-0.6807;-9.7707;0.4906;-0.55;-0.053;-0.0692;-0.0391;0.0988;0.0536;1.0;-12.36;18.36;18.0;347.56;85.49;46.9;2.0;983.7;53.742;;;;NaN;;;;;0 / 0;259013;2022-10-31 20:24:44:306
-0.893;-9.637;0.1796;-0.9525;-9.7564;0.2752;0.1313;0.1889;-0.0454;-0.0067;0.031;-0.0179;1.0;-12.42;17.94;18.9;322.21;84.14;72.8;2.0;983.68;52.31;;;;NaN;;;;;0 / 0;259512;2022-10-31 20:24:44:805
-0.5818;-9.7423;0.2083;-0.7234;-9.7774;0.2201;-0.0643;-0.0199;0.1031;-0.014;-0.0099;-0.0142;1.0;-12.6;18.48;19.26;322.89;85.58;73.08;2.0;983.65;52.454;;;;NaN;;;;;0 / 0;260012;2022-10-31 20:24:45:305
-0.3687;-9.7351;0.3903;-0.4908;-9.788;0.3531;0.091;0.1055;-0.0227;0.0195;-0.0735;-0.0276;1.0;-12.42;18.48;18.78;335.26;86.36;58.19;2.0;983.65;52.366;;;;NaN;;;;;0 / 0;260512;2022-10-31 20:24:45:805
-0.3759;-9.6848;0.4022;-0.4331;-9.7902;0.3667;0.0046;0.103;-0.01;0.0061;0.0072;0.0047;1.0;-12.78;18.18;20.28;342.93;86.62;50.82;2.0;983.75;50.928;;;;NaN;;;;;0 / 0;261012;2022-10-31 20:24:46:305
-0.4908;-9.7423;0.3639;-0.5439;-9.7851;0.3554;0.0052;0.0667;0.0205;0.0043;0.0322;0.0261;1.0;-11.88;18.42;19.02;338.07;86.38;55.25;2.0;983.76;51.929;;;;NaN;;;;;0 / 0;261513;2022-10-31 20:24:46:806
-0.5938;-9.704;0.2298;-0.6153;-9.7814;0.3409;-0.0311;0.0462;-0.0201;0.0012;-0.0118;0.0029;1.0;-12.9;18.66;18.24;336.04;85.9;61.16;2.0;983.72;54.038;;;;NaN;;;;;0 / 0;262013;2022-10-31 20:24:47:306
-0.7494;-9.783;0.4405;-0.6576;-9.7786;0.3416;0.2195;0.0937;0.0367;0.0043;-0.0044;-0.005;1.0;-12.9;18.84;18.96;334.16;85.63;61.73;2.0;983.75;54.387;;;;NaN;;;;;0 / 0;262512;2022-10-31 20:24:47:805
-0.6943;-9.704;0.4429;-0.6241;-9.7786;0.3995;-0.075;0.0435;-0.0427;-0.0049;-0.0509;0.0029;1.0;-13.08;18.24;19.38;337.93;85.63;57.68;2.0;983.71;57.209;;;;NaN;;;;;0 / 0;263012;2022-10-31 20:24:48:305
-0.6249;-9.7399;0.4166;-0.6022;-9.7778;0.45;0.0204;0.0427;0.0217;-0.0183;-0.0032;0.0011;1.0;-12.54;18.24;18.66;342.63;85.54;52.74;2.0;983.73;51.839;;;;NaN;;;;;0 / 0;263512;2022-10-31 20:24:48:805
-0.5243;-9.7136;0.3735;-0.5995;-9.7827;0.3315;0.0201;0.0619;0.0181;-0.0269;0.0261;-2.0E-4;1.0;-12.66;18.24;19.8;333.68;85.97;60.64;2.0;983.74;48.09;;;;NaN;;;;;0 / 0;264012;2022-10-31 20:24:49:305
0.158;-9.5196;-0.2682;-0.5654;-9.7867;0.2669;-0.0786;-0.116;-0.6212;-0.08;-0.0851;0.0224;1.0;-12.36;18.3;20.22;330.56;85.64;61.99;2.0;983.76;48.695;;;;NaN;;;;;0 / 0;264512;2022-10-31 20:24:49:805
-0.5938;-9.8955;0.158;-0.6214;-9.7851;0.1906;-0.0035;-0.053;0.0465;-0.0116;-0.1639;0.0988;1.0;-10.62;18.42;20.22;311.6;86.27;79.35;2.0;983.74;53.895;;;;NaN;;;;;0 / 0;265013;2022-10-31 20:24:50:306
-1.9441;-9.8022;0.1197;-1.152;-9.7381;0.1142;-0.1337;0.1226;0.3192;-0.2046;-0.1859;0.2027;1.0;-6.9;18.3;22.5;301.1;84.65;79.15;2.0;983.8;62.279;;;;NaN;;;;;0 / 0;265515;2022-10-31 20:24:50:808
-2.4756;-9.2204;-1.2378;-1.607;-9.4053;-2.2643;-0.4161;0.1682;0.2508;-0.3769;-0.005;-0.4711;1.0;-1.2;12.54;30.3;237.9;75.37;130.31;2.0;983.75;61.949;;;;NaN;;;;;0 / 0;266013;2022-10-31 20:24:51:306
1.6448;-10.02;-0.0359;0.2586;-9.803;0.0593;0.9433;-0.2816;-0.44;-0.0843;-0.1779;-0.118;1.0;-12.54;16.44;23.22;26.01;89.42;3.31;2.0;983.68;64.65;;;;NaN;;;;;0 / 0;266512;2022-10-31 20:24:51:805
0.0551;-9.3329;-0.0694;0.5359;-9.7913;-0.1124;0.8;-0.358;0.2633;0.1484;0.2424;-0.1828;1.0;-14.46;16.92;23.88;159.01;87.18;-129.4;2.0;983.83;57.454;;;;NaN;;;;;0 / 0;267013;2022-10-31 20:24:52:306
0.2035;-9.4957;-0.3663;0.6336;-9.7776;-0.4094;-0.0829;0.0927;0.1772;-0.0861;0.2045;0.02;1.0;-18.06;15.78;22.56;143.53;85.75;-106.94;2.0;983.86;56.286;;;;NaN;;;;;0 / 0;267512;2022-10-31 20:24:52:805
0.9649;-9.6034;-0.067;0.7464;-9.7733;-0.3099;-0.1741;-0.0672;0.0011;0.0134;0.0646;0.0695;1.0;-18.78;16.5;20.64;159.53;84.71;-118.58;2.0;983.78;57.949;;;;NaN;;;;;0 / 0;268012;2022-10-31 20:24:53:305
0.2969;-9.8548;0.0359;0.3651;-9.7998;-0.0138;-0.1592;0.0863;0.0808;0.0189;-0.0692;0.0505;1.0;-17.76;17.4;20.52;132.39;87.27;-93.06;2.0;983.75;54.841;;;;NaN;;;;;0 / 0;268512;2022-10-31 20:24:53:805
0.3783;-9.7686;-0.2729;0.3166;-9.8013;-0.0656;0.0665;0.1332;-0.0804;-0.0202;-0.0179;-0.0417;1.0;-17.34;17.52;21.84;133.13;88.23;-96.28;2.0;983.71;54.756;;;;NaN;;;;;0 / 0;269012;2022-10-31 20:24:54:305
0.6488;-9.8213;-0.4812;0.5092;-9.7901;-0.256;0.154;0.1747;-0.2515;-6.0E-4;0.0292;0.0053;1.0;-16.92;16.86;22.2;144.58;87.23;-107.89;2.0;983.75;55.805;;;;NaN;;;;;0 / 0;269513;2022-10-31 20:24:54:806
0.5195;-9.8668;-0.2035;0.4091;-9.798;-0.0501;0.0075;-0.0114;-0.1367;0.0257;-0.0619;0.0139;1.0;-15.84;16.98;21.48;142.57;87.15;-106.42;2.0;983.74;55.725;;;;NaN;;;;;0 / 0;270012;2022-10-31 20:24:55:305
0.5411;-9.8165;-0.1341;0.4541;-9.7954;-0.1154;0.154;0.0651;0.271;-0.0318;0.1385;-0.0539;1.0;-17.16;16.98;21.9;134.1;87.82;-97.38;2.0;983.71;56.409;;;;NaN;;;;;0 / 0;270512;2022-10-31 20:24:55:805
0.5986;-9.704;0.0718;0.5306;-9.7919;-0.0816;-0.0948;0.0496;0.0193;-0.0709;-0.1223;-0.0509;1.0;-17.22;17.16;21.24;133.71;87.17;-96.04;2.0;983.67;51.655;;;;NaN;;;;;0 / 0;271012;2022-10-31 20:24:56:305
0.407;-9.6681;-0.1676;0.4078;-9.7969;-0.1581;0.0495;-0.2926;-0.4955;-0.0257;-0.1132;0.0188;1.0;-15.48;16.5;21.72;147.88;87.1;-114.62;2.0;983.77;46.497;;;;NaN;;;;;0 / 0;271512;2022-10-31 20:24:56:805
0.4764;-9.7303;-0.3256;0.4113;-9.7958;-0.2062;5.0E-4;0.0511;-0.0596;0.0098;0.1098;-0.0105;1.0;-15.96;16.86;22.44;154.02;87.34;-118.74;2.0;983.78;46.683;;;;NaN;;;;;0 / 0;272012;2022-10-31 20:24:57:305
0.5387;-9.7351;-0.0144;0.5381;-9.7918;-0.0303;-0.009;0.0567;0.0351;0.0269;0.0078;-0.0069;1.0;-17.46;16.74;21.24;135.57;86.84;-98.02;2.0;983.68;49.163;;;;NaN;;;;;0 / 0;272512;2022-10-31 20:24:57:805
0.6297;-9.7639;0.067;0.5185;-9.7928;0.0401;0.0561;0.1319;0.0365;-0.0067;0.009;-8.0E-4;1.0;-17.82;17.04;20.28;126.5;87.01;-86.07;2.0;983.68;59.45;;;;NaN;;;;;0 / 0;273012;2022-10-31 20:24:58:305
0.4477;-9.6896;-0.0215;0.552;-9.7911;-0.0216;-0.0348;0.0966;-0.0191;-0.0043;-0.0735;-0.0044;1.0;-17.7;17.04;20.1;130.47;86.8;-90.06;2.0;983.71;51.598;;;;NaN;;;;;0 / 0;273513;2022-10-31 20:24:58:806
0.4046;-9.7495;-0.0503;0.5179;-9.7929;-0.031;-0.0511;0.0434;-0.0432;0.0098;0.0304;-0.0057;1.0;-16.62;16.2;20.16;133.52;86.95;-94.55;2.0;983.7;51.24;;;;NaN;;;;;0 / 0;274013;2022-10-31 20:24:59:306
0.5531;-9.6585;0.0575;0.5261;-9.7925;0.0259;0.0413;0.0526;-0.1002;-0.014;0.0444;-0.013;1.0;-17.64;16.98;19.92;127.76;87.06;-87.28;2.0;983.73;55.588;;;;NaN;;;;;0 / 0;274512;2022-10-31 20:24:59:805
0.5028;-9.7351;0.0742;0.5497;-9.7912;0.024;0.0656;0.0656;0.0358;0.0098;-0.0521;0.0029;1.0;-17.4;16.74;20.46;126.08;86.79;-87.44;2.0;983.71;54.641;;;;NaN;;;;;0 / 0;275012;2022-10-31 20:25:00:305
0.577;-9.7591;-0.0335;0.5206;-9.7928;0.0216;0.0325;0.0792;0.0143;-0.014;0.006;0.0017;1.0;-17.46;16.62;19.74;125.33;86.95;-86.61;2.0;983.76;57.596;;;;NaN;;;;;0 / 0;275512;2022-10-31 20:25:00:805
0.51;-9.7447;0.0838;0.5055;-9.7936;0.01;-0.029;0.0824;-0.0148;-0.0043;-0.0246;0.0023;1.0;-17.34;17.16;20.46;129.43;86.97;-90.62;2.0;983.76;57.807;;;;NaN;;;;;0 / 0;276013;2022-10-31 20:25:01:306
0.6608;-9.5795;-0.1484;0.6265;-9.7847;-0.1934;0.099;0.1046;0.0689;-0.0012;-0.0301;-0.0185;1.0;-17.34;16.44;21.18;141.14;86.41;-103.54;2.0;983.77;55.682;;;;NaN;;;;;0 / 0;276513;2022-10-31 20:25:01:806
0.7039;-9.7998;-0.1173;0.6501;-9.7842;-0.1272;0.0275;0.1473;-0.0044;-0.0018;0.0451;-0.0099;1.0;-17.46;16.68;21.06;142.0;86.13;-104.58;2.0;983.75;57.186;;;;NaN;;;;;0 / 0;277012;2022-10-31 20:25:02:305
0.9529;-9.6705;-0.1628;0.7498;-9.7764;-0.1754;0.0977;0.0364;-0.1957;0.0275;-0.0588;0.0261;1.0;-18.42;16.02;19.5;143.68;85.58;-103.33;2.0;983.77;53.838;;;;NaN;;;;;0 / 0;277512;2022-10-31 20:25:02:805
0.7326;-9.6681;-0.146;0.5497;-9.791;0.0724;0.1135;0.0127;-0.2136;0.0476;0.2692;0.0713;1.0;-17.28;16.8;19.38;131.51;86.36;-91.56;2.0;983.7;61.288;;;;NaN;;;;;0 / 0;278012;2022-10-31 20:25:03:305
-0.328;-9.7998;0.8643;0.0234;-9.7705;0.8409;0.0556;0.0545;0.0904;0.1326;-0.1626;0.1721;1.0;-15.36;17.94;14.46;69.96;86.37;-25.95;2.0;983.74;57.981;;;;NaN;;;;;0 / 0;278512;2022-10-31 20:25:03:805
-0.1389;-9.9817;0.3065;-0.9444;-9.739;0.6554;0.6188;-0.6713;-0.6459;-0.777;-0.4913;0.2014;1.0;-13.44;19.02;15.3;1.1;82.3;39.68;2.0;983.74;55.988;;;;NaN;;;;;0 / 0;279012;2022-10-31 20:25:04:305
-2.0135;-7.9538;-0.6249;-0.551;-9.5276;-2.2565;-2.7601;1.0111;1.227;0.7043;-0.0069;0.3022;1.0;-7.44;11.04;28.44;211.31;71.89;167.58;2.0;983.73;57.444;;;;NaN;;;;;0 / 0;279513;2022-10-31 20:25:04:806
0.1748;-9.8692;-0.4214;-0.2235;-9.774;-0.7676;-0.1499;6.0E-4;-0.0033;0.2401;-0.1541;-0.1877;1.0;-7.62;14.58;24.66;219.32;83.18;161.1;2.0;983.73;54.468;;;;NaN;;;;;0 / 0;280012;2022-10-31 20:25:05:305
-0.0431;-9.218;-0.4118;0.3457;-9.8004;-0.0491;0.1691;-0.2627;-0.1185;0.1032;0.0011;-0.1443;1.0;-9.36;16.08;23.58;209.88;87.94;171.34;2.0;983.7;60.602;;;;NaN;;;;;0 / 0;280512;2022-10-31 20:25:05:805
-0.3663;-9.8668;0.2394;0.5355;-9.7882;0.2728;0.7047;0.2781;0.0744;0.0281;0.0359;0.0799;1.0;-10.38;16.8;20.16;101.14;86.21;-77.43;2.0;983.73;58.838;;;;NaN;;;;;0 / 0;281012;2022-10-31 20:25:06:305
-2.2098;-7.4223;-2.399;-2.6507;-8.4762;-4.159;0.0698;1.7027;2.1766;0.7147;-0.0496;0.3193;1.0;4.02;5.1;34.5;199.27;62.96;157.42;2.0;983.81;64.23;;;;NaN;;;;;0 / 0;281512;2022-10-31 20:25:06:805
-3.0143;-10.0416;-0.3136;-1.9162;-9.5712;-0.9438;0.1205;0.5831;2.9573;-0.0648;0.2259;0.1666;1.0;-1.2;14.7;23.76;263.87;79.56;105.19;2.0;983.6;61.604;;;;NaN;;;;;0 / 0;282013;2022-10-31 20:25:07:306
-2.5019;-9.2587;-1.1372;-2.4044;-9.3547;-1.6966;0.4124;0.3378;0.2242;-0.3494;0.0328;0.1562;1.0;-1.62;14.28;25.92;251.73;75.44;120.82;2.0;983.61;58.693;;;;NaN;;;;;0 / 0;282512;2022-10-31 20:25:07:805
-1.9944;-9.1916;-1.7478;-1.9899;-9.473;-1.5725;-0.0619;0.753;1.2421;0.0611;-0.0454;-0.0319;1.0;-4.5;15.18;25.5;253.33;76.9;123.12;2.0;983.68;55.227;;;;NaN;;;;;0 / 0;283012;2022-10-31 20:25:08:305
-1.9297;-9.4095;-1.7119;-1.9414;-9.4916;-1.5203;-0.0027;0.1635;0.1053;0.077;-0.0026;-0.035;1.0;-5.22;15.06;24.42;252.23;75.18;128.95;2.0;983.65;58.117;;;;NaN;;;;;0 / 0;283512;2022-10-31 20:25:08:805
-2.1069;-9.4215;-1.7358;-2.0286;-9.4527;-1.6438;0.0893;0.0934;-0.1926;6.0E-4;0.0756;0.0072;1.0;-5.34;14.46;25.2;251.26;74.64;128.87;2.0;983.71;62.593;;;;NaN;;;;;0 / 0;284012;2022-10-31 20:25:09:305
-2.0303;-9.3353;-1.5969;-2.043;-9.4383;-1.7075;-0.0184;0.0886;0.1034;0.0391;0.0163;-0.0081;1.0;-5.1;14.7;24.96;251.08;74.19;129.95;2.0;983.73;54.879;;;;NaN;;;;;0 / 0;284512;2022-10-31 20:25:09:805
-2.0494;-9.3042;-1.6999;-2.0319;-9.4439;-1.6893;-0.0055;0.0607;0.1235;0.0379;-0.016;-0.0057;1.0;-5.4;15.36;25.14;251.28;74.22;129.73;2.0;983.71;58.899;;;;NaN;;;;;0 / 0;285012;2022-10-31 20:25:10:305
-2.0111;-9.4287;-1.6113;-2.0219;-9.4504;-1.665;-0.0323;0.0265;0.1016;-0.0134;0.0402;0.0066;1.0;-6.6;14.7;25.38;255.69;74.52;129.36;2.0;983.74;58.851;;;;NaN;;;;;0 / 0;285513;2022-10-31 20:25:10:806
-2.0159;-9.3736;-1.7717;-2.0084;-9.4421;-1.727;-0.0267;0.0614;0.0248;0.0061;-0.0209;0.0053;1.0;-5.58;14.7;24.54;252.57;74.4;130.47;2.0;983.75;61.253;;;;NaN;;;;;0 / 0;286013;2022-10-31 20:25:11:306
-1.9058;-9.2299;-1.81;-2.0139;-9.4458;-1.7004;0.1871;-0.014;0.2591;-0.0434;-0.0099;0.0347;1.0;-5.52;14.76;25.8;251.91;74.43;130.26;2.0;983.73;59.774;;;;NaN;;;;;0 / 0;286512;2022-10-31 20:25:11:805
-2.1476;-9.3401;-1.6185;-2.1661;-9.3988;-1.7722;-0.0772;0.0898;-0.0115;-0.0275;-0.0594;0.0212;1.0;-4.92;14.34;25.74;250.37;73.86;129.51;2.0;983.76;60.227;;;;NaN;;;;;0 / 0;287012;2022-10-31 20:25:12:305
-1.9034;-8.38;-2.3272;-2.5648;-8.946;-3.092;2.4164;1.2148;0.1544;0.1326;-0.0435;-0.6397;1.0;-1.08;10.14;29.52;233.88;67.26;136.55;2.0;983.76;57.56;;;;NaN;;;;;0 / 0;287513;2022-10-31 20:25:12:806
-2.0806;-9.139;-3.1029;-2.1319;-9.0842;-3.0171;-0.1282;0.1104;-0.1169;-0.1124;-0.0234;-0.0368;1.0;-3.36;10.74;30.6;230.77;68.15;142.97;2.0;983.75;63.506;;;;NaN;;;;;0 / 0;288012;2022-10-31 20:25:13:305
-7.9826;-5.2125;2.1141;-1.0447;-9.6834;-1.1447;-2.9728;-3.3892;-0.0284;1.438;-0.6324;0.5887;1.0;-3.48;13.8;27.12;229.53;69.58;146.81;2.0;983.8;63.754;;;;NaN;;;;;0 / 0;288512;2022-10-31 20:25:13:805
1.1301;-9.795;-0.6823;-0.0744;-9.8056;-0.1193;0.3905;-0.145;0.1074;0.2046;0.0951;-0.1596;1.0;-6.48;16.14;23.52;248.21;87.27;127.49;2.0;983.76;68.525;;;;NaN;;;;;0 / 0;289012;2022-10-31 20:25:14:305
1.245;-9.6537;-0.5411;0.8417;-9.7702;-0.0696;0.1734;-0.1804;-0.3494;0.121;0.2796;0.1287;1.0;-6.9;17.46;21.96;72.83;87.29;-57.07;2.0;983.83;65.149;;;;NaN;;;;;0 / 0;289513;2022-10-31 20:25:14:806
-0.6393;-9.6106;0.4884;0.1692;-9.8051;-0.0485;-0.6696;0.2495;0.7476;-0.1356;0.4446;0.2167;1.0;-7.26;17.28;21.3;102.95;87.29;-86.57;2.0;983.68;63.42;;;;NaN;;;;;0 / 0;290013;2022-10-31 20:25:15:306
-1.4365;-9.5053;-2.399;-1.8175;-9.4702;-1.7836;0.7066;0.6473;-0.3903;-0.722;-0.5878;-0.2702;1.0;-2.82;13.56;27.84;252.05;76.88;120.83;2.0;983.72;54.978;;;;NaN;;;;;0 / 0;290512;2022-10-31 20:25:15:805
-2.8563;-9.3832;-1.0678;-0.9507;-9.7059;-1.0304;-0.7827;-0.2112;-0.533;0.1857;0.8844;0.5747;1.0;-7.38;15.36;25.86;219.93;79.64;159.32;2.0;983.73;60.173;;;;NaN;;;;;0 / 0;291012;2022-10-31 20:25:16:305
-0.0646;-9.8572;0.8116;0.2594;-9.7877;0.5513;0.3631;-0.4502;0.3273;0.2272;-0.0539;-0.1712;1.0;-11.88;16.26;20.94;74.48;89.21;-45.24;2.0;983.76;59.739;;;;NaN;;;;;0 / 0;291512;2022-10-31 20:25:16:805
1.4557;-9.7615;-0.6057;0.7775;-9.775;-0.121;0.7883;-0.1325;-0.729;-0.0238;0.2509;-0.0142;1.0;-12.42;16.8;21.18;98.43;86.11;-71.42;2.0;983.78;64.33;;;;NaN;;;;;0 / 0;292012;2022-10-31 20:25:17:305
-0.1413;-9.7112;-0.3136;0.6694;-9.7818;-0.1953;-0.4395;-0.2262;-1.4232;-1.2504;-0.1999;0.2027;1.0;-11.16;16.62;22.26;91.51;83.81;-69.25;2.0;983.77;63.347;;;;NaN;;;;;0 / 0;292512;2022-10-31 20:25:17:805
-2.8371;-13.8077;-3.8666;-1.965;-9.177;-2.8445;0.325;2.7339;0.843;2.0091;1.0628;-0.5237;1.0;1.38;10.08;31.44;221.35;61.55;146.56;2.0;983.79;63.733;;;;NaN;;;;;0 / 0;293012;2022-10-31 20:25:18:305
-1.7334;-10.0272;-2.1979;-1.4024;-9.6532;-1.0094;0.0928;-0.4051;0.2983;-0.3384;-0.1174;0.3377;1.0;-3.06;15.24;25.2;247.5;80.66;124.8;2.0;983.64;63.304;;;;NaN;;;;;0 / 0;293513;2022-10-31 20:25:18:806
-2.6576;-8.8756;-2.1691;-1.9651;-9.4286;-1.8466;0.1623;1.3024;0.2903;0.0244;-0.0417;-0.228;1.0;0.78;13.38;28.02;236.44;73.76;128.98;2.0;983.76;58.711;;;;NaN;;;;;0 / 0;294012;2022-10-31 20:25:19:305
-2.1524;-9.4813;-1.0295;-1.486;-9.6149;-1.2308;0.016;-0.3022;0.4743;-0.0061;-0.1883;-0.0325;1.0;-1.5;13.86;26.64;238.61;77.81;129.55;2.0;983.73;58.005;;;;NaN;;;;;0 / 0;294512;2022-10-31 20:25:19:805
-3.2633;-9.6896;-0.9816;-2.4381;-9.3684;-1.5682;-0.2051;0.1983;-1.9202;-0.1692;0.1013;-0.0429;1.0;6.3;11.1;30.42;236.08;75.77;117.74;2.0;983.77;61.054;;;;NaN;;;;;0 / 0;295012;2022-10-31 20:25:20:305
-1.5778;-8.6913;-1.1325;-1.8261;-9.542;-1.3365;-0.1443;-0.5212;-1.4456;-0.4661;-0.0179;0.2686;1.0;-2.7;14.76;27.0;252.47;78.65;120.25;2.0;983.74;56.803;;;;NaN;;;;;0 / 0;295512;2022-10-31 20:25:20:805
-1.5945;-9.4335;-1.9225;-2.0522;-9.491;-1.3709;-1.393;-0.7254;-0.2404;-0.0428;0.3016;0.0805;1.0;-3.3;13.92;26.94;249.19;74.55;125.48;2.0;983.79;58.238;;;;NaN;;;;;0 / 0;296012;2022-10-31 20:25:21:305
-0.6632;-9.4813;-0.8835;-1.6919;-9.5264;-1.5984;-2.1891;-0.9509;1.2153;-0.1167;-0.1938;0.2625;1.0;-3.84;13.56;26.22;241.47;74.2;135.74;2.0;983.71;51.64;;;;NaN;;;;;0 / 0;296512;2022-10-31 20:25:21:805
-2.4972;-9.9554;-1.8148;-1.6806;-9.4866;-1.8305;0.4811;0.6517;-0.1064;0.2724;0.2595;-0.1584;1.0;-4.56;14.1;26.4;241.65;74.86;137.26;2.0;983.68;57.174;;;;NaN;;;;;0 / 0;297013;2022-10-31 20:25:22:306
-2.047;-9.4406;-1.2641;-1.6237;-9.5514;-1.5178;-0.3276;0.039;-0.0911;-0.0318;0.0011;0.0041;1.0;-5.4;14.4;26.58;242.73;76.44;134.66;2.0;983.67;49.436;;;;NaN;;;;;0 / 0;297513;2022-10-31 20:25:22:806
-1.5945;-9.2395;-1.549;-1.6607;-9.5099;-1.7245;0.3319;0.2393;0.1611;-0.0055;0.0133;-0.0399;1.0;-6.12;14.28;26.16;246.17;75.79;134.44;2.0;983.72;62.012;;;;NaN;;;;;0 / 0;298013;2022-10-31 20:25:23:306
-1.8004;-9.5651;-1.9561;-1.624;-9.5073;-1.773;-0.2099;0.1433;0.1952;0.0257;-0.1364;-0.0289;1.0;-6.0;13.5;26.22;243.27;75.73;137.26;2.0;983.73;59.185;;;;NaN;;;;;0 / 0;298513;2022-10-31 20:25:23:806
-1.731;-9.5627;-1.6879;-1.6386;-9.5133;-1.727;-0.0278;-0.0135;-0.0088;-0.0061;-0.002;-0.0105;1.0;-5.64;13.98;26.28;243.6;75.68;136.97;2.0;983.73;54.281;;;;NaN;;;;;0 / 0;299013;2022-10-31 20:25:24:306
-1.4557;-9.1797;-1.7693;-1.6063;-9.5046;-1.8035;-0.1558;0.1166;0.0605;0.0299;-0.0942;-0.0166;1.0;-5.22;14.58;26.94;239.64;75.69;138.5;2.0;983.72;59.122;;;;NaN;;;;;0 / 0;299512;2022-10-31 20:25:24:805
-1.5467;-9.4574;-1.6305;-1.6036;-9.5079;-1.7881;-0.137;-0.0308;0.1313;-0.0153;-0.0331;0.0133;1.0;-5.82;13.56;25.68;242.47;75.69;138.04;2.0;983.74;50.375;;;;NaN;;;;;0 / 0;300012;2022-10-31 20:25:25:305
-1.5897;-9.4718;-1.9369;-1.5714;-9.5004;-1.8559;-0.016;0.0837;-0.026;-0.0037;-0.0142;-0.0057;1.0;-6.12;13.56;26.82;240.4;75.59;139.36;2.0;983.73;52.125;;;;NaN;;;;;0 / 0;300512;2022-10-31 20:25:25:805
-1.7166;-9.4718;-1.8579;-1.5858;-9.4973;-1.8591;-0.0231;0.0375;0.1855;-0.0012;-0.0234;-0.0093;0.0;-6.6;14.28;27.84;240.88;75.62;139.59;2.0;983.76;51.523;;;;NaN;;;;;0 / 0;301014;2022-10-31 20:25:26:307
-1.4174;-9.3425;-2.1428;-1.5615;-9.4901;-1.9157;0.1394;0.0519;0.0626;0.0312;-0.0509;-0.0142;0.0;-6.78;13.2;26.16;241.69;75.57;140.38;2.0;983.75;47.899;;;;NaN;;;;;0 / 0;301512;2022-10-31 20:25:26:805
