sep=;
ACCELEROMETER X (m/s²);ACCELEROMETER Y (m/s²);ACCELEROMETER Z (m/s²);GRAVITY X (m/s²);GRAVITY Y (m/s²);GRAVITY Z (m/s²);LINEAR ACCELERATION X (m/s²);LINEAR ACCELERATION Y (m/s²);LINEAR ACCELERATION Z (m/s²);GYROSCOPE X (rad/s);GYROSCOPE Y (rad/s);GYROSCOPE Z (rad/s);LIGHT (lux);MAGNETIC FIELD X (μT);MAGNETIC FIELD Y (μT);MAGNETIC FIELD Z (μT);ORIENTATION Z (azimuth °);ORIENTATION X (pitch °);ORIENTATION Y (roll °);PROXIMITY (i);ATMOSPHERIC PRESSURE (hPa);SOUND LEVEL (dB);LOCATION Latitude : ;LOCATION Longitude : ;LOCATION Altitude ( m);LOCATION Altitude-google ( m);LOCATION Altitude-atmospheric pressure ( m);LOCATION Speed ( Kmh);LOCATION Accuracy ( m);LOCATION ORIENTATION (°);Satellites in range;Time since start in ms ;YYYY-MO-DD HH-MI-SS_SSS
-0.8811;5.8661;7.9083;8.9791;0.918;-3.8343;-9.8602;4.9481;11.7427;0.3795;0.2343;0.4409;211.0;-17.22;-16.56;-44.04;250.08;-5.37;-113.12;5.0;982.36;59.449;;;;NaN;;;;;0 / 0;20;2022-10-30 19:24:21:377
2.545;4.8387;7.3242;9.0243;-0.8242;-3.7487;-6.4793;5.6629;11.0729;-0.3346;-0.1487;-0.6196;256.0;-17.04;-13.56;-43.5;253.28;4.82;-112.56;5.0;982.44;44.256;;;;NaN;;;;;0 / 0;520;2022-10-30 19:24:21:877
0.6416;2.2745;9.7758;8.8984;-0.4706;-4.0946;-8.2568;2.7451;13.8705;0.3716;-0.0693;0.3169;178.0;-19.98;-8.7;-44.34;259.48;2.75;-114.71;5.0;982.45;47.325;;;;NaN;;;;;0 / 0;1020;2022-10-30 19:24:22:377
-0.1149;5.4878;8.3369;9.0595;-1.8237;-3.2816;-9.1745;7.3115;11.6185;0.3331;0.4279;0.0188;73.0;-21.0;-6.96;-43.5;261.04;10.15;-111.71;5.0;982.38;50.974;;;;NaN;;;;;0 / 0;1520;2022-10-30 19:24:22:877
0.0718;4.4484;6.0409;9.2242;-2.8689;-1.6894;-9.1523;7.3173;7.7303;0.1107;-0.106;0.1355;52.0;-13.74;-8.28;-45.72;259.25;17.0;-101.1;5.0;982.43;53.593;;;;NaN;;;;;0 / 0;2021;2022-10-30 19:24:23:378
1.4629;4.8123;8.5045;9.2652;-1.8591;-2.621;-5.4967;6.7915;10.7424;0.3172;-0.3577;-0.567;6.0;-16.62;-11.52;-44.34;254.26;14.6;-103.54;5.0;982.43;48.374;;;;NaN;;;;;0 / 0;2521;2022-10-30 19:24:23:878
0.577;5.9379;13.9465;9.3431;0.6716;-2.9028;-9.8339;5.3717;15.3673;0.4943;-1.0809;0.6999;18.0;-13.2;-17.7;-41.94;247.78;-3.93;-107.26;5.0;982.4;43.393;;;;NaN;;;;;0 / 0;3020;2022-10-30 19:24:24:377
1.5443;3.9528;8.5404;8.9163;-1.7917;-3.6688;-7.372;5.7445;12.2092;-0.5197;-1.9813;0.5863;24.0;-24.66;-8.94;-39.6;257.52;10.53;-112.37;5.0;982.34;45.491;;;;NaN;;;;;0 / 0;3524;2022-10-30 19:24:24:881
13.1421;-2.6576;1.0654;-0.2036;-3.07;-9.3115;9.5532;3.7356;12.2898;0.5005;-0.5568;1.637;6.0;-43.5;20.76;-4.74;296.95;18.24;178.75;5.0;982.34;50.117;;;;NaN;;;;;0 / 0;4020;2022-10-30 19:24:25:377
9.5388;-2.2745;1.4246;-3.3773;-7.4626;-5.392;12.9161;5.1881;6.8165;1.1406;-0.7071;0.188;0.0;-37.32;28.44;-9.84;323.11;41.86;153.14;5.0;982.37;54.305;;;;NaN;;;;;0 / 0;4520;2022-10-30 19:24:25:877
8.4686;-0.7638;1.9297;-4.9522;-8.0198;-2.7071;15.1231;7.3853;6.4612;0.3239;0.0137;0.9467;0.0;-30.9;29.7;-18.24;353.21;60.29;128.86;5.0;982.47;63.565;;;;NaN;;;;;0 / 0;5020;2022-10-30 19:24:26:377
4.93;2.4397;-0.0215;-4.2778;-7.8829;-3.9661;8.403;9.3697;3.7075;0.3215;0.1707;-0.3264;0.0;-30.9;31.44;-16.98;352.48;52.19;128.74;5.0;982.85;55.804;;;;NaN;;;;;0 / 0;5520;2022-10-30 19:24:26:877
12.2275;-8.6482;-1.664;-7.8082;-5.4884;-2.2537;20.0357;-3.1597;0.5897;-1.9619;1.8146;-1.7808;0.0;-20.76;37.5;-7.8;2.42;34.03;106.1;5.0;982.85;52.173;;;;NaN;;;;;0 / 0;6021;2022-10-30 19:24:27:378
2.3272;-8.483;0.2035;-9.0138;-2.6904;-2.7719;11.341;-5.7926;2.9754;-0.4794;1.6368;0.4073;0.0;-4.56;37.38;5.1;350.28;15.92;107.09;5.0;982.24;54.938;;;;NaN;;;;;0 / 0;6521;2022-10-30 19:24:27:878
2.5977;-8.6721;-3.7972;-7.3738;0.4546;-6.449;9.9716;-9.1267;2.6518;-1.9051;-1.0455;-1.1687;0.0;12.24;38.76;1.62;9.21;-2.66;131.17;5.0;982.39;60.507;;;;NaN;;;;;0 / 0;7021;2022-10-30 19:24:28:378
5.8134;-29.1647;-3.2058;-8.1231;3.8512;3.9184;13.9365;-33.0159;-7.1242;-1.0896;-0.6845;-0.126;0.0;30.3;34.98;3.78;346.99;-23.49;78.21;5.0;982.66;59.992;;;;NaN;;;;;0 / 0;7520;2022-10-30 19:24:28:877
2.1308;-10.0464;-3.6392;-8.4678;2.1262;-4.4662;10.5986;-12.1726;0.827;1.8627;0.1304;0.0224;0.0;24.24;39.54;-6.48;20.98;-12.52;117.81;5.0;982.28;58.174;;;;NaN;;;;;0 / 0;8020;2022-10-30 19:24:29:377
-0.577;-2.1213;-3.972;-8.6278;4.1912;2.0408;8.0508;-6.3125;-6.0128;0.1309;-2.8427;0.5612;0.0;32.1;31.92;10.2;345.26;-25.12;87.92;5.0;982.67;61.697;;;;NaN;;;;;0 / 0;8520;2022-10-30 19:24:29:877
8.7583;-15.9795;-2.7438;-8.2618;2.1493;-4.8264;17.0201;-18.1288;2.0826;1.8541;3.2171;-0.1596;0.0;24.96;38.88;-7.38;18.98;-15.66;109.35;5.0;982.3;67.291;;;;NaN;;;;;0 / 0;9020;2022-10-30 19:24:30:377
-6.1749;-7.2021;-12.2395;-8.7903;3.7349;2.2251;7.8853;-4.7907;-2.5148;1.297;-1.3534;-1.0105;0.0;29.64;33.3;10.2;342.0;-26.35;82.72;5.0;982.46;62.535;;;;NaN;;;;;0 / 0;9520;2022-10-30 19:24:30:877
4.3838;-6.0911;-0.1293;-8.8371;2.4787;-3.4542;13.2209;-8.5699;3.3249;1.3777;3.426;-0.4302;0.0;22.62;39.84;-1.8;4.62;-18.95;94.13;5.0;982.38;68.888;;;;NaN;;;;;0 / 0;10020;2022-10-30 19:24:31:377
-0.5626;-0.3903;1.9178;-8.622;4.6138;0.7383;8.0593;-5.004;1.1794;0.9366;-1.522;-0.3697;0.0;28.08;30.48;16.56;353.8;-24.93;113.47;5.0;982.34;56.199;;;;NaN;;;;;0 / 0;10520;2022-10-30 19:24:31:877
-3.1053;-7.5468;-2.2146;-9.0212;3.438;-1.7226;5.916;-10.9848;-0.492;1.9433;5.1933;-0.1773;0.0;23.34;38.04;0.96;4.37;-20.52;100.81;5.0;982.76;67.856;;;;NaN;;;;;0 / 0;11021;2022-10-30 19:24:32:378
2.9305;-11.0567;-1.6927;-8.1437;4.2848;-3.3897;11.419;-16.0454;2.5494;-2.3773;-1.7187;-0.5145;0.0;25.68;32.94;14.16;356.05;-25.91;112.6;5.0;982.21;58.518;;;;NaN;;;;;0 / 0;11520;2022-10-30 19:24:32:877
-1.0127;-8.459;-0.1173;-9.12;2.5571;-2.5411;5.7705;-9.6514;1.5906;2.7448;4.5586;-0.7234;0.0;23.76;36.66;3.3;349.61;-23.07;78.11;5.0;982.82;66.718;;;;NaN;;;;;0 / 0;12021;2022-10-30 19:24:33:378
0.9768;-1.9537;2.7773;-8.402;4.5196;-2.2693;13.7964;-9.7249;2.4081;-4.2441;-0.109;0.4165;0.0;18.36;37.08;10.26;6.52;-16.14;132.25;5.0;982.3;60.104;;;;NaN;;;;;0 / 0;12520;2022-10-30 19:24:33:877
-2.9975;-7.2499;-1.4653;-8.9954;3.7307;-1.1552;5.2796;-10.612;-0.2167;4.2066;5.233;-1.443;0.0;28.56;30.54;8.64;333.83;-28.64;68.61;5.0;983.0;67.364;;;;NaN;;;;;0 / 0;13020;2022-10-30 19:24:34:377
3.565;-9.1509;-0.7949;-6.7679;3.3405;-6.2615;-0.8699;-19.9544;4.8082;-3.7994;-5.8182;-0.3874;0.0;15.6;32.94;15.96;358.7;-19.92;132.77;5.0;982.32;60.926;;;;NaN;;;;;0 / 0;13520;2022-10-30 19:24:34:877
8.9187;-19.3314;5.8589;-8.2295;5.3333;-0.0299;5.1961;-9.7387;-1.4234;4.3019;4.4285;-2.0887;0.0;23.64;30.72;10.08;345.77;-32.95;90.21;5.0;982.86;69.072;;;;NaN;;;;;0 / 0;14020;2022-10-30 19:24:35:377
-6.23;-18.242;-0.8739;-3.5767;1.7346;-8.9648;-0.3786;-18.4755;13.8227;-1.4134;-0.1445;-0.2921;0.0;12.0;38.16;8.34;16.98;-2.76;157.03;5.0;982.48;65.81;;;;NaN;;;;;0 / 0;14520;2022-10-30 19:24:35:877
-5.2244;-5.0736;-5.0712;-6.336;5.7649;-4.7739;10.2936;-22.8984;12.0454;4.4863;4.0797;-1.3532;0.0;27.48;25.26;18.48;353.41;-43.24;115.45;5.0;982.78;68.663;;;;NaN;;;;;0 / 0;15020;2022-10-30 19:24:36:377
-0.6297;-13.6161;9.3928;-1.3477;3.1492;-9.1889;-4.3963;-25.2531;8.1283;-3.6602;-2.0815;-0.3184;0.0;11.76;40.14;9.06;16.89;-1.58;-178.6;5.0;982.53;58.81;;;;NaN;;;;;0 / 0;15521;2022-10-30 19:24:36:878
13.1349;-36.4864;-1.7885;-5.4096;7.104;-4.0546;-4.7158;-3.4624;2.0195;1.3361;1.128;-0.6697;0.0;27.66;27.0;21.36;4.57;-40.97;132.54;5.0;982.72;68.39;;;;NaN;;;;;0 / 0;16020;2022-10-30 19:24:37:377
-2.5929;-12.4262;-5.1143;1.3067;1.4977;-9.6031;0.9439;-16.4884;10.4075;-3.8904;-0.3021;-0.8737;0.0;6.12;39.18;15.78;11.22;-8.79;-172.25;5.0;982.49;57.817;;;;NaN;;;;;0 / 0;16521;2022-10-30 19:24:37:878
-7.7264;-15.6491;-12.9338;-4.9352;7.0223;-4.7434;-2.9516;-8.3296;-1.24;-2.4073;-2.9685;1.6944;0.0;31.02;23.04;23.7;5.43;-45.73;133.86;5.0;982.58;67.51;;;;NaN;;;;;0 / 0;17020;2022-10-30 19:24:38:377
2.3918;-16.0274;1.9082;1.2078;0.0762;-9.7317;4.9001;-15.1627;7.3758;-0.067;0.2251;0.0481;0.0;7.68;42.66;9.06;11.87;-0.45;-172.92;5.0;982.49;56.796;;;;NaN;;;;;0 / 0;17521;2022-10-30 19:24:38:878
-11.0208;-4.8626;-1.6688;-4.7558;7.4744;-4.2053;23.1391;-33.6416;9.3268;0.5481;3.1347;-1.9207;0.0;25.08;27.6;23.58;5.8;-39.96;141.16;5.0;982.51;63.144;;;;NaN;;;;;0 / 0;18020;2022-10-30 19:24:39:377
4.5681;-14.7202;-3.3734;1.7865;0.6215;-9.6225;-3.8239;-12.9208;9.225;-2.6815;-0.6338;-0.3771;0.0;7.92;42.96;7.56;11.59;-2.08;-173.39;5.0;982.44;58.949;;;;NaN;;;;;0 / 0;18520;2022-10-30 19:24:39:877
-9.0169;-33.8956;-12.17;-3.9616;7.0008;-5.6094;-3.5541;-3.2969;-4.2574;-1.439;-0.0125;0.0695;0.0;21.96;28.98;26.16;7.85;-46.68;150.09;5.0;982.67;67.56;;;;NaN;;;;;0 / 0;19021;2022-10-30 19:24:40:378
-3.0622;-10.9083;-3.0071;2.1274;0.2116;-9.5708;10.227;-13.8373;5.5916;0.1089;1.814;-0.2225;0.0;4.86;44.82;7.98;8.34;-1.24;-167.47;5.0;982.43;64.966;;;;NaN;;;;;0 / 0;19520;2022-10-30 19:24:40:877
-0.1221;-1.9513;-4.0103;-3.5817;6.2251;-6.6775;-8.1501;-18.4238;-6.8261;0.4216;-2.1011;0.422;0.0;24.36;28.56;26.28;11.35;-39.4;151.79;5.0;982.52;67.08;;;;NaN;;;;;0 / 0;20020;2022-10-30 19:24:41:377
7.2116;-14.6962;-3.0335;1.3761;0.4859;-9.6974;2.2703;-11.387;4.9402;1.4956;4.3961;-0.0557;0.0;4.02;44.34;7.38;6.37;-2.84;-171.92;5.0;982.45;67.399;;;;NaN;;;;;0 / 0;20521;2022-10-30 19:24:41:878
-11.435;-20.8445;-9.2108;-3.0119;6.7088;-6.4878;-4.9156;-13.4607;-5.7421;-1.6687;-0.7767;0.0377;0.0;22.56;27.0;27.9;14.65;-47.8;158.94;5.0;982.54;67.214;;;;NaN;;;;;0 / 0;21021;2022-10-30 19:24:42:378
-3.3567;-9.7758;-4.4939;2.9472;-0.0772;-9.353;6.3354;-12.8972;6.5972;0.4882;1.8402;0.0915;0.0;4.56;41.82;11.4;8.2;-9.31;-173.5;5.0;982.44;66.034;;;;NaN;;;;;0 / 0;21521;2022-10-30 19:24:42:878
0.3136;-1.4964;-0.1006;-1.7499;6.78;-6.8658;1.4051;-9.0737;1.9143;2.6098;-0.2166;-1.3954;0.0;16.2;20.52;34.44;20.43;-50.43;178.14;5.0;982.33;68.172;;;;NaN;;;;;0 / 0;22020;2022-10-30 19:24:43:377
-0.5219;-4.561;1.1109;2.6613;0.8405;-9.4011;-1.7898;-10.2667;3.9469;1.1748;0.7474;0.5765;0.0;0.3;42.78;9.18;3.22;-4.92;-164.19;5.0;982.43;66.229;;;;NaN;;;;;0 / 0;22520;2022-10-30 19:24:43:877
0.2897;0.3687;3.9624;-0.5964;7.6274;-6.1349;0.8598;-7.7998;8.0598;1.0967;-1.2532;-0.5078;0.0;18.36;24.36;31.8;19.78;-51.06;174.45;5.0;982.38;59.48;;;;NaN;;;;;0 / 0;23021;2022-10-30 19:24:44:378
2.4062;-8.6027;-5.6626;1.5687;2.6525;-9.3099;-0.5583;-9.833;8.8861;1.8486;3.9001;-0.1498;0.0;-0.36;41.52;15.18;3.21;-15.69;-170.44;5.0;982.41;62.96;;;;NaN;;;;;0 / 0;23520;2022-10-30 19:24:44:877
0.1796;-0.4334;3.8307;-0.6969;7.3912;-6.4073;-0.3087;-8.167;7.3434;2.5994;-0.1439;-0.9733;0.0;13.5;20.88;35.7;23.99;-45.6;-174.33;5.0;982.33;56.421;;;;NaN;;;;;0 / 0;24021;2022-10-30 19:24:45:378
1.4413;-8.2699;0.1317;3.2742;1.8401;-9.0589;-3.0707;-6.2143;9.1619;1.3459;0.5055;0.2802;0.0;4.38;39.06;20.82;6.46;-24.63;-177.26;5.0;982.52;63.97;;;;NaN;;;;;0 / 0;24521;2022-10-30 19:24:45:878
1.5179;-2.5402;1.1372;1.4969;7.2428;-6.4398;-0.8744;-6.8214;9.7318;-0.9644;-2.401;0.4354;0.0;4.86;29.64;32.52;25.4;-28.75;-154.35;5.0;982.41;55.939;;;;NaN;;;;;0 / 0;25020;2022-10-30 19:24:46:377
-2.2194;-7.1278;-1.7454;1.9598;3.4095;-8.9835;-0.5472;-10.3698;6.0602;2.52;3.3045;-0.7515;0.0;-0.78;41.04;18.72;3.91;-20.35;-167.69;5.0;982.6;69.176;;;;NaN;;;;;0 / 0;25520;2022-10-30 19:24:46:877
-4.81;-11.9115;-2.1715;3.9561;5.5634;-7.0404;0.1523;-17.0727;5.307;-3.3004;-3.5274;-0.4693;0.0;2.88;25.5;35.52;27.82;-34.56;-150.67;5.0;982.41;56.531;;;;NaN;;;;;0 / 0;26021;2022-10-30 19:24:47:378
-1.9417;-5.6123;-1.9321;1.4944;5.6315;-7.8881;5.5951;-22.5926;7.4261;2.8529;2.5837;-1.1547;0.0;4.02;33.6;28.2;11.95;-35.05;-169.27;5.0;982.77;64.567;;;;NaN;;;;;0 / 0;26520;2022-10-30 19:24:47:877
0.3112;-9.7567;2.2482;4.5967;5.0642;-7.0281;-3.0859;-15.4457;4.4519;-3.6479;-3.1414;-0.2531;0.0;-8.04;38.1;21.06;11.02;-15.24;-137.71;5.0;982.57;72.198;;;;NaN;;;;;0 / 0;27020;2022-10-30 19:24:48:377
-7.5037;-1.1061;0.9122;1.8832;5.4794;-7.912;1.4807;-20.7933;13.0575;3.7631;2.5232;-0.6019;0.0;12.24;24.72;33.66;26.6;-39.47;-166.99;5.0;982.9;69.734;;;;NaN;;;;;0 / 0;27520;2022-10-30 19:24:48:877
0.3065;-11.5787;0.7949;5.0341;1.4261;-8.2942;-7.1171;-20.0465;10.2479;-2.0798;-1.6099;-0.3496;0.0;-3.3;45.12;9.96;3.56;-4.83;-147.52;5.0;982.41;63.827;;;;NaN;;;;;0 / 0;28021;2022-10-30 19:24:49:378
2.9257;-10.1541;-2.8156;6.9508;5.5;-4.1961;1.1036;-11.967;0.5569;-0.2931;2.9874;-0.564;0.0;-33.72;29.1;8.34;345.89;-34.11;-121.12;5.0;983.4;65.464;;;;NaN;;;;;0 / 0;28520;2022-10-30 19:24:49:877
7.4534;-8.4566;2.873;6.4582;7.1718;-1.7399;-0.5298;-12.8344;2.0607;0.228;0.5764;-0.4815;0.0;-41.88;22.2;-4.2;341.38;-47.0;-105.08;5.0;982.88;51.493;;;;NaN;;;;;0 / 0;29020;2022-10-30 19:24:50:377
4.7381;-0.0192;7.7312;-5.9846;7.7677;-0.1316;9.0946;-9.9106;8.3991;0.3178;0.7621;-1.7985;0.0;-4.2;-16.2;-43.5;107.69;-52.38;91.26;5.0;982.48;61.656;;;;NaN;;;;;0 / 0;29521;2022-10-30 19:24:50:878
2.2505;-2.241;10.4223;-3.7475;9.0541;-0.3871;10.4372;-9.5042;5.5661;0.7802;-0.4041;1.8386;0.0;-9.96;-20.4;-39.84;124.25;-52.81;100.24;5.0;982.55;54.942;;;;NaN;;;;;0 / 0;30020;2022-10-30 19:24:51:377
5.5141;-4.3263;5.2771;2.0962;9.4875;-1.3281;7.7252;-11.829;4.6153;0.5603;-2.624;1.097;0.0;-38.88;-3.36;-26.4;294.93;-83.55;-120.87;5.0;982.87;54.761;;;;NaN;;;;;0 / 0;30520;2022-10-30 19:24:51:877
-0.182;-8.9379;4.4772;7.1529;6.6479;0.9008;-4.8904;-15.5426;1.7256;-0.4384;1.74;0.7995;0.0;-38.52;26.94;-0.42;359.48;-43.87;-90.63;5.0;982.48;60.35;;;;NaN;;;;;0 / 0;31020;2022-10-30 19:24:52:377
3.0239;-15.0793;1.154;9.7289;0.9469;0.7888;-12.1901;-17.5417;4.6056;-1.9564;-3.2697;0.3254;0.0;-13.44;43.92;1.74;3.87;-5.54;-85.36;5.0;982.14;74.358;;;;NaN;;;;;0 / 0;31520;2022-10-30 19:24:52:877
-1.4365;3.8068;-9.546;9.2814;0.8496;-3.0502;-5.5273;-24.038;11.4159;-0.1171;1.1622;-0.8603;0.0;-4.62;32.64;29.16;37.34;-4.97;-108.19;5.0;982.78;59.5;;;;NaN;;;;;0 / 0;32020;2022-10-30 19:24:53:377
-8.5548;-13.0056;8.7415;9.7558;-0.5124;0.8559;-11.3144;-10.8508;-4.8973;-1.626;0.7902;-0.3612;0.0;-9.36;43.92;-9.06;349.33;3.0;-84.99;5.0;982.56;53.462;;;;NaN;;;;;0 / 0;32520;2022-10-30 19:24:53:877
9.6298;-27.0865;6.8357;9.2645;0.9525;-3.0712;-14.7044;0.903;-0.4722;2.2353;2.9862;-0.206;0.0;-0.18;33.3;29.22;38.97;-4.15;-110.21;5.0;982.73;59.079;;;;NaN;;;;;0 / 0;33021;2022-10-30 19:24:54:378
-6.3904;-10.4534;-2.7653;9.63;-0.0036;1.8528;-9.3331;-15.5809;0.3738;-3.3547;-0.6674;-1.4565;0.0;-7.98;43.98;-12.78;344.77;2.93;-82.39;5.0;982.6;64.045;;;;NaN;;;;;0 / 0;33520;2022-10-30 19:24:54:877
-1.4006;5.3825;-10.6545;8.7448;1.4948;-4.179;-28.2606;-38.891;-0.8204;-2.2967;-0.8506;1.0841;0.0;-1.86;35.64;25.68;33.4;-7.08;-106.76;5.0;982.72;66.565;;;;NaN;;;;;0 / 0;34020;2022-10-30 19:24:55:377
7.8269;-17.8182;-1.324;9.7374;-0.3205;1.1182;-12.5195;-13.6811;-5.8995;-1.2252;0.2092;-0.4424;0.0;-9.36;44.82;-7.44;352.44;1.87;-83.45;5.0;982.58;65.248;;;;NaN;;;;;0 / 0;34521;2022-10-30 19:24:55:878
-8.7727;-11.7486;-16.4248;8.8437;1.3851;-4.0051;-19.4048;-24.8704;-9.216;-2.0133;-0.9606;-0.272;0.0;-1.02;32.88;28.74;37.02;-8.12;-114.36;5.0;982.65;64.178;;;;NaN;;;;;0 / 0;35020;2022-10-30 19:24:56:377
-4.3263;-11.8013;-3.0167;9.7774;-0.1888;0.7321;-9.9211;-13.0945;-4.1702;0.641;1.0431;0.5124;0.0;-8.58;42.96;-12.6;343.98;1.1;-85.72;5.0;982.5;63.934;;;;NaN;;;;;0 / 0;35521;2022-10-30 19:24:56:878
-4.3407;-8.7128;-11.6289;8.4924;2.0785;-4.4418;-17.198;-7.9805;-6.0236;-3.2997;-3.2794;2.133;0.0;-3.36;34.86;26.04;31.75;-10.08;-113.15;5.0;982.56;66.381;;;;NaN;;;;;0 / 0;36020;2022-10-30 19:24:57:377
5.7703;-14.0183;-2.8994;9.7378;-0.1159;1.1543;-5.2247;-15.5548;-5.8518;-0.5557;-0.2752;-0.1712;0.0;-10.02;42.54;-10.62;345.29;-1.29;-91.99;5.0;982.46;67.619;;;;NaN;;;;;0 / 0;36520;2022-10-30 19:24:57:877
-12.0767;-13.2115;-19.3505;8.3995;1.9772;-4.6593;-17.639;-23.6286;-10.2284;-2.3474;-1.0113;0.1348;0.0;-3.48;32.46;27.18;36.13;-11.12;-108.98;5.0;982.48;64.294;;;;NaN;;;;;0 / 0;37020;2022-10-30 19:24:58:377
-3.2848;-8.2962;-3.8235;9.8028;0.0903;0.2582;-8.6344;-13.5412;-4.211;0.7833;1.4499;0.3462;0.0;-10.38;42.72;-12.84;343.54;-0.53;-88.49;5.0;982.46;65.695;;;;NaN;;;;;0 / 0;37520;2022-10-30 19:24:58:877
-2.3631;0.012;0.9002;8.4912;2.2226;-4.3737;-13.1575;-7.4303;-2.5555;1.8731;0.0046;-0.8829;0.0;-3.42;33.72;26.1;30.84;-13.1;-117.25;5.0;982.45;65.616;;;;NaN;;;;;0 / 0;38020;2022-10-30 19:24:59:377
9.7662;-14.8806;-2.0949;9.7296;0.414;-1.155;-5.5996;-11.1882;-0.5257;2.2683;3.1493;0.0133;0.0;-12.78;42.54;-9.54;345.22;-2.42;-96.77;5.0;982.54;67.162;;;;NaN;;;;;0 / 0;38520;2022-10-30 19:24:59:877
-6.4383;-6.831;-12.6249;7.7721;2.6692;-5.3516;-18.8983;-29.7845;-6.026;-1.7219;-1.7266;0.5337;0.0;-4.68;30.84;30.24;36.71;-16.67;-113.08;5.0;982.47;65.928;;;;NaN;;;;;0 / 0;39020;2022-10-30 19:25:00:377
3.5027;-6.4192;-3.1029;9.7066;0.3549;-1.3516;-11.9116;-11.8114;-2.5534;1.0973;1.624;0.6968;0.0;-16.02;42.6;-1.32;352.37;-7.18;-108.27;5.0;982.49;63.369;;;;NaN;;;;;0 / 0;39521;2022-10-30 19:25:00:878
-0.2849;-3.9193;3.0047;7.9673;3.2984;-4.6703;-9.0519;-4.2297;6.3439;1.5053;-1.1616;-0.8603;0.0;-9.66;30.96;30.18;36.68;-14.87;-106.86;5.0;982.39;57.582;;;;NaN;;;;;0 / 0;40022;2022-10-30 19:25:01:379
1.5299;-6.7328;-0.431;9.0183;1.1169;-3.6868;-11.051;-11.0532;5.5327;2.2341;2.4157;-0.057;0.0;-13.92;43.02;0.96;354.36;-6.54;-112.24;5.0;982.66;67.665;;;;NaN;;;;;0 / 0;40521;2022-10-30 19:25:01:878
3.45;-13.1253;-3.7086;8.5918;3.0355;-3.6244;-7.591;-7.2541;5.717;-2.5239;-2.1945;-0.3954;0.0;-7.68;28.98;31.5;38.04;-18.03;-112.87;5.0;982.35;56.099;;;;NaN;;;;;0 / 0;41021;2022-10-30 19:25:02:378
-1.1037;-11.5092;-0.1149;7.0924;2.5728;-6.2648;-7.1355;-11.3431;7.845;2.7271;2.7009;0.0762;0.0;-9.36;39.6;17.58;9.83;-15.21;-131.45;5.0;982.58;66.692;;;;NaN;;;;;0 / 0;41520;2022-10-30 19:25:02:877
3.6344;-12.5555;-4.9659;8.1591;3.7359;-3.955;-7.9651;-8.5938;6.3756;-2.6534;-2.4041;-0.2219;0.0;-15.0;36.78;18.78;16.82;-11.16;-111.46;5.0;982.45;59.874;;;;NaN;;;;;0 / 0;42020;2022-10-30 19:25:03:377
3.1388;-12.996;-1.2402;6.8207;2.8712;-6.4346;-7.7832;-11.7396;7.227;2.9427;3.054;-0.5151;0.0;1.26;29.22;31.98;30.86;-27.09;-138.86;5.0;982.74;68.756;;;;NaN;;;;;0 / 0;42521;2022-10-30 19:25:03:878
-0.1772;-10.9586;8.0089;9.0118;1.834;-3.405;-14.0112;-20.1335;-1.999;-3.8367;-2.1994;0.3865;0.0;-13.5;43.86;1.02;355.95;-1.19;-108.29;5.0;982.62;55.028;;;;NaN;;;;;0 / 0;43021;2022-10-30 19:25:04:378
-8.5045;-31.8677;-3.1891;5.867;4.7054;-6.2935;-7.3274;2.0993;18.3151;2.159;2.2874;-0.9708;0.0;1.92;29.1;31.2;32.36;-28.67;-137.01;5.0;983.14;67.971;;;;NaN;;;;;0 / 0;43521;2022-10-30 19:25:04:878
4.5346;-14.6121;-2.7845;9.0329;0.0726;-3.8172;-11.9658;-13.3751;2.7613;-2.0236;-0.3357;-0.2695;0.0;-11.64;43.02;4.2;358.69;-0.42;-112.91;5.0;982.54;59.203;;;;NaN;;;;;0 / 0;44021;2022-10-30 19:25:05:378
8.3417;-36.9294;-6.7543;4.498;4.5983;-7.4022;-11.5373;-18.5042;-3.3648;-2.0029;0.0889;0.6962;0.0;5.76;27.48;34.26;32.32;-27.96;-148.71;5.0;983.0;67.957;;;;NaN;;;;;0 / 0;44521;2022-10-30 19:25:05:878
2.0782;-13.8795;-5.1167;8.7837;0.0437;-4.3606;-9.7485;-13.4635;4.5162;-1.94;-0.7572;-0.14;0.0;-12.0;44.04;0.06;351.99;-1.71;-121.29;5.0;982.5;58.615;;;;NaN;;;;;0 / 0;45021;2022-10-30 19:25:06:378
-8.6553;-11.9785;-13.8699;4.2017;4.7185;-7.5001;-13.4436;-28.6372;-5.539;-2.2582;0.2434;0.3077;0.0;2.82;28.32;34.02;32.22;-33.54;-141.83;5.0;982.76;59.579;;;;NaN;;;;;0 / 0;45520;2022-10-30 19:25:06:877
1.8627;-9.5125;-5.0521;7.9909;0.4057;-5.6702;-9.6213;-10.6053;3.5034;0.8322;0.3192;0.6321;0.0;-12.78;42.66;9.72;357.21;-10.8;-135.31;5.0;982.55;61.834;;;;NaN;;;;;0 / 0;46020;2022-10-30 19:25:07:377
-0.2227;-1.9537;2.3535;4.8266;5.6095;-6.4348;-4.1419;-6.7922;7.7157;1.5243;-1.0003;-0.5377;0.0;1.5;27.9;34.26;30.18;-34.89;-143.13;5.0;982.57;53.16;;;;NaN;;;;;0 / 0;46521;2022-10-30 19:25:07:878
1.2426;-8.8014;-2.3152;6.3278;1.9419;-7.2359;-5.0301;-10.2501;8.4761;2.0356;3.5336;-0.2402;0.0;-12.36;43.02;11.88;358.57;-11.42;-138.83;5.0;982.77;65.835;;;;NaN;;;;;0 / 0;47021;2022-10-30 19:25:08:378
-1.1947;-2.3727;2.569;5.5355;5.0189;-6.3513;-3.4765;-12.209;6.2603;-2.4354;-2.153;-0.1174;0.0;-0.66;25.26;35.46;32.2;-30.78;-138.93;5.0;982.47;66.406;;;;NaN;;;;;0 / 0;47521;2022-10-30 19:25:08:878
0.0838;-9.2299;-1.5275;5.3562;1.9849;-7.9713;-5.9667;-10.3218;8.6872;2.2066;3.4816;-0.2085;0.0;-3.84;35.4;24.24;8.41;-23.62;-155.92;5.0;982.95;66.768;;;;NaN;;;;;0 / 0;48020;2022-10-30 19:25:09:377
2.6264;-12.7159;-3.9959;4.7713;5.9912;-6.1245;-3.5982;-10.7604;7.1564;-2.235;-1.8909;-0.1535;0.0;-11.82;30.54;22.92;12.13;-18.58;-134.48;5.0;982.41;57.927;;;;NaN;;;;;0 / 0;48521;2022-10-30 19:25:09:878
-2.7414;-9.6657;-2.4134;3.2869;5.4052;-7.4933;-10.1562;-16.8091;5.973;1.3318;-3.313;-0.4247;0.0;3.66;24.42;31.68;24.31;-40.63;-156.56;5.0;982.87;68.399;;;;NaN;;;;;0 / 0;49020;2022-10-30 19:25:10:377
-4.7453;-17.2221;-8.7272;3.0448;7.3369;-5.7505;-8.8247;-15.1423;-1.4252;-1.0438;-0.106;0.2399;0.0;5.46;16.8;36.36;32.54;-48.43;-152.1;5.0;982.51;58.782;;;;NaN;;;;;0 / 0;49520;2022-10-30 19:25:10:877
6.6921;-10.6928;1.233;3.6015;3.6378;-8.3646;-4.394;-29.6708;1.2272;-0.089;-1.7003;-0.1187;0.0;-4.02;36.78;18.96;5.3;-21.77;-156.71;5.0;982.54;62.982;;;;NaN;;;;;0 / 0;50020;2022-10-30 19:25:11:377
-1.8292;-1.6065;-0.1101;3.515;7.0788;-5.8057;-7.2619;-11.3788;1.4554;1.4442;-0.2782;-0.7265;0.0;8.04;26.82;32.76;33.57;-46.21;-148.81;5.0;982.76;67.995;;;;NaN;;;;;0 / 0;50521;2022-10-30 19:25:11:878
-2.1739;-7.4032;-6.3545;5.16;1.3715;-8.2258;-3.9366;-10.0938;7.4764;0.1193;0.3974;0.6083;0.0;-10.02;48.3;7.92;354.15;-14.3;-151.97;5.0;982.68;63.53;;;;NaN;;;;;0 / 0;51020;2022-10-30 19:25:12:377
-0.3759;0.3065;1.652;2.0086;6.9003;-6.6724;-4.1897;0.5627;8.6118;2.8529;-0.3283;-0.881;0.0;-1.44;26.4;40.62;27.01;-40.15;-146.84;5.0;982.81;58.913;;;;NaN;;;;;0 / 0;51520;2022-10-30 19:25:12:877
1.9992;-5.6578;-1.7286;5.7191;2.0653;-7.6939;-3.6409;-8.8268;10.3204;1.9616;1.9374;-0.0417;0.0;-21.72;39.12;17.34;341.86;-23.6;-159.84;5.0;982.82;65.907;;;;NaN;;;;;0 / 0;52021;2022-10-30 19:25:13:378
1.0798;-6.6969;1.64;7.1299;4.8564;-4.6636;-6.0908;-8.0599;4.8504;-1.4781;-2.2006;0.6926;0.0;-16.14;25.86;41.88;33.02;-29.68;-123.19;5.0;982.69;59.521;;;;NaN;;;;;0 / 0;52520;2022-10-30 19:25:13:877
0.6752;-7.9538;1.6496;7.521;3.5448;-5.1999;-11.8138;-10.6439;5.8009;2.3874;0.3357;-0.6703;0.0;-22.2;39.66;17.64;2.76;-21.19;-124.66;5.0;982.89;66.685;;;;NaN;;;;;0 / 0;53020;2022-10-30 19:25:14:377
1.7095;-5.4447;0.759;9.2001;3.0649;-1.4612;-13.4905;-13.5637;0.3335;-2.9546;-2.4865;0.5209;0.0;-15.66;34.86;23.46;27.2;-18.21;-99.02;5.0;982.51;59.882;;;;NaN;;;;;0 / 0;53520;2022-10-30 19:25:14:877
-2.332;-7.8365;-2.2075;8.7577;2.801;-3.4099;-12.1479;-8.7413;4.3508;2.1999;1.211;-0.5487;0.0;-12.84;36.72;21.9;14.6;-21.25;-123.54;5.0;983.25;68.408;;;;NaN;;;;;0 / 0;54021;2022-10-30 19:25:15:378
-3.1675;-15.5605;-0.6895;9.405;2.5745;-1.0434;-8.227;-13.4038;-0.7475;-3.5606;-4.7217;-0.2457;0.0;-21.3;39.42;0.42;0.96;-12.78;-88.06;5.0;982.54;61.219;;;;NaN;;;;;0 / 0;54520;2022-10-30 19:25:15:877
-3.3088;-6.8214;-3.8882;7.9436;3.2809;-4.7227;-3.9357;-18.8462;5.5583;3.5853;3.47;-1.1565;0.0;-5.46;32.16;29.34;29.26;-19.55;-125.26;5.0;983.34;63.44;;;;NaN;;;;;0 / 0;55020;2022-10-30 19:25:16:377
2.6121;-17.0401;2.3607;9.4889;2.4621;0.2617;-13.8679;-18.6762;-0.4748;-2.9283;-1.872;-0.5909;0.0;-21.36;41.22;1.44;2.01;-14.54;-88.42;5.0;982.57;57.041;;;;NaN;;;;;0 / 0;55520;2022-10-30 19:25:16:877
-2.5115;1.9513;-4.6352;7.3823;3.4674;-5.445;2.3217;-38.4192;4.4155;-0.4317;2.3711;-0.9647;0.0;-9.9;34.8;28.02;21.82;-20.71;-126.41;5.0;983.03;65.236;;;;NaN;;;;;0 / 0;56021;2022-10-30 19:25:17:378
3.0382;-15.7664;3.5003;9.6389;1.7974;0.1777;-10.1105;-15.5955;-5.4524;-0.3358;1.076;0.221;0.0;-25.08;41.76;-16.56;340.2;-10.56;-88.94;5.0;982.76;61.661;;;;NaN;;;;;0 / 0;56521;2022-10-30 19:25:17:878
-2.071;4.2593;-9.5771;7.1526;3.4571;-5.7497;-12.705;-31.7455;3.6596;-1.2112;-0.161;0.1923;0.0;-7.5;36.36;33.66;31.33;-19.98;-121.1;5.0;982.86;61.241;;;;NaN;;;;;0 / 0;57020;2022-10-30 19:25:18:377
8.1286;-11.4111;-3.6152;9.673;1.5691;-0.375;-5.2102;-16.2147;-2.747;0.0625;0.6851;-0.1608;0.0;-21.72;45.78;-4.44;351.13;-11.77;-99.82;5.0;982.65;62.933;;;;NaN;;;;;0 / 0;57527;2022-10-30 19:25:18:884
-0.8811;-2.9233;-3.4453;7.6958;3.4035;-5.0359;-16.9162;-13.9047;-8.7717;0.0667;-2.04;0.235;0.0;-2.16;29.34;34.38;42.52;-19.14;-114.95;5.0;982.64;59.184;;;;NaN;;;;;0 / 0;58021;2022-10-30 19:25:19:378
1.7909;-6.321;0.4932;9.3621;2.0845;-2.0434;-6.5202;-10.0096;-1.3277;1.7228;0.525;0.1275;0.0;-19.2;40.44;-0.78;353.33;-12.27;-102.31;5.0;982.64;64.268;;;;NaN;;;;;0 / 0;58521;2022-10-30 19:25:19:878
0.8619;-1.4796;1.4437;8.5519;3.4771;-3.3083;-8.4154;-6.5274;5.2045;-0.9174;-2.1163;0.2937;0.0;-2.76;24.18;31.2;45.45;-20.77;-111.15;5.0;982.55;66.416;;;;NaN;;;;;0 / 0;59021;2022-10-30 19:25:20:378
0.747;-6.8501;-1.221;8.4801;2.7663;-4.0749;-12.3923;-12.0968;4.1802;2.0478;0.8005;-0.6501;0.0;-15.9;35.52;9.6;2.99;-16.38;-115.67;5.0;982.75;66.634;;;;NaN;;;;;0 / 0;59521;2022-10-30 19:25:20:878
2.9113;-8.4063;-0.5387;9.0126;2.9664;-2.4785;-9.8219;-5.5785;4.0491;-1.9986;-2.3363;0.3163;0.0;-12.3;32.34;14.7;23.82;-14.6;-89.97;5.0;982.63;56.141;;;;NaN;;;;;0 / 0;60020;2022-10-30 19:25:21:377
-1.7669;-10.2571;-0.2322;8.4141;2.3198;-4.4711;-9.5993;-13.2783;3.8678;2.8871;1.1463;-0.9879;0.0;-6.0;31.08;19.74;21.64;-21.07;-122.22;5.0;983.07;65.126;;;;NaN;;;;;0 / 0;60520;2022-10-30 19:25:21:877
-1.1516;-17.1574;3.3854;9.298;2.6335;-1.6679;-10.7776;-18.5484;-0.2595;-3.4488;-0.3528;-0.2201;0.0;-14.46;37.26;0.66;357.77;-5.02;-100.15;5.0;982.71;54.288;;;;NaN;;;;;0 / 0;61021;2022-10-30 19:25:22:378
-7.0919;-24.7043;-6.0337;4.4244;5.7443;-6.6029;3.0602;-9.0076;23.7771;1.8419;4.5134;-2.3923;0.0;-2.34;23.88;28.08;22.43;-35.86;-146.17;5.0;983.41;61.263;;;;NaN;;;;;0 / 0;61520;2022-10-30 19:25:22:877
8.5883;-12.0336;-1.719;9.2715;1.5828;-2.7756;-9.9826;-13.6905;-1.1389;-0.4085;1.569;0.0487;0.0;-16.86;35.16;-4.38;346.75;-9.29;-106.67;5.0;982.63;64.504;;;;NaN;;;;;0 / 0;62021;2022-10-30 19:25:23:378
-8.0472;-1.6975;-8.7415;7.9744;3.5474;-4.4715;-14.3385;-10.9937;-6.8725;0.8774;-0.7596;-0.4797;0.0;-8.34;28.44;23.52;27.37;-21.21;-119.28;5.0;982.93;58.325;;;;NaN;;;;;0 / 0;62521;2022-10-30 19:25:23:878
5.6075;-10.6713;-1.9872;9.5847;2.0701;0.1359;-4.0777;-15.5019;-0.6052;0.4137;0.8775;-0.0466;0.0;-20.22;34.44;-9.36;343.67;-15.28;-96.09;5.0;982.72;67.023;;;;NaN;;;;;0 / 0;63020;2022-10-30 19:25:24:377
-1.6807;-2.6935;-0.9577;8.8423;2.5839;-3.3625;-11.033;-7.1209;-3.9209;2.0991;0.4071;-1.4772;0.0;-7.38;29.04;26.7;38.31;-12.91;-103.4;5.0;982.91;70.273;;;;NaN;;;;;0 / 0;63520;2022-10-30 19:25:24:877
0.0263;-6.4862;0.0263;9.5171;2.3183;-0.4693;-7.0032;-10.9114;-2.3056;1.5933;0.7969;0.0799;0.0;-19.74;38.46;2.58;356.94;-14.84;-104.89;5.0;982.75;63.422;;;;NaN;;;;;0 / 0;64020;2022-10-30 19:25:25:377
0.4334;-2.2865;2.2913;9.1484;2.4919;-2.5035;-9.9983;-4.9866;4.7253;-0.5918;-2.0974;0.3102;0.0;-7.38;30.12;27.12;36.63;-14.72;-105.3;5.0;982.76;61.366;;;;NaN;;;;;0 / 0;64521;2022-10-30 19:25:25:878
-4.6232;-6.7089;-0.4573;8.8148;2.5451;-3.4629;-8.3839;-11.7056;2.0431;2.4228;2.7883;-0.9372;0.0;-19.14;37.92;3.3;354.29;-15.04;-111.45;5.0;982.9;68.888;;;;NaN;;;;;0 / 0;65020;2022-10-30 19:25:26:377
1.4389;-4.6878;1.1085;9.5565;2.1728;0.3498;-9.4368;-14.6373;1.4865;-2.45;-4.9715;-0.2023;0.0;-16.14;35.46;16.26;23.82;-12.8;-87.9;5.0;982.56;55.292;;;;NaN;;;;;0 / 0;65520;2022-10-30 19:25:26:877
0.5507;-8.878;0.3065;8.8158;2.5497;-3.457;-13.2809;-10.6257;4.5895;2.2035;-0.1359;-0.9464;0.0;-10.56;33.6;19.32;15.8;-18.66;-120.33;5.0;983.25;65.292;;;;NaN;;;;;0 / 0;66021;2022-10-30 19:25:27:378
-2.8108;-19.5924;-2.9832;9.5164;2.3153;0.4969;-11.6616;-14.6888;0.2142;-2.6241;-0.7773;0.4714;0.0;-18.0;37.02;-4.56;354.0;-10.65;-87.38;5.0;982.67;56.937;;;;NaN;;;;;0 / 0;66520;2022-10-30 19:25:27:877
13.2857;-27.9221;-1.9968;7.7941;3.2823;-4.9647;-15.8701;-0.857;5.8529;1.4742;0.9239;-0.5615;0.0;-5.58;28.92;26.1;30.66;-18.5;-119.45;5.0;983.02;66.759;;;;NaN;;;;;0 / 0;67021;2022-10-30 19:25:28:378
8.4949;-13.9298;-0.1197;9.6957;1.4599;-0.1773;-12.655;-16.4314;-4.6686;-1.2723;0.5843;-0.0655;0.0;-15.96;36.6;-7.98;347.98;-8.56;-91.05;5.0;982.76;59.997;;;;NaN;;;;;0 / 0;67521;2022-10-30 19:25:28:878
-3.1532;-4.2904;-6.0552;7.9487;3.0306;-4.8789;-13.8459;-22.4697;-8.2919;-0.4018;-1.7944;0.692;0.0;-7.44;31.02;21.78;23.39;-18.0;-121.54;5.0;982.82;69.229;;;;NaN;;;;;0 / 0;68021;2022-10-30 19:25:29:378
7.6977;-10.858;-1.6281;9.4843;1.8035;-1.7223;-9.106;-10.3343;-0.5307;1.1932;1.1536;0.2912;0.0;-16.92;38.04;-10.86;340.92;-10.6;-100.29;5.0;982.73;64.847;;;;NaN;;;;;0 / 0;68521;2022-10-30 19:25:29:878
-1.0319;-2.3224;-1.5036;7.8482;3.2972;-4.8687;-12.7446;-9.7068;-2.1346;1.2934;-0.5782;-0.7118;0.0;-8.4;33.84;26.22;29.63;-18.66;-111.07;5.0;982.72;66.395;;;;NaN;;;;;0 / 0;69020;2022-10-30 19:25:30:377
1.0702;-6.5652;0.7087;9.3063;2.1604;-2.2128;-6.6343;-9.3026;1.5041;1.217;0.128;0.1251;0.0;-19.44;42.72;5.04;354.6;-16.17;-117.7;5.0;982.74;65.043;;;;NaN;;;;;0 / 0;69521;2022-10-30 19:25:30:878
1.652;-7.8796;2.6121;8.7646;3.287;-2.9237;-8.2259;-5.0467;4.2764;-1.7164;-2.7449;0.2161;0.0;-19.02;41.04;14.88;19.14;-14.53;-88.79;5.0;982.71;60.817;;;;NaN;;;;;0 / 0;70020;2022-10-30 19:25:31:377
0.8164;-8.9666;-0.9529;7.7686;2.9841;-5.188;-12.4971;-10.1263;5.4753;2.228;2.6191;0.2289;0.0;-13.26;41.64;18.48;9.49;-17.72;-123.74;5.0;982.97;66.88;;;;NaN;;;;;0 / 0;70521;2022-10-30 19:25:31:878
-6.5413;-11.4302;3.5458;9.4735;2.2395;-1.1867;-11.1542;-17.6085;0.0853;-3.293;0.8787;-1.1131;0.0;-22.02;39.0;11.64;11.96;-13.2;-97.14;5.0;982.77;56.317;;;;NaN;;;;;0 / 0;71020;2022-10-30 19:25:32:377
-4.0701;-13.767;-2.9066;6.9148;3.6977;-5.8892;-7.4559;-31.8305;-2.4214;-2.6009;-2.4926;-0.1785;0.0;-3.96;29.4;31.44;30.55;-22.15;-130.42;5.0;983.28;65.13;;;;NaN;;;;;0 / 0;71521;2022-10-30 19:25:32:878
-0.6584;-14.5475;-4.5562;9.153;1.3733;-3.2413;-6.1747;-13.0238;3.1359;-3.4726;-0.0125;-0.264;0.0;-18.48;40.98;-2.94;347.24;-6.17;-112.32;5.0;982.75;59.983;;;;NaN;;;;;0 / 0;72021;2022-10-30 19:25:33:378
-6.6466;-9.2347;-5.1574;4.4767;4.1978;-7.649;-11.9038;-27.2857;-1.2457;-1.5734;-1.1249;0.2039;0.0;-7.62;27.84;31.08;20.16;-33.74;-138.84;5.0;982.9;62.759;;;;NaN;;;;;0 / 0;72521;2022-10-30 19:25:33:878
-0.3567;-9.5484;-2.1787;2.9551;3.6703;-8.6003;-3.6422;-12.7135;7.3554;0.8419;0.3021;-0.148;0.0;-8.16;33.9;26.4;3.41;-26.23;-157.56;5.0;982.81;69.216;;;;NaN;;;;;0 / 0;73021;2022-10-30 19:25:34:378
0.3759;-10.1373;0.0886;3.7331;1.3529;-8.9668;-2.579;-10.9468;8.1432;0.0429;0.0089;0.0554;0.0;-11.28;39.12;14.64;353.91;-7.93;-157.4;5.0;982.78;54.004;;;;NaN;;;;;0 / 0;73520;2022-10-30 19:25:34:877
-2.2434;-9.1892;-2.4325;1.025;5.4913;-8.0601;-2.8015;-13.019;5.5438;-0.4244;-0.8354;-0.2891;0.0;3.42;25.14;32.94;10.42;-34.05;-172.75;5.0;982.82;55.77;;;;NaN;;;;;0 / 0;74021;2022-10-30 19:25:35:378
3.3184;-10.7407;1.9417;-1.4523;4.4277;-8.6288;-2.7567;-22.2771;5.5067;-0.7848;-1.3118;0.3651;0.0;7.92;29.04;28.74;4.47;-26.84;170.45;5.0;982.96;57.528;;;;NaN;;;;;0 / 0;74521;2022-10-30 19:25:35:878
0.9864;-10.2355;-1.4078;-1.1906;2.2075;-9.4805;2.28;-11.8469;8.2403;0.0447;0.0632;-0.0851;0.0;1.44;36.18;23.58;357.37;-15.31;173.11;5.0;982.8;58.797;;;;NaN;;;;;0 / 0;75020;2022-10-30 19:25:36:377
-1.1947;-7.8461;-4.2258;0.2077;4.1692;-8.8738;-0.301;-12.3888;8.699;0.3093;-0.6295;0.1141;0.0;0.12;31.8;28.14;3.06;-17.92;-175.72;5.0;982.84;59.568;;;;NaN;;;;;0 / 0;75520;2022-10-30 19:25:36:877
-1.7526;-9.2252;-2.9161;-0.0805;1.5717;-9.6795;-0.0919;-11.9388;11.9277;0.7081;0.2746;-0.2524;0.0;1.08;36.54;21.78;1.41;-10.49;179.99;5.0;982.86;59.892;;;;NaN;;;;;0 / 0;76021;2022-10-30 19:25:37:378
-0.0096;-9.6944;0.6728;-0.8498;-3.4207;-9.1513;0.3949;-6.3503;9.4099;0.0057;0.0015;0.0341;0.0;1.5;39.78;18.36;0.87;-2.74;175.62;5.0;982.86;59.767;;;;NaN;;;;;0 / 0;76521;2022-10-30 19:25:37:878
-0.6488;-9.6896;0.3807;-0.6751;-6.9397;-6.896;-0.0144;-2.8242;7.3533;-0.0255;-0.0082;-0.0124;0.0;-0.18;38.64;19.56;353.49;41.33;174.72;5.0;982.87;61.682;;;;NaN;;;;;0 / 0;77021;2022-10-30 19:25:38:378
-0.4022;-9.7662;-0.0982;-0.6698;-8.4987;-4.8469;0.2221;-1.1813;5.0313;0.0154;-0.0186;-0.0081;0.0;0.96;37.26;20.64;333.24;56.2;172.92;5.0;982.84;62.125;;;;NaN;;;;;0 / 0;77520;2022-10-30 19:25:38:877
-0.5291;-9.7591;0.3855;-0.57;-9.6525;-1.6352;0.0289;-0.1353;1.98;0.0124;0.0504;-0.0014;0.0;0.96;38.22;20.1;201.13;76.02;166.13;5.0;982.83;63.058;;;;NaN;;;;;0 / 0;78021;2022-10-30 19:25:39:378
-0.4429;-9.7543;0.2155;-0.4665;-9.7955;0.0035;0.0595;0.0796;0.2981;-0.017;-0.018;0.0029;0.0;0.9;38.88;18.54;257.41;87.02;105.58;5.0;982.84;59.535;;;;NaN;;;;;0 / 0;78520;2022-10-30 19:25:39:877
-0.5052;-9.7327;0.2418;-0.5051;-9.7923;0.1592;-0.0696;0.0883;0.109;0.0014;0.0192;0.0017;0.0;0.48;38.7;19.56;292.79;87.0;72.58;5.0;982.87;59.112;;;;NaN;;;;;0 / 0;79020;2022-10-30 19:25:40:377
-0.4022;-9.7423;0.1317;-0.5;-9.7929;0.1369;0.093;0.0315;-0.0172;-0.0023;-0.0156;-0.0118;0.0;-0.12;37.92;18.54;291.79;86.88;73.98;5.0;982.93;58.252;;;;NaN;;;;;0 / 0;79521;2022-10-30 19:25:40:878
-0.5004;-9.7351;0.1317;-0.4833;-9.7936;0.1472;-0.0578;0.0274;-0.0347;-0.0066;9.0E-4;0.009;0.0;0.24;38.4;19.74;291.4;87.15;73.63;5.0;982.89;60.055;;;;NaN;;;;;0 / 0;80021;2022-10-30 19:25:41:378
-0.6847;-9.6968;0.0886;-0.5838;-9.7888;0.0919;-0.0579;0.0657;0.0063;-5.0E-4;0.0266;0.0029;0.0;0.0;36.78;22.98;285.15;86.67;80.0;5.0;982.88;61.655;;;;NaN;;;;;0 / 0;80521;2022-10-30 19:25:41:878
-0.6177;-9.7471;0.0192;-0.5699;-9.7896;0.0989;0.1318;0.1215;-0.0558;0.035;0.0663;-0.002;0.0;1.2;38.82;19.86;281.12;86.52;82.68;5.0;982.87;63.02;;;;NaN;;;;;0 / 0;81020;2022-10-30 19:25:42:377
-0.2442;-9.7543;0.2131;-0.3894;-9.7963;0.2245;0.0925;0.0253;-0.0066;0.0307;-0.0418;-0.0087;0.0;-0.24;38.64;18.6;297.62;87.35;67.18;5.0;982.85;60.797;;;;NaN;;;;;0 / 0;81521;2022-10-30 19:25:42:878
-0.5004;-9.8213;0.2059;-0.3938;-9.7913;0.3803;-0.0563;0.0873;0.01;0.0166;-0.0907;0.0084;0.0;0.48;38.94;18.6;316.66;86.92;47.64;5.0;982.88;60.163;;;;NaN;;;;;0 / 0;82020;2022-10-30 19:25:43:377
-0.6847;-9.6322;0.3591;-0.4358;-9.7868;0.4458;-0.1579;0.0708;0.0091;0.0038;-0.0724;0.0023;0.0;1.74;39.12;18.3;315.31;86.45;43.69;5.0;982.89;59.553;;;;NaN;;;;;0 / 0;82521;2022-10-30 19:25:43:878
-0.5291;-9.7375;0.3424;-0.5511;-9.7831;0.3968;0.0579;0.1246;-0.0664;-0.0084;0.0437;-0.0148;0.0;0.36;37.86;18.3;314.06;85.97;52.0;5.0;982.87;59.851;;;;NaN;;;;;0 / 0;83020;2022-10-30 19:25:44:377
-0.4238;-9.704;0.395;-0.4978;-9.7869;0.3733;0.0645;0.1044;0.06;-0.0121;0.0785;-0.005;0.0;0.6;38.64;18.48;308.74;86.29;54.3;5.0;982.87;60.957;;;;NaN;;;;;0 / 0;83521;2022-10-30 19:25:44:878
-0.3304;-9.8046;0.4405;-0.3457;-9.7901;0.4514;-0.0398;0.079;0.1256;-5.0E-4;0.0296;0.0084;0.0;0.3;39.18;18.72;326.06;86.66;37.72;5.0;982.9;61.4;;;;NaN;;;;;0 / 0;84020;2022-10-30 19:25:45:377
-0.3974;-9.7519;0.5507;-0.4193;-9.7885;0.4245;-0.0691;0.0629;-0.0366;-0.0078;-0.0211;0.0115;0.0;0.96;38.34;17.88;319.49;86.49;42.09;5.0;982.9;61.824;;;;NaN;;;;;0 / 0;84521;2022-10-30 19:25:45:878
-0.5531;-9.6848;0.4262;-0.5434;-9.7828;0.4145;-0.0528;0.0572;-0.1368;-0.0176;0.0528;-0.0044;0.0;1.38;39.24;18.84;311.69;86.06;51.28;5.0;982.91;64.464;;;;NaN;;;;;0 / 0;85021;2022-10-30 19:25:46:378
-0.3687;-9.7303;0.5267;-0.4578;-9.7884;0.385;0.0484;6.0E-4;-0.0378;0.0136;-0.0113;-0.0105;0.0;-0.54;39.24;19.02;314.1;86.47;54.07;5.0;982.89;65.804;;;;NaN;;;;;0 / 0;85521;2022-10-30 19:25:46:878
-0.395;-9.7758;0.3328;-0.4188;-9.7901;0.3851;0.0141;0.0742;-0.0451;-0.0096;0.0034;0.0066;0.0;0.72;38.64;18.48;315.27;86.68;46.56;5.0;982.89;65.317;;;;NaN;;;;;0 / 0;86020;2022-10-30 19:25:47:377
-0.5219;-9.6968;0.4525;-0.4738;-9.7896;0.3313;-0.1199;-0.0054;-0.0727;-5.0E-4;-0.0357;-0.0026;0.0;-0.18;39.18;18.18;311.7;86.71;53.59;5.0;982.91;67.367;;;;NaN;;;;;0 / 0;86520;2022-10-30 19:25:47:877
-0.4118;-9.7854;0.3519;-0.4853;-9.7899;0.305;0.0352;0.1002;0.0182;-0.0066;-0.0107;-0.0032;0.0;0.12;38.34;17.94;307.77;86.54;57.96;5.0;982.89;70.562;;;;NaN;;;;;0 / 0;87020;2022-10-30 19:25:48:377
-0.34;-9.7279;0.2825;-0.4349;-9.7922;0.3063;0.0805;0.069;0.0816;0.0014;0.0144;-0.0026;0.0;-1.14;38.58;20.1;311.52;86.83;55.93;5.0;982.83;71.759;;;;NaN;;;;;0 / 0;87520;2022-10-30 19:25:48:877
-0.4046;-9.7208;0.395;-0.4177;-9.7913;0.3542;-0.0827;0.1113;-0.043;0.0038;-0.0443;0.0029;0.0;0.66;38.28;20.46;310.4;86.87;51.22;5.0;982.88;68.696;;;;NaN;;;;;0 / 0;88021;2022-10-30 19:25:49:378
-0.4357;-9.7064;0.3256;-0.4567;-9.7878;0.4013;-0.0915;0.0934;0.0153;0.0111;0.0241;0.0151;0.0;2.1;39.12;18.9;309.88;86.6;49.4;5.0;982.84;63.484;;;;NaN;;;;;0 / 0;88520;2022-10-30 19:25:49:877
-0.5435;-9.7375;0.3759;-0.5498;-9.7821;0.4212;-0.0583;0.0829;-0.0261;-0.0133;0.0968;-0.0038;0.0;0.84;39.36;18.66;312.52;85.94;50.55;5.0;982.87;61.044;;;;NaN;;;;;0 / 0;89021;2022-10-30 19:25:50:378
-0.249;-9.6561;0.4286;-0.4814;-9.7892;0.3326;0.0912;0.078;0.0193;-0.0224;-0.0217;0.0023;0.0;-0.24;37.68;18.06;309.55;86.26;56.49;5.0;982.9;59.325;;;;NaN;;;;;0 / 0;89521;2022-10-30 19:25:50:878
-0.3184;-9.7806;0.3615;-0.347;-9.7918;0.4128;-0.084;0.016;-0.0824;0.0063;-0.0235;0.0053;0.0;1.08;39.42;18.72;320.5;87.02;40.34;5.0;982.91;58.025;;;;NaN;;;;;0 / 0;90020;2022-10-30 19:25:51:377
-0.5794;-9.7208;0.4046;-0.4572;-9.7856;0.4518;-0.1174;0.0768;0.0127;0.0203;-0.048;0.0108;0.0;0.54;39.36;18.0;318.05;86.49;43.81;5.0;982.91;58.728;;;;NaN;;;;;0 / 0;90520;2022-10-30 19:25:51:877
-0.6201;-9.7327;0.4477;-0.5568;-9.7799;0.4612;-0.0562;0.0496;0.0153;-0.0047;0.0565;0.0011;0.0;0.48;38.76;18.48;316.17;85.8;50.07;5.0;982.9;60.689;;;;NaN;;;;;0 / 0;91021;2022-10-30 19:25:52:378
-0.4764;-9.7591;0.4788;-0.5022;-9.7853;0.4071;0.1143;0.0933;-0.0599;0.0026;0.0058;-0.0154;0.0;0.84;38.4;17.4;310.91;86.07;52.3;5.0;982.86;61.889;;;;NaN;;;;;0 / 0;91521;2022-10-30 19:25:52:878
-0.3352;-9.7184;0.4645;-0.4056;-9.7895;0.4131;-0.066;0.0089;0.0106;0.0136;-0.0052;-0.0185;0.0;-1.74;38.82;18.96;323.13;86.59;47.01;5.0;982.84;62.611;;;;NaN;;;;;0 / 0;92020;2022-10-30 19:25:53:377
-0.4334;-9.7615;0.5435;-0.2959;-9.7898;0.4919;0.078;0.0547;0.042;0.0118;-0.0999;-0.0069;0.0;1.2;39.48;18.84;326.79;86.69;33.87;5.0;982.87;61.829;;;;NaN;;;;;0 / 0;92521;2022-10-30 19:25:53:878
-0.431;-9.7184;0.5004;-0.367;-9.7858;0.5232;-0.0185;0.0674;0.1304;0.0069;0.0089;0.0182;0.0;0.42;39.36;18.0;331.32;86.35;32.43;5.0;982.9;60.334;;;;NaN;;;;;0 / 0;93020;2022-10-30 19:25:54:377
-0.4956;-9.7064;0.3663;-0.4358;-9.7849;0.4848;-0.0167;0.069;-0.0275;-0.0029;0.0089;0.0017;0.0;1.38;39.42;18.72;321.55;86.22;40.2;5.0;982.91;60.892;;;;NaN;;;;;0 / 0;93521;2022-10-30 19:25:54:878
-0.4405;-9.7423;0.3855;-0.4478;-9.7857;0.4571;0.0073;0.053;0.0672;-0.0041;0.0284;-0.0032;0.0;0.3;38.52;17.52;320.99;86.19;44.15;5.0;982.9;60.66;;;;NaN;;;;;0 / 0;94021;2022-10-30 19:25:55:378
-0.3855;-9.7591;0.4166;-0.434;-9.7868;0.4481;0.039;0.066;0.0499;0.0105;0.0131;-0.0081;0.0;1.02;38.94;18.9;317.34;86.34;44.68;5.0;982.88;60.604;;;;NaN;;;;;0 / 0;94520;2022-10-30 19:25:55:877
-0.3424;-9.7136;0.5171;-0.3916;-9.7881;0.4591;-0.0178;0.0505;-0.0951;0.002;0.0015;-8.0E-4;0.0;0.36;38.76;17.82;323.29;86.47;41.22;5.0;982.86;61.502;;;;NaN;;;;;0 / 0;95020;2022-10-30 19:25:56:377
-0.3328;-9.6825;0.577;-0.3978;-9.7869;0.478;-0.0188;0.0278;-0.0088;0.0087;-0.0101;0.0053;0.0;1.2;38.34;18.42;321.08;86.43;40.42;5.0;982.86;59.814;;;;NaN;;;;;0 / 0;95520;2022-10-30 19:25:56:877
-0.3687;-9.7255;0.3735;-0.4139;-9.7884;0.4303;-0.017;0.0629;-0.0425;-0.0096;-0.0125;-0.0026;0.0;0.96;39.48;18.66;318.73;86.44;43.02;5.0;982.89;59.628;;;;NaN;;;;;0 / 0;96021;2022-10-30 19:25:57:378
-0.4477;-9.7327;0.4094;-0.4039;-9.7895;0.4147;0.0376;0.1023;0.0833;0.0093;0.0064;-0.002;0.0;0.42;38.46;17.7;320.13;86.61;44.42;5.0;982.9;60.899;;;;NaN;;;;;0 / 0;96521;2022-10-30 19:25:57:878
-0.3903;-9.7279;0.4046;-0.4078;-9.7893;0.4155;0.0487;0.1189;-0.0037;0.013;3.0E-4;0.0053;0.0;0.06;38.58;18.54;319.83;86.63;44.59;5.0;982.88;62.056;;;;NaN;;;;;0 / 0;97021;2022-10-30 19:25:58:378
-0.4118;-9.7208;0.3759;-0.413;-9.7892;0.4136;0.0204;0.0708;0.0269;-0.0108;0.007;0.0041;0.0;0.24;38.7;18.84;320.58;86.55;43.86;5.0;982.88;60.418;;;;NaN;;;;;0 / 0;97521;2022-10-30 19:25:58:878
-0.4453;-9.7279;0.3687;-0.426;-9.7898;0.3861;-0.0289;0.0738;0.0257;-0.0029;0.0027;-0.002;0.0;0.66;38.58;18.9;314.51;86.63;47.37;5.0;982.84;59.361;;;;NaN;;;;;0 / 0;98021;2022-10-30 19:25:59:378
-0.4381;-9.6872;0.3184;-0.4246;-9.791;0.3542;-0.0208;0.0655;0.06;-0.0163;0.0192;-2.0E-4;0.0;0.3;38.88;18.12;315.36;86.71;49.6;5.0;982.89;59.879;;;;NaN;;;;;0 / 0;98521;2022-10-30 19:25:59:878
-0.3783;-9.704;0.2705;-0.4333;-9.7932;0.2755;0.0334;0.0389;-0.0504;-0.0035;0.0199;0.0011;0.0;-0.54;38.04;18.72;310.82;86.97;56.74;5.0;982.88;63.094;;;;NaN;;;;;0 / 0;99021;2022-10-30 19:26:00:378
-0.3783;-9.7255;0.2777;-0.407;-9.7949;0.2534;0.0503;0.0813;0.0147;-0.0096;-0.0076;0.0072;0.0;0.48;37.14;19.92;306.96;87.16;57.21;5.0;982.9;64.385;;;;NaN;;;;;0 / 0;99520;2022-10-30 19:26:00:877
-0.4573;-9.7375;0.249;-0.4216;-9.7941;0.2583;0.0409;0.0614;0.017;2.0E-4;-0.0217;0.0084;0.0;0.66;38.04;20.52;303.1;87.16;58.44;5.0;982.87;63.866;;;;NaN;;;;;0 / 0;100021;2022-10-30 19:26:01:378
-0.4429;-9.7375;0.2035;-0.4545;-9.7929;0.2483;-0.0148;0.0818;-0.0113;0.0063;-0.0021;5.0E-4;0.0;1.08;38.28;19.62;300.85;87.0;61.15;5.0;982.92;62.43;;;;NaN;;;;;0 / 0;100520;2022-10-30 19:26:01:877
-0.4884;-9.7255;0.2538;-0.4788;-9.7918;0.247;-0.0072;0.0998;-0.0148;0.0063;0.0315;-0.0105;0.0;1.02;39.3;19.14;299.96;86.9;62.51;5.0;982.92;60.791;;;;NaN;;;;;0 / 0;101020;2022-10-30 19:26:02:377
-0.3735;-9.7064;0.1963;-0.4783;-9.7924;0.2242;0.0761;0.086;0.0295;0.0026;0.0443;-0.0142;0.0;1.08;38.58;19.38;298.64;86.84;64.01;5.0;982.91;59.679;;;;NaN;;;;;0 / 0;101520;2022-10-30 19:26:02:877
-0.407;-9.7184;0.3065;-0.3971;-9.795;0.2656;0.0858;0.0718;-0.0094;0.0093;-0.0131;-0.0087;0.0;-0.3;39.0;19.5;306.39;87.21;57.96;5.0;982.91;59.896;;;;NaN;;;;;0 / 0;102021;2022-10-30 19:26:03:378
-0.431;-9.7543;0.3065;-0.3903;-9.7934;0.3273;0.0049;0.0367;0.0845;0.0142;-0.0095;0.0029;0.0;0.66;38.22;19.56;310.05;87.1;51.27;5.0;982.9;59.611;;;;NaN;;;;;0 / 0;102520;2022-10-30 19:26:03:877
-0.4669;-9.7399;0.3783;-0.4305;-9.7891;0.3982;-0.0771;0.0683;-0.0223;0.0191;-0.0254;0.0041;0.0;0.96;39.3;18.54;314.04;86.69;47.79;5.0;982.89;58.501;;;;NaN;;;;;0 / 0;103021;2022-10-30 19:26:04:378
-0.4764;-9.7519;0.4501;-0.4561;-9.7862;0.4388;-0.0371;0.0846;-0.003;0.0093;0.0235;0.0011;0.0;1.02;38.58;18.72;315.44;86.37;46.72;5.0;982.88;58.104;;;;NaN;;;;;0 / 0;103521;2022-10-30 19:26:04:878
-0.4094;-9.7112;0.4693;-0.4546;-9.7863;0.4371;0.0021;0.0871;-0.0445;-0.0108;0.0272;-0.0032;0.0;0.42;39.3;18.3;319.15;86.29;46.06;5.0;982.9;59.482;;;;NaN;;;;;0 / 0;104021;2022-10-30 19:26:05:378
-0.3974;-9.6968;0.4429;-0.4355;-9.7884;0.4094;0.0404;0.0485;-0.0478;-0.0035;0.0229;-0.0057;0.0;-0.72;38.82;18.72;320.74;86.44;46.84;5.0;982.9;58.903;;;;NaN;;;;;0 / 0;104521;2022-10-30 19:26:05:878
-0.3376;-9.6681;0.4286;-0.4074;-9.79;0.3993;0.0052;0.0645;0.0676;0.002;-0.0241;0.0017;0.0;-0.06;38.7;19.2;317.95;86.67;46.58;5.0;982.89;57.842;;;;NaN;;;;;0 / 0;105021;2022-10-30 19:26:06:378
-0.486;-9.7016;0.3879;-0.4051;-9.7894;0.4168;-0.0162;0.0471;0.0812;-0.0084;-0.1042;0.0078;0.0;0.84;39.36;18.72;318.03;86.64;43.52;5.0;982.88;58.143;;;;NaN;;;;;0 / 0;105521;2022-10-30 19:26:06:878
-0.4381;-9.7806;0.3328;-0.4686;-9.788;0.3801;-0.0701;0.0649;-0.0784;-0.0139;0.0437;0.0066;0.0;1.2;38.76;19.26;312.63;86.49;49.6;5.0;982.87;58.626;;;;NaN;;;;;0 / 0;106021;2022-10-30 19:26:07:378
-0.4932;-9.7232;0.2059;-0.4941;-9.7902;0.2788;0.02;0.0862;0.054;-0.0231;0.0638;-8.0E-4;0.0;0.72;38.82;19.44;303.93;86.62;58.78;5.0;982.89;58.905;;;;NaN;;;;;0 / 0;106520;2022-10-30 19:26:07:877
-0.3759;-9.7255;0.2658;-0.4473;-9.7939;0.2226;0.0403;0.0779;-0.0718;-0.0035;-0.0223;-0.0057;0.0;-0.12;38.52;19.14;301.17;86.98;64.11;5.0;982.87;58.835;;;;NaN;;;;;0 / 0;107021;2022-10-30 19:26:08:378
-0.4286;-9.7495;0.249;-0.4289;-9.7951;0.2049;0.053;0.0696;-0.0205;-0.0072;0.0021;0.0011;0.0;-0.42;39.3;19.56;300.84;87.21;63.82;5.0;982.86;59.327;;;;NaN;;;;;0 / 0;107521;2022-10-30 19:26:08:878
-0.4764;-9.7375;0.2418;-0.4287;-9.7943;0.2423;-0.0429;0.0711;0.0282;0.013;-0.0376;0.0017;0.0;-0.36;39.12;18.72;303.05;87.19;61.75;5.0;982.88;58.473;;;;NaN;;;;;0 / 0;108021;2022-10-30 19:26:09:378
-0.4381;-9.7064;0.3232;-0.444;-9.7933;0.2523;0.0059;0.0774;-0.0488;-0.009;0.0021;-0.0044;0.0;0.24;39.24;19.02;304.87;87.01;60.14;5.0;982.88;59.358;;;;NaN;;;;;0 / 0;108520;2022-10-30 19:26:09:877
-0.4429;-9.7327;0.249;-0.4417;-9.7939;0.2335;-0.0012;0.0683;0.0084;-0.0047;0.018;-0.0014;0.0;1.56;39.42;19.44;296.97;87.08;62.31;5.0;982.89;60.749;;;;NaN;;;;;0 / 0;109020;2022-10-30 19:26:10:377
-0.3998;-9.7232;0.2825;-0.4325;-9.7946;0.2219;-0.0703;0.0642;-0.0327;-0.0017;-0.0284;5.0E-4;0.0;1.68;39.0;19.38;295.97;87.15;63.25;5.0;982.88;62.06;;;;NaN;;;;;0 / 0;109521;2022-10-30 19:26:10:878
-0.395;-9.6729;0.1796;-0.4458;-9.7951;0.1668;0.0508;0.0384;-0.0399;-0.031;0.0382;0.0102;0.0;0.48;37.8;20.22;297.81;87.19;66.9;5.0;982.9;66.498;;;;NaN;;;;;0 / 0;110021;2022-10-30 19:26:11:378
-0.431;-9.7208;0.1293;-0.4571;-9.7955;0.0936;-0.0409;0.0317;-0.0721;-0.0053;-0.0205;0.0017;0.0;-0.78;39.06;19.02;291.37;87.27;76.84;5.0;982.88;67.222;;;;NaN;;;;;0 / 0;110520;2022-10-30 19:26:11:877
-0.4477;-9.6777;0.1915;-0.4422;-9.7962;0.0967;0.0017;0.0563;-0.0512;0.0099;-0.0089;-0.0057;0.0;0.24;38.7;19.44;287.07;87.35;78.12;5.0;982.92;60.104;;;;NaN;;;;;0 / 0;111020;2022-10-30 19:26:12:377
-0.4118;-9.7279;0.0024;-0.433;-9.7967;0.0804;0.0021;0.0161;-0.0038;-0.0139;-0.0333;-2.0E-4;0.0;1.02;38.46;20.94;283.39;87.42;78.42;5.0;982.92;56.713;;;;NaN;;;;;0 / 0;111521;2022-10-30 19:26:12:878
-0.4741;-9.6944;0.0886;-0.4412;-9.7966;0.039;-0.0664;0.0543;0.0137;-0.0102;-0.0131;-0.0032;0.0;1.02;37.98;19.98;278.8;87.42;83.17;5.0;982.9;58.092;;;;NaN;;;;;0 / 0;112021;2022-10-30 19:26:13:378
-0.51;-9.7208;-0.316;-0.452;-9.7953;-0.1315;-0.0699;0.0985;0.201;-0.0267;0.0363;-0.0093;0.0;2.1;37.5;20.46;259.83;87.3;99.5;5.0;982.93;59.93;;;;NaN;;;;;0 / 0;112521;2022-10-30 19:26:13:878
-0.316;-9.6777;-0.0144;-0.337;-9.8002;-0.1157;-0.082;0.089;-0.2194;0.0319;-0.0125;-0.0545;0.0;1.44;38.22;20.28;245.92;87.45;115.67;5.0;982.92;59.22;;;;NaN;;;;;0 / 0;113021;2022-10-30 19:26:14:378
-0.0311;-9.297;-0.9768;-0.0872;-9.8046;-0.1793;-0.4515;0.5148;0.0715;-0.0652;0.2337;-0.239;0.0;0.18;38.58;20.4;238.18;87.25;126.42;5.0;983.05;59.452;;;;NaN;;;;;0 / 0;113521;2022-10-30 19:26:14:878
1.2402;-10.1421;-0.4788;0.0282;-9.6771;1.5882;0.9941;-1.2551;-3.2354;0.3251;0.4359;0.1825;0.0;-9.48;41.4;10.38;40.0;83.05;-11.56;5.0;983.06;60.471;;;;NaN;;;;;0 / 0;114021;2022-10-30 19:26:15:378
-2.2458;-5.2747;-0.5028;-2.6715;-8.1477;-4.759;1.4672;4.2619;4.6537;0.4778;-0.6503;-0.473;0.0;12.9;24.0;32.88;177.8;62.72;159.77;5.0;982.82;64.171;;;;NaN;;;;;0 / 0;114521;2022-10-30 19:26:15:878
0.0168;-7.5732;0.2251;-0.448;-9.7908;-0.3303;0.5413;-0.5141;0.1914;1.7985;3.627;-0.1712;0.0;3.36;39.42;19.68;246.48;69.28;147.82;5.0;983.33;67.623;;;;NaN;;;;;0 / 0;115021;2022-10-30 19:26:16:378
0.8092;-2.0566;1.2522;-0.3859;-9.2223;-3.3121;0.7905;-2.409;1.3608;-3.2154;-4.7192;-0.5927;0.0;-3.06;34.98;27.78;281.61;86.19;89.12;5.0;982.76;57.482;;;;NaN;;;;;0 / 0;115521;2022-10-30 19:26:16:878
-3.1268;-8.6122;1.166;-2.279;-8.7444;-3.8094;7.8338;-5.499;4.9849;4.3788;4.2312;-1.7338;0.0;19.98;26.58;31.38;180.5;56.39;146.96;5.0;983.59;66.402;;;;NaN;;;;;0 / 0;116020;2022-10-30 19:26:17:377
-4.5418;-13.767;-0.5435;-0.5692;-9.7875;-0.2264;-2.1291;-6.8432;5.549;-1.5789;0.4688;-1.6715;0.0;-3.24;43.08;15.0;348.49;76.52;30.03;5.0;982.8;63.166;;;;NaN;;;;;0 / 0;116521;2022-10-30 19:26:17:878
-4.4101;-3.1723;-2.4086;-2.137;-8.8813;-3.5674;4.5934;-3.1427;4.3671;4.7979;4.2904;-1.4601;0.0;22.86;27.96;30.84;175.82;55.81;145.18;5.0;983.14;64.322;;;;NaN;;;;;0 / 0;117021;2022-10-30 19:26:18:378
1.7789;-10.9514;0.9242;-0.5928;-9.7824;-0.3524;0.4779;-6.2714;3.4576;-1.461;0.3351;-2.0411;0.0;0.36;42.66;16.92;345.08;76.32;23.39;5.0;982.81;68.316;;;;NaN;;;;;0 / 0;117520;2022-10-30 19:26:18:877
-3.6344;1.7478;-8.6194;-3.5715;-7.9062;-4.5724;21.7489;-11.4444;10.745;-1.5166;-1.5055;1.4671;0.0;26.34;25.62;30.78;155.88;63.78;155.12;5.0;983.03;64.15;;;;NaN;;;;;0 / 0;118021;2022-10-30 19:26:19:378
-7.9275;-15.369;0.6584;-1.4044;-9.5082;1.9473;3.3988;-6.5192;-3.5083;-0.5447;-0.1927;-0.118;0.0;2.46;44.94;8.4;340.16;81.0;22.45;5.0;982.89;69.365;;;;NaN;;;;;0 / 0;118521;2022-10-30 19:26:19:878
-4.0534;3.2777;-3.3232;-1.9546;-8.8486;-3.7485;-3.5428;-23.541;-10.0639;-0.199;-2.8323;0.8551;0.0;19.98;28.92;29.64;142.41;52.66;159.09;5.0;982.9;62.989;;;;NaN;;;;;0 / 0;119021;2022-10-30 19:26:20:378
13.585;-14.4972;-2.8132;-0.9258;-9.5983;1.785;3.5475;-0.8623;-3.4777;1.699;3.8011;0.0732;0.0;5.88;44.1;12.24;220.26;85.9;121.97;5.0;982.79;65.159;;;;NaN;;;;;0 / 0;119521;2022-10-30 19:26:20:878
-6.4072;-6.5652;-9.127;-1.9031;-8.9157;-3.6137;-1.3387;-18.2977;-9.8157;-0.8105;-1.7425;1.0615;0.0;22.44;30.66;26.58;129.41;53.71;158.04;5.0;982.87;64.995;;;;NaN;;;;;0 / 0;120021;2022-10-30 19:26:21:378
0.6895;-10.293;-1.5586;-1.1373;-9.5626;1.8528;-3.3399;-1.2092;-3.7921;1.2854;1.8518;0.524;0.0;11.7;43.68;11.16;237.69;85.22;85.92;5.0;982.79;67.114;;;;NaN;;;;;0 / 0;120520;2022-10-30 19:26:21:877
0.5507;0.2753;3.6368;-2.2549;-8.0477;-5.1303;2.3076;6.7835;2.5518;2.4772;-0.3002;-0.8309;0.0;26.58;23.22;30.06;133.61;59.4;167.06;5.0;982.76;61.19;;;;NaN;;;;;0 / 0;121021;2022-10-30 19:26:22:378
1.5371;-10.1397;-3.5602;-0.1726;-9.7733;0.7893;0.9364;3.5098;0.2162;1.8083;2.6631;0.2863;0.0;11.82;42.12;13.5;157.28;78.85;151.91;5.0;982.79;69.069;;;;NaN;;;;;0 / 0;121520;2022-10-30 19:26:22:877
-0.4094;-0.68;0.6273;-1.0603;-8.072;-5.4669;1.259;8.8765;9.9824;-1.403;-3.1035;0.0176;0.0;20.16;26.64;30.9;136.33;75.51;-177.46;5.0;982.68;63.868;;;;NaN;;;;;0 / 0;122020;2022-10-30 19:26:23:377
1.2282;-4.7692;-0.1652;0.2963;-9.7704;-0.7882;-1.2779;3.7702;1.8991;2.1327;3.4071;0.1367;0.0;15.06;39.24;18.36;109.22;62.89;156.3;5.0;982.84;67.869;;;;NaN;;;;;0 / 0;122521;2022-10-30 19:26:23:878
1.1372;3.7086;5.2532;-2.36;-7.0475;-6.3979;2.1517;6.9829;0.199;-0.1617;-2.043;0.7402;0.0;23.7;14.46;34.62;132.74;49.41;174.63;5.0;982.7;68.787;;;;NaN;;;;;0 / 0;123020;2022-10-30 19:26:24:377
-1.3527;-5.7584;-2.1069;0.0834;-9.77;0.8427;-0.5406;5.2282;-0.3783;2.2823;3.5042;-0.6037;0.0;-14.52;20.82;15.3;254.49;76.34;164.32;5.0;982.86;68.033;;;;NaN;;;;;0 / 0;123521;2022-10-30 19:26:24:878
1.0511;-0.3496;2.3894;-1.4428;-8.0234;-5.4509;2.1228;9.005;10.2274;-2.3175;-2.0418;-0.7246;0.0;0.3;8.28;30.36;182.24;72.01;178.05;5.0;982.65;66.191;;;;NaN;;;;;0 / 0;124021;2022-10-30 19:26:25:378
1.4988;-3.4093;-0.5195;-0.3795;-9.7547;-0.9336;2.5941;2.0187;0.632;2.3214;1.9917;0.0072;0.0;-1.32;22.44;16.08;245.34;64.42;156.39;5.0;982.94;67.965;;;;NaN;;;;;0 / 0;124520;2022-10-30 19:26:25:877
0.7063;0.8428;4.7238;-0.4358;-8.704;-4.4966;5.0542;5.7711;5.7967;-1.6107;-3.3057;0.5844;0.0;-4.56;15.36;25.8;208.27;87.92;163.19;5.0;982.79;60.86;;;;NaN;;;;;0 / 0;125021;2022-10-30 19:26:26:378
-3.3591;-5.155;0.0431;-0.9724;-9.5149;-2.1661;2.3491;-0.4525;2.5874;1.7546;0.2208;-0.8694;0.0;7.92;17.94;18.54;213.63;54.44;146.03;5.0;983.02;67.162;;;;NaN;;;;;0 / 0;125520;2022-10-30 19:26:26:877
3.4955;-4.3886;1.798;-1.5032;-7.9125;-5.595;4.9987;3.5239;7.393;-3.6577;-2.4157;-0.611;0.0;3.12;10.08;29.22;174.06;73.96;179.24;5.0;982.86;60.214;;;;NaN;;;;;0 / 0;126021;2022-10-30 19:26:27:378
-3.9337;-8.4087;-1.7549;-0.3491;-9.7024;-1.3827;-0.7187;4.6838;-1.2988;2.7307;1.5305;-0.3276;0.0;3.0;21.54;15.84;246.16;59.5;151.63;5.0;983.23;63.027;;;;NaN;;;;;0 / 0;126521;2022-10-30 19:26:27:878
-2.1763;-10.7287;4.118;-0.9621;-8.8665;-4.0779;5.6835;1.9494;5.4163;-4.2258;-2.3815;0.5637;0.0;0.18;17.22;24.18;205.62;88.63;154.81;5.0;983.0;58.708;;;;NaN;;;;;0 / 0;127020;2022-10-30 19:26:28:377
-0.2729;-5.5141;-1.3838;-0.9372;-9.234;-3.1662;-3.1018;2.5515;3.5277;2.377;2.1664;-0.6642;0.0;7.56;17.46;20.4;221.07;50.03;146.02;5.0;983.31;68.002;;;;NaN;;;;;0 / 0;127520;2022-10-30 19:26:28:877
3.8595;-5.6243;3.8978;0.1443;-9.4457;-2.6322;-2.6055;-1.9462;3.1134;-3.2887;-1.8903;-0.7515;0.0;-7.26;21.66;19.5;342.72;81.73;38.94;5.0;982.98;60.557;;;;NaN;;;;;0 / 0;128021;2022-10-30 19:26:29:378
-4.8339;-4.6017;-0.7757;-1.8247;-8.7053;-4.1301;3.74;-2.0449;4.5371;2.7771;1.456;-1.1498;0.0;13.68;12.0;19.02;171.47;54.24;148.02;5.0;983.46;71.763;;;;NaN;;;;;0 / 0;128520;2022-10-30 19:26:29:877
0.9481;-11.0807;4.5897;-0.4965;-8.6444;-4.6042;4.8061;7.0091;8.6336;-2.8605;-4.31;-0.9403;0.0;0.78;16.8;21.78;169.58;87.47;-172.55;5.0;982.95;58.76;;;;NaN;;;;;0 / 0;129021;2022-10-30 19:26:30:378
2.7294;-12.1269;-1.9417;-0.5228;-9.6082;-1.8918;0.3312;1.8579;1.9756;5.4155;5.0326;-1.6458;0.0;7.38;20.34;12.72;225.24;55.46;148.56;5.0;983.0;62.474;;;;NaN;;;;;0 / 0;129521;2022-10-30 19:26:30:878
-7.9443;-22.7335;1.8675;0.3509;-9.3432;-2.9582;3.839;-2.1756;-0.7528;-3.8703;-1.4181;-0.3569;0.0;-3.24;18.42;19.86;324.21;83.68;47.45;5.0;982.89;61.334;;;;NaN;;;;;0 / 0;130021;2022-10-30 19:26:31:378
-1.2282;-8.5907;0.9864;-1.5169;-9.001;-3.5847;2.8313;0.6689;4.5065;3.0276;3.142;-1.2714;0.0;14.1;11.1;19.02;182.54;51.48;142.36;5.0;983.33;68.005;;;;NaN;;;;;0 / 0;130520;2022-10-30 19:26:31:877
3.5674;-11.8229;-3.8666;0.4232;-9.7341;-1.1125;-6.5359;-5.1225;1.2609;-3.7078;-6.5384;-0.3221;0.0;-6.9;22.5;16.26;3.02;74.78;19.68;5.0;982.92;62.72;;;;NaN;;;;;0 / 0;131021;2022-10-30 19:26:32:378
-3.0502;-7.9921;1.7119;-2.6046;-8.2452;-4.6264;9.4523;-12.913;16.4086;3.0032;-0.5727;-0.567;0.0;14.46;8.7;21.0;171.06;61.47;152.66;5.0;983.29;65.118;;;;NaN;;;;;0 / 0;131521;2022-10-30 19:26:32:878
-5.2316;-11.9138;-3.6631;-0.0212;-9.1377;-3.5598;3.852;-2.1752;2.4896;-3.2967;0.5018;-0.1138;0.0;-7.8;19.8;20.7;341.01;86.34;40.87;5.0;983.0;60.836;;;;NaN;;;;;0 / 0;132020;2022-10-30 19:26:33:377
9.9817;-20.1837;9.9865;-0.6053;-9.3675;-2.838;-0.7762;1.0976;3.0104;3.3807;4.8555;-1.6965;0.0;4.8;19.32;16.44;257.88;51.41;148.71;5.0;983.38;64.62;;;;NaN;;;;;0 / 0;132521;2022-10-30 19:26:33:878
-3.0502;-18.9794;0.8404;0.2417;-9.7038;-1.3957;-7.3336;-4.8269;0.122;-1.5948;0.3674;-1.9109;0.0;-8.1;25.38;13.44;7.59;75.93;21.23;5.0;983.12;60.206;;;;NaN;;;;;0 / 0;133021;2022-10-30 19:26:34:378
-1.008;-7.5013;0.8787;-2.5423;-8.3026;-4.5579;13.2519;-13.8181;19.1364;2.7594;2.1255;-0.9794;0.0;16.8;11.4;18.54;156.77;60.84;153.88;5.0;983.61;62.663;;;;NaN;;;;;0 / 0;133520;2022-10-30 19:26:34:877
-4.7764;-11.3847;-1.2594;-0.0478;-9.7931;0.512;-4.7238;-10.5773;-1.5989;-4.1299;-0.1573;0.5264;0.0;-4.8;27.84;7.44;9.28;74.39;18.47;5.0;983.05;57.92;;;;NaN;;;;;0 / 0;134021;2022-10-30 19:26:35:378
6.6466;-18.6083;10.0775;-3.5653;-7.5585;-5.1311;1.3003;10.58;14.0857;2.3569;3.2312;-1.6556;0.0;20.58;10.62;18.24;142.28;65.0;159.52;5.0;983.69;62.138;;;;NaN;;;;;0 / 0;134520;2022-10-30 19:26:35:877
-3.2465;-21.3305;-2.7725;0.3096;-9.6611;-1.6545;-5.2851;-2.0492;-2.9543;-1.6541;-1.0321;-2.4876;0.0;-4.68;25.98;16.32;354.44;77.34;24.67;5.0;983.06;59.35;;;;NaN;;;;;0 / 0;135021;2022-10-30 19:26:36:378
1.1109;6.4239;1.2689;-2.3822;-8.3769;-4.508;3.9839;-10.6049;6.0762;1.8511;-0.4957;-0.4742;0.0;21.18;12.54;16.8;149.41;61.44;149.5;5.0;983.82;70.074;;;;NaN;;;;;0 / 0;135520;2022-10-30 19:26:36:877
3.383;-19.068;9.5149;-0.302;-9.8019;0.0341;-6.4547;-15.1059;0.3801;-3.0621;-0.3717;-0.9788;0.0;0.6;27.48;10.62;339.59;74.49;27.76;5.0;983.09;60.029;;;;NaN;;;;;0 / 0;136020;2022-10-30 19:26:37:377
3.7278;-12.3017;-1.5514;-3.3103;-7.8653;-4.832;-1.04;3.3714;0.6972;4.5456;4.5476;-1.7087;0.0;26.28;9.6;15.18;138.22;64.74;153.26;5.0;983.75;68.754;;;;NaN;;;;;0 / 0;136520;2022-10-30 19:26:37:877
-8.5596;-22.0177;0.3926;-0.8728;-9.6848;1.2697;3.6764;-9.4742;6.8277;-3.8507;-3.0668;-1.2946;0.0;2.52;29.34;6.3;335.67;77.23;20.52;5.0;983.02;64.57;;;;NaN;;;;;0 / 0;137021;2022-10-30 19:26:38:378
-2.7557;-1.6831;-7.6522;-2.6086;-8.3043;-4.517;-9.8678;-29.4247;1.711;2.5585;2.6747;-0.6819;0.0;21.42;15.0;16.38;134.73;64.99;159.45;5.0;983.76;63.852;;;;NaN;;;;;0 / 0;137520;2022-10-30 19:26:38:877
-0.2753;-17.4711;12.2083;0.2357;-9.7977;-0.3464;-8.2805;-13.0915;2.6449;-3.0365;-0.1866;-0.9904;0.0;0.54;26.88;14.34;342.9;74.92;20.95;5.0;983.11;67.093;;;;NaN;;;;;0 / 0;138021;2022-10-30 19:26:39:378
2.624;-39.6181;5.3633;-3.4491;-7.9454;-4.5983;6.5831;1.4185;-1.1002;-1.4745;-3.5164;3.6327;0.0;25.68;6.48;14.76;143.01;62.85;150.54;5.0;983.55;67.119;;;;NaN;;;;;0 / 0;138521;2022-10-30 19:26:39:878
-2.7533;-15.0122;-2.6456;-0.7514;-9.7342;0.9221;1.4888;-7.95;12.615;-0.8428;0.0156;-0.0405;0.0;2.46;27.12;10.38;341.75;75.51;18.41;5.0;983.14;58.253;;;;NaN;;;;;0 / 0;139021;2022-10-30 19:26:40:378
-5.3154;-1.6209;-7.475;-2.9211;-8.1695;-4.5712;4.5516;-32.3942;-0.2412;2.5927;-0.0351;-0.4913;0.0;21.84;10.86;15.24;139.59;64.4;154.88;5.0;983.53;63.768;;;;NaN;;;;;0 / 0;139521;2022-10-30 19:26:40:878
-1.5227;-16.3458;11.6002;-1.1463;-9.4449;2.3768;-1.2072;-4.5327;-5.7119;-2.4323;-1.4853;-0.9213;0.0;4.56;25.98;6.12;328.49;78.45;11.69;5.0;983.18;60.845;;;;NaN;;;;;0 / 0;140020;2022-10-30 19:26:41:377
-8.3249;-37.1424;-2.8659;-1.9153;-8.7527;-3.9864;-3.8239;5.4583;-6.4909;-1.7255;-4.8634;3.0108;0.0;21.18;15.84;13.08;114.91;56.43;160.57;5.0;983.82;64.81;;;;NaN;;;;;0 / 0;140520;2022-10-30 19:26:41:877
-5.2077;-12.51;-6.6346;-0.9287;-9.6996;1.1067;9.0908;-8.868;9.6795;-0.7805;0.9533;0.3468;0.0;5.28;27.06;10.56;338.29;75.29;8.78;5.0;983.11;58.962;;;;NaN;;;;;0 / 0;141021;2022-10-30 19:26:42:378
-7.3218;4.3503;-8.8828;-3.6792;-7.5431;-5.073;24.1454;-5.3045;14.5423;-1.9925;-0.8763;0.3096;0.0;26.64;8.4;12.9;125.55;66.79;162.66;5.0;983.8;67.267;;;;NaN;;;;;0 / 0;141521;2022-10-30 19:26:42:878
8.9211;-14.9045;-0.7302;-0.5381;-9.5706;2.07;9.4592;-5.3339;-2.8002;0.3563;1.9606;-0.374;0.0;5.04;27.96;8.58;340.17;79.93;-0.21;5.0;983.13;62.753;;;;NaN;;;;;0 / 0;142020;2022-10-30 19:26:43:377
16.3267;-2.3056;11.4925;-2.211;-8.4395;-4.4784;-2.968;12.184;-6.1976;-1.5631;-0.7914;0.4928;0.0;23.22;10.68;15.78;129.11;56.11;159.56;5.0;983.7;60.544;;;;NaN;;;;;0 / 0;142520;2022-10-30 19:26:43:877
2.2194;-15.46;1.1061;-0.8851;-9.5744;1.9281;13.1485;-4.2692;-4.7437;-1.4116;-0.5269;-0.0545;0.0;6.84;25.8;9.66;325.62;85.65;4.55;5.0;983.15;61.107;;;;NaN;;;;;0 / 0;143021;2022-10-30 19:26:44:378
-5.8805;6.7926;-8.2148;-1.4672;-8.9401;-3.754;-13.1712;-13.645;-8.2245;-1.8453;-0.9135;0.1727;0.0;20.64;12.24;16.8;126.58;54.05;162.74;5.0;983.44;62.471;;;;NaN;;;;;0 / 0;143521;2022-10-30 19:26:44:878
8.9163;-11.0807;-1.9944;-0.8327;-9.4292;2.5627;-2.1864;-6.8664;-1.3106;0.5811;0.1084;0.6883;0.0;5.34;28.02;8.34;336.96;79.2;3.28;5.0;983.15;68.965;;;;NaN;;;;;0 / 0;144021;2022-10-30 19:26:45:378
-14.0375;-25.82;-9.4263;-2.1062;-8.9622;-3.3784;-4.21;12.8551;2.1382;-1.0811;-1.5348;0.9406;0.0;24.42;11.76;13.98;127.1;63.48;160.58;5.0;983.38;63.39;;;;NaN;;;;;0 / 0;144520;2022-10-30 19:26:45:877
2.6552;-13.7574;3.1915;-1.0126;-9.4995;2.2146;1.367;-4.198;-9.4885;1.3398;3.9795;-0.0246;0.0;2.22;27.06;12.3;155.19;84.18;167.54;5.0;983.18;71.489;;;;NaN;;;;;0 / 0;145020;2022-10-30 19:26:46:377
-15.448;-7.0752;-0.3855;-2.3312;-8.3826;-4.5241;-4.6889;10.2166;0.3391;-0.885;-0.2043;1.4965;0.0;25.38;8.4;19.86;139.19;55.09;158.18;5.0;983.61;59.458;;;;NaN;;;;;0 / 0;145520;2022-10-30 19:26:46:877
-0.5962;-15.1487;-6.7376;-0.51;-9.5498;2.1705;10.9155;-5.2398;-3.6022;-1.3456;0.0651;0.0951;0.0;-0.24;28.44;13.38;12.51;86.25;-14.23;5.0;983.2;66.429;;;;NaN;;;;;0 / 0;146021;2022-10-30 19:26:47:378
-6.7903;-7.5564;-9.9626;-1.9264;-8.6726;-4.1527;-7.294;-3.7344;-11.8795;-2.0017;-0.1671;0.1104;0.0;20.1;6.42;25.02;147.9;52.96;164.31;5.0;983.53;66.637;;;;NaN;;;;;0 / 0;146521;2022-10-30 19:26:47:878
11.4877;-15.1798;-1.9345;-1.0119;-9.4583;2.3849;-1.2937;-3.9496;-8.1863;0.3887;0.8378;1.0365;0.0;-0.42;27.6;12.48;355.41;79.47;6.47;5.0;983.23;61.927;;;;NaN;;;;;0 / 0;147021;2022-10-30 19:26:48:378
-10.779;-14.004;-17.6554;-1.8948;-8.7706;-3.9569;-8.5777;-10.7859;-6.2116;2.4723;-0.296;-1.4607;0.0;18.84;11.58;22.2;143.97;54.05;160.94;5.0;983.38;61.684;;;;NaN;;;;;0 / 0;147521;2022-10-30 19:26:48:878
-3.1053;-10.0368;-1.992;-0.3978;-9.5837;2.0407;7.8584;-3.2782;-7.0497;1.7069;2.8775;-0.0417;0.0;-1.62;27.9;12.18;22.86;86.19;-16.76;5.0;983.38;63.064;;;;NaN;;;;;0 / 0;148021;2022-10-30 19:26:49:378
-6.9291;-27.2517;-12.2897;-2.0672;-8.3741;-4.666;-2.8292;3.6862;-3.3166;-0.7512;-2.0962;1.0023;0.0;17.88;5.34;25.86;146.9;55.63;170.65;5.0;983.4;66.035;;;;NaN;;;;;0 / 0;148520;2022-10-30 19:26:49:877
4.8243;-11.3464;-3.3806;-0.1698;-9.7542;0.9981;0.9814;0.0838;-5.5423;1.0295;0.6197;0.9241;0.0;-1.8;25.92;15.18;217.71;79.15;161.87;5.0;983.37;68.544;;;;NaN;;;;;0 / 0;149021;2022-10-30 19:26:50:378
1.2929;-1.3216;-3.1651;-1.5417;-7.7392;-5.8222;0.9766;8.0792;8.8557;2.41;-0.5935;-1.1064;0.0;10.14;4.68;31.14;160.02;68.28;179.67;5.0;983.24;62.567;;;;NaN;;;;;0 / 0;149520;2022-10-30 19:26:50:877
0.7925;-8.9379;-4.0965;-0.1861;-9.6503;1.7343;1.4622;-1.2676;-4.3009;2.465;3.2733;0.0652;0.0;-7.02;26.7;12.18;192.66;86.46;-160.87;5.0;983.47;69.153;;;;NaN;;;;;0 / 0;150021;2022-10-30 19:26:51:378
-1.2234;1.5874;3.948;-2.6794;-7.3889;-5.8648;2.2891;6.7448;5.6972;-1.0542;-2.583;0.4103;0.0;15.42;-0.66;28.5;154.85;56.29;174.41;5.0;983.2;59.8;;;;NaN;;;;;0 / 0;150520;2022-10-30 19:26:51:877
-5.4567;-2.7964;0.3735;-0.3796;-9.7945;0.3066;2.8216;4.4336;-5.5622;1.0924;-2.2642;-0.7515;0.0;0.54;23.04;16.5;215.9;76.26;152.47;5.0;983.67;70.992;;;;NaN;;;;;0 / 0;151020;2022-10-30 19:26:52:377
-0.2634;-0.4286;1.9393;-1.3637;-7.9599;-5.5633;1.0381;9.0493;10.0716;0.4186;-1.343;-0.0319;0.0;5.22;4.5;28.74;171.75;76.6;177.92;5.0;983.12;61.87;;;;NaN;;;;;0 / 0;151520;2022-10-30 19:26:52:877
-0.1125;-7.3625;0.5315;-0.5411;-9.654;-1.6363;-0.2035;2.9859;0.6211;2.6476;4.7577;-0.0301;0.0;3.96;17.52;20.64;225.35;56.2;150.42;5.0;983.49;69.735;;;;NaN;;;;;0 / 0;152021;2022-10-30 19:26:53:378
-1.1085;1.7909;2.6217;-0.1378;-8.4656;-4.9481;5.2688;-0.8984;6.2482;-2.0359;-3.3515;0.4207;0.0;-4.62;9.96;30.54;201.34;86.69;168.24;5.0;983.23;59.889;;;;NaN;;;;;0 / 0;152521;2022-10-30 19:26:53:878
-5.6339;-9.3137;-1.8627;0.119;-9.5554;-2.2025;0.9416;3.7108;1.8434;2.341;2.6667;-0.1846;0.0;2.04;15.84;21.36;203.82;59.97;162.65;5.0;983.7;61.98;;;;NaN;;;;;0 / 0;153020;2022-10-30 19:26:54:377
2.7198;-6.9602;1.3384;0.5502;-9.0826;-3.6571;1.4992;-1.7563;0.1185;-3.5691;0.7333;-0.6843;0.0;-10.44;10.68;25.8;126.53;87.21;-106.41;5.0;983.19;57.61;;;;NaN;;;;;0 / 0;153520;2022-10-30 19:26:54:877
0.0048;-10.6018;-1.6903;-2.2325;-8.087;-5.078;7.433;-6.8007;13.3263;0.2744;-0.5037;-0.586;0.0;9.18;2.7;25.56;179.28;56.41;161.46;5.0;983.83;66.988;;;;NaN;;;;;0 / 0;154020;2022-10-30 19:26:55:377
-0.9912;-16.827;2.8539;-0.3806;-9.7202;1.2421;-5.6746;-3.0675;-3.1957;-2.2704;-0.5244;-0.9287;0.0;-15.84;24.6;8.82;55.49;82.89;-2.67;5.0;983.37;61.67;;;;NaN;;;;;0 / 0;154520;2022-10-30 19:26:55:877
-4.3048;-19.2907;-4.5059;-1.4465;-8.9107;-3.8311;-6.0261;-27.6428;-10.3118;-1.2448;-1.6246;0.4488;0.0;0.66;12.12;26.4;211.65;51.81;161.05;5.0;983.43;70.036;;;;NaN;;;;;0 / 0;155021;2022-10-30 19:26:56:378
4.118;-10.4247;-1.8196;0.1259;-9.7998;-0.3443;1.234;0.9505;-2.7729;0.9183;0.2697;0.3731;0.0;-13.14;23.94;15.66;247.02;80.05;163.2;5.0;983.38;63.953;;;;NaN;;;;;0 / 0;155520;2022-10-30 19:26:56:877
-0.9625;-5.9714;-0.9912;-1.5963;-7.7317;-5.8175;0.6338;1.7602;4.8263;-1.4836;-1.9923;-0.1449;0.0;-1.38;6.48;32.28;187.18;63.24;175.98;5.0;983.33;57.898;;;;NaN;;;;;0 / 0;156021;2022-10-30 19:26:57:378
0.3232;-9.8524;0.1484;-1.2821;-9.2424;-3.0175;1.6053;-0.6101;3.1659;1.3318;0.3094;0.4165;0.0;3.9;16.62;22.14;191.35;64.32;163.17;5.0;983.46;61.298;;;;NaN;;;;;0 / 0;156520;2022-10-30 19:26:57:877
1.1588;-10.2834;-0.5459;0.2225;-9.8034;-0.1165;-0.7875;0.5328;0.4014;0.2983;0.2856;0.0964;0.0;-5.52;24.9;14.22;183.11;86.77;-159.62;5.0;983.37;57.021;;;;NaN;;;;;0 / 0;157021;2022-10-30 19:26:58:378
-1.4988;-9.2299;-3.2058;-1.0623;-9.0226;-3.6925;0.8252;-0.272;2.165;-1.0579;-1.6796;-0.3178;0.0;0.24;14.88;25.74;205.16;77.4;158.46;5.0;983.36;56.238;;;;NaN;;;;;0 / 0;157521;2022-10-30 19:26:58:878
-1.3575;-8.2914;-4.2473;-1.8313;-8.3485;-4.8082;-0.0888;0.5048;0.3191;-0.0756;-1.3741;-0.5249;0.0;16.2;10.98;19.86;154.35;58.32;157.82;5.0;983.59;62.302;;;;NaN;;;;;0 / 0;158020;2022-10-30 19:26:59:377
-1.245;-9.6848;-0.7111;-1.6936;-9.0186;-3.4594;4.1548;4.0192;7.6827;1.677;2.0595;-1.0148;0.0;17.88;16.68;9.9;125.72;65.65;153.72;5.0;983.76;61.812;;;;NaN;;;;;0 / 0;158520;2022-10-30 19:26:59:877
0.7254;-12.9362;0.0862;0.5774;-9.7882;-0.1699;0.6724;-4.9149;6.8333;-2.7976;0.7077;-0.2818;0.0;-4.68;26.04;12.24;22.21;75.55;-9.88;5.0;983.23;63.832;;;;NaN;;;;;0 / 0;159020;2022-10-30 19:27:00:377
-5.8134;-4.5298;-9.8453;-2.3696;-8.0313;-5.1042;7.4504;-25.5075;8.9996;-1.4403;-0.2135;0.5282;0.0;12.54;9.36;25.14;165.02;60.65;163.31;5.0;983.83;68.063;;;;NaN;;;;;0 / 0;159521;2022-10-30 19:27:00:878
10.3409;-13.8747;-3.1627;-0.5784;-9.5612;2.1024;-2.0241;-2.6951;-10.0251;0.6214;1.6069;0.4702;0.0;-7.8;28.5;8.46;38.64;82.2;-5.98;5.0;983.28;69.791;;;;NaN;;;;;0 / 0;160020;2022-10-30 19:27:01:377
-1.142;5.1933;-6.4886;-1.5502;-8.752;-4.1437;-0.5783;6.2141;0.6577;-1.3822;1.0082;0.7976;0.0;10.86;11.88;24.72;172.55;50.89;159.98;5.0;983.63;66.101;;;;NaN;;;;;0 / 0;160520;2022-10-30 19:27:01:877
11.4853;-14.5977;-1.7166;-0.2682;-9.624;1.8645;-2.2625;-1.4183;-5.1853;0.4302;2.3448;0.0707;0.0;-7.98;28.74;8.16;178.4;86.49;-133.65;5.0;983.46;72.184;;;;NaN;;;;;0 / 0;161021;2022-10-30 19:27:02:378
-11.8612;-9.7255;-14.7561;-2.0395;-7.7824;-5.6075;2.1089;6.7768;5.4304;1.8835;-0.1316;-1.2201;0.0;8.04;5.46;33.0;167.55;59.86;176.27;5.0;983.42;59.169;;;;NaN;;;;;0 / 0;161521;2022-10-30 19:27:02:878
0.3735;-8.8756;-3.8523;-0.6623;-9.5298;2.2168;6.9857;-1.7663;-5.0539;1.8334;1.9282;0.6022;0.0;-11.4;29.28;7.38;98.11;88.14;-44.7;5.0;983.53;65.257;;;;NaN;;;;;0 / 0;162021;2022-10-30 19:27:03:378
0.012;1.0439;2.5331;-1.8545;-8.221;-5.0146;-0.3362;3.2671;-3.4133;0.1706;-1.9435;0.02;0.0;7.68;5.82;29.16;171.09;56.03;170.99;5.0;983.16;64.172;;;;NaN;;;;;0 / 0;162520;2022-10-30 19:27:03:877
1.798;-7.7431;-0.6752;0.0556;-9.709;1.3791;0.9715;-0.9383;-6.4336;2.6373;4.5195;-0.3062;0.0;-11.7;28.26;10.86;241.62;82.99;176.75;5.0;983.4;67.707;;;;NaN;;;;;0 / 0;163021;2022-10-30 19:27:04:378
-3.122;-5.0162;-6.8956;-1.8399;-7.72;-5.7607;1.4616;7.064;8.5691;2.768;0.1048;-1.6477;0.0;4.14;6.6;31.86;180.67;67.41;172.31;5.0;983.5;62.775;;;;NaN;;;;;0 / 0;163521;2022-10-30 19:27:04:878
2.2889;-10.4247;-3.1436;0.0593;-9.8063;0.0552;0.0245;3.4853;0.9839;1.1162;-0.0706;0.5582;0.0;-5.58;26.64;15.6;248.28;72.43;160.72;5.0;983.47;70.305;;;;NaN;;;;;0 / 0;164021;2022-10-30 19:27:05:378
0.1293;-0.7422;1.8651;-0.5343;-8.1953;-5.3592;1.2118;10.7858;9.9082;0.3282;-2.1841;-0.0319;0.0;-2.76;11.28;32.16;176.47;79.17;-171.41;5.0;983.42;58.072;;;;NaN;;;;;0 / 0;164520;2022-10-30 19:27:05:877
1.2067;-6.4575;-1.1636;-0.2356;-9.7727;0.78;3.8101;0.277;-4.4647;2.8957;4.5806;0.2173;0.0;-7.62;28.14;11.46;240.13;81.45;171.69;5.0;983.5;69.535;;;;NaN;;;;;0 / 0;165021;2022-10-30 19:27:06:378
0.7614;1.4389;3.6344;-1.9032;-7.582;-5.9213;2.2408;6.677;7.9085;-2.031;-3.1359;0.2234;0.0;5.16;7.98;31.2;177.6;65.22;172.76;5.0;983.28;58.806;;;;NaN;;;;;0 / 0;165520;2022-10-30 19:27:06:877
-4.537;-7.4942;-2.5786;-0.0691;-9.7854;-0.6418;0.3828;1.3575;0.4718;2.8095;-0.4756;-0.9702;0.0;-4.5;26.76;16.38;255.3;68.07;159.2;5.0;983.73;69.377;;;;NaN;;;;;0 / 0;166020;2022-10-30 19:27:07:377
1.4006;1.3982;3.4165;-0.849;-7.6801;-6.0387;0.2001;9.6888;9.4744;0.2237;-2.6704;0.0701;0.0;-0.84;9.06;33.06;169.38;74.98;-168.74;5.0;983.29;59.944;;;;NaN;;;;;0 / 0;166520;2022-10-30 19:27:07:877
0.7781;-7.4918;0.012;-0.3283;-9.5905;-2.0208;-3.2822;2.2017;-0.1699;2.2775;4.4682;-0.0441;0.0;0.36;21.3;21.48;250.41;54.57;154.29;5.0;983.79;67.267;;;;NaN;;;;;0 / 0;167021;2022-10-30 19:27:08:378
0.984;0.2682;4.063;0.0125;-9.2639;-3.217;0.5023;-1.5031;-1.1069;-2.3046;-2.4743;0.1;0.0;-9.06;20.64;24.42;327.29;87.03;54.55;5.0;983.14;67.599;;;;NaN;;;;;0 / 0;167521;2022-10-30 19:27:08:878
-2.8611;-9.0049;1.9369;-0.1657;-9.7716;-0.8115;0.0555;1.643;1.1467;2.6012;1.4108;-0.6257;0.0;0.0;24.36;16.38;235.71;66.35;158.46;5.0;983.93;66.691;;;;NaN;;;;;0 / 0;168020;2022-10-30 19:27:09:377
3.7589;-11.1956;-3.462;-0.6933;-8.2816;-5.2062;1.4977;6.699;7.8901;-3.4079;-6.145;-0.341;0.0;-0.3;12.84;29.94;172.73;81.96;-173.24;5.0;983.23;63.758;;;;NaN;;;;;0 / 0;168521;2022-10-30 19:27:09:878
4.8171;-10.9322;-3.3782;-0.4473;-9.4322;-2.6466;-1.8607;1.6842;3.0105;3.6482;3.6521;-1.4571;0.0;3.42;18.3;21.78;223.2;53.61;156.27;5.0;984.29;66.228;;;;NaN;;;;;0 / 0;169020;2022-10-30 19:27:10:377
2.8036;-4.1132;2.3272;0.4382;-9.4073;-2.735;0.7661;-1.8697;4.083;-3.4335;-0.2654;-0.1352;0.0;-12.0;22.86;20.52;6.27;83.27;22.82;5.0;983.28;59.365;;;;NaN;;;;;0 / 0;169520;2022-10-30 19:27:10:877
-3.055;-8.5715;-1.0295;-2.1718;-8.2601;-4.8192;8.0091;-8.7537;5.4321;3.2866;1.8494;-1.2091;0.0;6.72;8.28;26.7;194.07;54.61;156.26;5.0;984.17;63.335;;;;NaN;;;;;0 / 0;170021;2022-10-30 19:27:11:378
-2.5067;-12.6273;6.0409;0.3212;-9.7833;-0.5951;-6.635;-10.9415;-1.0019;-3.6632;-2.0485;0.0176;0.0;-13.2;27.66;15.36;14.84;77.48;21.91;5.0;983.25;61.122;;;;NaN;;;;;0 / 0;170521;2022-10-30 19:27:11:878
3.632;-12.7542;6.9171;-1.4758;-8.9481;-3.7314;3.4846;-1.388;5.9963;2.0496;1.2898;-0.5249;0.0;7.8;14.46;25.8;221.48;47.64;144.61;5.0;983.99;69.241;;;;NaN;;;;;0 / 0;171021;2022-10-30 19:27:12:378
0.4453;-13.8555;8.4614;0.1451;-9.6099;-1.9492;-4.1434;-7.6194;3.4336;-2.8825;-0.6124;-1.0905;0.0;-12.12;24.84;19.98;357.58;81.28;33.75;5.0;983.42;57.423;;;;NaN;;;;;0 / 0;171520;2022-10-30 19:27:12:877
-17.2125;-31.0752;3.1196;-3.1754;-7.6763;-5.2117;-5.5637;10.59;-0.5778;-2.2332;-1.5763;1.7072;0.0;19.02;7.26;24.36;164.77;61.55;153.44;5.0;983.66;67.606;;;;NaN;;;;;0 / 0;172020;2022-10-30 19:27:13:377
-8.2986;-20.0544;-3.7613;-0.6027;-9.7088;1.2434;3.0256;-8.6027;1.4261;-2.1922;-0.8775;-1.024;0.0;-7.8;30.18;7.38;22.91;79.44;14.61;5.0;983.39;65.913;;;;NaN;;;;;0 / 0;172520;2022-10-30 19:27:13:877
-18.0098;0.9481;-0.5028;-2.5557;-7.9451;-5.1492;-6.1475;-12.8204;-7.3297;2.8645;5.3857;-1.597;0.0;12.3;11.16;26.1;177.39;56.28;156.84;5.0;983.55;62.92;;;;NaN;;;;;0 / 0;173021;2022-10-30 19:27:14:378
-1.3934;-16.9994;0.0431;-0.59;-9.6149;1.8374;1.902;-5.9432;-4.5644;-3.6327;-2.9172;-0.4546;0.0;-9.3;29.64;5.34;48.76;83.32;-2.44;5.0;983.42;67.419;;;;NaN;;;;;0 / 0;173521;2022-10-30 19:27:14:878
-10.4917;-8.1334;-7.2859;-3.3675;-7.4023;-5.4805;-3.3534;8.1301;8.4733;-0.4323;-0.8274;5.0E-4;0.0;19.14;6.66;24.9;166.96;55.39;151.9;5.0;983.62;66.445;;;;NaN;;;;;0 / 0;174020;2022-10-30 19:27:15:377
11.0783;-15.0266;-2.4038;-0.9553;-9.601;1.7543;3.4932;-4.2018;-0.9331;0.3728;1.4114;0.1013;0.0;-5.34;30.3;6.6;9.39;81.25;21.29;5.0;983.31;65.051;;;;NaN;;;;;0 / 0;174521;2022-10-30 19:27:15:878
-10.7814;-13.9034;-14.9739;-2.6778;-8.2914;-4.5002;-6.2097;6.4167;-6.5469;1.0105;-0.2037;-0.743;0.0;13.86;12.84;24.12;169.96;50.79;154.58;5.0;983.46;67.511;;;;NaN;;;;;0 / 0;175021;2022-10-30 19:27:16:378
2.9281;-14.4206;-4.4963;-0.9465;-9.629;1.5992;2.7613;-2.0886;-5.1235;0.294;0.6704;-0.2769;0.0;-2.34;29.94;6.96;282.3;86.27;108.85;5.0;983.35;62.247;;;;NaN;;;;;0 / 0;175520;2022-10-30 19:27:16:877
-8.2866;-15.4336;-14.78;-2.3843;-7.6463;-5.6585;1.496;6.6456;5.0504;0.765;-0.5818;-0.3074;0.0;12.96;7.14;27.3;158.62;55.11;169.24;5.0;983.37;62.953;;;;NaN;;;;;0 / 0;176020;2022-10-30 19:27:17:377
-0.0503;-8.9905;-5.2915;-0.0616;-9.7908;-0.5534;3.2483;4.2695;1.3674;1.9061;-0.1952;0.2558;0.0;-1.56;25.38;14.76;223.82;73.18;164.78;5.0;983.33;67.454;;;;NaN;;;;;0 / 0;176520;2022-10-30 19:27:17:877
0.182;-0.6416;1.6376;-2.141;-7.8487;-5.4758;2.3038;5.0834;1.104;0.3099;-1.7908;0.0145;0.0;13.74;3.06;26.16;156.36;52.75;169.45;5.0;983.19;58.664;;;;NaN;;;;;0 / 0;177021;2022-10-30 19:27:18:378
0.9122;-7.7862;-1.1109;0.0073;-9.8065;-0.0581;2.5185;4.0218;1.5401;2.0191;2.7724;-0.308;0.0;-0.18;22.14;10.32;201.26;75.06;171.32;5.0;983.36;68.583;;;;NaN;;;;;0 / 0;177521;2022-10-30 19:27:18:878
2.3152;-6.9435;0.9361;-1.3394;-7.936;-5.6032;2.2851;7.4332;7.6071;-4.2735;-2.2245;0.0151;0.0;3.96;10.92;28.8;168.83;76.23;-177.99;5.0;983.21;60.098;;;;NaN;;;;;0 / 0;178020;2022-10-30 19:27:19:377
-0.249;-8.198;-0.9984;-0.6133;-9.347;-2.9029;-4.029;2.4442;2.709;2.0588;2.6203;-0.25;0.0;3.24;18.9;22.32;230.7;52.89;154.84;5.0;983.59;65.775;;;;NaN;;;;;0 / 0;178520;2022-10-30 19:27:19:877
4.0007;-5.1694;2.7509;0.506;-9.4702;-2.4957;1.4908;-2.5537;3.8461;-3.1104;1.3558;-0.3593;0.0;-12.24;24.6;20.34;11.86;80.92;17.26;5.0;983.3;66.482;;;;NaN;;;;;0 / 0;179020;2022-10-30 19:27:20:377
3.9049;-10.3337;-0.5243;-2.5435;-8.042;-5.0027;6.118;2.025;7.0881;3.6843;5.346;-1.297;0.0;11.22;8.88;27.06;184.87;54.09;154.77;5.0;983.74;66.112;;;;NaN;;;;;0 / 0;179521;2022-10-30 19:27:20:878
-5.2149;-22.6378;-3.984;-0.092;-9.2956;-3.1231;-1.7659;-2.4148;1.1838;-3.2698;-1.1109;-0.0997;0.0;-12.9;23.1;22.98;325.66;84.99;66.17;5.0;983.44;60.98;;;;NaN;;;;;0 / 0;180020;2022-10-30 19:27:21:377
-14.1045;-8.4566;0.4932;-2.6104;-8.1772;-4.7424;14.5122;-10.4264;10.1201;0.1278;2.2965;-0.7808;0.0;10.8;10.8;27.6;192.02;52.85;151.58;5.0;984.17;69.401;;;;NaN;;;;;0 / 0;180521;2022-10-30 19:27:21:878
4.0773;-16.3003;-1.2953;0.1188;-9.7647;-0.8981;-7.7398;-10.5722;4.1254;-3.1281;-1.2055;-1.2231;0.0;-12.36;27.84;14.22;10.19;78.99;27.65;5.0;983.35;60.819;;;;NaN;;;;;0 / 0;181020;2022-10-30 19:27:22:377
-6.3856;4.4221;1.6927;-3.4322;-7.4885;-5.3209;10.572;-22.0808;18.5971;2.0936;0.4982;0.8716;0.0;15.36;7.86;27.78;177.22;51.37;153.56;5.0;984.26;63.223;;;;NaN;;;;;0 / 0;181521;2022-10-30 19:27:22:878
-1.9585;-13.5563;2.4493;-0.9755;-9.6249;1.6061;1.9859;-5.5669;-3.5358;-3.45;-1.3503;-1.0282;0.0;-7.38;30.72;5.82;11.18;82.91;33.68;5.0;983.34;62.63;;;;NaN;;;;;0 / 0;182021;2022-10-30 19:27:23:378
-0.9984;0.0862;-5.7703;-2.4345;-8.2767;-4.6625;-2.33;-13.6308;-6.4493;-0.031;-0.916;0.2888;0.0;9.06;12.36;26.88;192.21;47.41;156.01;5.0;983.78;63.801;;;;NaN;;;;;0 / 0;182520;2022-10-30 19:27:23:877
6.3808;-14.9356;-2.4948;-0.8258;-9.7212;0.9932;2.7388;-3.9141;-4.6827;-0.1886;0.5501;0.4268;0.0;-4.98;30.12;6.96;4.42;81.97;29.01;5.0;983.31;68.443;;;;NaN;;;;;0 / 0;183020;2022-10-30 19:27:24:377
-4.6112;-10.214;-10.4127;-2.0655;-8.3063;-4.7863;-6.3935;-2.1279;-4.9105;2.0814;-0.172;-1.071;0.0;9.96;13.68;25.74;184.02;48.34;157.3;5.0;983.43;63.716;;;;NaN;;;;;0 / 0;183521;2022-10-30 19:27:24:878
1.4653;-9.3808;-2.0183;0.1148;-9.6642;1.6612;2.9091;-3.4443;-5.2812;1.9726;1.4047;0.0609;0.0;-13.68;30.96;5.16;202.33;86.73;-129.36;5.0;983.38;65.098;;;;NaN;;;;;0 / 0;184021;2022-10-30 19:27:25:378
-12.3999;-22.3193;-10.8197;-2.8875;-7.5652;-5.5317;0.4861;6.8374;0.5754;0.8401;-2.6692;-0.1944;0.0;6.24;6.84;32.1;189.22;50.46;163.51;5.0;983.44;69.873;;;;NaN;;;;;0 / 0;184520;2022-10-30 19:27:25:877
-0.0359;-14.768;-4.3359;0.2563;-9.7886;0.5355;0.0573;1.8659;-7.005;0.9317;1.6936;0.8532;0.0;-17.46;29.46;11.28;270.43;76.02;167.54;5.0;983.6;71.422;;;;NaN;;;;;0 / 0;185021;2022-10-30 19:27:26:378
-1.6903;-2.4229;-3.6943;-2.1803;-6.5959;-6.9218;1.2083;5.5712;11.1284;1.8071;-0.2709;-1.0435;0.0;-3.48;5.34;36.66;195.18;61.9;172.13;5.0;983.15;65.683;;;;NaN;;;;;0 / 0;185520;2022-10-30 19:27:26:877
3.5721;-6.3282;3.5554;-0.1965;-9.7998;0.3081;-0.6343;-0.4022;-2.9345;2.0392;3.2019;0.3199;0.0;-17.76;28.8;9.72;265.75;79.84;169.84;5.0;983.43;64.008;;;;NaN;;;;;0 / 0;186021;2022-10-30 19:27:27:378
1.0367;-0.8954;2.9928;-2.8702;-6.6001;-6.6611;1.6204;5.3025;7.3434;-2.2063;-2.4682;0.2222;0.0;2.82;2.4;35.34;191.1;53.25;166.54;5.0;983.28;65.851;;;;NaN;;;;;0 / 0;186521;2022-10-30 19:27:27:878
0.7566;-6.9626;-3.4453;-0.4603;-9.6872;-1.455;-1.898;0.2777;3.0088;2.8737;0.0467;-1.2433;0.0;-6.42;25.44;18.54;256.59;62.62;161.43;5.0;983.43;65.551;;;;NaN;;;;;0 / 0;187021;2022-10-30 19:27:28:378
1.0534;-1.7885;3.3471;-1.2958;-8.1403;-5.3129;1.8992;6.0956;7.3671;-1.7378;-2.1719;0.3419;0.0;-4.62;14.22;30.12;183.89;80.7;-174.09;5.0;983.09;58.316;;;;NaN;;;;;0 / 0;187521;2022-10-30 19:27:28:878
0.1006;-7.2092;-2.4421;-1.692;-9.0668;-3.3316;-2.4715;0.4905;3.3077;2.4296;0.2306;-0.7863;0.0;3.3;18.18;25.26;247.84;47.35;147.31;5.0;983.73;65.849;;;;NaN;;;;;0 / 0;188021;2022-10-30 19:27:29:378
4.379;-10.1469;-0.1293;-0.0027;-9.4342;-2.677;-4.0603;-3.3847;8.9549;-4.6736;-4.9288;-0.5481;0.0;-14.64;25.14;19.32;347.16;82.01;52.84;5.0;983.11;61.752;;;;NaN;;;;;0 / 0;188521;2022-10-30 19:27:29:878
6.2587;-16.8247;0.4956;-0.8125;-9.3811;-2.7395;-4.5268;1.5254;1.844;4.6482;3.985;-1.8291;0.0;-0.54;21.84;21.9;264.67;51.4;151.77;5.0;983.92;67.868;;;;NaN;;;;;0 / 0;189021;2022-10-30 19:27:30:378
-3.8858;-21.9889;3.2729;0.0839;-9.2921;-3.1337;-5.3658;-6.8574;7.8743;-1.2295;1.5922;-2.3245;0.0;-17.1;24.42;19.14;350.95;84.03;51.71;5.0;983.23;63.446;;;;NaN;;;;;0 / 0;189520;2022-10-30 19:27:30:877
-8.5141;6.7184;13.4126;-4.0484;-6.2288;-6.4018;18.4354;-11.1944;9.6531;-0.9516;1.4597;-1.2634;0.0;13.74;3.24;31.38;191.13;42.57;148.84;5.0;984.2;68.377;;;;NaN;;;;;0 / 0;190020;2022-10-30 19:27:31:377
0.1844;-13.9226;7.2116;-0.1044;-9.7653;0.8932;2.4483;-4.7415;-5.3775;-2.764;0.8238;-1.261;0.0;-16.56;31.86;4.56;77.13;87.6;-7.74;5.0;983.25;66.495;;;;NaN;;;;;0 / 0;190520;2022-10-30 19:27:31:877
-4.3455;-23.9235;-2.1691;-2.9092;-7.048;-6.1671;-2.988;-1.7893;-6.6948;-1.6284;-2.9685;0.6394;0.0;4.98;7.14;32.88;207.76;39.88;157.34;5.0;983.32;66.094;;;;NaN;;;;;0 / 0;191020;2022-10-30 19:27:32:377
6.2803;-15.5509;-2.0566;0.1479;-9.7761;0.7593;1.9135;-5.0279;-1.5638;0.407;1.0999;-0.0166;0.0;-19.38;30.36;6.9;255.74;80.59;-172.02;5.0;983.24;63.169;;;;NaN;;;;;0 / 0;191520;2022-10-30 19:27:32:877
-7.2475;-11.696;-14.7728;-2.6482;-7.6212;-5.5744;-5.1428;-1.3214;-4.3594;0.8694;-0.2947;-1.0655;0.0;2.04;12.54;31.26;221.62;43.79;157.94;5.0;983.16;68.999;;;;NaN;;;;;0 / 0;192020;2022-10-30 19:27:33:377
2.7054;-8.234;0.0359;0.0962;-9.7622;0.9273;2.0275;-6.0018;-7.7726;1.542;2.627;-0.2989;0.0;-20.52;30.66;4.92;242.91;86.58;-161.89;5.0;983.25;67.368;;;;NaN;;;;;0 / 0;192520;2022-10-30 19:27:33:877
-1.4102;-1.0654;1.0247;-2.432;-6.7062;-6.7292;-1.1067;1.9968;-1.9405;0.1681;-1.1072;0.2002;0.0;-0.54;4.32;36.06;202.28;44.1;167.48;5.0;983.14;67.573;;;;NaN;;;;;0 / 0;193021;2022-10-30 19:27:34:378
-2.4205;-10.9538;-1.8172;0.39;-9.7952;-0.2696;2.1598;0.7089;-0.6067;1.3715;2.536;0.1819;0.0;-21.42;29.16;10.68;269.75;71.94;176.13;5.0;983.24;65.31;;;;NaN;;;;;0 / 0;193521;2022-10-30 19:27:34:878
-1.0511;-1.415;-0.4118;-1.7917;-6.8967;-6.7376;1.6194;4.4474;9.5939;1.0533;-0.0809;-0.3428;0.0;-6.78;8.58;35.22;195.54;67.62;178.37;5.0;983.05;58.656;;;;NaN;;;;;0 / 0;194021;2022-10-30 19:27:35:378
0.3376;-3.735;-0.5483;-0.2453;-9.4347;-2.6637;-0.2072;-0.3411;1.615;1.4522;2.1322;0.0194;0.0;-12.96;22.98;22.2;270.69;52.84;162.71;5.0;983.41;66.497;;;;NaN;;;;;0 / 0;194521;2022-10-30 19:27:35:878
2.1931;-1.6496;1.8124;-2.3396;-5.9675;-7.422;0.4314;3.7624;9.7036;-3.0872;-2.1194;-0.0014;0.0;-4.5;3.24;37.44;196.07;58.3;173.07;5.0;983.14;70.012;;;;NaN;;;;;0 / 0;195021;2022-10-30 19:27:36:378
-0.7709;-7.5253;-2.0614;0.1784;-9.5111;-2.3827;-2.6397;0.1806;-0.1695;2.735;0.7834;-0.5976;0.0;-15.36;24.18;22.08;265.09;55.98;167.45;5.0;983.64;65.247;;;;NaN;;;;;0 / 0;195520;2022-10-30 19:27:36:877
-3.9097;-16.013;7.3577;-0.3635;-8.7639;-4.3853;1.9533;-0.4325;3.4109;-3.384;-4.6209;-0.1205;0.0;-18.84;21.36;24.36;180.74;85.8;-142.34;5.0;983.19;68.038;;;;NaN;;;;;0 / 0;196020;2022-10-30 19:27:37:377
-0.2131;-9.704;-3.1364;-1.6063;-7.8706;-5.6253;5.0467;-1.5605;2.0148;3.1461;1.2862;0.1862;0.0;-2.52;10.2;33.12;240.36;40.35;151.98;5.0;984.03;67.262;;;;NaN;;;;;0 / 0;196521;2022-10-30 19:27:37:878
-2.8659;-15.9867;3.1149;0.54;-9.7737;-0.5942;-1.3636;-5.6671;5.7899;-2.7964;-2.0259;0.0817;0.0;-21.72;29.52;6.84;64.83;82.88;-0.74;5.0;983.1;59.939;;;;NaN;;;;;0 / 0;197021;2022-10-30 19:27:38:378
-14.1859;3.4716;3.1484;-2.7944;-6.9074;-6.3756;-10.5201;-14.5285;-0.2734;2.0239;3.6227;-1.4222;0.0;2.52;7.86;34.62;202.03;47.1;162.04;5.0;984.06;68.056;;;;NaN;;;;;0 / 0;197521;2022-10-30 19:27:38:878
-1.1325;-14.1883;-4.0773;0.1437;-9.8053;-0.0739;4.0462;-4.7685;0.0571;-0.3645;0.679;-0.2531;0.0;-21.78;30.66;6.54;69.9;86.04;-2.52;5.0;983.14;64.911;;;;NaN;;;;;0 / 0;198021;2022-10-30 19:27:39:378
-5.483;-14.8231;-14.9572;-2.7195;-6.8068;-6.5147;-1.3219;1.8553;-3.5484;-0.3322;-2.2006;0.0029;0.0;1.8;6.96;35.58;207.89;41.91;161.48;5.0;983.76;67.142;;;;NaN;;;;;0 / 0;198521;2022-10-30 19:27:39:878
0.2179;-10.3409;-4.7477;0.4746;-9.7647;0.771;1.0218;-3.0086;-2.4207;1.5463;0.1109;-0.0472;0.0;-24.78;30.18;4.92;235.86;81.8;-148.86;5.0;983.15;67.106;;;;NaN;;;;;0 / 0;199021;2022-10-30 19:27:40:378
-9.8836;-12.8955;-12.1796;-2.3144;-6.9203;-6.5516;2.1731;4.7105;5.0025;0.5621;-1.1328;-0.5872;0.0;-3.36;7.38;36.06;201.39;51.11;170.42;5.0;983.26;67.475;;;;NaN;;;;;0 / 0;199521;2022-10-30 19:27:40:878
0.5435;-11.4254;-6.5197;0.4543;-9.7366;-1.0785;2.0525;5.4749;4.7895;1.2903;-1.7981;0.1886;0.0;-19.14;27.12;15.72;264.01;68.48;171.54;5.0;983.24;65.368;;;;NaN;;;;;0 / 0;200021;2022-10-30 19:27:41:378
-1.4629;-1.1372;1.9609;-0.8152;-7.1915;-6.6172;2.1153;6.0112;8.8031;-0.5997;-1.9172;0.3438;0.0;-14.1;10.26;33.24;187.71;72.75;-163.74;5.0;983.1;68.967;;;;NaN;;;;;0 / 0;200520;2022-10-30 19:27:41:877
-1.1612;-5.8829;-1.3336;0.3052;-9.7405;-1.0952;1.7418;2.9455;3.5493;2.2842;4.1713;-0.6764;0.0;-18.3;28.32;14.04;274.9;67.92;166.58;5.0;983.48;66.326;;;;NaN;;;;;0 / 0;201021;2022-10-30 19:27:42:378
-0.3735;-3.0311;1.9058;-1.8364;-6.8545;-6.7686;0.7159;3.9886;8.5643;-2.3138;-2.1683;-0.173;0.0;-4.8;8.52;36.36;200.64;61.95;171.91;5.0;982.97;63.96;;;;NaN;;;;;0 / 0;201521;2022-10-30 19:27:42:878
0.4908;-7.6354;0.9098;-0.3479;-9.4893;-2.4499;-4.6419;1.1093;1.3558;2.7924;2.0858;0.4287;0.0;-13.74;24.42;22.74;272.9;53.69;158.56;5.0;983.57;65.382;;;;NaN;;;;;0 / 0;202021;2022-10-30 19:27:43:378
0.4741;-4.5059;2.4995;-0.6326;-8.9046;-4.0594;1.6812;-0.4954;2.6372;-2.1452;-1.3326;-0.3538;0.0;-17.4;23.1;23.46;188.76;86.8;-151.89;5.0;982.94;57.894;;;;NaN;;;;;0 / 0;202520;2022-10-30 19:27:43:877
-1.2977;-7.0369;-1.7765;-2.9652;-7.1242;-6.0517;9.765;-9.5376;5.9775;3.3141;0.9789;-0.4485;0.0;3.6;6.66;34.62;214.86;44.51;152.54;5.0;984.08;62.804;;;;NaN;;;;;0 / 0;203020;2022-10-30 19:27:44:377
-3.8331;-18.4671;-3.632;-0.1173;-9.8059;0.0325;3.3399;-3.1925;4.1263;-3.2625;-0.1781;0.0988;0.0;-20.4;31.14;4.56;61.0;82.73;5.52;5.0;983.12;64.994;;;;NaN;;;;;0 / 0;203521;2022-10-30 19:27:44:878
19.6139;-15.6922;-1.2474;-3.8092;-6.4292;-6.3502;8.7775;-18.4475;12.9848;-1.0426;-0.3118;1.764;0.0;8.88;3.78;33.0;201.6;47.81;150.11;5.0;983.51;62.054;;;;NaN;;;;;0 / 0;204021;2022-10-30 19:27:45:378
1.063;-15.6659;-1.0989;0.1907;-9.7583;0.9532;4.9475;-5.1462;-2.6459;0.5658;1.015;-0.0655;0.0;-23.22;31.86;1.86;120.05;87.59;-37.93;5.0;982.99;66.675;;;;NaN;;;;;0 / 0;204520;2022-10-30 19:27:45:877
-0.8667;-5.2867;-5.0185;-2.5597;-7.3279;-5.9934;-3.9553;-8.5702;-8.1567;1.3294;-0.9221;-0.834;0.0;-2.58;9.54;34.08;224.14;43.47;161.2;5.0;982.96;63.332;;;;NaN;;;;;0 / 0;205020;2022-10-30 19:27:46:377
1.7095;-14.3535;-4.6807;0.0671;-9.8044;0.1958;-1.3432;1.1611;-3.2604;0.7741;1.7119;0.2815;0.0;-21.18;30.42;9.66;269.83;77.13;171.85;5.0;983.09;64.188;;;;NaN;;;;;0 / 0;205521;2022-10-30 19:27:46:878
-0.7925;-4.6711;-3.3184;-2.2389;-6.7917;-6.7104;0.4121;6.5475;7.4981;1.1174;-0.5654;-0.9415;0.0;-4.56;7.68;36.48;206.99;56.88;168.03;5.0;982.96;70.429;;;;NaN;;;;;0 / 0;206021;2022-10-30 19:27:47:378
2.9951;-5.8996;4.798;-0.0604;-9.5665;-2.1559;-2.4703;2.9391;-1.5264;2.1174;3.7327;-0.0386;0.0;-15.54;24.84;21.48;270.66;56.74;164.91;5.0;983.19;59.735;;;;NaN;;;;;0 / 0;206520;2022-10-30 19:27:47:877
2.0614;-1.154;0.577;-1.7693;-6.6217;-7.0138;-0.5555;4.328;8.7855;-2.5032;-2.0895;-0.0258;0.0;-8.04;7.68;37.44;212.32;56.53;168.12;5.0;982.92;68.558;;;;NaN;;;;;0 / 0;207021;2022-10-30 19:27:48:378
0.8332;-7.5301;0.3472;-0.376;-9.407;-2.7453;-3.5601;-0.2563;1.7302;3.3941;2.3472;-1.1748;0.0;-15.06;24.42;23.34;276.45;50.64;159.98;5.0;983.47;64.882;;;;NaN;;;;;0 / 0;207521;2022-10-30 19:27:48:878
-1.7406;-19.7001;-0.4956;-0.3722;-9.0021;-3.8721;0.171;-2.0163;1.5641;-1.9076;-1.2544;0.403;0.0;-18.36;23.22;22.68;190.79;86.22;-152.17;5.0;983.02;61.365;;;;NaN;;;;;0 / 0;208021;2022-10-30 19:27:49:378
0.6656;-10.4797;-0.431;-2.4961;-7.6875;-5.5536;8.8626;-1.7699;7.0284;3.2359;4.9172;-0.4033;0.0;-0.9;11.22;33.3;225.09;47.82;155.49;5.0;983.67;63.616;;;;NaN;;;;;0 / 0;208520;2022-10-30 19:27:49:877
-2.5402;-17.768;-2.5522;0.1927;-9.7895;-0.5461;-0.4346;-1.7604;4.408;-3.7927;-0.9197;0.3395;0.0;-22.56;31.2;6.66;56.32;85.33;11.82;5.0;983.11;65.978;;;;NaN;;;;;0 / 0;209020;2022-10-30 19:27:50:377
-7.9275;-1.087;8.4686;-3.0101;-6.6243;-6.5748;0.3166;4.5222;-2.5977;-0.0359;-0.365;-0.0826;0.0;-0.54;5.7;37.2;216.64;40.26;160.63;5.0;983.96;61.998;;;;NaN;;;;;0 / 0;209520;2022-10-30 19:27:50:877
-1.6879;-15.4791;-3.699;0.2841;-9.8025;0.0233;2.2801;-3.1959;5.4285;-0.6938;0.3326;0.0231;0.0;-26.76;31.56;1.38;92.77;83.82;-12.27;5.0;983.0;68.279;;;;NaN;;;;;0 / 0;210021;2022-10-30 19:27:51:378
-5.5572;-13.7143;-14.3751;-2.6998;-6.7896;-6.5409;-2.4888;6.0354;1.6229;-0.0786;-1.8195;0.0658;0.0;-3.84;8.1;36.18;221.03;42.67;162.8;5.0;983.59;65.648;;;;NaN;;;;;0 / 0;210521;2022-10-30 19:27:51:878
-1.834;-10.846;-3.4812;0.2728;-9.756;0.9574;4.9038;-2.7061;-5.0396;1.4155;1.3625;0.042;0.0;-28.92;30.9;0.48;238.42;84.33;-143.11;5.0;982.97;66.147;;;;NaN;;;;;0 / 0;211020;2022-10-30 19:27:52:377
-6.0648;-21.8381;-13.1445;-2.1159;-7.0669;-6.4615;0.9907;3.0159;-0.5298;-0.0634;-1.5348;0.8257;0.0;-8.88;7.44;36.72;219.03;46.74;168.16;5.0;983.11;68.879;;;;NaN;;;;;0 / 0;211520;2022-10-30 19:27:52:877
-1.2139;-10.0081;-0.5435;0.1652;-9.7841;-0.6438;3.1484;2.3929;1.2399;1.6868;1.6521;-0.1376;0.0;-25.38;29.82;8.52;273.93;73.26;175.9;5.0;983.07;67.755;;;;NaN;;;;;0 / 0;212021;2022-10-30 19:27:53:378
-1.5562;-0.4645;1.4653;-1.5796;-6.9231;-6.7635;1.5029;5.0149;7.7332;0.1547;-0.8311;0.0041;0.0;-13.62;10.98;34.86;207.53;69.6;178.49;5.0;982.97;67.068;;;;NaN;;;;;0 / 0;212521;2022-10-30 19:27:53:878
1.8292;-4.604;-0.6464;0.3835;-9.7861;-0.5058;0.3682;0.3215;-1.1821;1.264;2.4456;0.2179;0.0;-27.0;28.44;8.94;268.62;74.42;178.91;5.0;983.14;66.772;;;;NaN;;;;;0 / 0;213020;2022-10-30 19:27:54:377
0.9361;-1.3743;2.6312;-2.2029;-6.4135;-7.0841;0.3785;4.6442;8.681;-2.7909;-2.4584;-0.3251;0.0;-11.04;8.04;36.72;215.31;57.69;169.51;5.0;982.85;62.376;;;;NaN;;;;;0 / 0;213520;2022-10-30 19:27:54:877
-4.0773;-8.7822;-0.9505;0.3985;-9.703;-1.3647;0.3581;4.4858;2.9281;2.1571;-0.0547;-0.5182;0.0;-24.48;26.76;14.04;272.23;65.79;173.18;5.0;983.3;70.048;;;;NaN;;;;;0 / 0;214021;2022-10-30 19:27:55:378
-1.3599;-2.7869;2.0231;-1.016;-7.5739;-6.146;2.4477;4.7296;8.3631;-1.0536;-1.4481;0.3706;0.0;-17.88;14.88;31.74;185.19;76.43;-155.19;5.0;982.83;60.453;;;;NaN;;;;;0 / 0;214520;2022-10-30 19:27:55:877
0.7949;-9.7878;-0.8619;-0.5616;-8.9815;-3.8971;-2.1917;2.3923;1.1797;2.3819;3.043;-0.4308;0.0;-17.22;20.22;25.62;273.28;44.23;159.71;5.0;983.62;59.904;;;;NaN;;;;;0 / 0;215020;2022-10-30 19:27:56:377
0.8978;-3.4213;-1.4796;0.5654;-9.3504;-2.9019;-5.5098;-3.9425;3.771;-4.1452;-0.6222;0.1257;0.0;-29.52;26.64;12.0;71.9;86.87;-6.16;5.0;982.76;65.983;;;;NaN;;;;;0 / 0;215520;2022-10-30 19:27:56:877
5.8445;-13.834;-2.4349;0.0779;-9.3545;-2.9422;-3.5711;2.3632;2.1952;4.9793;6.0827;-1.6611;0.0;-22.5;23.88;21.36;281.72;48.66;162.88;5.0;983.8;66.077;;;;NaN;;;;;0 / 0;216020;2022-10-30 19:27:57:377
-0.5124;-16.3314;-0.3041;-0.0943;-8.8964;-4.1248;-0.6814;-2.2201;3.8782;-3.1678;-0.3265;-0.3374;0.0;-26.52;22.56;19.14;193.87;85.29;-138.18;5.0;982.82;60.963;;;;NaN;;;;;0 / 0;216521;2022-10-30 19:27:57:878
-17.3825;5.3154;4.7788;-2.0648;-7.4968;-5.9754;12.7097;-10.841;8.0105;2.3196;3.9844;-2.2494;0.0;-10.68;12.06;33.3;244.12;46.28;158.2;5.0;983.45;65.368;;;;NaN;;;;;0 / 0;217020;2022-10-30 19:27:58:377
-4.877;-16.8965;8.5691;0.3789;-9.74;-1.0767;0.9355;-7.0488;10.0816;-3.5642;-4.5885;0.411;0.0;-28.98;30.18;3.6;79.04;84.57;-2.33;5.0;983.01;60.886;;;;NaN;;;;;0 / 0;217521;2022-10-30 19:27:58:878
-19.8988;-2.6504;-0.2155;-3.1767;-6.716;-6.4011;3.7393;-17.5977;-5.1991;2.1846;2.74;0.2925;0.0;-5.22;9.84;36.0;223.04;48.62;160.88;5.0;983.13;69.557;;;;NaN;;;;;0 / 0;218021;2022-10-30 19:27:59:378
4.2593;-13.9944;-0.7494;0.0059;-9.7329;1.2007;10.5959;-6.2754;-4.0162;-2.0914;-0.9801;-0.6067;0.0;-28.62;31.02;-3.72;226.11;86.19;-125.28;5.0;982.83;63.586;;;;NaN;;;;;0 / 0;218520;2022-10-30 19:27:59:877
-2.1524;-0.8308;-9.965;-2.9413;-6.5489;-6.6806;10.3708;-9.3899;10.0469;-1.1214;-0.8036;0.29;0.0;-7.98;9.24;35.88;224.38;46.45;164.89;5.0;982.94;64.027;;;;NaN;;;;;0 / 0;219023;2022-10-30 19:28:00:380
3.5626;-13.6832;-3.2825;-0.0086;-9.7362;1.1728;2.331;-5.1012;-5.164;0.7069;0.7944;0.5881;0.0;-29.34;30.9;-4.5;177.2;87.1;-79.5;5.0;982.82;68.429;;;;NaN;;;;;0 / 0;219520;2022-10-30 19:28:00:877
-6.3282;-11.0424;-13.4892;-2.5242;-6.3527;-7.0315;-3.804;-4.6897;-6.4578;1.2854;-0.3363;-0.9702;0.0;-8.04;6.42;37.14;229.03;37.28;164.14;5.0;982.71;63.597;;;;NaN;;;;;0 / 0;220020;2022-10-30 19:28:01:377
4.051;-12.036;-1.0534;0.6968;-9.7759;0.3401;-1.6617;2.4518;-5.5718;0.743;-0.2141;0.3267;0.0;-30.78;29.04;2.28;266.21;76.32;-166.68;5.0;982.76;66.363;;;;NaN;;;;;0 / 0;220521;2022-10-30 19:28:01:878
0.0;-2.9377;-4.7477;-1.557;-6.659;-7.0288;1.636;6.3286;8.4437;2.3184;0.6918;-1.6251;0.0;-16.44;9.48;35.7;215.42;53.2;179.15;5.0;982.63;64.929;;;;NaN;;;;;0 / 0;221021;2022-10-30 19:28:02:378
-1.2474;-9.1102;-4.9755;0.7111;-9.6607;-1.5279;-1.2354;0.7468;-1.9772;2.3404;1.7816;0.403;0.0;-25.92;27.6;13.32;225.77;80.1;-155.04;5.0;982.84;68.044;;;;NaN;;;;;0 / 0;221521;2022-10-30 19:28:02:878
-0.2442;0.1341;1.1444;-2.0014;-6.1721;-7.3531;1.3669;5.6717;7.3915;-1.3083;-1.3473;0.3578;0.0;-10.68;5.4;37.5;208.3;49.63;176.18;5.0;982.7;68.15;;;;NaN;;;;;0 / 0;222021;2022-10-30 19:28:03:378
2.9281;-5.3849;0.4381;0.7601;-9.6431;-1.6132;2.168;4.2583;2.0513;2.3917;2.0443;-0.454;0.0;-25.68;27.12;14.28;265.28;65.4;-178.48;5.0;982.85;62.919;;;;NaN;;;;;0 / 0;222521;2022-10-30 19:28:03:878
1.7933;-3.201;0.1867;-0.896;-7.3655;-6.4122;2.3469;3.6449;7.8847;-2.5062;0.0913;0.6577;0.0;-18.54;14.46;32.4;198.3;73.73;-165.01;5.0;982.68;61.227;;;;NaN;;;;;0 / 0;223021;2022-10-30 19:28:04:378
0.6129;-8.5739;-2.909;-0.1883;-9.2154;-3.3482;0.8013;0.6415;0.4393;2.0594;3.6618;-0.3312;0.0;-19.32;22.62;23.16;277.21;47.42;164.1;5.0;982.96;65.318;;;;NaN;;;;;0 / 0;223520;2022-10-30 19:28:04:877
3.0311;-3.9672;1.3671;-0.9128;-7.5536;-6.1871;0.8075;2.3672;5.2909;-2.4366;-1.8708;-0.0906;0.0;-22.26;22.68;21.96;187.9;83.79;-142.22;5.0;982.7;56.629;;;;NaN;;;;;0 / 0;224020;2022-10-30 19:28:05:377
-1.2617;-5.2125;-0.091;0.1614;-9.094;-3.6663;7.7271;-8.8708;3.691;5.0551;3.5726;-2.1492;0.0;-10.56;13.44;33.48;238.4;46.21;164.7;5.0;983.23;67.142;;;;NaN;;;;;0 / 0;224520;2022-10-30 19:28:05:877
-6.1726;-14.3511;-1.6951;0.7508;-9.4585;-2.4786;-0.4367;5.1468;1.6453;-3.0914;-2.0473;0.2595;0.0;-21.3;20.82;23.94;210.31;74.69;-163.15;5.0;982.84;65.603;;;;NaN;;;;;0 / 0;225021;2022-10-30 19:28:06:378
-10.1278;5.7057;2.7414;-1.6788;-6.8848;-6.7787;8.5308;-8.7846;3.2618;4.7032;4.0131;-1.3697;0.0;-12.48;13.32;32.76;240.22;44.59;166.09;5.0;983.58;62.88;;;;NaN;;;;;0 / 0;225521;2022-10-30 19:28:06:878
5.9188;-15.1535;-2.4541;0.3419;-9.7568;0.9264;-2.7608;-7.3597;8.6946;-1.6834;0.4609;-1.7961;0.0;-30.36;29.22;0.78;102.81;84.22;-20.26;5.0;982.74;65.943;;;;NaN;;;;;0 / 0;226021;2022-10-30 19:28:07:378
-18.0098;2.9018;14.2314;-2.2662;-6.8614;-6.63;2.0699;2.1636;-1.5636;-0.8453;-4.7388;0.1287;0.0;-5.4;10.62;34.2;229.79;48.81;157.42;5.0;983.56;64.047;;;;NaN;;;;;0 / 0;226520;2022-10-30 19:28:07:877
1.8794;-14.8949;-2.1141;0.3548;-9.7401;1.0839;6.1091;-6.9206;-1.6213;0.3141;1.4291;0.0835;0.0;-27.06;30.0;-1.98;119.89;85.46;-30.1;5.0;982.78;63.332;;;;NaN;;;;;0 / 0;227021;2022-10-30 19:28:08:378
-5.1359;-18.0457;-14.3703;-2.1255;-7.3118;-6.1798;-1.3417;1.1739;-4.2854;1.8419;-0.8732;-1.4827;0.0;-12.0;9.66;35.1;240.91;39.38;164.51;5.0;983.03;62.439;;;;NaN;;;;;0 / 0;227521;2022-10-30 19:28:08:878
-3.6751;-11.8205;-1.8507;1.0069;-9.7042;0.9926;5.3399;-6.1887;-2.8949;0.3691;1.357;0.1214;0.0;-29.82;30.24;-6.48;141.34;81.71;-45.41;5.0;982.81;66.545;;;;NaN;;;;;0 / 0;228020;2022-10-30 19:28:09:377
-5.0521;-11.2052;-13.8436;-2.1107;-5.6691;-7.7185;-3.0295;-4.9269;-6.5867;0.2903;-1.3253;-0.4876;0.0;-9.9;6.36;37.08;233.78;35.32;164.71;5.0;982.98;69.67;;;;NaN;;;;;0 / 0;228520;2022-10-30 19:28:09:877
-1.9824;-10.2188;-3.2226;0.8037;-9.6482;-1.5608;0.5845;1.8113;-1.7916;1.7827;0.1133;-0.0631;0.0;-29.1;28.98;5.16;242.47;79.69;-152.75;5.0;983.03;68.904;;;;NaN;;;;;0 / 0;229021;2022-10-30 19:28:10:378
-1.4964;-0.723;1.0199;-1.8986;-6.4002;-7.1835;0.0856;3.5267;8.9336;-1.3505;-1.0205;0.3835;0.0;-14.34;11.1;34.74;219.8;50.82;176.36;5.0;982.51;63.772;;;;NaN;;;;;0 / 0;229521;2022-10-30 19:28:10:878
-1.1349;-5.6315;0.8643;0.8065;-9.7207;-1.0134;-1.4274;0.7491;1.1481;2.793;2.806;-0.6532;0.0;-21.96;25.38;18.72;246.58;67.44;-176.81;5.0;983.26;67.02;;;;NaN;;;;;0 / 0;230021;2022-10-30 19:28:11:378
1.1851;-1.1037;2.1404;-0.4561;-7.4048;-6.4133;3.685;1.4673;5.8871;-4.527;-1.5195;-0.0203;0.0;-23.22;21.18;23.64;216.36;71.16;-164.01;5.0;982.45;67.693;;;;NaN;;;;;0 / 0;230520;2022-10-30 19:28:11:877
-2.2601;-9.6202;-1.1971;0.4285;-9.2877;-3.1184;-1.119;2.5373;-0.5093;2.2897;2.7938;-0.352;0.0;-25.44;26.58;15.78;247.04;71.28;-172.18;5.0;983.57;65.333;;;;NaN;;;;;0 / 0;231020;2022-10-30 19:28:12:377
1.8316;-5.5046;-3.1699;0.6172;-9.1631;-3.4388;1.7181;1.9978;6.9235;-2.1947;0.2569;-0.3734;0.0;-21.42;18.3;27.3;216.0;69.13;-169.82;5.0;982.52;67.009;;;;NaN;;;;;0 / 0;231520;2022-10-30 19:28:12:877
14.4302;-19.7216;5.6961;-2.4227;-7.2389;-6.1562;0.0925;2.0844;4.6318;3.085;2.0968;-1.3673;0.0;-16.08;19.08;27.9;265.25;47.58;158.52;5.0;983.49;62.36;;;;NaN;;;;;0 / 0;232021;2022-10-30 19:28:13:378
-0.8452;-10.8365;-3.3375;0.3938;-8.9864;-3.9062;-2.1514;-9.8573;-3.2618;-2.3822;0.7584;0.6303;0.0;-31.8;27.12;7.44;181.23;84.26;-103.46;5.0;982.55;61.034;;;;NaN;;;;;0 / 0;232521;2022-10-30 19:28:13:878
13.5515;-17.8398;4.2353;-1.9746;-7.5845;-5.8946;-19.6318;2.4537;4.5265;1.1394;1.5385;-0.9781;0.0;-5.76;10.08;35.04;228.95;44.64;161.14;5.0;983.48;66.263;;;;NaN;;;;;0 / 0;233020;2022-10-30 19:28:14:377
1.2761;-14.8734;8.2723;0.9668;-9.7391;-0.6206;3.9575;-4.9244;-3.0875;-1.4702;-0.0571;-0.1407;0.0;-29.7;30.54;-4.62;127.61;82.85;-34.16;5.0;982.67;66.4;;;;NaN;;;;;0 / 0;233520;2022-10-30 19:28:14:877
-12.364;-16.6235;-7.5756;-2.4547;-6.8574;-6.5666;-20.2146;12.0427;9.3665;1.407;2.4493;-0.9128;0.0;-2.82;9.18;34.56;223.72;44.37;159.5;5.0;983.12;67.124;;;;NaN;;;;;0 / 0;234021;2022-10-30 19:28:15:378
4.0079;-16.9013;-1.3048;0.356;-9.7413;1.0728;3.9693;-5.0621;-2.4609;-1.2882;0.117;-0.0594;0.0;-28.26;31.44;-4.56;111.61;83.38;-18.36;5.0;982.69;66.021;;;;NaN;;;;;0 / 0;234520;2022-10-30 19:28:15:877
-4.0965;-6.7328;-8.2387;-1.9152;-7.2523;-6.3171;-2.0291;0.7888;-2.2956;-0.4763;-1.5886;0.7323;0.0;-8.94;13.8;33.18;236.58;47.69;163.13;5.0;982.66;60.158;;;;NaN;;;;;0 / 0;235020;2022-10-30 19:28:16:377
2.2242;-16.4583;-7.5708;0.4123;-9.7354;1.1053;2.8267;-1.0841;-2.1291;1.553;0.3589;0.3413;0.0;-27.9;30.78;2.94;227.03;85.27;-139.23;5.0;982.65;68.475;;;;NaN;;;;;0 / 0;235520;2022-10-30 19:28:16:877
-5.246;-8.2531;-14.0064;-2.0149;-6.796;-6.7768;1.6583;5.5112;8.451;0.3288;-1.0901;0.232;0.0;-12.96;7.44;37.2;223.12;43.21;172.58;5.0;982.51;67.918;;;;NaN;;;;;0 / 0;236021;2022-10-30 19:28:17:378
2.2936;-7.5157;2.49;0.5886;-9.7426;-0.9513;-0.9145;2.8104;0.4651;1.6538;3.2996;-0.2243;0.0;-23.28;26.76;16.32;260.4;70.35;175.15;5.0;982.59;66.158;;;;NaN;;;;;0 / 0;236521;2022-10-30 19:28:17:878
1.6161;-0.3663;1.4222;-0.7738;-6.9036;-6.9218;0.8329;5.6775;7.0862;0.1633;-1.1781;-0.1358;0.0;-13.38;7.92;36.24;222.46;44.75;173.62;5.0;982.44;68.248;;;;NaN;;;;;0 / 0;237020;2022-10-30 19:28:18:377
-4.3479;-9.9793;1.3336;-0.151;-9.163;-3.491;0.5203;0.3182;0.3143;2.0313;3.8555;-0.2445;0.0;-20.28;26.4;18.12;252.04;69.13;177.52;5.0;982.79;62.878;;;;NaN;;;;;0 / 0;237520;2022-10-30 19:28:18:877
-0.5148;-10.4247;-5.6458;0.6622;-9.0893;-3.6215;1.2199;2.3127;7.0965;-2.3706;0.139;-0.181;0.0;-19.62;18.06;28.2;213.51;67.95;-169.64;5.0;982.57;69.287;;;;NaN;;;;;0 / 0;238020;2022-10-30 19:28:19:377
-0.6488;-8.8732;-0.6536;0.1776;-9.0247;-3.833;3.8622;0.5589;5.1183;3.1608;2.7486;-1.4876;0.0;-12.96;14.7;31.56;248.21;44.9;163.93;5.0;983.22;63.513;;;;NaN;;;;;0 / 0;238520;2022-10-30 19:28:19:877
-5.1047;-13.1588;0.9912;0.7107;-9.3779;-2.7786;-4.0123;-7.629;7.4205;-1.8685;1.9594;-0.8205;0.0;-28.44;28.8;5.76;111.58;85.82;-37.67;5.0;982.57;63.247;;;;NaN;;;;;0 / 0;239021;2022-10-30 19:28:20:378
1.9345;-0.7302;1.2689;-2.0535;-6.9726;-6.5831;6.9118;-14.0935;19.3223;0.327;3.4334;-0.9281;0.0;-3.72;8.64;35.34;226.45;43.73;159.53;5.0;983.47;62.596;;;;NaN;;;;;0 / 0;239521;2022-10-30 19:28:20:878
8.1526;-15.2014;-0.9026;0.4476;-9.7928;0.2651;-5.0669;-6.0661;6.5048;-1.9119;0.4414;-0.1608;0.0;-29.16;28.62;6.96;133.61;86.96;-59.36;5.0;982.53;70.009;;;;NaN;;;;;0 / 0;240021;2022-10-30 19:28:21:378
-2.1332;-1.2522;-7.6737;-2.527;-6.5223;-6.8734;7.5013;-16.3358;13.4084;0.0118;1.8311;-0.2402;0.0;-1.02;7.26;35.1;218.45;41.69;159.81;5.0;983.13;58.314;;;;NaN;;;;;0 / 0;240520;2022-10-30 19:28:21:877
0.1508;-12.8931;-4.2713;0.3897;-9.7896;0.4275;2.1875;-6.8886;-5.9401;0.5145;1.139;-0.3019;0.0;-25.8;31.44;-0.42;129.17;86.62;-42.35;5.0;982.51;68.094;;;;NaN;;;;;0 / 0;241021;2022-10-30 19:28:22:378
-6.8166;-4.9443;-12.5651;-2.4305;-6.6107;-6.8236;-2.8913;-5.3783;-7.5876;0.1712;-1.7254;-0.564;0.0;-6.18;8.22;35.88;227.37;38.85;164.0;5.0;982.61;66.399;;;;NaN;;;;;0 / 0;241520;2022-10-30 19:28:22:877
0.8428;-13.1947;-0.8571;0.5598;-9.7828;0.3925;2.9653;0.364;1.3122;2.779;2.7645;0.3157;0.0;-24.3;28.68;11.58;235.73;78.17;-161.01;5.0;982.7;63.217;;;;NaN;;;;;0 / 0;242020;2022-10-30 19:28:23:377
-0.3998;-0.1652;-1.4868;-2.1741;-6.1458;-7.3261;0.2676;5.5399;10.7366;-1.18;-1.9991;0.2509;0.0;-11.34;6.6;36.54;214.1;47.33;174.36;5.0;982.35;69.844;;;;NaN;;;;;0 / 0;242521;2022-10-30 19:28:23:878
-2.7198;-4.1994;-3.8211;0.4819;-9.5351;-2.2403;2.0419;1.0207;5.9704;2.2885;3.6178;0.3114;0.0;-24.78;27.66;12.24;245.53;76.49;-167.86;5.0;982.75;63.438;;;;NaN;;;;;0 / 0;243020;2022-10-30 19:28:24:377
0.1963;-4.288;0.3974;-0.4437;-7.5434;-6.2507;3.8412;4.5969;9.0042;-2.4653;-2.277;0.1575;0.0;-16.62;8.94;34.98;223.93;50.28;175.94;5.0;982.33;65.62;;;;NaN;;;;;0 / 0;243521;2022-10-30 19:28:24:878
2.6983;-13.6712;-1.913;-0.2073;-9.2067;-3.371;-2.5927;3.6399;-3.5235;1.363;-2.2746;-0.4058;0.0;-20.7;27.18;15.84;258.45;69.86;176.48;5.0;982.73;69.576;;;;NaN;;;;;0 / 0;244020;2022-10-30 19:28:25:377
2.3798;-0.589;-0.158;-0.7956;-6.9568;-6.8658;-0.053;2.3157;2.854;-3.6937;-0.7663;-0.0741;0.0;-18.66;20.58;26.64;214.56;69.85;-170.47;5.0;982.38;58.244;;;;NaN;;;;;0 / 0;244520;2022-10-30 19:28:25:877
-0.4549;-7.5109;-2.1931;-0.4888;-8.6212;-4.6483;2.6905;-3.9769;5.9227;3.2457;1.4132;-0.8566;0.0;-9.72;9.96;35.46;239.58;39.01;163.32;5.0;983.71;61.324;;;;NaN;;;;;0 / 0;245020;2022-10-30 19:28:26:377
-1.6999;-15.1439;2.6073;0.8706;-9.4395;-2.5117;0.315;-11.1131;8.9263;-3.155;1.1927;-0.5676;0.0;-27.6;30.36;5.4;99.08;84.51;-24.99;5.0;982.27;61.846;;;;NaN;;;;;0 / 0;245521;2022-10-30 19:28:26:878
-7.8964;-3.4357;-4.2665;-2.5592;-5.9699;-7.3472;3.3581;-5.0589;1.0114;3.4784;2.9618;-1.0936;0.0;-8.4;6.84;35.04;235.79;37.5;160.8;5.0;983.23;65.515;;;;NaN;;;;;0 / 0;246020;2022-10-30 19:28:27:377
-0.7326;-15.2397;-4.5897;0.4246;-9.7269;1.1735;2.2225;-4.4537;-1.483;-3.0059;-0.85;-0.2433;0.0;-26.4;30.9;-1.2;103.44;82.69;-19.89;5.0;982.46;64.707;;;;NaN;;;;;0 / 0;246521;2022-10-30 19:28:27:878
-5.5022;-9.6322;-13.2833;-2.3146;-6.3677;-7.0898;-0.6196;-0.4708;-6.8611;-0.6596;-0.4126;0.4617;0.0;-4.56;6.84;37.32;224.53;40.49;161.92;5.0;982.48;68.115;;;;NaN;;;;;0 / 0;247021;2022-10-30 19:28:28:378
-1.7861;-14.1548;-4.2689;0.3306;-9.7394;1.0975;0.5694;-3.3053;-4.2716;0.8596;0.2214;0.1984;0.0;-25.62;30.3;2.7;190.59;86.82;-106.49;5.0;982.45;63.478;;;;NaN;;;;;0 / 0;247520;2022-10-30 19:28:28:877
-6.1438;-11.9234;-12.4693;-1.8828;-6.6712;-6.9369;1.617;4.464;5.1652;0.6782;-0.3033;-0.7576;0.0;-8.28;6.12;37.32;219.16;41.12;168.94;5.0;982.21;67.514;;;;NaN;;;;;0 / 0;248020;2022-10-30 19:28:29:377
2.9401;-8.0951;-0.5842;0.5166;-9.7654;-0.7355;-1.9303;5.708;0.4445;1.0172;1.076;0.2949;0.0;-23.52;27.12;13.86;253.2;72.93;-176.2;5.0;982.37;68.333;;;;NaN;;;;;0 / 0;248521;2022-10-30 19:28:29:878
0.7087;-0.6608;0.2705;-0.5723;-6.9231;-6.9219;1.5407;5.5909;8.2783;-0.3578;-1.3644;0.0713;0.0;-13.32;6.96;37.38;218.23;44.91;175.27;5.0;982.19;65.757;;;;NaN;;;;;0 / 0;249021;2022-10-30 19:28:30:378
-0.4262;-10.9825;1.4341;-0.2667;-8.9653;-3.9652;-1.7941;0.9581;1.9784;2.071;3.0461;-0.1932;0.0;-21.0;24.6;18.72;255.11;66.09;176.15;5.0;982.63;64.542;;;;NaN;;;;;0 / 0;249520;2022-10-30 19:28:30:877
-3.7565;-17.5716;-0.261;0.7335;-9.51;-2.2785;0.8574;5.4859;-0.3264;-4.5129;-0.5366;0.4782;0.0;-19.38;21.24;22.86;206.9;75.87;-162.15;5.0;982.4;62.892;;;;NaN;;;;;0 / 0;250020;2022-10-30 19:28:31:377
-2.7078;-6.2276;-0.8978;-0.7362;-8.1908;-5.3421;11.4518;-11.3238;7.0535;3.5627;3.0473;-1.636;0.0;-4.86;7.92;35.28;232.23;39.03;159.16;5.0;983.31;61.866;;;;NaN;;;;;0 / 0;250521;2022-10-30 19:28:31:878
0.7877;-14.9404;5.4854;0.5008;-9.7064;-1.3056;-1.8225;-1.4364;-6.2331;-1.9864;-0.828;0.0047;0.0;-25.14;30.96;0.36;108.34;85.56;-23.63;5.0;982.28;65.874;;;;NaN;;;;;0 / 0;251020;2022-10-30 19:28:32:377
-10.5156;-3.9672;-6.2899;-2.6468;-6.3831;-6.9585;-0.9732;-3.349;-7.0781;-0.9577;-0.9575;0.6718;0.0;-5.7;9.0;35.4;223.63;44.05;164.51;5.0;982.67;68.161;;;;NaN;;;;;0 / 0;251522;2022-10-30 19:28:32:879
0.2945;-12.1652;-3.6943;0.118;-9.7987;0.3758;1.4989;-6.3742;-3.5866;0.2592;0.66;-0.0612;0.0;-23.22;31.02;1.38;101.89;87.7;-17.43;5.0;982.34;67.84;;;;NaN;;;;;0 / 0;252020;2022-10-30 19:28:33:377
-0.431;-2.6528;-0.6177;-2.5257;-5.8767;-7.4334;-1.8046;-2.6619;-4.2853;0.2775;-1.1603;-0.5292;0.0;-3.12;5.04;37.32;221.93;36.82;161.23;5.0;982.35;69.249;;;;NaN;;;;;0 / 0;252521;2022-10-30 19:28:33:878
-1.4174;-7.5037;-1.0534;0.0045;-9.4314;-2.6866;3.0723;1.9229;3.3598;1.9256;1.9575;0.2564;0.0;-21.84;27.36;15.24;252.18;74.1;-179.9;5.0;982.87;67.102;;;;NaN;;;;;0 / 0;253020;2022-10-30 19:28:34:377
-1.7334;-2.1955;2.2601;-2.009;-5.9703;-7.516;0.1301;3.3793;9.757;-2.9289;-1.5684;-0.0863;0.0;-13.02;11.88;33.42;220.93;57.58;172.59;5.0;982.12;64.75;;;;NaN;;;;;0 / 0;253521;2022-10-30 19:28:34:878
-2.5283;-9.0097;-1.98;-0.6948;-8.8585;-4.149;4.5276;-0.0529;5.9951;3.2231;1.0522;-1.8529;0.0;-5.88;12.36;32.82;239.06;42.14;159.23;5.0;983.18;57.588;;;;NaN;;;;;0 / 0;254020;2022-10-30 19:28:35:377
-1.7166;-14.8542;2.8371;0.8061;-9.4583;-2.462;5.7187;-9.102;9.865;-3.676;1.7969;-0.1907;0.0;-24.0;30.06;7.5;94.77;85.71;-28.31;5.0;982.06;63.866;;;;NaN;;;;;0 / 0;254521;2022-10-30 19:28:35:878
-13.178;-4.0223;-0.7877;-3.2811;-5.8837;-7.1265;10.0586;-9.4783;7.5208;2.2652;2.467;-0.1669;0.0;-0.96;5.58;36.54;227.31;36.87;155.28;5.0;983.1;63.587;;;;NaN;;;;;0 / 0;255021;2022-10-30 19:28:36:378
1.1277;-16.9683;-2.9018;0.1402;-9.7709;0.8241;5.802;-8.0329;-1.1371;-0.9161;0.4383;-0.3471;0.0;-23.28;31.62;-0.42;92.82;85.11;-9.66;5.0;982.23;61.026;;;;NaN;;;;;0 / 0;255521;2022-10-30 19:28:36:878
-2.557;-3.2465;-4.3263;-2.5974;-5.794;-7.4735;-2.4596;-3.3734;-7.2044;0.0814;-1.0577;-0.148;0.0;-1.02;3.42;37.98;215.82;36.22;160.84;5.0;982.34;69.39;;;;NaN;;;;;0 / 0;256021;2022-10-30 19:28:37:378
1.0247;-9.9291;2.9736;0.2493;-9.8028;-0.1129;-1.5536;4.7799;0.7041;1.5646;0.974;-0.1272;0.0;-20.52;29.22;12.24;250.95;78.94;-177.59;5.0;982.13;69.284;;;;NaN;;;;;0 / 0;256521;2022-10-30 19:28:37:878
-0.2274;-2.9161;0.6967;-1.9329;-6.2902;-7.271;0.8813;3.8526;7.0163;-2.3132;-1.5018;0.1513;0.0;-11.76;11.1;35.7;221.05;53.51;170.5;5.0;981.99;59.935;;;;NaN;;;;;0 / 0;257020;2022-10-30 19:28:38:377
-2.5426;-11.1501;0.5578;-0.8999;-9.0183;-3.7457;-0.3447;1.7525;4.3999;2.9158;1.6729;-1.1144;0.0;-8.16;14.22;31.86;244.63;46.14;157.29;5.0;982.47;63.949;;;;NaN;;;;;0 / 0;257521;2022-10-30 19:28:38:878
-0.4764;-13.9633;-3.4716;-0.2147;-9.3131;-3.0643;-0.9869;3.1237;3.9768;-3.8752;-0.296;0.0438;0.0;-12.48;19.44;26.58;216.35;71.75;175.99;5.0;982.12;68.473;;;;NaN;;;;;0 / 0;258020;2022-10-30 19:28:39:377
-11.9713;-11.1884;-8.6505;-3.4475;-5.7546;-7.1532;3.9952;-3.8214;2.2394;3.5071;4.291;-1.2384;0.0;4.8;2.22;34.56;210.49;35.93;154.27;5.0;983.37;64.944;;;;NaN;;;;;0 / 0;258521;2022-10-30 19:28:39:878
2.8371;-16.5685;-0.0766;-0.1663;-9.7686;0.8467;-6.5271;-1.8321;-6.349;-1.3376;-0.7309;-0.6361;0.0;-17.94;30.78;4.8;56.46;84.95;11.11;5.0;982.07;60.376;;;;NaN;;;;;0 / 0;259020;2022-10-30 19:28:40:377
-7.7288;-1.6376;-4.7788;-3.0795;-6.3336;-6.8244;-4.7996;-5.3798;-8.8103;-0.6266;-0.6307;0.119;0.0;3.12;5.28;35.28;204.09;42.19;160.98;5.0;982.48;70.701;;;;NaN;;;;;0 / 0;259521;2022-10-30 19:28:40:878
0.4477;-13.4677;-2.885;-0.3586;-9.7967;0.2571;0.4545;0.1971;-2.8385;2.3312;0.6222;0.0658;0.0;-15.06;28.68;14.52;255.36;78.47;165.57;5.0;982.14;67.075;;;;NaN;;;;;0 / 0;260020;2022-10-30 19:28:41:377
-0.4549;-2.3822;-0.2394;-3.5548;-6.1703;-6.7425;0.6756;2.0476;8.7332;-1.5557;-2.3992;0.3517;0.0;0.9;6.36;35.88;197.26;49.28;167.04;5.0;982.12;66.158;;;;NaN;;;;;0 / 0;260520;2022-10-30 19:28:41:877
3.9624;-10.3049;-1.7693;-2.363;-9.1885;-2.4816;-0.0324;3.8008;0.4726;1.137;1.7975;-0.7601;0.0;3.78;25.38;16.98;238.62;69.55;136.4;5.0;982.56;62.031;;;;NaN;;;;;0 / 0;261021;2022-10-30 19:28:42:378
-5.1263;-16.5996;3.9648;-0.3488;-9.474;-2.5081;-0.1844;-5.0866;-1.0406;-5.6381;-4.9581;0.5191;0.0;-8.76;21.24;26.76;213.32;75.04;172.08;5.0;982.06;60.829;;;;NaN;;;;;0 / 0;261521;2022-10-30 19:28:42:878
-8.3273;-5.3873;-0.893;-4.332;-5.3749;-6.9652;4.563;-11.2763;4.9777;1.4565;2.5421;-1.5927;0.0;12.36;0.3;33.36;201.02;33.24;148.12;5.0;983.04;66.997;;;;NaN;;;;;0 / 0;262021;2022-10-30 19:28:43:378
-7.6977;-14.4948;3.4046;1.3445;-9.6433;-1.1702;0.4203;-3.0601;-5.1021;-2.2283;-0.2135;-1.0026;0.0;-24.96;31.98;3.24;113.75;82.33;-39.79;5.0;982.03;66.002;;;;NaN;;;;;0 / 0;262522;2022-10-30 19:28:43:879
2.478;-14.9237;-8.4087;-4.2612;-6.7395;-5.7089;-11.1758;-11.8687;-10.7852;-3.02;-2.9435;3.188;0.0;2.82;10.56;32.76;217.86;53.22;150.43;5.0;982.28;71.101;;;;NaN;;;;;0 / 0;263020;2022-10-30 19:28:44:377
1.6927;-18.7161;10.9035;0.4905;-9.7936;0.1229;1.5651;-2.8653;-8.9217;-2.1977;0.0712;-1.9384;0.0;-27.96;31.8;-3.24;99.92;80.16;-15.14;5.0;982.12;63.479;;;;NaN;;;;;0 / 0;263520;2022-10-30 19:28:44:877
-4.6711;-6.5748;0.7661;-4.0776;-6.1313;-6.4769;14.866;-11.9704;16.0018;0.5646;2.7779;-1.2084;0.0;1.5;6.84;35.7;230.82;38.7;147.81;5.0;982.24;65.974;;;;NaN;;;;;0 / 0;264020;2022-10-30 19:28:45:377
4.5993;-15.2349;-3.158;0.4332;-9.7206;1.2218;-0.4121;-4.6939;7.4456;-1.648;-0.7633;-0.0435;0.0;-26.88;29.82;5.46;90.65;82.4;-19.52;5.0;982.0;58.599;;;;NaN;;;;;0 / 0;264520;2022-10-30 19:28:45:877
-7.4774;-0.972;-7.6354;-2.6419;-7.5439;-5.6815;19.6411;-27.0092;7.2189;-1.6858;-1.1011;0.9357;0.0;0.96;9.6;32.88;217.5;50.29;155.06;5.0;982.17;67.686;;;;NaN;;;;;0 / 0;265021;2022-10-30 19:28:46:378
-0.2083;-11.8037;6.6418;-0.1229;-9.7988;-0.3733;0.5855;-3.4431;-5.7097;-3.2894;-0.3839;-1.1645;0.0;-18.96;31.56;0.66;51.55;83.36;26.83;5.0;982.23;62.711;;;;NaN;;;;;0 / 0;265521;2022-10-30 19:28:46:878
-3.565;-14.083;-12.3616;-3.5684;-6.931;-5.9496;-6.9056;-6.3369;-5.6174;-0.9278;-4.2782;0.2399;0.0;3.96;13.14;29.64;213.36;49.08;155.5;5.0;982.43;65.554;;;;NaN;;;;;0 / 0;266021;2022-10-30 19:28:47:378
3.3279;-15.3881;-4.8004;-0.4602;-9.7583;0.857;2.3366;-3.4878;-5.4386;0.2531;0.5855;-0.3099;0.0;-17.22;31.92;5.1;291.57;87.51;146.21;5.0;982.13;68.873;;;;NaN;;;;;0 / 0;266520;2022-10-30 19:28:47:877
-7.9323;-22.8221;-11.4877;-2.9097;-7.3908;-5.7514;-3.472;8.5398;-5.1922;-0.0157;-2.3338;0.3737;0.0;11.64;13.14;32.52;193.29;48.91;153.16;5.0;982.25;67.11;;;;NaN;;;;;0 / 0;267021;2022-10-30 19:28:48:378
0.8356;-7.3361;-3.7948;-0.6551;-9.7795;-0.3205;1.542;2.4402;-4.1004;1.6226;0.6228;-0.1223;0.0;-9.54;33.72;9.18;301.15;85.74;116.07;5.0;981.98;67.289;;;;NaN;;;;;0 / 0;267520;2022-10-30 19:28:48:877
-2.6097;-1.2234;1.8052;-3.0574;-6.06;-7.078;1.0349;3.0919;4.4611;-0.7372;-1.6167;-0.1297;0.0;11.52;2.28;35.22;187.68;38.17;156.64;5.0;981.91;67.965;;;;NaN;;;;;0 / 0;268020;2022-10-30 19:28:49:377
-5.0784;-7.8389;-2.7198;-0.2118;-9.804;-0.0842;5.3796;2.9896;5.0101;1.7167;0.5012;0.1348;0.0;-8.16;29.4;17.22;235.33;78.06;165.92;5.0;982.06;65.908;;;;NaN;;;;;0 / 0;268521;2022-10-30 19:28:49:878
-0.6632;-1.1037;0.8428;-2.9373;-5.7434;-7.3862;2.0092;5.8994;9.9251;0.0832;-1.4743;-0.1877;0.0;-1.26;4.86;36.96;200.35;50.05;167.45;5.0;981.88;69.074;;;;NaN;;;;;0 / 0;269020;2022-10-30 19:28:50:377
-0.249;-5.823;-5.167;-0.1787;-9.6926;-1.4806;-2.1055;0.163;3.1504;1.4852;1.7633;0.0903;0.0;-9.06;22.62;23.34;243.85;62.41;165.55;5.0;982.12;61.294;;;;NaN;;;;;0 / 0;269520;2022-10-30 19:28:50:877
3.2896;-4.4125;3.1292;-1.4963;-7.4966;-6.1427;1.7254;3.8986;10.1819;-2.8416;-1.9154;0.0603;0.0;-2.82;5.46;34.44;207.03;49.86;166.31;5.0;981.88;68.904;;;;NaN;;;;;0 / 0;270021;2022-10-30 19:28:51:378
-1.9465;-6.5652;-2.3176;-1.3374;-8.6875;-4.3484;1.1497;-1.2792;1.9663;3.2585;1.8586;-0.0447;0.0;-7.8;22.38;23.04;243.49;62.36;162.9;5.0;982.3;66.535;;;;NaN;;;;;0 / 0;270521;2022-10-30 19:28:51:878
-0.3639;-18.1008;1.245;0.5174;-9.5637;-2.1067;-1.0452;-1.0053;1.702;-3.574;-0.3332;0.1886;0.0;-15.96;23.52;22.32;208.13;77.22;-166.2;5.0;981.97;58.555;;;;NaN;;;;;0 / 0;271021;2022-10-30 19:28:52:378
-0.8523;-8.0017;-0.5411;-1.5385;-8.5294;-4.5883;8.2119;-5.9465;8.4198;3.5505;2.715;-1.0423;0.0;7.26;7.08;31.44;215.22;40.1;149.04;5.0;982.9;64.36;;;;NaN;;;;;0 / 0;271520;2022-10-30 19:28:52:877
-0.2586;-17.9834;2.6049;0.4863;-9.6149;-1.8675;5.4281;-5.9163;-1.2031;-1.8654;1.5641;-0.2744;0.0;-18.18;29.64;5.46;36.12;85.48;34.16;5.0;981.91;65.933;;;;NaN;;;;;0 / 0;272021;2022-10-30 19:28:53:378
6.0241;-41.0474;3.0263;-3.3066;-6.7595;-6.2886;2.821;7.5121;-5.8087;1.0313;3.0229;-0.2133;0.0;4.8;8.7;31.32;205.82;45.5;157.07;5.0;982.79;66.329;;;;NaN;;;;;0 / 0;272520;2022-10-30 19:28:53:877
-3.474;-14.3679;-7.0393;-0.044;-9.759;0.9647;4.2664;-5.4447;-3.7874;-0.1116;0.7535;-0.3007;0.0;-21.12;32.04;3.54;68.77;84.35;2.61;5.0;981.92;70.434;;;;NaN;;;;;0 / 0;273021;2022-10-30 19:28:54:378
-7.1853;-24.4622;-12.9817;-2.2315;-7.3425;-6.1056;-4.5063;6.5754;-3.3609;-0.2027;-1.8922;0.3279;0.0;-0.3;9.9;31.44;215.05;48.48;159.92;5.0;982.29;66.238;;;;NaN;;;;;0 / 0;273520;2022-10-30 19:28:54:877
3.6224;-8.7439;-3.6895;0.4497;-9.7791;-0.5813;-2.9112;-1.4108;-1.764;1.4858;0.4468;-0.2017;0.0;-22.26;30.78;6.66;218.29;85.7;-142.28;5.0;982.02;62.518;;;;NaN;;;;;0 / 0;274023;2022-10-30 19:28:55:380
-2.7485;-4.1396;-11.672;-2.9248;-6.457;-6.7766;2.2583;4.2915;7.3775;1.52;-0.0027;-1.4058;0.0;-0.36;2.64;36.6;206.82;40.48;163.53;5.0;981.94;65.234;;;;NaN;;;;;0 / 0;274521;2022-10-30 19:28:55:878
3.2226;-6.558;1.7119;0.3502;-9.7158;-1.2844;0.0385;0.3461;1.2586;1.837;1.4786;0.2234;0.0;-15.48;25.38;19.14;254.14;67.37;169.7;5.0;982.49;65.056;;;;NaN;;;;;0 / 0;275020;2022-10-30 19:28:56:377
1.2809;-1.2019;2.3535;-1.5224;-6.7118;-6.986;1.822;1.3558;4.6251;-2.6449;-2.376;0.4574;0.0;-15.18;18.18;29.88;210.1;68.32;-175.94;5.0;981.77;63.475;;;;NaN;;;;;0 / 0;275521;2022-10-30 19:28:56:878
-3.1939;-7.5684;-1.8555;-1.0317;-9.127;-3.4355;1.5711;1.4498;1.5587;2.071;0.1078;-0.4296;0.0;-12.96;26.04;19.44;257.58;68.54;163.29;5.0;982.83;68.128;;;;NaN;;;;;0 / 0;276020;2022-10-30 19:28:57:377
-4.2306;-17.0808;2.138;0.4445;-9.5149;-2.3322;0.3526;-4.5729;2.2274;-4.8318;-2.2727;0.8483;0.0;-22.08;22.2;23.46;220.04;75.99;-169.21;5.0;981.79;60.555;;;;NaN;;;;;0 / 0;276521;2022-10-30 19:28:57:878
12.2993;-23.8995;5.4327;-2.3371;-7.5479;-5.8084;-21.2072;13.4813;21.1669;-0.0854;-2.4651;-0.0331;0.0;1.68;8.58;33.66;221.86;44.27;152.88;5.0;982.85;68.405;;;;NaN;;;;;0 / 0;277021;2022-10-30 19:28:58:378
1.7334;-12.9912;8.0017;0.1206;-9.7439;-1.1009;-0.6483;-9.1699;8.7887;-4.1159;0.0412;0.1245;0.0;-23.34;27.42;15.54;234.19;83.52;-173.75;5.0;981.86;68.433;;;;NaN;;;;;0 / 0;277520;2022-10-30 19:28:58:877
-5.3801;-6.1726;-7.7958;-2.6062;-7.1203;-6.2192;-5.402;4.1827;9.3509;0.6416;2.6954;-1.917;0.0;4.98;9.36;33.12;205.19;46.56;157.26;5.0;982.41;66.946;;;;NaN;;;;;0 / 0;278020;2022-10-30 19:28:59:377
8.4183;-14.2721;-1.6041;-0.2954;-9.783;0.6137;8.6541;-4.4987;-2.3756;-0.8227;0.9349;-0.1046;0.0;-19.08;31.68;2.16;53.01;86.02;25.7;5.0;981.92;65.773;;;;NaN;;;;;0 / 0;278521;2022-10-30 19:28:59:878
5.2532;2.4469;-12.1485;-3.0984;-7.1368;-5.9696;-1.3806;-20.6018;-6.1654;-0.2888;-1.5128;0.7732;0.0;0.54;12.84;31.86;225.64;45.71;155.54;5.0;982.14;70.157;;;;NaN;;;;;0 / 0;279020;2022-10-30 19:29:00:377
11.5763;-15.2493;-1.5227;-0.5323;-9.7705;0.6515;-0.5328;0.8289;-1.6671;1.6544;3.1756;-0.1578;0.0;-16.98;31.44;8.88;262.77;84.63;168.0;5.0;981.83;63.878;;;;NaN;;;;;0 / 0;279521;2022-10-30 19:29:00:878
-4.1492;-6.4192;-11.447;-2.8397;-7.1433;-6.0893;2.7107;4.2967;7.7321;0.9281;-1.117;-0.4791;0.0;1.56;5.7;36.12;205.09;43.11;162.19;5.0;981.81;64.665;;;;NaN;;;;;0 / 0;280020;2022-10-30 19:29:01:377
2.4445;-7.6474;1.5443;0.0841;-9.7595;-0.9564;2.44;2.1586;1.4349;1.7979;1.15;0.3957;0.0;-20.22;31.2;9.42;248.26;84.38;-174.97;5.0;981.87;64.897;;;;NaN;;;;;0 / 0;280520;2022-10-30 19:29:01:877
0.1724;-1.2019;1.8004;-1.5916;-6.8248;-6.8599;3.0444;6.6899;8.4225;0.3935;-1.2685;0.177;0.0;-2.1;5.4;36.3;206.19;44.1;166.94;5.0;981.74;61.778;;;;NaN;;;;;0 / 0;281020;2022-10-30 19:29:02:377
-1.0127;-9.0408;-0.7542;-1.1047;-9.0859;-3.5208;0.8425;1.2458;0.4026;1.9219;2.9575;-0.0899;0.0;-7.86;26.34;19.92;247.37;67.9;162.58;5.0;982.09;64.556;;;;NaN;;;;;0 / 0;281520;2022-10-30 19:29:02:877
0.826;-1.5036;2.8994;-1.5468;-6.9431;-6.7506;4.5628;2.8647;5.1375;-3.8165;-1.3247;-0.5524;0.0;-10.86;17.22;31.32;201.21;67.21;-175.95;5.0;981.83;60.321;;;;NaN;;;;;0 / 0;282022;2022-10-30 19:29:03:379
-5.4447;-9.1342;-0.984;-1.3946;-9.174;-3.1721;6.9234;-3.2263;5.0224;3.5853;3.4303;-1.7704;0.0;6.6;14.58;27.9;213.95;48.76;150.99;5.0;982.32;66.791;;;;NaN;;;;;0 / 0;282520;2022-10-30 19:29:03:877
-3.5578;-14.4373;4.5011;-0.0683;-9.2633;-3.2182;-1.8067;-7.0236;7.646;-2.1489;1.3595;-1.2268;0.0;-13.8;28.5;14.58;328.21;85.47;78.11;5.0;981.95;63.406;;;;NaN;;;;;0 / 0;283021;2022-10-30 19:29:04:378
-18.0098;7.8868;9.4622;-2.4545;-7.5548;-5.7507;17.6751;-14.4834;6.0921;2.7295;0.4328;-0.7851;0.0;6.12;13.8;29.04;203.59;50.39;156.89;5.0;982.61;66.25;;;;NaN;;;;;0 / 0;283520;2022-10-30 19:29:04:877
0.2705;-12.6417;1.6017;-0.7174;-9.7582;0.6581;-3.9408;-3.0573;5.7886;-3.3956;0.1756;-0.7692;0.0;-13.2;30.9;11.7;359.85;84.3;47.47;5.0;981.88;57.906;;;;NaN;;;;;0 / 0;284021;2022-10-30 19:29:05:378
-4.2832;-20.2148;-12.4621;-2.0141;-7.7916;-5.6039;-3.1652;4.9019;-0.289;-0.7598;0.5159;0.3713;0.0;5.22;11.64;30.9;198.54;52.61;160.23;5.0;982.26;62.781;;;;NaN;;;;;0 / 0;284520;2022-10-30 19:29:05:877
-0.9385;-13.7574;-3.2274;0.2985;-9.7266;1.2145;7.4977;-2.7855;-2.3462;0.432;0.5024;0.8154;0.0;-23.34;31.5;5.52;152.03;84.79;-80.04;5.0;981.89;62.984;;;;NaN;;;;;0 / 0;285020;2022-10-30 19:29:06:377
-3.3184;-8.1741;-8.0783;-2.033;-6.8331;-6.734;-2.0202;4.829;0.1869;1.79;1.0632;-0.0576;0.0;-1.14;-1.92;37.38;207.93;35.02;163.34;5.0;982.29;66.881;;;;NaN;;;;;0 / 0;285520;2022-10-30 19:29:06:877
5.9068;-12.3472;-2.897;0.7151;-9.7376;0.9158;-1.7201;0.3792;-2.0879;1.8877;1.2184;0.2051;0.0;-22.38;23.58;15.72;197.65;80.88;-141.04;5.0;981.93;71.953;;;;NaN;;;;;0 / 0;286021;2022-10-30 19:29:07:378
0.1006;-1.3503;-2.9305;-1.1149;-6.933;-6.8455;-7.2007;-4.3611;-6.9539;1.3141;0.5348;-0.3948;0.0;-13.86;9.66;26.46;242.23;44.99;170.75;5.0;981.99;60.496;;;;NaN;;;;;0 / 0;286521;2022-10-30 19:29:07:878
2.8156;-6.649;1.1301;1.7823;-9.6325;-0.4577;1.0816;1.6258;-6.1605;1.4662;-0.0974;0.3181;0.0;-34.62;23.94;-4.2;204.33;79.19;-104.4;5.0;982.16;64.726;;;;NaN;;;;;0 / 0;287021;2022-10-30 19:29:08:378
0.1676;-2.2865;1.9872;0.7039;-8.0972;-5.4872;-0.2823;5.5899;9.1051;-1.2876;-2.1707;0.2961;0.0;-27.9;14.7;27.42;235.72;55.66;-172.69;5.0;981.75;66.859;;;;NaN;;;;;0 / 0;287520;2022-10-30 19:29:08:877
1.3312;-6.5844;-1.6783;1.2958;-9.6901;-0.7702;-6.2474;-0.6399;3.4149;2.0667;0.3155;-0.2769;0.0;-32.16;25.14;12.78;258.0;68.03;-172.67;5.0;982.3;65.542;;;;NaN;;;;;0 / 0;288020;2022-10-30 19:29:09:377
1.4269;-7.906;1.1827;0.6253;-8.5983;-4.6742;-2.7619;-4.7108;0.9904;-2.3211;-5.5152;-0.1425;0.0;-35.88;28.38;2.28;192.89;81.38;-104.44;5.0;981.73;62.597;;;;NaN;;;;;0 / 0;288521;2022-10-30 19:29:09:878
8.6984;-17.4471;-2.2075;-0.3589;-8.4832;-4.9067;-11.5827;12.1343;10.7753;2.0301;0.7663;0.1373;0.0;-16.8;16.32;31.14;246.12;52.61;165.45;5.0;982.71;67.69;;;;NaN;;;;;0 / 0;289020;2022-10-30 19:29:10:377
-1.8172;-17.076;6.9243;1.3913;-9.7069;0.1016;-4.3047;-5.8495;4.8449;-4.0841;-1.7724;0.0848;0.0;-36.96;27.42;-0.36;175.28;81.82;-85.82;5.0;981.79;57.862;;;;NaN;;;;;0 / 0;289520;2022-10-30 19:29:10:877
-7.6234;-22.1972;-6.9698;-0.9896;-8.028;-5.5445;-8.8632;7.9027;5.1004;1.7582;2.0027;-1.6128;0.0;-16.62;16.56;30.42;241.46;54.95;169.88;5.0;982.35;66.235;;;;NaN;;;;;0 / 0;290020;2022-10-30 19:29:11:377
6.1869;-14.4972;-1.0223;0.4755;-9.45;2.5771;-0.2035;-2.4785;-4.2568;-1.7072;-0.3919;0.0426;0.0;-31.8;28.5;-15.0;112.76;74.5;-10.45;5.0;981.94;61.525;;;;NaN;;;;;0 / 0;290520;2022-10-30 19:29:11:877
-15.5821;-25.3172;-11.6098;-1.132;-8.0787;-5.4427;-7.0312;-7.956;-5.0177;1.2646;-0.9777;-0.4766;0.0;-19.56;15.84;30.84;254.43;45.93;167.06;5.0;982.18;66.344;;;;NaN;;;;;0 / 0;291021;2022-10-30 19:29:12:378
12.3975;-13.0128;-0.6201;0.5542;-9.584;2.0026;-4.4097;-0.6923;-4.5898;1.6477;2.3778;0.2576;0.0;-33.9;28.74;-4.68;175.77;82.62;-77.9;5.0;981.81;67.017;;;;NaN;;;;;0 / 0;291520;2022-10-30 19:29:12:877
-1.0534;-4.2784;-10.949;-0.8013;-7.9381;-5.7022;2.038;5.975;7.0495;0.8719;-1.7584;0.1226;0.0;-22.14;13.56;32.34;232.46;50.29;-178.29;5.0;981.72;65.88;;;;NaN;;;;;0 / 0;292020;2022-10-30 19:29:13:377
2.8467;-7.566;1.166;0.9627;-9.7231;0.8394;-3.4777;-0.3937;-5.3155;1.4571;3.3772;-0.0936;0.0;-32.58;29.4;-8.34;149.04;82.52;-48.91;5.0;981.79;67.272;;;;NaN;;;;;0 / 0;292520;2022-10-30 19:29:13:877
0.34;-0.0958;2.3487;0.3454;-7.4411;-6.3781;0.506;7.8785;6.1827;1.5279;-0.8635;-0.4895;0.0;-22.2;13.92;32.4;231.62;49.36;-176.9;5.0;981.7;64.408;;;;NaN;;;;;0 / 0;293021;2022-10-30 19:29:14:378
-0.7805;-8.447;-0.8116;1.3161;-9.5756;-1.6567;-1.4499;3.9379;-0.4571;2.4118;4.5659;0.4525;0.0;-35.64;27.18;3.72;233.38;77.54;-141.54;5.0;981.99;68.046;;;;NaN;;;;;0 / 0;293521;2022-10-30 19:29:14:878
-1.0965;-0.4262;1.6496;-0.4775;-7.5572;-6.2315;1.1046;7.5851;8.0165;-2.4647;-2.7529;0.3761;0.0;-31.56;16.98;24.96;230.47;64.03;-166.81;5.0;981.8;62.276;;;;NaN;;;;;0 / 0;294020;2022-10-30 19:29:15:377
2.1069;-8.2866;-4.3215;1.2311;-9.6727;-1.0459;-5.3266;0.8546;2.8613;2.4473;2.657;0.2998;0.0;-30.66;23.52;15.24;261.61;65.66;-178.49;5.0;982.09;63.721;;;;NaN;;;;;0 / 0;294520;2022-10-30 19:29:15:877
-0.9385;-1.968;2.0614;1.174;-8.05;-5.4762;0.1029;-6.4569;-2.7173;-2.6253;-2.5433;-0.4229;0.0;-31.98;17.4;21.36;172.56;79.86;-116.53;5.0;981.81;61.109;;;;NaN;;;;;0 / 0;295021;2022-10-30 19:29:16:378
0.8978;-8.6817;1.6257;-0.0814;-8.7689;-4.3897;-4.1821;0.647;3.7649;3.421;0.9294;-0.8383;0.0;-20.28;18.3;20.88;270.74;51.94;161.74;5.0;982.43;66.299;;;;NaN;;;;;0 / 0;295521;2022-10-30 19:29:16:878
-3.9552;-15.9963;-0.3807;1.1076;-9.7399;-0.2784;-1.6433;-4.2624;4.7795;-1.9687;0.5434;-1.0594;0.0;-32.22;26.1;-6.72;100.56;76.04;-9.71;5.0;981.83;61.425;;;;NaN;;;;;0 / 0;296021;2022-10-30 19:29:17:378
-5.0928;-12.1628;-8.3369;-2.0003;-7.6506;-5.7997;-4.2636;-4.3332;-2.4907;-2.3224;-2.3253;0.1153;0.0;-19.92;16.02;29.4;234.69;57.99;177.05;5.0;982.69;67.696;;;;NaN;;;;;0 / 0;296520;2022-10-30 19:29:17:877
3.9648;-14.0136;-2.5714;1.0615;-9.7482;0.1272;3.3415;-4.4394;-4.6004;-1.9852;1.0076;-1.1889;0.0;-35.82;26.34;-7.02;104.29;76.08;-13.49;5.0;981.86;65.337;;;;NaN;;;;;0 / 0;297021;2022-10-30 19:29:18:378
-6.3234;2.964;-14.3272;-1.8026;-7.8099;-5.6503;-5.3785;11.3008;-9.2503;-1.4207;-4.0198;1.4116;0.0;-20.64;17.52;28.98;237.59;59.71;175.92;5.0;982.34;65.405;;;;NaN;;;;;0 / 0;297520;2022-10-30 19:29:18:877
10.0775;-13.7502;-1.9513;0.4568;-9.4598;2.5443;2.0224;-3.039;-5.3508;0.093;1.1047;-0.4314;0.0;-37.26;26.1;-17.16;152.42;79.57;-41.21;5.0;981.85;67.507;;;;NaN;;;;;0 / 0;298021;2022-10-30 19:29:19:378
-6.0361;-1.8579;-10.9394;-0.7868;-8.2385;-5.2609;-4.8539;6.3983;-5.7812;1.0948;-0.9862;-0.6526;0.0;-19.56;18.9;29.7;253.73;46.99;172.61;5.0;982.03;68.344;;;;NaN;;;;;0 / 0;298521;2022-10-30 19:29:19:878
4.5681;-10.9274;-4.2593;1.0492;-9.6425;1.4464;4.0838;-1.3935;-6.5043;1.9054;1.8879;0.2729;0.0;-34.74;30.24;-6.54;245.83;80.65;-137.0;5.0;981.96;64.174;;;;NaN;;;;;0 / 0;299021;2022-10-30 19:29:20:378
-1.2091;-0.0982;-3.3279;-1.1997;-7.147;-6.6069;0.1667;7.3221;2.9344;-0.3004;-1.8885;-0.0661;0.0;-21.0;14.7;33.48;218.69;63.2;-176.62;5.0;982.13;65.971;;;;NaN;;;;;0 / 0;299521;2022-10-30 19:29:20:878
2.4517;-5.9906;1.8675;1.2219;-9.5981;1.5979;1.0168;3.7037;1.503;1.4705;0.9643;0.1972;0.0;-35.7;30.6;-6.06;230.51;80.09;-124.09;5.0;982.04;66.67;;;;NaN;;;;;0 / 0;300021;2022-10-30 19:29:21:378
-0.1125;-0.7015;3.486;-1.0265;-7.1871;-6.5925;-0.0122;6.9021;9.6783;0.702;-1.2569;-0.4003;0.0;-21.06;12.9;33.54;214.03;59.87;-173.12;5.0;981.91;57.991;;;;NaN;;;;;0 / 0;300521;2022-10-30 19:29:21:878
-2.2098;-8.1597;0.4046;1.7171;-9.5752;-1.2399;-3.5127;1.1819;3.0891;1.9671;3.5696;-0.2616;0.0;-34.02;26.22;10.98;265.17;64.21;-172.07;5.0;982.32;64.0;;;;NaN;;;;;0 / 0;301021;2022-10-30 19:29:22:378
-0.9194;-1.8507;3.3543;0.5596;-8.3213;-5.1588;1.8635;3.3084;7.8187;-2.3633;-2.5904;0.2063;0.0;-30.36;21.18;21.06;153.18;78.46;-101.62;5.0;981.75;59.794;;;;NaN;;;;;0 / 0;301521;2022-10-30 19:29:22:878
