time,seconds_elapsed,z,y,x
1667267058178776300,0.0897763671875,0.04703523963689804,0.09712471067905426,0.047646086663007736
1667267058181174000,0.092174072265625,0.04337015375494957,0.1056765764951706,0.04825693368911743
1667267058183572000,0.094572021484375,0.04031591862440109,0.11117420345544815,0.04886778071522713
1667267058185969700,0.0969697265625,0.038483377546072006,0.11667182296514511,0.046424392610788345
1667267058188367400,0.099367431640625,0.03542914241552353,0.12033691257238388,0.045202698558568954
1667267058190765000,0.10176513671875,0.033596597611904144,0.12155860662460327,0.045202698558568954
1667267058193162800,0.104162841796875,0.033596597611904144,0.12216944992542267,0.042759306728839874
1667267058195560700,0.106560791015625,0.031153209507465363,0.12339114397764206,0.04092676565051079
1667267058197958400,0.10895849609375,0.03176405653357506,0.12216944992542267,0.04153761267662048
1667267058200356000,0.111356201171875,0.030542362481355667,0.12033691257238388,0.04337015375494957
1667267058202753800,0.11375390625,0.031153209507465363,0.11300674080848694,0.042759306728839874
1667267058205151700,0.11615185546875,0.03237490355968475,0.10811996459960938,0.042759306728839874
1667267058207549400,0.118549560546875,0.033596597611904144,0.10140064358711243,0.04214845970273018
1667267058209947100,0.120947021484375,0.03237490355968475,0.09345962852239609,0.042759306728839874
1667267058212344800,0.1233447265625,0.033596597611904144,0.08490777015686035,0.043981000781059265
1667267058214742500,0.125742431640625,0.03542914241552353,0.07452336698770523,0.046424392610788345
1667267058217140200,0.12814013671875,0.03420744836330414,0.06169557198882103,0.047646086663007736
1667267058219538200,0.1305380859375,0.036039989441633224,0.053143709897994995,0.04825693368911743
1667267058221935900,0.132935791015625,0.03420744836330414,0.045202698558568954,0.04825693368911743
1667267058224333600,0.13533349609375,0.03542914241552353,0.03542914241552353,0.045202698558568954
1667267058226731300,0.137731201171875,0.03542914241552353,0.02748812735080719,0.043981000781059265
1667267058229129000,0.14012890625,0.03542914241552353,0.02076880633831024,0.04337015375494957
1667267058231527000,0.14252685546875,0.03787253051996231,0.011606098152697086,0.04092676565051079
1667267058233924600,0.144924560546875,0.04031591862440109,0.0018325417768210173,0.03787253051996231
1667267058236322300,0.147322265625,0.04337015375494957,-0.008551862090826035,0.03542914241552353
1667267058238720000,0.149719970703125,0.04703523963689804,-0.01832541823387146,0.03298575058579445
1667267058241118000,0.152117919921875,0.04886778071522713,-0.02748812735080719,0.031153209507465363
1667267058243515600,0.154515625,0.051922015845775604,-0.03665083646774292,0.026877280324697495
1667267058245913300,0.156913330078125,0.0525328628718853,-0.045202698558568954,0.02626643143594265
1667267058248311000,0.15931103515625,0.053143709897994995,-0.05619794875383377,0.024433890357613564
1667267058250708700,0.161708740234375,0.05375456064939499,-0.06169557198882103,0.021990500390529633
1667267058253106700,0.164106689453125,0.053143709897994995,-0.06352811306715012,0.023212196305394173
1667267058255504400,0.16650439453125,0.0525328628718853,-0.0659715011715889,0.022601349279284477
1667267058257902000,0.168902099609375,0.05070032179355621,-0.0659715011715889,0.02504473738372326
1667267058260299800,0.1712998046875,0.04947862774133682,-0.06291726976633072,0.023212196305394173
1667267058262697500,0.173697509765625,0.04825693368911743,-0.055587101727724075,0.021379653364419937
1667267058265095400,0.176095458984375,0.047646086663007736,-0.04947862774133682,0.021379653364419937
1667267058267493000,0.1784931640625,0.04703523963689804,-0.04153761267662048,0.022601349279284477
1667267058269890800,0.180890869140625,0.046424392610788345,-0.03237490355968475,0.022601349279284477
1667267058272288500,0.18328857421875,0.04703523963689804,-0.021990500390529633,0.02076880633831024
1667267058274686200,0.185686279296875,0.04947862774133682,-0.012827792204916477,0.018936265259981155
1667267058277084200,0.188084228515625,0.051922015845775604,-0.0024433890357613564,0.01954711228609085
1667267058279481900,0.19048193359375,0.05619794875383377,0.0036650835536420345,0.01710372418165207
1667267058281879600,0.192879638671875,0.05925218388438225,0.008551862090826035,0.01588202826678753
1667267058284277200,0.19527734375,0.06413896381855011,0.00916270911693573,0.011606098152697086
1667267058286675000,0.197675048828125,0.06780404597520828,0.01038440316915512,0.011606098152697086
1667267058289073000,0.200072998046875,0.07207997888326645,0.005497625097632408,0.007941014133393764
1667267058291470600,0.202470703125,0.07513421028852463,0.004886778071522713,0.004275931045413017
1667267058293868300,0.204868408203125,0.07452336698770523,0.0012216945178806782,0.0012216945178806782
1667267058296266000,0.207265869140625,0.07635590434074402,-0.0036650835536420345,-0.0018325417768210173
1667267058298663700,0.20966357421875,0.07757759839296341,-0.004886778071522713,-0.0036650835536420345
1667267058301061600,0.2120615234375,0.07757759839296341,-0.006719320081174374,-0.007330167107284069
1667267058303459300,0.214459228515625,0.07696675509214401,-0.00916270911693573,-0.009773556143045425
1667267058305857000,0.21685693359375,0.07513421028852463,-0.009773556143045425,-0.011606098152697086
1667267058308254700,0.219254638671875,0.07452336698770523,-0.005497625097632408,-0.012827792204916477
1667267058310652400,0.22165234375,0.07391251623630524,-0.0012216945178806782,-0.014660334214568138
1667267058313050400,0.22405029296875,0.07085828483104706,0.007330167107284069,-0.016492875292897224
1667267058315448000,0.226447998046875,0.06902574002742767,0.01710372418165207,-0.01710372418165207
1667267058317845800,0.228845703125,0.0647498071193695,0.024433890357613564,-0.017714571207761765
1667267058320243500,0.231243408203125,0.06291726976633072,0.03298575058579445,-0.017714571207761765
1667267058322641200,0.23364111328125,0.05986303091049194,0.0397050715982914,-0.020157959312200546
1667267058325039000,0.2360390625,0.05741964280605316,0.04214845970273018,-0.02076880633831024
1667267058327436800,0.238436767578125,0.054365407675504684,0.04581354558467865,-0.021990500390529633
1667267058329834500,0.24083447265625,0.053143709897994995,0.04703523963689804,-0.022601349279284477
1667267058332232200,0.243232177734375,0.0525328628718853,0.04886778071522713,-0.023212196305394173
1667267058334630000,0.2456298828125,0.04886778071522713,0.04947862774133682,-0.024433890357613564
1667267058337027800,0.24802783203125,0.04886778071522713,0.04886778071522713,-0.02504473738372326
1667267058339425500,0.250425537109375,0.04886778071522713,0.053143709897994995,-0.02748812735080719
1667267058341823200,0.2528232421875,0.047646086663007736,0.053143709897994995,-0.02870982140302658
1667267058344221000,0.255220947265625,0.047646086663007736,0.053143709897994995,-0.029320668429136276
1667267058346619000,0.257618896484375,0.04703523963689804,0.05619794875383377,-0.031153209507465363
1667267058349016600,0.2600166015625,0.04459185153245926,0.05864133685827255,-0.03237490355968475
1667267058351414300,0.262414306640625,0.042759306728839874,0.06047387793660164,-0.03542914241552353
1667267058353812000,0.26481201171875,0.04214845970273018,0.06352811306715012,-0.03665083646774292
1667267058356209700,0.267209716796875,0.04092676565051079,0.06413896381855011,-0.0397050715982914
1667267058358607600,0.269607666015625,0.04031591862440109,0.06291726976633072,-0.04031591862440109
1667267058361005300,0.27200537109375,0.0390942245721817,0.05864133685827255,-0.04214845970273018
1667267058363403000,0.274403076171875,0.03787253051996231,0.053143709897994995,-0.04214845970273018
1667267058365800700,0.27680078125,0.0397050715982914,0.04947862774133682,-0.04459185153245926
1667267058368198400,0.279198486328125,0.03542914241552353,0.04214845970273018,-0.043981000781059265
1667267058370596000,0.28159619140625,0.036039989441633224,0.037261683493852615,-0.04337015375494957
1667267058372994000,0.283994140625,0.036039989441633224,0.03176405653357506,-0.0397050715982914
1667267058375391700,0.286391845703125,0.03420744836330414,0.02748812735080719,-0.03787253051996231
1667267058377789400,0.28878955078125,0.033596597611904144,0.026877280324697495,-0.034818295389413834
1667267058380187100,0.291187255859375,0.030542362481355667,0.02076880633831024,-0.02870982140302658
1667267058382585000,0.293585205078125,0.029320668429136276,0.020157959312200546,-0.023212196305394173
1667267058384982800,0.295982666015625,0.02993151545524597,0.022601349279284477,-0.018936265259981155
1667267058387380500,0.29838037109375,0.02748812735080719,0.021379653364419937,-0.011606098152697086
1667267058389778200,0.300778076171875,0.025655584409832954,0.023823043331503868,-0.005497625097632408
1667267058392175900,0.30317578125,0.024433890357613564,0.024433890357613564,-0.0006108472589403391
1667267058394573800,0.30557373046875,0.021990500390529633,0.028098974376916885,0.005497625097632408
1667267058396971500,0.307971435546875,0.020157959312200546,0.03176405653357506,0.010995250195264816
1667267058399369200,0.310369140625,0.01832541823387146,0.03787253051996231,0.014660334214568138
1667267058401767000,0.312766845703125,0.01710372418165207,0.04337015375494957,0.018936265259981155
1667267058404164600,0.31516455078125,0.01588202826678753,0.04703523963689804,0.01954711228609085
1667267058406562600,0.3175625,0.011606098152697086,0.04703523963689804,0.018936265259981155
1667267058408960300,0.319960205078125,0.014660334214568138,0.045202698558568954,0.015271181240677834
1667267058411358000,0.32235791015625,0.016492875292897224,0.037261683493852615,0.014660334214568138
1667267058413755600,0.324755615234375,0.016492875292897224,0.03176405653357506,0.009773556143045425
1667267058416153300,0.3271533203125,0.01832541823387146,0.024433890357613564,0.004275931045413017
1667267058418551300,0.32955126953125,0.020157959312200546,0.01588202826678753,-0.0036650835536420345
1667267058420949000,0.331948974609375,0.022601349279284477,0.007330167107284069,-0.01038440316915512
1667267058423346700,0.3343466796875,0.026877280324697495,0.0030542362947016954,-0.016492875292897224
1667267058425744400,0.336744384765625,0.026877280324697495,0,-0.02870982140302658
1667267058428142000,0.33914208984375,0.02870982140302658,-0.0018325417768210173,-0.0390942245721817
1667267058430540000,0.3415400390625,0.030542362481355667,-0.0024433890357613564,-0.047646086663007736
1667267058432937700,0.343937744140625,0.03298575058579445,-0.0024433890357613564,-0.054365407675504684
1667267058435335400,0.34633544921875,0.03298575058579445,0.0006108472589403391,-0.06291726976633072
1667267058437733000,0.348733154296875,0.03665083646774292,0.0036650835536420345,-0.07146912813186646
1667267058440130800,0.351130859375,0.038483377546072006,0.00916270911693573,-0.0794101431965828
1667267058442528800,0.35352880859375,0.0397050715982914,0.013438640162348747,-0.08551861345767975
1667267058444926500,0.355926513671875,0.042759306728839874,0.01954711228609085,-0.0916270911693573
1667267058447324200,0.35832421875,0.04581354558467865,0.024433890357613564,-0.09590301662683487
1667267058449721900,0.360721923828125,0.04581354558467865,0.02870982140302658,-0.10078980028629303
1667267058452119600,0.36311962890625,0.04825693368911743,0.03176405653357506,-0.10262233763933182
1667267058454517500,0.365517578125,0.05008947476744652,0.02993151545524597,-0.1044548824429512
1667267058456915200,0.367915283203125,0.0525328628718853,0.03176405653357506,-0.10628741979598999
1667267058459313000,0.37031298828125,0.055587101727724075,0.03298575058579445,-0.10384403169155121
1667267058461710600,0.372710693359375,0.05619794875383377,0.03237490355968475,-0.10201149433851242
1667267058464108300,0.3751083984375,0.056808795779943466,0.030542362481355667,-0.10201149433851242
1667267058466506200,0.37750634765625,0.05741964280605316,0.030542362481355667,-0.09590301662683487
1667267058468904000,0.379904052734375,0.06047387793660164,0.028098974376916885,-0.0922379344701767
1667267058471301600,0.382301513671875,0.06169557198882103,0.026877280324697495,-0.08796200156211853
1667267058473699300,0.38469921875,0.06291726976633072,0.024433890357613564,-0.08002099394798279
1667267058476097000,0.387096923828125,0.06719319522380829,0.021379653364419937,-0.07269082218408585
1667267058478495000,0.389494873046875,0.06841489672660828,0.01710372418165207,-0.06841489672660828
1667267058480892700,0.391892578125,0.06841489672660828,0.01954711228609085,-0.05925218388438225
1667267058483290400,0.394290283203125,0.07207997888326645,0.01832541823387146,-0.04947862774133682
1667267058485688000,0.39668798828125,0.07024743407964706,0.020157959312200546,-0.03665083646774292
1667267058488086000,0.3990859375,0.07085828483104706,0.021379653364419937,-0.02748812735080719
1667267058490483700,0.401483642578125,0.07146912813186646,0.01832541823387146,-0.01710372418165207
1667267058492881400,0.40388134765625,0.07085828483104706,0.01832541823387146,-0.006719320081174374
1667267058495279000,0.406279052734375,0.07085828483104706,0.015271181240677834,0.004275931045413017
1667267058497676800,0.4086767578125,0.07146912813186646,0.012827792204916477,0.012827792204916477
1667267058500074800,0.41107470703125,0.07085828483104706,0.01038440316915512,0.01954711228609085
1667267058502472400,0.413472412109375,0.07269082218408585,0.01038440316915512,0.02748812735080719
1667267058504870100,0.4158701171875,0.07513421028852463,0.008551862090826035,0.034818295389413834
1667267058507267800,0.418267822265625,0.0781884491443634,0.004886778071522713,0.0390942245721817
1667267058509665500,0.42066552734375,0.08002099394798279,-0.0006108472589403391,0.045202698558568954
1667267058512063200,0.423063232421875,0.08063183724880219,0.0006108472589403391,0.047646086663007736
1667267058514461200,0.425461181640625,0.08246438205242157,-0.0018325417768210173,0.05131116881966591
1667267058516859000,0.42785888671875,0.08429691940546036,-0.005497625097632408,0.0525328628718853
1667267058519256600,0.430256591796875,0.08612946420907974,-0.006719320081174374,0.05131116881966591
1667267058521654300,0.432654296875,0.08551861345767975,-0.008551862090826035,0.05131116881966591
1667267058524052200,0.43505224609375,0.08551861345767975,-0.013438640162348747,0.04947862774133682
1667267058526450000,0.437449951171875,0.08674030750989914,-0.018936265259981155,0.05008947476744652
1667267058528847600,0.43984765625,0.08735115826129913,-0.023823043331503868,0.04886778071522713
1667267058531245300,0.442245361328125,0.08674030750989914,-0.031153209507465363,0.04337015375494957
1667267058533643000,0.44464306640625,0.08735115826129913,-0.04092676565051079,0.0390942245721817
1667267058536041000,0.447041015625,0.08735115826129913,-0.04947862774133682,0.03420744836330414
1667267058538438700,0.449438720703125,0.08918370306491852,-0.06169557198882103,0.03237490355968475
1667267058540836400,0.45183642578125,0.0916270911693573,-0.06963659077882767,0.028098974376916885
1667267058543234000,0.454234130859375,0.0916270911693573,-0.07757759839296341,0.026877280324697495
1667267058545631700,0.4566318359375,0.08857285231351852,-0.08429691940546036,0.023212196305394173
1667267058548029700,0.45902978515625,0.0910162404179573,-0.08857285231351852,0.023823043331503868
1667267058550427400,0.461427490234375,0.08612946420907974,-0.08857285231351852,0.022601349279284477
1667267058552825000,0.4638251953125,0.08612946420907974,-0.08796200156211853,0.02076880633831024
1667267058555222800,0.466222900390625,0.08307522535324097,-0.08612946420907974,0.021379653364419937
1667267058557620500,0.468620361328125,0.07696675509214401,-0.08368607610464096,0.01954711228609085
1667267058560018400,0.471018310546875,0.07391251623630524,-0.0781884491443634,0.021990500390529633
1667267058562416000,0.473416015625,0.06963659077882767,-0.07269082218408585,0.021990500390529633
1667267058564813800,0.475813720703125,0.06658235192298889,-0.06780404597520828,0.021990500390529633
1667267058567211500,0.47821142578125,0.062306419014930725,-0.0653606578707695,0.022601349279284477
1667267058569609200,0.480609130859375,0.06047387793660164,-0.05986303091049194,0.021990500390529633
1667267058572007200,0.483007080078125,0.05803048983216286,-0.05864133685827255,0.01954711228609085
1667267058574404900,0.48540478515625,0.05741964280605316,-0.05375456064939499,0.01954711228609085
1667267058576802600,0.487802490234375,0.05864133685827255,-0.05008947476744652,0.01710372418165207
1667267058579200300,0.4902001953125,0.056808795779943466,-0.04581354558467865,0.01710372418165207
1667267058581598000,0.492597900390625,0.05741964280605316,-0.04153761267662048,0.014660334214568138
1667267058583996000,0.494995849609375,0.056808795779943466,-0.03665083646774292,0.012216945178806782
1667267058586393600,0.4973935546875,0.055587101727724075,-0.03420744836330414,0.012827792204916477
1667267058588791300,0.499791259765625,0.054365407675504684,-0.03176405653357506,0.014660334214568138
1667267058591189000,0.50218896484375,0.05131116881966591,-0.02748812735080719,0.014660334214568138
1667267058593586700,0.504586669921875,0.05008947476744652,-0.02748812735080719,0.012827792204916477
1667267058595984600,0.506984619140625,0.045202698558568954,-0.02626643143594265,0.012827792204916477
1667267058598382300,0.50938232421875,0.04031591862440109,-0.023823043331503868,0.010995250195264816
1667267058600780000,0.511780029296875,0.033596597611904144,-0.020157959312200546,0.011606098152697086
1667267058603177700,0.514177734375,0.02748812735080719,-0.013438640162348747,0.01038440316915512
1667267058605575400,0.516575439453125,0.021990500390529633,-0.004886778071522713,0.007330167107284069
1667267058607973400,0.518973388671875,0.011606098152697086,0.00916270911693573,0.005497625097632408
1667267058610371000,0.52137109375,0.005497625097632408,0.025655584409832954,0.0024433890357613564
1667267058612768800,0.523768798828125,-0.0006108472589403391,0.04337015375494957,0
1667267058615166500,0.52616650390625,-0.00916270911693573,0.06291726976633072,-0.005497625097632408
1667267058617564200,0.528564208984375,-0.01588202826678753,0.07696675509214401,-0.012827792204916477
1667267058619962000,0.530962158203125,-0.021379653364419937,0.0910162404179573,-0.018936265259981155
1667267058622359800,0.53335986328125,-0.02504473738372326,0.09956810623407364,-0.02626643143594265
1667267058624757500,0.535757568359375,-0.02993151545524597,0.10323318839073181,-0.034818295389413834
1667267058627155200,0.5381552734375,-0.03420744836330414,0.10384403169155121,-0.042759306728839874
1667267058629553200,0.54055322265625,-0.03420744836330414,0.09895725548267365,-0.05131116881966591
1667267058631950800,0.542950927734375,-0.03665083646774292,0.09529217332601547,-0.05619794875383377
1667267058634348500,0.5453486328125,-0.037261683493852615,0.08979454636573792,-0.062306419014930725
1667267058636746200,0.547746337890625,-0.03787253051996231,0.08674030750989914,-0.0647498071193695
1667267058639144000,0.55014404296875,-0.038483377546072006,0.08735115826129913,-0.06841489672660828
1667267058641541600,0.552541748046875,-0.0390942245721817,0.08857285231351852,-0.06780404597520828
1667267058643939600,0.554939697265625,-0.04031591862440109,0.0910162404179573,-0.06841489672660828
1667267058646337300,0.557337158203125,-0.04092676565051079,0.09651386737823486,-0.06719319522380829
1667267058648735000,0.55973486328125,-0.04092676565051079,0.10262233763933182,-0.06291726976633072
1667267058651132700,0.562132568359375,-0.04092676565051079,0.10750912129878998,-0.06047387793660164
1667267058653530400,0.5645302734375,-0.04153761267662048,0.11483928561210632,-0.05925218388438225
1667267058655928300,0.56692822265625,-0.04214845970273018,0.12033691257238388,-0.051922015845775604
1667267058658326000,0.569325927734375,-0.043981000781059265,0.12888877093791962,-0.046424392610788345
1667267058660723700,0.5717236328125,-0.04214845970273018,0.13866232335567474,-0.04153761267662048
1667267058663121400,0.574121337890625,-0.04092676565051079,0.1441599577665329,-0.034818295389413834
1667267058665519400,0.576519287109375,-0.04092676565051079,0.15332266688346863,-0.02993151545524597
1667267058667917000,0.5789169921875,-0.03665083646774292,0.1575985997915268,-0.025655584409832954
1667267058670314800,0.581314697265625,-0.03298575058579445,0.16126367449760437,-0.01954711228609085
1667267058672712400,0.58371240234375,-0.02993151545524597,0.1582094430923462,-0.013438640162348747
1667267058675110100,0.586110107421875,-0.02504473738372326,0.15210096538066864,-0.010995250195264816
1667267058677508000,0.588508056640625,-0.020157959312200546,0.1435490995645523,-0.007330167107284069
1667267058679905800,0.59090576171875,-0.016492875292897224,0.13499724864959717,-0.0018325417768210173
1667267058682303500,0.593303466796875,-0.013438640162348747,0.12705622613430023,0.0018325417768210173
1667267058684701200,0.595701171875,-0.01038440316915512,0.11972606182098389,0.004275931045413017
1667267058687099000,0.598098876953125,-0.008551862090826035,0.11239589750766754,0.008551862090826035
1667267058689496800,0.600496826171875,-0.005497625097632408,0.10811996459960938,0.011606098152697086
1667267058691894500,0.60289453125,-0.007330167107284069,0.1056765764951706,0.01588202826678753
1667267058694292200,0.605292236328125,-0.009773556143045425,0.10750912129878998,0.017714571207761765
1667267058696690000,0.60768994140625,-0.01038440316915512,0.10995250940322876,0.02076880633831024
1667267058699087600,0.610087646484375,-0.01588202826678753,0.11483928561210632,0.021379653364419937
1667267058701485600,0.612485595703125,-0.017714571207761765,0.12339114397764206,0.022601349279284477
1667267058703883300,0.61488330078125,-0.021990500390529633,0.1325538605451584,0.02626643143594265
1667267058706281000,0.617281005859375,-0.023823043331503868,0.1441599577665329,0.02626643143594265
1667267058708678700,0.6196787109375,-0.025655584409832954,0.15393351018428802,0.026877280324697495
1667267058711076400,0.622076416015625,-0.026877280324697495,0.16004198789596558,0.02504473738372326
1667267058713474300,0.624474365234375,-0.026877280324697495,0.16492876410484314,0.023823043331503868
1667267058715872000,0.6268720703125,-0.02626643143594265,0.16615045070648193,0.02076880633831024
1667267058718269700,0.629269775390625,-0.024433890357613564,0.16676130890846252,0.017714571207761765
1667267058720667400,0.63166748046875,-0.021990500390529633,0.16431790590286255,0.013438640162348747
1667267058723065000,0.634065185546875,-0.02076880633831024,0.16309621930122375,0.01038440316915512
1667267058725463000,0.636463134765625,-0.01954711228609085,0.1563768982887268,0.004886778071522713
1667267058727860700,0.63886083984375,-0.01832541823387146,0.15087927877902985,-0.004275931045413017
1667267058730258400,0.641258544921875,-0.014660334214568138,0.1435490995645523,-0.010995250195264816
1667267058732656000,0.64365625,-0.012216945178806782,0.1325538605451584,-0.017714571207761765
1667267058735053800,0.6460537109375,-0.011606098152697086,0.11972606182098389,-0.025655584409832954
1667267058737451800,0.64845166015625,-0.01038440316915512,0.10934165865182877,-0.030542362481355667
1667267058739849500,0.650849365234375,-0.008551862090826035,0.09284878522157669,-0.038483377546072006
1667267058742247200,0.6532470703125,-0.007330167107284069,0.0787992998957634,-0.04459185153245926
1667267058744644900,0.655644775390625,-0.007330167107284069,0.0659715011715889,-0.04886778071522713
1667267058747042600,0.65804248046875,-0.006108472589403391,0.054365407675504684,-0.05619794875383377
1667267058749440500,0.6604404296875,-0.007330167107284069,0.04581354558467865,-0.05925218388438225
1667267058751838200,0.662838134765625,-0.008551862090826035,0.042759306728839874,-0.06413896381855011
1667267058754236000,0.66523583984375,-0.007330167107284069,0.04214845970273018,-0.06719319522380829
1667267058756633600,0.667633544921875,-0.007330167107284069,0.04092676565051079,-0.0659715011715889
1667267058759031300,0.67003125,-0.007330167107284069,0.0397050715982914,-0.06658235192298889
1667267058761429200,0.67242919921875,-0.00916270911693573,0.043981000781059265,-0.0647498071193695
1667267058763827000,0.674826904296875,-0.01038440316915512,0.051922015845775604,-0.0659715011715889
1667267058766224600,0.677224609375,-0.010995250195264816,0.056808795779943466,-0.0659715011715889
1667267058768622300,0.679622314453125,-0.012216945178806782,0.0653606578707695,-0.0647498071193695
1667267058771020300,0.682020263671875,-0.012216945178806782,0.07391251623630524,-0.0647498071193695
1667267058773418000,0.68441796875,-0.012827792204916477,0.08063183724880219,-0.0653606578707695
1667267058775815700,0.686815673828125,-0.015271181240677834,0.08857285231351852,-0.06719319522380829
1667267058778213400,0.68921337890625,-0.013438640162348747,0.09407047927379608,-0.06719319522380829
1667267058780611000,0.691611083984375,-0.014049487188458443,0.09895725548267365,-0.06841489672660828
1667267058783009000,0.694009033203125,-0.014049487188458443,0.10262233763933182,-0.07085828483104706
1667267058785406700,0.69640673828125,-0.013438640162348747,0.10811996459960938,-0.07269082218408585
1667267058787804400,0.698804443359375,-0.012216945178806782,0.10995250940322876,-0.07452336698770523
1667267058790202000,0.7012021484375,-0.01038440316915512,0.11178504675626755,-0.07574506103992462
1667267058792599800,0.703599853515625,-0.008551862090826035,0.10934165865182877,-0.07757759839296341
1667267058794997500,0.70599755859375,-0.007330167107284069,0.1050657257437706,-0.0781884491443634
1667267058797395500,0.7083955078125,-0.007330167107284069,0.10201149433851242,-0.07757759839296341
1667267058799793200,0.710793212890625,-0.004886778071522713,0.09590301662683487,-0.07574506103992462
1667267058802190800,0.71319091796875,-0.0036650835536420345,0.09345962852239609,-0.07696675509214401
1667267058804588500,0.715588623046875,-0.0036650835536420345,0.09529217332601547,-0.07635590434074402
1667267058806986500,0.717986572265625,0.0018325417768210173,0.09529217332601547,-0.07391251623630524
1667267058809384200,0.72038427734375,0.004886778071522713,0.09773556143045425,-0.07207997888326645
1667267058811782000,0.722781982421875,0.007941014133393764,0.1044548824429512,-0.0647498071193695
1667267058814179600,0.7251796875,0.009773556143045425,0.10873081535100937,-0.06169557198882103
1667267058816577300,0.727577392578125,0.008551862090826035,0.11117420345544815,-0.0525328628718853
1667267058818975200,0.729975341796875,0.009773556143045425,0.11239589750766754,-0.04459185153245926
1667267058821373000,0.732373046875,0.009773556143045425,0.11056335270404816,-0.038483377546072006
1667267058823770600,0.7347705078125,0.00916270911693573,0.10934165865182877,-0.03176405653357506
1667267058826168300,0.737168212890625,0.008551862090826035,0.10750912129878998,-0.02626643143594265
1667267058828566000,0.73956591796875,0.004886778071522713,0.10689827054738998,-0.017714571207761765
1667267058830964000,0.7419638671875,0.0030542362947016954,0.10262233763933182,-0.014049487188458443
1667267058833361700,0.744361572265625,0.0030542362947016954,0.09895725548267365,-0.012827792204916477
1667267058835759400,0.74675927734375,-0.0018325417768210173,0.09590301662683487,-0.00916270911693573
1667267058838157000,0.749156982421875,-0.004886778071522713,0.09529217332601547,-0.007941014133393764
1667267058840554800,0.7515546875,-0.010995250195264816,0.0916270911693573,-0.007941014133393764
1667267058842952700,0.75395263671875,-0.015271181240677834,0.0910162404179573,-0.01038440316915512
1667267058845350400,0.756350341796875,-0.01832541823387146,0.0922379344701767,-0.010995250195264816
1667267058847748000,0.758748046875,-0.023823043331503868,0.09345962852239609,-0.014049487188458443
1667267058850145800,0.761145751953125,-0.028098974376916885,0.09529217332601547,-0.016492875292897224
1667267058852543500,0.76354345703125,-0.03298575058579445,0.10017894953489304,-0.018936265259981155
1667267058854941400,0.76594140625,-0.037261683493852615,0.1056765764951706,-0.021379653364419937
1667267058857339100,0.768339111328125,-0.04153761267662048,0.11483928561210632,-0.02504473738372326
1667267058859736800,0.77073681640625,-0.043981000781059265,0.12644538283348083,-0.029320668429136276
1667267058862134500,0.773134521484375,-0.047646086663007736,0.13988402485847473,-0.03237490355968475
1667267058864532500,0.775532470703125,-0.04886778071522713,0.15332266688346863,-0.0397050715982914
1667267058866930200,0.77793017578125,-0.05070032179355621,0.16553960740566254,-0.04703523963689804
1667267058869328000,0.780327880859375,-0.04886778071522713,0.17775654792785645,-0.05497625470161438
1667267058871725600,0.7827255859375,-0.04581354558467865,0.1850867122411728,-0.05925218388438225
1667267058874123300,0.785123291015625,-0.04337015375494957,0.18997350335121155,-0.06780404597520828
1667267058876521200,0.787521240234375,-0.0397050715982914,0.1960819661617279,-0.07452336698770523
1667267058878919000,0.7899189453125,-0.03542914241552353,0.1973036676645279,-0.08185353130102158
1667267058881316600,0.792316650390625,-0.03237490355968475,0.19913621246814728,-0.0916270911693573
1667267058883714300,0.79471435546875,-0.02870982140302658,0.19913621246814728,-0.09468132257461548
1667267058886112000,0.797112060546875,-0.025655584409832954,0.1973036676645279,-0.10078980028629303
1667267058888510000,0.799510009765625,-0.023823043331503868,0.19241689145565033,-0.10628741979598999
1667267058890907600,0.80190771484375,-0.021990500390529633,0.18936264514923096,-0.11178504675626755
1667267058893305300,0.804305419921875,-0.018936265259981155,0.18142163753509521,-0.11667182296514511
1667267058895703000,0.806703125,-0.01954711228609085,0.17409147322177887,-0.11972606182098389
1667267058898100700,0.809100830078125,-0.016492875292897224,0.16492876410484314,-0.12216944992542267
1667267058900498400,0.81149853515625,-0.01588202826678753,0.15454435348510742,-0.12644538283348083
1667267058902896400,0.813896484375,-0.015271181240677834,0.1447708010673523,-0.1301104724407196
1667267058905294000,0.816294189453125,-0.013438640162348747,0.13621893525123596,-0.130721315741539
1667267058907691800,0.81869189453125,-0.011606098152697086,0.12888877093791962,-0.13377554714679718
1667267058910089500,0.82108935546875,-0.009773556143045425,0.12766708433628082,-0.13682979345321655
1667267058912487400,0.8234873046875,-0.007941014133393764,0.12888877093791962,-0.14049486815929413
1667267058914885000,0.825885009765625,-0.008551862090826035,0.13316470384597778,-0.14660334587097168
1667267058917282800,0.82828271484375,-0.007941014133393764,0.13560809195041656,-0.15271180868148804
1667267058919680500,0.830680419921875,-0.008551862090826035,0.13988402485847473,-0.1575985997915268
1667267058922078500,0.833078369140625,-0.008551862090826035,0.1429382562637329,-0.16553960740566254
1667267058924476200,0.83547607421875,-0.012827792204916477,0.14843589067459106,-0.17286977171897888
1667267058926873900,0.837873779296875,-0.016492875292897224,0.15271180868148804,-0.18019993603229523
1667267058929271600,0.840271484375,-0.01954711228609085,0.16431790590286255,-0.182643324136734
1667267058931669200,0.842669189453125,-0.025655584409832954,0.17286977171897888,-0.18936264514923096
1667267058934067200,0.845067138671875,-0.03298575058579445,0.18569757044315338,-0.1960819661617279
1667267058936465000,0.84746484375,-0.0390942245721817,0.20219044387340546,-0.19913621246814728
1667267058938862600,0.849862548828125,-0.046424392610788345,0.21990501880645752,-0.2089097648859024
1667267058941260300,0.85226025390625,-0.053143709897994995,0.24067382514476776,-0.21868331730365753
1667267058943658000,0.854657958984375,-0.05986303091049194,0.2608317732810974,-0.22662433981895447
1667267058946055700,0.8570556640625,-0.06352811306715012,0.28098973631858826,-0.2357870489358902
1667267058948453600,0.85945361328125,-0.06841489672660828,0.2987042963504791,-0.24494975805282593
1667267058950851300,0.861851318359375,-0.07207997888326645,0.3139754831790924,-0.25411245226860046
1667267058953249000,0.8642490234375,-0.07269082218408585,0.3261924386024475,-0.2620534598827362
1667267058955646700,0.866646728515625,-0.07330167293548584,0.3384093940258026,-0.27060532569885254
1667267058958044700,0.869044677734375,-0.07574506103992462,0.34573954343795776,-0.27854636311531067
1667267058960442400,0.8714423828125,-0.07452336698770523,0.3524588644504547,-0.284654825925827
1667267058962840000,0.873840087890625,-0.07513421028852463,0.3536805510520935,-0.288930743932724
1667267058965237800,0.87623779296875,-0.07452336698770523,0.3555130958557129,-0.29259583353996277
1667267058967635500,0.878635498046875,-0.07513421028852463,0.3530697226524353,-0.2919849753379822
1667267058970033400,0.881033447265625,-0.07207997888326645,0.3524588644504547,-0.2919849753379822
1667267058972431000,0.88343115234375,-0.07269082218408585,0.3506263196468353,-0.29503923654556274
1667267058974828800,0.885828857421875,-0.06902574002742767,0.34818294644355774,-0.2919849753379822
1667267058977226500,0.8882265625,-0.07024743407964706,0.34818294644355774,-0.2907632887363434
1667267058979624200,0.890624267578125,-0.06841489672660828,0.34635040163993835,-0.2870981991291046
1667267058982022100,0.893022216796875,-0.0647498071193695,0.34512871503829956,-0.28282228112220764
1667267058984419800,0.895419921875,-0.06413896381855011,0.34451785683631897,-0.2779355049133301
1667267058986817500,0.897817626953125,-0.05925218388438225,0.342074453830719,-0.26816195249557495
1667267058989215200,0.90021533203125,-0.05741964280605316,0.3408527672290802,-0.2596100866794586
1667267058991613000,0.902613037109375,-0.05619794875383377,0.3390202224254608,-0.24678228795528412
1667267058994011000,0.905010986328125,-0.0525328628718853,0.3384093940258026,-0.2351761907339096
1667267058996408600,0.90740869140625,-0.04947862774133682,0.3402419090270996,-0.2241809368133545
1667267058998806300,0.90980615234375,-0.047646086663007736,0.3390202224254608,-0.2107423096895218
1667267059001204000,0.912203857421875,-0.042759306728839874,0.3408527672290802,-0.1960819661617279
1667267059003601700,0.9146015625,-0.04092676565051079,0.33596599102020264,-0.1820324808359146
1667267059005999600,0.91699951171875,-0.03665083646774292,0.3268032968044281,-0.16859383881092072
1667267059008397300,0.919397216796875,-0.03237490355968475,0.3133646547794342,-0.15149012207984924
1667267059010795000,0.921794921875,-0.029320668429136276,0.29565006494522095,-0.13805148005485535
1667267059013192700,0.924192626953125,-0.02504473738372326,0.2718270421028137,-0.12339114397764206
1667267059015590700,0.926590576171875,-0.021379653364419937,0.24617144465446472,-0.11056335270404816
1667267059017988400,0.92898828125,-0.020157959312200546,0.21929416060447693,-0.10140064358711243
1667267059020386000,0.931385986328125,-0.01710372418165207,0.19302773475646973,-0.0922379344701767
1667267059022783700,0.93378369140625,-0.013438640162348747,0.1698155403137207,-0.08429691940546036
1667267059025181400,0.936181396484375,-0.014660334214568138,0.14660334587097168,-0.0781884491443634
1667267059027579400,0.938579345703125,-0.011606098152697086,0.12094775587320328,-0.07635590434074402
1667267059029977000,0.94097705078125,-0.010995250195264816,0.10140064358711243,-0.07452336698770523
1667267059032374800,0.943374755859375,-0.010995250195264816,0.08063183724880219,-0.07574506103992462
1667267059034772500,0.9457724609375,-0.014049487188458443,0.05925218388438225,-0.08063183724880219
1667267059037170200,0.948170166015625,-0.013438640162348747,0.038483377546072006,-0.08735115826129913
1667267059039568100,0.950568115234375,-0.016492875292897224,0.01710372418165207,-0.09468132257461548
1667267059041965800,0.9529658203125,-0.018936265259981155,-0.0036650835536420345,-0.10628741979598999
1667267059044363500,0.955363525390625,-0.023823043331503868,-0.023212196305394173,-0.1178935244679451
1667267059046761200,0.95776123046875,-0.02626643143594265,-0.042759306728839874,-0.1301104724407196
1667267059049159000,0.960158935546875,-0.029320668429136276,-0.0653606578707695,-0.14110571146011353
1667267059051556900,0.962556884765625,-0.034818295389413834,-0.08551861345767975,-0.15515519678592682
1667267059053954600,0.96495458984375,-0.03787253051996231,-0.10262233763933182,-0.1710372269153595
1667267059056352300,0.967352294921875,-0.042759306728839874,-0.12644538283348083,-0.1820324808359146
1667267059058750000,0.96975,-0.04092676565051079,-0.15210096538066864,-0.1960819661617279
1667267059061147600,0.972147705078125,-0.04337015375494957,-0.18019993603229523,-0.20707722008228302
1667267059063545600,0.974545654296875,-0.04459185153245926,-0.21318569779396057,-0.21929416060447693
1667267059065943300,0.976943359375,-0.04337015375494957,-0.2486148327589035,-0.22906772792339325
1667267059068341000,0.979341064453125,-0.04031591862440109,-0.2870981991291046,-0.23884128034114838
1667267059070738700,0.98173876953125,-0.03787253051996231,-0.3255815804004669,-0.2498365342617035
1667267059073136600,0.98413671875,-0.03298575058579445,-0.3646758198738098,-0.25655585527420044
1667267059075534300,0.986534423828125,-0.026877280324697495,-0.4056025743484497,-0.2638860046863556
1667267059077932000,0.98893212890625,-0.020157959312200546,-0.4422534108161926,-0.26755109429359436
1667267059080329700,0.991329833984375,-0.011606098152697086,-0.47829338908195496,-0.26999449729919434
1667267059082727400,0.9937275390625,-0.0036650835536420345,-0.5137225389480591,-0.2724378705024719
1667267059085125400,0.99612548828125,0.0024433890357613564,-0.5491516590118408,-0.2718270421028137
1667267059087523000,0.998523193359375,0.01038440316915512,-0.5815265774726868,-0.26877278089523315
1667267059089920800,1.000920654296875,0.016492875292897224,-0.6157340407371521,-0.26877278089523315
1667267059092318500,1.003318359375,0.021990500390529633,-0.6511631608009338,-0.27060532569885254
1667267059094716200,1.005716064453125,0.025655584409832954,-0.6865923404693604,-0.27121618390083313
1667267059097114000,1.008114013671875,0.026877280324697495,-0.7226322889328003,-0.27121618390083313
1667267059099511800,1.01051171875,0.02626643143594265,-0.7605048418045044,-0.2779355049133301
1667267059101909500,1.012909423828125,0.02626643143594265,-0.7971556782722473,-0.28160059452056885
1667267059104307200,1.01530712890625,0.021990500390529633,-0.8313631415367126,-0.2870981991291046
1667267059106705000,1.017704833984375,0.016492875292897224,-0.8637380003929138,-0.29503923654556274
1667267059109102800,1.020102783203125,0.006719320081174374,-0.8912261724472046,-0.3023693859577179
1667267059111500500,1.02250048828125,-0.0018325417768210173,-0.911384105682373,-0.30969956517219543
1667267059113898200,1.024898193359375,-0.014660334214568138,-0.9248227477073669,-0.3139754831790924
1667267059116296000,1.0272958984375,-0.030542362481355667,-0.9290986657142639,-0.3176405727863312
1667267059118694000,1.02969384765625,-0.04703523963689804,-0.9333745837211609,-0.3164188861846924
1667267059121091600,1.032091552734375,-0.0653606578707695,-0.9407047629356384,-0.31825143098831177
1667267059123489300,1.0344892578125,-0.08857285231351852,-0.9498674869537354,-0.3176405727863312
1667267059125887000,1.036886962890625,-0.10995250940322876,-0.9584193229675293,-0.3158080279827118
1667267059128284700,1.03928466796875,-0.1325538605451584,-0.9706363081932068,-0.3176405727863312
1667267059130682600,1.0416826171875,-0.15271180868148804,-0.9852966070175171,-0.3170297145843506
1667267059133080300,1.044080322265625,-0.17225892841815948,-0.9999569654464722,-0.31886225938796997
1667267059135478000,1.04647802734375,-0.19119518995285034,-1.01706063747406,-0.31886225938796997
1667267059137875700,1.048875732421875,-0.2095206081867218,-1.0262234210968018,-0.31825143098831177
1667267059140273400,1.0512734375,-0.2241809368133545,-1.031110167503357,-0.32130566239356995
1667267059142671400,1.05367138671875,-0.24311721324920654,-1.0335536003112793,-0.32252734899520874
1667267059145069000,1.056069091796875,-0.2608317732810974,-1.031110167503357,-0.3249707520008087
1667267059147466800,1.058466796875,-0.28098973631858826,-1.0250016450881958,-0.3286358118057251
1667267059149864400,1.060864501953125,-0.3017585575580597,-1.0158389806747437,-0.33413344621658325
1667267059152262100,1.06326220703125,-0.32130566239356995,-1.003622055053711,-0.342074453830719
1667267059154660000,1.06566015625,-0.3432961702346802,-0.9871291518211365,-0.34818294644355774
1667267059157057800,1.068057861328125,-0.365286648273468,-0.9639169573783875,-0.35856732726097107
1667267059159455500,1.07045556640625,-0.3811686933040619,-0.9364288449287415,-0.3683409094810486
1667267059161853200,1.072853271484375,-0.3939964771270752,-0.8997780084609985,-0.3799470067024231
1667267059164251000,1.0752509765625,-0.4074351191520691,-0.8588512539863586,-0.3946073353290558
1667267059166648800,1.07764892578125,-0.41232189536094666,-0.8130376935005188,-0.41110020875930786
1667267059169046500,1.080046630859375,-0.4190412163734436,-0.767224133014679,-0.4318690001964569
1667267059171444200,1.0824443359375,-0.4196520745754242,-0.7226322889328003,-0.45324867963790894
1667267059173842000,1.084842041015625,-0.41537612676620483,-0.675597071647644,-0.47646087408065796
1667267059176239900,1.087239990234375,-0.41293275356292725,-0.6322268843650818,-0.5027272701263428
1667267059178637600,1.089637451171875,-0.4043808877468109,-0.5888567566871643,-0.5265503525733948
1667267059181035300,1.09203515625,-0.39766156673431396,-0.5418215394020081,-0.5540384650230408
1667267059183433000,1.094432861328125,-0.3915531039237976,-0.49234288930892944,-0.5803049206733704
1667267059185830700,1.09683056640625,-0.38788801431655884,-0.44042086601257324,-0.6084038615226746
1667267059188228600,1.099228515625,-0.3817795515060425,-0.3903313875198364,-0.6328377723693848
1667267059190626300,1.101626220703125,-0.37139514088630676,-0.3396310806274414,-0.6591041684150696
1667267059193024000,1.10402392578125,-0.36101073026657104,-0.29381752014160156,-0.684759795665741
1667267059195421700,1.106421630859375,-0.34879377484321594,-0.2498365342617035,-0.7043069005012512
1667267059197819400,1.1088193359375,-0.33169007301330566,-0.21379654109477997,-0.7238540053367615
1667267059200217300,1.11121728515625,-0.314586341381073,-0.18997350335121155,-0.7403468489646912
1667267059202615000,1.113614990234375,-0.2907632887363434,-0.16676130890846252,-0.7568397521972656
1667267059205012700,1.1160126953125,-0.2626643180847168,-0.14904673397541046,-0.7727217674255371
1667267059207410400,1.118410400390625,-0.237008735537529,-0.13988402485847473,-0.7831062078475952
1667267059209808100,1.12080810546875,-0.20646637678146362,-0.1319430023431778,-0.7928797602653503
1667267059212206000,1.1232060546875,-0.17592400312423706,-0.12705622613430023,-0.7977665066719055
1667267059214603800,1.125603759765625,-0.14721418917179108,-0.129499614238739,-0.8020424246788025
1667267059217001500,1.12800146484375,-0.12339114397764206,-0.13438639044761658,-0.8038749694824219
1667267059219399200,1.130399169921875,-0.09834641218185425,-0.1423274129629135,-0.8026533126831055
1667267059221797000,1.132797119140625,-0.07513421028852463,-0.15393351018428802,-0.7977665066719055
1667267059224194800,1.13519482421875,-0.05619794875383377,-0.17225892841815948,-0.7928797602653503
1667267059226592500,1.137592529296875,-0.034818295389413834,-0.19363857805728912,-0.7855495810508728
1667267059228990200,1.139990234375,-0.01710372418165207,-0.21440738439559937,-0.7751652002334595
1667267059231388000,1.142387939453125,0.0012216945178806782,-0.23884128034114838,-0.7666133046150208
1667267059233785900,1.144785888671875,0.017714571207761765,-0.2620534598827362,-0.7568397521972656
1667267059236183600,1.14718359375,0.03542914241552353,-0.2870981991291046,-0.7458444833755493
1667267059238581200,1.149581298828125,0.0525328628718853,-0.30725616216659546,-0.7336275577545166
1667267059240979000,1.15197900390625,0.06658235192298889,-0.32130566239356995,-0.7195780873298645
1667267059243376600,1.154376708984375,0.08307522535324097,-0.33352261781692505,-0.7067502737045288
1667267059245774600,1.156774658203125,0.09895725548267365,-0.3408527672290802,-0.6914790868759155
1667267059248172300,1.15917236328125,0.11361759155988693,-0.342074453830719,-0.675597071647644
1667267059250570000,1.161570068359375,0.12827792763710022,-0.342074453830719,-0.6591041684150696
1667267059252967700,1.1639677734375,0.14171656966209412,-0.33352261781692505,-0.6432221531867981
1667267059255365400,1.166365478515625,0.1557660549879074,-0.31886225938796997,-0.6255075931549072
1667267059257763300,1.168763427734375,0.1710372269153595,-0.2987042963504791,-0.6108472347259521
1667267059260161000,1.1711611328125,0.1850867122411728,-0.27060532569885254,-0.5925218462944031
1667267059262558700,1.173558837890625,0.1966928243637085,-0.2363978922367096,-0.5772506594657898
1667267059264956400,1.175956298828125,0.20707722008228302,-0.1979145109653473,-0.5632011890411377
1667267059267354000,1.17835400390625,0.21623992919921875,-0.1588202863931656,-0.5515950918197632
1667267059269752000,1.180751953125,0.22479179501533508,-0.11972606182098389,-0.5381564497947693
1667267059272149800,1.183149658203125,0.23028941452503204,-0.08063183724880219,-0.5283828973770142
1667267059274547500,1.18554736328125,0.2357870489358902,-0.04092676565051079,-0.5192201733589172
1667267059276945200,1.187945068359375,0.24067382514476776,-0.004275931045413017,-0.5106683373451233
1667267059279343000,1.190343017578125,0.24617144465446472,0.02993151545524597,-0.5033381581306458
1667267059281740800,1.19274072265625,0.2504473626613617,0.06047387793660164,-0.4990622103214264
1667267059284138500,1.195138427734375,0.25289076566696167,0.09040539711713791,-0.4960079789161682
1667267059286536200,1.1975361328125,0.25655585527420044,0.11483928561210632,-0.4953971207141876
1667267059288934000,1.199933837890625,0.2651077210903168,0.13499724864959717,-0.49417543411254883
1667267059291331800,1.202331787109375,0.27060532569885254,0.14965757727622986,-0.4966188073158264
1667267059293729500,1.2047294921875,0.2767138183116913,0.16309621930122375,-0.499673068523407
1667267059296127200,1.207127197265625,0.28404396772384644,0.17531315982341766,-0.5063923597335815
1667267059298525000,1.20952490234375,0.291374146938324,0.18814095854759216,-0.5106683373451233
1667267059300922600,1.211922607421875,0.29748260974884033,0.20035789906978607,-0.5192201733589172
1667267059303320600,1.214320556640625,0.3035911023616791,0.208298921585083,-0.5296045541763306
1667267059305718300,1.21671826171875,0.31031039357185364,0.21929416060447693,-0.5369347333908081
1667267059308116000,1.219115966796875,0.3139754831790924,0.23884128034114838,-0.5442649126052856
1667267059310513700,1.221513671875,0.32069480419158936,0.26632940769195557,-0.550373375415802
1667267059312911400,1.223911376953125,0.3261924386024475,0.30725616216659546,-0.554649293422699
1667267059315309300,1.226309326171875,0.33169007301330566,0.3573456406593323,-0.5577035546302795
1667267059317707000,1.22870703125,0.3365768492221832,0.41048935055732727,-0.5607577562332153
1667267059320104700,1.231104736328125,0.3408527672290802,0.4703523814678192,-0.5607577562332153
1667267059322502400,1.23350244140625,0.34818294644355774,0.5289937257766724,-0.5625903010368347
1667267059324900400,1.235900390625,0.3524588644504547,0.5894675850868225,-0.5625903010368347
1667267059327298000,1.238298095703125,0.36101073026657104,0.6432221531867981,-0.5632011890411377
1667267059329695700,1.24069580078125,0.37139514088630676,0.6975875496864319,-0.5625903010368347
1667267059332093400,1.243093505859375,0.38605546951293945,0.7568397521972656,-0.5644228458404541
1667267059334491400,1.245491455078125,0.39766156673431396,0.8179244995117188,-0.5668662786483765
1667267059336889000,1.24788916015625,0.4092676639556885,0.8802309036254883,-0.5717530250549316
1667267059339286800,1.250286865234375,0.416597843170166,0.939483106136322,-0.573585569858551
1667267059341684500,1.2526845703125,0.42331716418266296,0.9975135922431946,-0.5741963982582092
1667267059344082200,1.255082275390625,0.42576053738594055,1.060430884361267,-0.577861487865448
1667267059346480000,1.257480224609375,0.42881476879119873,1.1221264600753784,-0.5803049206733704
1667267059348877800,1.2598779296875,0.4300364851951599,1.1807677745819092,-0.577861487865448
1667267059351275500,1.262275634765625,0.42637139558792114,1.2363548278808594,-0.5717530250549316
1667267059353673200,1.264673095703125,0.42331716418266296,1.2882769107818604,-0.5613686442375183
1667267059356071000,1.26707080078125,0.4196520745754242,1.3359229564666748,-0.5528167486190796
1667267059358468900,1.26946875,0.416597843170166,1.381201982498169,-0.5405998229980469
1667267059360866600,1.271866455078125,0.41293275356292725,1.4227396249771118,-0.527161180973053
1667267059363264300,1.27426416015625,0.41171106696128845,1.4557254314422607,-0.5131117105484009
1667267059365662000,1.276661865234375,0.4086568057537079,1.4746615886688232,-0.4990622103214264
1667267059368059600,1.2790595703125,0.4074351191520691,1.4771050214767456,-0.4862344264984131
1667267059370457600,1.28145751953125,0.4086568057537079,1.4612230062484741,-0.4727957844734192
1667267059372855300,1.283855224609375,0.41171106696128845,1.4337348937988281,-0.4593571424484253
1667267059375253000,1.2862529296875,0.4178195297718048,1.3964731693267822,-0.444085955619812
1667267059377650700,1.288650634765625,0.42576053738594055,1.3518813848495483,-0.4294256269931793
1667267059380048400,1.29104833984375,0.4324798583984375,1.3011046648025513,-0.41354358196258545
1667267059382446300,1.2934462890625,0.43981003761291504,1.2449066638946533,-0.3946073353290558
1667267059384844000,1.295843994140625,0.45080527663230896,1.1838220357894897,-0.3775036036968231
1667267059387241700,1.29824169921875,0.4569137394428253,1.1221264600753784,-0.3567348122596741
1667267059389639400,1.300639404296875,0.46668729186058044,1.0573766231536865,-0.33718767762184143
1667267059392037400,1.303037353515625,0.4734066128730774,0.9962918758392334,-0.3176405727863312
1667267059394435000,1.30543505859375,0.47768256068229675,0.9345963001251221,-0.29626092314720154
1667267059396832800,1.307832763671875,0.48012593388557434,0.8747332692146301,-0.2742704153060913
1667267059399230500,1.31023046875,0.47829338908195496,0.8154810667037964,-0.2522799074649811
1667267059401628200,1.312628173828125,0.4752391576766968,0.7574505805969238,-0.23151111602783203
1667267059404026000,1.315026123046875,0.46851983666419983,0.7018635272979736,-0.2107423096895218
1667267059406423800,1.317423828125,0.4611896872520447,0.6432221531867981,-0.19241689145565033
1667267059408821500,1.319821533203125,0.45385950803756714,0.5839699506759644,-0.17714570462703705
1667267059411219200,1.32221923828125,0.4416425824165344,0.5277720093727112,-0.15943112969398499
1667267059413617000,1.324616943359375,0.4306473135948181,0.4703523814678192,-0.1435490995645523
1667267059416014800,1.327014892578125,0.416597843170166,0.4190412163734436,-0.12766708433628082
1667267059418412500,1.32941259765625,0.4031592011451721,0.37200596928596497,-0.11422843486070633
1667267059420810200,1.331810302734375,0.3903313875198364,0.3261924386024475,-0.10201149433851242
1667267059423208000,1.3342080078125,0.37506023049354553,0.284654825925827,-0.08857285231351852
1667267059425605600,1.336605712890625,0.36039987206459045,0.24372805655002594,-0.07757759839296341
1667267059428003600,1.339003662109375,0.34818294644355774,0.20707722008228302,-0.06658235192298889
1667267059430401300,1.3414013671875,0.33535513281822205,0.17348061501979828,-0.056808795779943466
1667267059432799000,1.343799072265625,0.32252734899520874,0.1429382562637329,-0.047646086663007736
1667267059435196700,1.34619677734375,0.30786702036857605,0.12094775587320328,-0.04031591862440109
1667267059437594400,1.348594482421875,0.2919849753379822,0.09712471067905426,-0.03420744836330414
1667267059439992300,1.350992431640625,0.2779355049133301,0.08246438205242157,-0.028098974376916885
1667267059442390000,1.35339013671875,0.2620534598827362,0.06658235192298889,-0.028098974376916885
1667267059444787700,1.35578759765625,0.24494975805282593,0.05741964280605316,-0.023823043331503868
1667267059447185400,1.358185302734375,0.22845686972141266,0.051922015845775604,-0.023823043331503868
1667267059449583400,1.360583251953125,0.21196399629116058,0.043981000781059265,-0.024433890357613564
1667267059451981000,1.36298095703125,0.1973036676645279,0.036039989441633224,-0.023823043331503868
1667267059454378800,1.365378662109375,0.18142163753509521,0.029320668429136276,-0.02626643143594265
1667267059456776400,1.3677763671875,0.16615045070648193,0.025655584409832954,-0.028098974376916885
1667267059459174100,1.370174072265625,0.15149012207984924,0.020157959312200546,-0.03298575058579445
1667267059461572000,1.372572021484375,0.13744063675403595,0.016492875292897224,-0.038483377546072006
1667267059463969800,1.3749697265625,0.12583453953266144,0.01832541823387146,-0.04459185153245926
1667267059466367500,1.377367431640625,0.11606097966432571,0.021379653364419937,-0.05131116881966591
1667267059468765200,1.37976513671875,0.1056765764951706,0.026877280324697495,-0.05925218388438225
1667267059471163000,1.382162841796875,0.09651386737823486,0.0390942245721817,-0.0659715011715889
1667267059473560800,1.384560791015625,0.08612946420907974,0.05497625470161438,-0.07024743407964706
1667267059475958500,1.38695849609375,0.07696675509214401,0.07085828483104706,-0.07452336698770523
1667267059478356200,1.389356201171875,0.07024743407964706,0.08551861345767975,-0.07574506103992462
1667267059480754000,1.39175390625,0.06413896381855011,0.10078980028629303,-0.07696675509214401
1667267059483151600,1.394151611328125,0.053143709897994995,0.11117420345544815,-0.07757759839296341
1667267059485549600,1.396549560546875,0.047646086663007736,0.1172826737165451,-0.07513421028852463
1667267059487947300,1.398947265625,0.04153761267662048,0.11606097966432571,-0.07146912813186646
1667267059490345000,1.401344970703125,0.0397050715982914,0.11117420345544815,-0.0653606578707695
1667267059492742700,1.40374267578125,0.038483377546072006,0.10017894953489304,-0.05986303091049194
1667267059495140600,1.406140625,0.04031591862440109,0.08551861345767975,-0.05070032179355621
1667267059497538300,1.408538330078125,0.047646086663007736,0.07207997888326645,-0.04153761267662048
1667267059499936000,1.41093603515625,0.053143709897994995,0.05803048983216286,-0.02748812735080719
1667267059502333700,1.413333740234375,0.05986303091049194,0.04214845970273018,-0.012216945178806782
1667267059504731600,1.415731689453125,0.0647498071193695,0.026877280324697495,0.004886778071522713
1667267059507129300,1.41812939453125,0.06963659077882767,0.011606098152697086,0.024433890357613564
1667267059509527000,1.420527099609375,0.07574506103992462,-0.0024433890357613564,0.04703523963689804
1667267059511924700,1.4229248046875,0.08124268800020218,-0.018936265259981155,0.07085828483104706
1667267059514322400,1.425322509765625,0.08612946420907974,-0.038483377546072006,0.09529217332601547
1667267059516720400,1.427720458984375,0.08918370306491852,-0.05864133685827255,0.12216944992542267
1667267059519118000,1.4301181640625,0.0916270911693573,-0.08185353130102158,0.15087927877902985
1667267059521515800,1.432515869140625,0.09345962852239609,-0.10689827054738998,0.17836740612983704
1667267059523913500,1.43491357421875,0.09834641218185425,-0.13316470384597778,0.20768806338310242
1667267059526311200,1.437311279296875,0.10017894953489304,-0.16004198789596558,0.2376195788383484
1667267059528709000,1.439709228515625,0.09895725548267365,-0.18630841374397278,0.26938363909721375
1667267059531106800,1.44210693359375,0.10017894953489304,-0.2101314514875412,0.2980934679508209
1667267059533504500,1.44450439453125,0.09956810623407364,-0.23028941452503204,0.3274141252040863
1667267059535902200,1.446902099609375,0.10017894953489304,-0.2492256760597229,0.3542914092540741
1667267059538300000,1.4492998046875,0.09895725548267365,-0.26999449729919434,0.3805578351020813
1667267059540697900,1.45169775390625,0.09651386737823486,-0.28343313932418823,0.4056025743484497
1667267059543095600,1.454095458984375,0.09468132257461548,-0.2999260127544403,0.42881476879119873
1667267059545493200,1.4564931640625,0.09040539711713791,-0.3139754831790924,0.45202696323394775
1667267059547891000,1.458890869140625,0.08796200156211853,-0.3249707520008087,0.4715740978717804
1667267059550288600,1.46128857421875,0.08307522535324097,-0.3390202224254608,0.48989951610565186
1667267059552686600,1.4636865234375,0.08063183724880219,-0.34818294644355774,0.5076140761375427
1667267059555084300,1.466084228515625,0.07452336698770523,-0.35917818546295166,0.5198310017585754
1667267059557482000,1.46848193359375,0.06963659077882767,-0.3695625960826874,0.5326588153839111
1667267059559879700,1.470879638671875,0.06780404597520828,-0.37689274549484253,0.5405998229980469
1667267059562277600,1.473277587890625,0.06352811306715012,-0.38727715611457825,0.5509842038154602
1667267059564675300,1.47567529296875,0.05925218388438225,-0.39827242493629456,0.5564818382263184
1667267059567073000,1.478072998046875,0.05619794875383377,-0.4086568057537079,0.5613686442375183
1667267059569470700,1.480470703125,0.05497625470161438,-0.4178195297718048,0.5638120174407959
1667267059571868400,1.482868408203125,0.055587101727724075,-0.42759308218955994,0.5650337338447571
1667267059574266400,1.485266357421875,0.051922015845775604,-0.4367557764053345,0.5638120174407959
1667267059576664000,1.4876640625,0.0525328628718853,-0.4453076422214508,0.5601469278335571
1667267059579061800,1.490061767578125,0.04886778071522713,-0.45385950803756714,0.5577035546302795
1667267059581459500,1.49245947265625,0.05008947476744652,-0.4593571424484253,0.5534276366233826
1667267059583857200,1.494857177734375,0.047646086663007736,-0.46546560525894165,0.5497625470161438
1667267059586255000,1.497255126953125,0.04459185153245926,-0.4715740978717804,0.5418215394020081
1667267059588652800,1.49965283203125,0.04153761267662048,-0.474017471075058,0.5344913601875305
1667267059591050500,1.502050537109375,0.034818295389413834,-0.47829338908195496,0.5265503525733948
1667267059593448200,1.5044482421875,0.03237490355968475,-0.47951510548591614,0.517998456954956
1667267059595846000,1.506845947265625,0.028098974376916885,-0.47951510548591614,0.5094466209411621
1667267059598243800,1.509243896484375,0.024433890357613564,-0.4819584786891937,0.497229665517807
1667267059600641500,1.5116416015625,0.01954711228609085,-0.4819584786891937,0.4862344264984131
1667267059603039200,1.514039306640625,0.016492875292897224,-0.48073679208755493,0.47646087408065796
1667267059605437000,1.51643701171875,0.012827792204916477,-0.47646087408065796,0.46851983666419983
1667267059607835000,1.5188349609375,0.008551862090826035,-0.4727957844734192,0.4563029110431671
1667267059610232600,1.521232666015625,0.007941014133393764,-0.4709632396697998,0.448361873626709
1667267059612630300,1.52363037109375,0.004275931045413017,-0.46363306045532227,0.43858832120895386
1667267059615028000,1.526028076171875,0.0024433890357613564,-0.4575245976448059,0.4294256269931793
1667267059617425700,1.52842578125,0.0018325417768210173,-0.45019441843032837,0.420873761177063
1667267059619823600,1.53082373046875,-0.0006108472589403391,-0.4434750974178314,0.41110020875930786
1667267059622221300,1.53322119140625,-0.0030542362947016954,-0.4355340898036957,0.40193748474121094
1667267059624619000,1.535618896484375,-0.006108472589403391,-0.42576053738594055,0.395218163728714
1667267059627016700,1.5380166015625,-0.009773556143045425,-0.4202629029750824,0.38666632771492004
1667267059629414400,1.540414306640625,-0.012827792204916477,-0.41476529836654663,0.3811686933040619
1667267059631812400,1.542812255859375,-0.01710372418165207,-0.4074351191520691,0.37689274549484253
1667267059634210000,1.5452099609375,-0.01832541823387146,-0.39949411153793335,0.37200596928596497
1667267059636607700,1.547607666015625,-0.022601349279284477,-0.3921639323234558,0.367730051279068
1667267059639005400,1.55000537109375,-0.025655584409832954,-0.3836120665073395,0.3665083646774292
1667267059641403100,1.552403076171875,-0.026877280324697495,-0.3775036036968231,0.363454133272171
1667267059643801000,1.554801025390625,-0.03176405653357506,-0.3701734244823456,0.36284327507019043
1667267059646198800,1.55719873046875,-0.03542914241552353,-0.35978904366493225,0.36284327507019043
1667267059648596500,1.559596435546875,-0.038483377546072006,-0.3561239540576935,0.36223241686820984
1667267059650994200,1.561994140625,-0.038483377546072006,-0.3518480062484741,0.3640649616718292
1667267059653392000,1.564391845703125,-0.04153761267662048,-0.34818294644355774,0.365286648273468
1667267059655789800,1.566789794921875,-0.04459185153245926,-0.3432961702346802,0.3695625960826874
1667267059658187500,1.5691875,-0.04703523963689804,-0.3408527672290802,0.37261682748794556
1667267059660585200,1.571585205078125,-0.04947862774133682,-0.3396310806274414,0.3787252902984619
1667267059662983000,1.57398291015625,-0.05070032179355621,-0.3414636254310608,0.3830012381076813
1667267059665380900,1.576380859375,-0.05375456064939499,-0.34512871503829956,0.38788801431655884
1667267059667778600,1.578778564453125,-0.05619794875383377,-0.3506263196468353,0.3946073353290558
1667267059670176300,1.58117626953125,-0.05803048983216286,-0.3555130958557129,0.4037700295448303
1667267059672574000,1.583573974609375,-0.06169557198882103,-0.3671191930770874,0.41110020875930786
1667267059674972000,1.585971923828125,-0.06413896381855011,-0.3781144618988037,0.4190412163734436
1667267059677369600,1.58836962890625,-0.06658235192298889,-0.3927747905254364,0.4300364851951599
1667267059679767300,1.590767333984375,-0.07269082218408585,-0.4080459773540497,0.43919917941093445
1667267059682165000,1.5931650390625,-0.07513421028852463,-0.4227063059806824,0.4477510452270508
1667267059684562700,1.595562744140625,-0.0787992998957634,-0.4367557764053345,0.4556920528411865
1667267059686960600,1.597960693359375,-0.08368607610464096,-0.4563029110431671,0.46302223205566406
1667267059689358300,1.6003583984375,-0.08551861345767975,-0.4703523814678192,0.4703523814678192
1667267059691756000,1.602756103515625,-0.08796200156211853,-0.4837910234928131,0.47768256068229675
1667267059694153700,1.60515380859375,-0.08979454636573792,-0.4960079789161682,0.4831801950931549
1667267059696551400,1.607551513671875,-0.08979454636573792,-0.503948986530304,0.4868452548980713
1667267059698949400,1.609949462890625,-0.0922379344701767,-0.5118899941444397,0.49417543411254883
1667267059701347000,1.61234716796875,-0.09345962852239609,-0.5125008225440979,0.497229665517807
1667267059703744800,1.614744873046875,-0.09284878522157669,-0.5112791657447815,0.5015056133270264
1667267059706142500,1.617142578125,-0.09529217332601547,-0.5070032477378845,0.5045598149299622
1667267059708540200,1.6195400390625,-0.09407047927379608,-0.4984513521194458,0.5051707029342651
1667267059710938000,1.621938232421875,-0.09345962852239609,-0.48989951610565186,0.5082249045372009
1667267059713335800,1.624335693359375,-0.09529217332601547,-0.47951510548591614,0.5118899941444397
1667267059715733500,1.6267333984375,-0.09407047927379608,-0.46668729186058044,0.5131117105484009
1667267059718131200,1.629131103515625,-0.09345962852239609,-0.4563029110431671,0.5143333673477173
1667267059720529200,1.631529052734375,-0.0910162404179573,-0.446529358625412,0.518609344959259
1667267059722926800,1.6339267578125,-0.0922379344701767,-0.43797749280929565,0.518609344959259
1667267059725324500,1.636324462890625,-0.08979454636573792,-0.4337015450000763,0.5234960913658142
1667267059727722200,1.63872216796875,-0.08979454636573792,-0.42881476879119873,0.5259394645690918
1667267059730120000,1.641119873046875,-0.09284878522157669,-0.42514967918395996,0.5308262705802917
1667267059732518000,1.643517822265625,-0.0922379344701767,-0.4172086715698242,0.5375455617904663
1667267059734915600,1.64591552734375,-0.0916270911693573,-0.40987852215766907,0.5454866290092468
1667267059737313300,1.648313232421875,-0.09040539711713791,-0.40193748474121094,0.5534276366233826
1667267059739711000,1.6507109375,-0.08735115826129913,-0.39643988013267517,0.5632011890411377
1667267059742108700,1.653108642578125,-0.08551861345767975,-0.3897205591201782,0.5760289430618286
1667267059744506600,1.655506591796875,-0.08429691940546036,-0.3830012381076813,0.5870242118835449
1667267059746904300,1.657904296875,-0.08246438205242157,-0.37689274549484253,0.5992411375045776
1667267059749302000,1.660302001953125,-0.0781884491443634,-0.3701734244823456,0.6132906675338745
1667267059751699700,1.66269970703125,-0.07513421028852463,-0.36162158846855164,0.6279509663581848
1667267059754097400,1.665097412109375,-0.06963659077882767,-0.3518480062484741,0.6432221531867981
1667267059756495400,1.667495361328125,-0.06719319522380829,-0.34451785683631897,0.6554391384124756
1667267059758893000,1.66989306640625,-0.06291726976633072,-0.33352261781692505,0.6743753552436829
1667267059761290800,1.672290771484375,-0.05864133685827255,-0.3243598937988281,0.6914790868759155
1667267059763688400,1.6746884765625,-0.055587101727724075,-0.3127537965774536,0.7104153633117676
1667267059766086100,1.677086181640625,-0.05131116881966591,-0.3042019307613373,0.7281299233436584
1667267059768484000,1.679484130859375,-0.05008947476744652,-0.29381752014160156,0.7470661997795105
1667267059770881800,1.6818818359375,-0.04947862774133682,-0.28404396772384644,0.7647807598114014
1667267059773279500,1.684279541015625,-0.04825693368911743,-0.2754921019077301,0.7837170362472534
1667267059775677200,1.68667724609375,-0.04825693368911743,-0.26938363909721375,0.8008207678794861
1667267059778075100,1.6890751953125,-0.045202698558568954,-0.2626643180847168,0.8154810667037964
1667267059780472800,1.691472900390625,-0.043981000781059265,-0.258999228477478,0.8289197087287903
1667267059782870500,1.69387060546875,-0.045202698558568954,-0.25350162386894226,0.8448017835617065
1667267059785268200,1.696268310546875,-0.04459185153245926,-0.25289076566696167,0.8527427911758423
1667267059787666000,1.698666015625,-0.04337015375494957,-0.24678228795528412,0.860683798789978
1667267059790063900,1.70106396484375,-0.04337015375494957,-0.24372805655002594,0.869846522808075
1667267059792461600,1.703461669921875,-0.04092676565051079,-0.23945212364196777,0.8783983588218689
1667267059794859300,1.705859375,-0.0397050715982914,-0.2339545041322708,0.8802309036254883
1667267059797257000,1.708257080078125,-0.033596597611904144,-0.2339545041322708,0.8832851648330688
1667267059799655000,1.710655029296875,-0.02748812735080719,-0.23334364593029022,0.8851176500320435
1667267059802052600,1.713052490234375,-0.021379653364419937,-0.23334364593029022,0.8857285380363464
1667267059804450300,1.7154501953125,-0.01588202826678753,-0.2376195788383484,0.8857285380363464
1667267059806848000,1.717847900390625,-0.005497625097632408,-0.24678228795528412,0.883895993232727
1667267059809245700,1.72024560546875,0.004275931045413017,-0.2596100866794586,0.8845068216323853
1667267059811643600,1.7226435546875,0.01588202826678753,-0.2724378705024719,0.8790091872215271
1667267059814041300,1.725041259765625,0.026877280324697495,-0.29320669174194336,0.8802309036254883
1667267059816439000,1.72743896484375,0.0397050715982914,-0.3127537965774536,0.8802309036254883
1667267059818836700,1.729836669921875,0.05131116881966591,-0.33352261781692505,0.8765658140182495
1667267059821234400,1.732234375,0.061084724962711334,-0.35856732726097107,0.8771766424179077
1667267059823632100,1.734632080078125,0.06963659077882767,-0.3811686933040619,0.8753440976142883
1667267059826030000,1.737030029296875,0.0794101431965828,-0.4049917459487915,0.8747332692146301
1667267059828427800,1.739427734375,0.08490777015686035,-0.42698222398757935,0.8753440976142883
1667267059830825500,1.741825439453125,0.09040539711713791,-0.4422534108161926,0.8747332692146301
1667267059833223400,1.744223388671875,0.09529217332601547,-0.45508119463920593,0.8747332692146301
1667267059835621000,1.74662109375,0.09956810623407364,-0.46668729186058044,0.8759549856185913
1667267059838018800,1.749018798828125,0.09956810623407364,-0.46424391865730286,0.8747332692146301
1667267059840416500,1.75141650390625,0.09468132257461548,-0.45447036623954773,0.873511552810669
1667267059842814200,1.753814208984375,0.08857285231351852,-0.43919917941093445,0.8741224408149719
1667267059845212200,1.756212158203125,0.08124268800020218,-0.4214846193790436,0.869846522808075
1667267059847609900,1.75860986328125,0.06963659077882767,-0.4043808877468109,0.8716790676116943
1667267059850007600,1.761007568359375,0.061084724962711334,-0.38483378291130066,0.8753440976142883
1667267059852405200,1.7634052734375,0.051922015845775604,-0.36101073026657104,0.8790091872215271
1667267059854803000,1.765802978515625,0.043981000781059265,-0.33291175961494446,0.8832851648330688
1667267059857201000,1.768200927734375,0.03420744836330414,-0.2980934679508209,0.8826742768287659
1667267059859598600,1.7705986328125,0.02626643143594265,-0.2608317732810974,0.8826742768287659
1667267059861996300,1.772996337890625,0.01954711228609085,-0.21929416060447693,0.8826742768287659
1667267059864394000,1.77539404296875,0.016492875292897224,-0.17714570462703705,0.8802309036254883
1667267059866791700,1.777791748046875,0.014049487188458443,-0.13377554714679718,0.8790091872215271
1667267059869189600,1.780189697265625,0.012827792204916477,-0.0916270911693573,0.8741224408149719
1667267059871587300,1.78258740234375,0.013438640162348747,-0.04947862774133682,0.8710681796073914
1667267059873985000,1.784985107421875,0.016492875292897224,-0.012827792204916477,0.8631271719932556
1667267059876382700,1.7873828125,0.021990500390529633,0.022601349279284477,0.8576295375823975
1667267059878780400,1.789780517578125,0.028098974376916885,0.053143709897994995,0.8490777015686035
1667267059881178400,1.792178466796875,0.02993151545524597,0.08063183724880219,0.8380824327468872
1667267059883576000,1.794576171875,0.03665083646774292,0.1050657257437706,0.8276980519294739
1667267059885973800,1.796973876953125,0.045202698558568954,0.12094775587320328,0.8191461563110352
1667267059888371500,1.799371337890625,0.053143709897994995,0.1313321590423584,0.8069292306900024
1667267059890769400,1.801769287109375,0.05925218388438225,0.13377554714679718,0.7928797602653503
1667267059893167000,1.8041669921875,0.06719319522380829,0.13316470384597778,0.7800519466400146
1667267059895564800,1.806564697265625,0.07757759839296341,0.12827792763710022,0.7641699314117432
1667267059897962500,1.80896240234375,0.08429691940546036,0.11483928561210632,0.7495095729827881
1667267059900360200,1.811360107421875,0.09468132257461548,0.10201149433851242,0.7336275577545166
1667267059902758100,1.813758056640625,0.10689827054738998,0.08918370306491852,0.7177455425262451
1667267059905155800,1.81615576171875,0.12155860662460327,0.07696675509214401,0.70308518409729
1667267059907553500,1.818553466796875,0.1319430023431778,0.062306419014930725,0.684759795665741
1667267059909951200,1.820951171875,0.14721418917179108,0.04581354558467865,0.6688777208328247
1667267059912349000,1.823348876953125,0.16065283119678497,0.029320668429136276,0.6542174220085144
1667267059914747000,1.825746826171875,0.1710372269153595,0.01038440316915512,0.6389462351799011
1667267059917144600,1.82814453125,0.182643324136734,-0.010995250195264816,0.624896764755249
1667267059919542300,1.830542236328125,0.1960819661617279,-0.03420744836330414,0.6096255779266357
1667267059921940000,1.83293994140625,0.20280128717422485,-0.05803048983216286,0.5943543910980225
1667267059924337700,1.835337646484375,0.21196399629116058,-0.08002099394798279,0.5815265774726868
1667267059926735600,1.837735595703125,0.21868331730365753,-0.10323318839073181,0.569309651851654
1667267059929133300,1.84013330078125,0.22784602642059326,-0.12461283802986145,0.5564818382263184
1667267059931531000,1.842531005859375,0.2339545041322708,-0.14904673397541046,0.5436540842056274
1667267059933928700,1.8449287109375,0.23823043704032898,-0.1692046970129013,0.5326588153839111
1667267059936326400,1.847326416015625,0.24311721324920654,-0.18753011524677277,0.5198310017585754
1667267059938724400,1.849724365234375,0.2492256760597229,-0.20157960057258606,0.5076140761375427
1667267059941122000,1.8521220703125,0.25350162386894226,-0.21623992919921875,0.4953971207141876
1667267059943519700,1.854519775390625,0.2596100866794586,-0.22479179501533508,0.47951510548591614
1667267059945917400,1.85691748046875,0.2638860046863556,-0.23273280262947083,0.46546560525894165
1667267059948315400,1.8593154296875,0.26816195249557495,-0.2376195788383484,0.44958359003067017
1667267059950713000,1.861713134765625,0.2748812735080719,-0.23884128034114838,0.4343124032020569
1667267059953110800,1.86411083984375,0.27854636311531067,-0.2363978922367096,0.41537612676620483
1667267059955508500,1.866508544921875,0.28160059452056885,-0.23151111602783203,0.39643988013267517
1667267059957906200,1.86890625,0.2858765125274658,-0.2235700935125351,0.3799470067024231
1667267059960304000,1.87130419921875,0.288930743932724,-0.21379654109477997,0.3567348122596741
1667267059962701800,1.873701904296875,0.2907632887363434,-0.20280128717422485,0.337798535823822
1667267059965099500,1.876099609375,0.29259583353996277,-0.18691925704479218,0.31825143098831177
1667267059967497200,1.878497314453125,0.29503923654556274,-0.1716480851173401,0.29748260974884033
1667267059969895000,1.88089501953125,0.29381752014160156,-0.15515519678592682,0.2742704153060913
1667267059972292900,1.88329296875,0.29259583353996277,-0.14049486815929413,0.25289076566696167
1667267059974690600,1.885690673828125,0.2907632887363434,-0.12766708433628082,0.23273280262947083
1667267059977088300,1.888088134765625,0.2895416021347046,-0.11239589750766754,0.21196399629116058
1667267059979486000,1.89048583984375,0.2852656841278076,-0.09651386737823486,0.19363857805728912
1667267059981883600,1.892883544921875,0.28037887811660767,-0.08307522535324097,0.17348061501979828
1667267059984281600,1.895281494140625,0.27915719151496887,-0.06902574002742767,0.1557660549879074
1667267059986679300,1.89767919921875,0.2773246467113495,-0.05497625470161438,0.13988402485847473
1667267059989077000,1.900076904296875,0.2742704153060913,-0.04153761267662048,0.12400199472904205
1667267059991474700,1.902474609375,0.2736595869064331,-0.029320668429136276,0.11239589750766754
1667267059993872600,1.90487255859375,0.26938363909721375,-0.015271181240677834,0.10323318839073181
1667267059996270300,1.907270263671875,0.26816195249557495,-0.0006108472589403391,0.09345962852239609
1667267059998668000,1.90966796875,0.26816195249557495,0.015271181240677834,0.08612946420907974
1667267060001065700,1.912065673828125,0.26632940769195557,0.03237490355968475,0.0781884491443634
1667267060003463400,1.91446337890625,0.2620534598827362,0.047646086663007736,0.07024743407964706
1667267060005861400,1.916861328125,0.2608317732810974,0.06413896381855011,0.06719319522380829
1667267060008259000,1.919259033203125,0.2583884000778198,0.08002099394798279,0.06352811306715012
1667267060010656800,1.92165673828125,0.25289076566696167,0.09651386737823486,0.05925218388438225
1667267060013054500,1.924054443359375,0.2498365342617035,0.11667182296514511,0.05986303091049194
1667267060015452200,1.9264521484375,0.24433889985084534,0.13744063675403595,0.06047387793660164
1667267060017850000,1.92885009765625,0.2357870489358902,0.1588202863931656,0.06047387793660164
1667267060020247800,1.931247802734375,0.23212195932865143,0.183865025639534,0.05986303091049194
1667267060022645500,1.9336455078125,0.22479179501533508,0.2107423096895218,0.05986303091049194
1667267060025043200,1.936043212890625,0.21807247400283813,0.23884128034114838,0.06352811306715012
1667267060027441000,1.93844091796875,0.2107423096895218,0.2724378705024719,0.06352811306715012
1667267060029838800,1.9408388671875,0.20646637678146362,0.3035911023616791,0.06352811306715012
1667267060032236500,1.943236572265625,0.1985253542661667,0.33474430441856384,0.06413896381855011
1667267060034634200,1.94563427734375,0.19363857805728912,0.3683409094810486,0.062306419014930725
1667267060037032000,1.948031982421875,0.18936264514923096,0.40132665634155273,0.05986303091049194
1667267060039429600,1.9504296875,0.18691925704479218,0.4312581717967987,0.056808795779943466
1667267060041827600,1.95282763671875,0.183865025639534,0.46241137385368347,0.05497625470161438
1667267060044225300,1.955225341796875,0.183865025639534,0.49295374751091003,0.0525328628718853
1667267060046623000,1.957623046875,0.1844758689403534,0.5265503525733948,0.04825693368911743
1667267060049020700,1.960020751953125,0.18691925704479218,0.5558710098266602,0.04214845970273018
1667267060051418600,1.962418701171875,0.18814095854759216,0.5858024954795837,0.03787253051996231
1667267060053816300,1.96481640625,0.19363857805728912,0.610236406326294,0.034818295389413834
1667267060056214000,1.967214111328125,0.1973036676645279,0.6358919739723206,0.026877280324697495
1667267060058611700,1.96961181640625,0.19913621246814728,0.660936713218689,0.023823043331503868
1667267060061009400,1.972009521484375,0.20402298867702484,0.684759795665741,0.01954711228609085
1667267060063407400,1.974407470703125,0.2089097648859024,0.7018635272979736,0.014049487188458443
1667267060065805000,1.97680517578125,0.2113531529903412,0.7214106321334839,0.011606098152697086
1667267060068202800,1.97920263671875,0.21196399629116058,0.7348492741584778,0.006108472589403391
1667267060070600400,1.981600341796875,0.21257483959197998,0.7427902817726135,0.0036650835536420345
1667267060072998100,1.983998046875,0.21318569779396057,0.7458444833755493,-0.0006108472589403391
1667267060075396000,1.98639599609375,0.2101314514875412,0.7476770281791687,-0.0018325417768210173
1667267060077793800,1.988793701171875,0.20524467527866364,0.7446228265762329,-0.004275931045413017
1667267060080191500,1.99119140625,0.19974705576896667,0.7360709309577942,-0.008551862090826035
1667267060082589200,1.993589111328125,0.19180603325366974,0.7281299233436584,-0.007941014133393764
1667267060084987000,1.99598681640625,0.1844758689403534,0.7128587365150452,-0.012216945178806782
1667267060087384800,1.998384765625,0.17775654792785645,0.6981984376907349,-0.015271181240677834
1667267060089782500,2.000782470703125,0.16859383881092072,0.6786513328552246,-0.01832541823387146
1667267060092180200,2.00318017578125,0.16248537600040436,0.6548282504081726,-0.023212196305394173
1667267060094578000,2.005577880859375,0.1563768982887268,0.6303943991661072,-0.02748812735080719
1667267060096976000,2.007975830078125,0.15026842057704926,0.6047387719154358,-0.03237490355968475
1667267060099373600,2.01037353515625,0.1435490995645523,0.5723638534545898,-0.038483377546072006
1667267060101771300,2.012771240234375,0.13805148005485535,0.5375455617904663,-0.04337015375494957
1667267060104169000,2.0151689453125,0.1301104724407196,0.5094466209411621,-0.04947862774133682
1667267060106566700,2.017566650390625,0.12278030067682266,0.4813476502895355,-0.05619794875383377
1667267060108964600,2.019964599609375,0.11483928561210632,0.45508119463920593,-0.06169557198882103
1667267060111362300,2.0223623046875,0.10689827054738998,0.4337015450000763,-0.0659715011715889
1667267060113760000,2.024760009765625,0.09956810623407364,0.41354358196258545,-0.07452336698770523
1667267060116157700,2.02715771484375,0.0916270911693573,0.39643988013267517,-0.08063183724880219
1667267060118555400,2.029555419921875,0.08307522535324097,0.38483378291130066,-0.08796200156211853
1667267060120953300,2.031953369140625,0.07330167293548584,0.3695625960826874,-0.09651386737823486
1667267060123351000,2.03435107421875,0.0653606578707695,0.36101073026657104,-0.10689827054738998
1667267060125748700,2.036748779296875,0.05741964280605316,0.3530697226524353,-0.11667182296514511
1667267060128146400,2.039146484375,0.047646086663007736,0.34451785683631897,-0.12705622613430023
1667267060130544000,2.041544189453125,0.038483377546072006,0.337798535823822,-0.13927318155765533
1667267060132942000,2.043942138671875,0.031153209507465363,0.33230090141296387,-0.15454435348510742
1667267060135339800,2.04633984375,0.024433890357613564,0.3268032968044281,-0.16615045070648193
1667267060137737500,2.048737548828125,0.01710372418165207,0.32008397579193115,-0.18081079423427582
1667267060140135200,2.05113525390625,0.009773556143045425,0.30847787857055664,-0.1948602795600891
1667267060142532900,2.053532958984375,0.0024433890357613564,0.29687178134918213,-0.208298921585083
1667267060144930800,2.055930908203125,-0.0012216945178806782,0.28160059452056885,-0.2235700935125351
1667267060147328500,2.05832861328125,-0.004275931045413017,0.2651077210903168,-0.23823043704032898
1667267060149726200,2.060726318359375,-0.008551862090826035,0.24372805655002594,-0.2486148327589035
1667267060152124000,2.0631240234375,-0.011606098152697086,0.22479179501533508,-0.2583884000778198
1667267060154521900,2.06552197265625,-0.012216945178806782,0.20524467527866364,-0.265718549489975
1667267060156919600,2.06791943359375,-0.011606098152697086,0.1850867122411728,-0.2742704153060913
1667267060159317200,2.070317138671875,-0.01038440316915512,0.16553960740566254,-0.28098973631858826
1667267060161715000,2.07271484375,-0.010995250195264816,0.1459924876689911,-0.28282228112220764
1667267060164112600,2.075112548828125,-0.009773556143045425,0.1301104724407196,-0.2870981991291046
1667267060166510600,2.077510498046875,-0.008551862090826035,0.11117420345544815,-0.2852656841278076
1667267060168908300,2.079908203125,-0.007330167107284069,0.09284878522157669,-0.28343313932418823
1667267060171306000,2.082305908203125,-0.006108472589403391,0.07330167293548584,-0.2773246467113495
1667267060173703700,2.08470361328125,-0.007330167107284069,0.056808795779943466,-0.2730487287044525
1667267060176101400,2.087101318359375,-0.0030542362947016954,0.04092676565051079,-0.26694026589393616
1667267060178499300,2.089499267578125,-0.004275931045413017,0.023823043331503868,-0.2608317732810974
1667267060180897000,2.09189697265625,-0.004886778071522713,0.006108472589403391,-0.2510582208633423
1667267060183294700,2.094294677734375,-0.006108472589403391,-0.01038440316915512,-0.24372805655002594
