time,seconds_elapsed,z,y,x
1667824889536209000,0.007208984375,-0.7583465576171875,-0.4515533447265625,0.0684356689453125
1667824889546216000,0.0172158203125,-0.7633819580078125,-0.473724365234375,0.062652587890625
1667824889556223700,0.0272236328125,-0.7700958251953125,-0.4870147705078125,0.0505218505859375
1667824889566232000,0.037232177734375,-0.7800445556640625,-0.48724365234375,0.05126953125
1667824889576238800,0.04723876953125,-0.801849365234375,-0.48553466796875,0.063385009765625
1667824889586247000,0.057246826171875,-0.8280792236328125,-0.4795074462890625,0.0758514404296875
1667824889596254700,0.067254638671875,-0.85064697265625,-0.467529296875,0.086029052734375
1667824889606262000,0.077261962890625,-0.8698577880859375,-0.4551239013671875,0.0916290283203125
1667824889616269800,0.087269775390625,-0.8813934326171875,-0.4447174072265625,0.0911407470703125
1667824889626276900,0.09727685546875,-0.8839111328125,-0.4354248046875,0.090179443359375
1667824889636285000,0.107284912109375,-0.878662109375,-0.433990478515625,0.0911865234375
1667824889646293000,0.11729296875,-0.876129150390625,-0.4435577392578125,0.0855712890625
1667824889656299800,0.1272998046875,-0.8775177001953125,-0.4510040283203125,0.07781982421875
1667824889666307800,0.137307861328125,-0.8834381103515625,-0.4559326171875,0.0718994140625
1667824889676315000,0.14731494140625,-0.8981170654296875,-0.4700469970703125,0.06793212890625
1667824889686323000,0.157322998046875,-0.91845703125,-0.4842529296875,0.06231689453125
1667824889696331000,0.1673310546875,-0.9391021728515625,-0.492889404296875,0.0514984130859375
1667824889706338000,0.177338134765625,-0.9609222412109375,-0.5030517578125,0.0495147705078125
1667824889716346000,0.18734619140625,-0.97601318359375,-0.5063934326171875,0.0518951416015625
1667824889726354000,0.19735400390625,-0.9852752685546875,-0.5062408447265625,0.0560150146484375
1667824889736361000,0.20736083984375,-1.001068115234375,-0.5095062255859375,0.0667266845703125
1667824889746368800,0.21736865234375,-1.042633056640625,-0.51629638671875,0.072418212890625
1667824889756376000,0.2273759765625,-1.093780517578125,-0.5201416015625,0.0877685546875
1667824889766383900,0.2373837890625,-1.1643218994140625,-0.5211944580078125,0.123077392578125
1667824889776392000,0.247391845703125,-1.231964111328125,-0.505462646484375,0.1725311279296875
1667824889786399000,0.25739892578125,-1.2722015380859375,-0.48968505859375,0.223114013671875
1667824889796407000,0.267406982421875,-1.2842254638671875,-0.4521331787109375,0.250579833984375
1667824889806413800,0.277413818359375,-1.2425537109375,-0.4423065185546875,0.27899169921875
1667824889816422000,0.287421875,-1.1359405517578125,-0.452239990234375,0.291015625
1667824889826430000,0.297429931640625,-0.98272705078125,-0.403167724609375,0.302642822265625
1667824889836437000,0.30743701171875,-0.7901458740234375,-0.3585968017578125,0.3017425537109375
1667824889846444800,0.31744482421875,-0.6744384765625,-0.3201904296875,0.2584686279296875
1667824889856452000,0.3274521484375,-0.669403076171875,-0.335693359375,0.1512908935546875
1667824889866460000,0.3374599609375,-0.8311004638671875,-0.4626617431640625,-0.062255859375
1667824889876468000,0.347468017578125,-0.9540863037109375,-0.53912353515625,-0.21319580078125
1667824889886474800,0.357474853515625,-0.905487060546875,-0.529510498046875,-0.258148193359375
1667824889896483000,0.367483154296875,-0.781463623046875,-0.4816436767578125,-0.1909332275390625
1667824889906489900,0.37748974609375,-0.703643798828125,-0.443389892578125,-0.0728607177734375
1667824889916498000,0.387497802734375,-0.63909912109375,-0.4139404296875,0.019256591796875
1667824889926505700,0.397505615234375,-0.649078369140625,-0.3717498779296875,0.059326171875
1667824889936513000,0.407512939453125,-0.693695068359375,-0.2833404541015625,0.1306915283203125
1667824889946520800,0.417520751953125,-0.7420501708984375,-0.18707275390625,0.190155029296875
1667824889956529000,0.42752880859375,-0.8499755859375,-0.121673583984375,0.178863525390625
1667824889966535700,0.43753564453125,-0.9720001220703125,-0.0612640380859375,0.1715087890625
1667824889976544000,0.4475439453125,-0.8996734619140625,-0.0709075927734375,0.17303466796875
1667824889986550800,0.45755078125,-0.8952178955078125,-0.1342315673828125,0.151153564453125
1667824889996558800,0.467558837890625,-0.8697662353515625,-0.1866302490234375,0.1363067626953125
1667824890006567000,0.47756689453125,-0.75262451171875,-0.1857147216796875,0.1643524169921875
1667824890016574000,0.487573974609375,-0.8370513916015625,-0.2275543212890625,0.1653289794921875
1667824890026582000,0.49758203125,-1.0153045654296875,-0.310211181640625,0.083587646484375
1667824890036588800,0.5075888671875,-1.11572265625,-0.3157501220703125,0.044952392578125
1667824890046597000,0.51759716796875,-1.2015380859375,-0.2945556640625,0.0726318359375
1667824890056605000,0.52760498046875,-1.2481231689453125,-0.30889892578125,0.1017303466796875
1667824890066612000,0.537612060546875,-1.1822967529296875,-0.35516357421875,0.135772705078125
1667824890076619800,0.547619873046875,-1.0658721923828125,-0.4031219482421875,0.186859130859375
1667824890086627800,0.5576279296875,-1.00732421875,-0.449493408203125,0.19921875
1667824890096635000,0.567634765625,-1.03558349609375,-0.4791717529296875,0.1844940185546875
1667824890106643000,0.577642822265625,-1.0735321044921875,-0.50177001953125,0.189544677734375
1667824890116650000,0.58764990234375,-0.9990234375,-0.514739990234375,0.1927032470703125
1667824890126658000,0.597657958984375,-0.9565277099609375,-0.5148162841796875,0.20428466796875
1667824890136665900,0.607665771484375,-0.9416046142578125,-0.5184173583984375,0.2163238525390625
1667824890146673000,0.6176728515625,-0.9082183837890625,-0.4889373779296875,0.2329559326171875
1667824890156680700,0.6276806640625,-0.8874053955078125,-0.4480743408203125,0.23516845703125
1667824890166688000,0.63768798828125,-0.8832244873046875,-0.407379150390625,0.241912841796875
1667824890176696600,0.647696533203125,-0.8844146728515625,-0.3828582763671875,0.24237060546875
1667824890186704400,0.657704345703125,-0.9025726318359375,-0.3784027099609375,0.2397003173828125
1667824890196711400,0.66771142578125,-0.910369873046875,-0.3784637451171875,0.2512664794921875
1667824890206719500,0.677719482421875,-0.889495849609375,-0.3798370361328125,0.259735107421875
1667824890216726300,0.687726318359375,-0.84185791015625,-0.3805999755859375,0.2437286376953125
1667824890226734300,0.697734375,-0.7711944580078125,-0.3798370361328125,0.21112060546875
1667824890236742400,0.707742431640625,-0.692169189453125,-0.3773651123046875,0.1818389892578125
1667824890246749400,0.71774951171875,-0.62579345703125,-0.3790130615234375,0.1634674072265625
1667824890256757500,0.727757568359375,-0.569366455078125,-0.3962249755859375,0.1674346923828125
1667824890266764300,0.737764404296875,-0.5443878173828125,-0.43341064453125,0.180633544921875
1667824890276772600,0.747772705078125,-0.5476226806640625,-0.4739532470703125,0.197662353515625
1667824890286780400,0.757780517578125,-0.563568115234375,-0.500152587890625,0.2244873046875
1667824890296787500,0.767787353515625,-0.5843963623046875,-0.5010833740234375,0.2619476318359375
1667824890306795300,0.777795166015625,-0.610198974609375,-0.4849853515625,0.3016510009765625
1667824890316803300,0.78780322265625,-0.6405792236328125,-0.4644927978515625,0.336273193359375
1667824890326810400,0.797810302734375,-0.6793975830078125,-0.4568328857421875,0.364715576171875
1667824890336818400,0.807818359375,-0.71966552734375,-0.4603729248046875,0.4014129638671875
1667824890346825500,0.817825439453125,-0.7667388916015625,-0.470001220703125,0.4472808837890625
1667824890356833500,0.82783349609375,-0.81353759765625,-0.496337890625,0.4798126220703125
1667824890366841300,0.83784130859375,-0.8574676513671875,-0.524993896484375,0.507171630859375
1667824890376848400,0.847848388671875,-0.898193359375,-0.548187255859375,0.541290283203125
1667824890386856200,0.857856201171875,-0.928558349609375,-0.568511962890625,0.583953857421875
1667824890396863500,0.867863525390625,-0.93267822265625,-0.5706939697265625,0.6179351806640625
1667824890406871300,0.877871337890625,-0.9146575927734375,-0.572845458984375,0.6313934326171875
1667824890416879400,0.88787939453125,-0.8735504150390625,-0.5771636962890625,0.6349639892578125
1667824890426886400,0.897886474609375,-0.8352203369140625,-0.58062744140625,0.63336181640625
1667824890436894500,0.90789453125,-0.8076171875,-0.577972412109375,0.6260528564453125
1667824890446901200,0.9179013671875,-0.774261474609375,-0.5713958740234375,0.6102142333984375
1667824890456909300,0.927909423828125,-0.74810791015625,-0.5582275390625,0.5755157470703125
1667824890466917600,0.937917724609375,-0.724761962890625,-0.540283203125,0.5435943603515625
1667824890476924400,0.94792431640625,-0.699676513671875,-0.521820068359375,0.5274200439453125
1667824890486932500,0.957932373046875,-0.688323974609375,-0.5133819580078125,0.5118408203125
1667824890496939500,0.967939453125,-0.675445556640625,-0.5157623291015625,0.498046875
1667824890506947600,0.977947509765625,-0.6522369384765625,-0.5140380859375,0.48834228515625
1667824890516955400,0.987955322265625,-0.6317596435546875,-0.5094146728515625,0.4783172607421875
1667824890526962400,0.99796240234375,-0.6120147705078125,-0.4981689453125,0.4705352783203125
1667824890536970500,1.007970458984375,-0.59661865234375,-0.4870147705078125,0.4663848876953125
1667824890546978600,1.017978515625,-0.5874786376953125,-0.481689453125,0.470367431640625
1667824890556985300,1.0279853515625,-0.5882415771484375,-0.479034423828125,0.4726715087890625
1667824890566993400,1.037993408203125,-0.591400146484375,-0.47283935546875,0.47247314453125
1667824890577000400,1.04800048828125,-0.589141845703125,-0.4638824462890625,0.4748687744140625
1667824890587008500,1.058008544921875,-0.584808349609375,-0.4535064697265625,0.477508544921875
1667824890597016300,1.068016357421875,-0.577178955078125,-0.448883056640625,0.475494384765625
1667824890607023400,1.0780234375,-0.5677947998046875,-0.4436798095703125,0.4693145751953125
1667824890617031400,1.088031494140625,-0.5572052001953125,-0.4335174560546875,0.4650726318359375
1667824890627038500,1.09803857421875,-0.54376220703125,-0.422943115234375,0.457122802734375
1667824890637046300,1.10804638671875,-0.5308837890625,-0.41424560546875,0.44635009765625
1667824890647054300,1.118054443359375,-0.5166778564453125,-0.404266357421875,0.44091796875
1667824890657061400,1.128061279296875,-0.510955810546875,-0.39984130859375,0.4326171875
1667824890667069400,1.1380693359375,-0.5084075927734375,-0.3957977294921875,0.4304962158203125
1667824890677076200,1.148076171875,-0.5049591064453125,-0.3948974609375,0.4327239990234375
1667824890687084500,1.15808447265625,-0.505859375,-0.4016571044921875,0.4278564453125
1667824890697092600,1.168092529296875,-0.5037078857421875,-0.4093780517578125,0.4171600341796875
1667824890707099400,1.178099365234375,-0.5003204345703125,-0.422637939453125,0.4120025634765625
1667824890717107500,1.188107421875,-0.5057373046875,-0.442047119140625,0.4117584228515625
1667824890727114500,1.198114501953125,-0.5198822021484375,-0.4535980224609375,0.4163970947265625
1667824890737122600,1.20812255859375,-0.5301055908203125,-0.4527435302734375,0.4277191162109375
1667824890747130400,1.21813037109375,-0.545562744140625,-0.45330810546875,0.4302825927734375
1667824890757137700,1.2281376953125,-0.5581817626953125,-0.4534912109375,0.4276275634765625
1667824890767145500,1.2381455078125,-0.5747833251953125,-0.4495697021484375,0.4288330078125
1667824890777152500,1.248152587890625,-0.5915069580078125,-0.4472198486328125,0.4360198974609375
1667824890787160300,1.258160400390625,-0.6055145263671875,-0.450775146484375,0.4433135986328125
1667824890797168400,1.26816845703125,-0.6197509765625,-0.4649200439453125,0.439849853515625
1667824890807175400,1.278175537109375,-0.6279449462890625,-0.4842529296875,0.4339141845703125
1667824890817183500,1.28818359375,-0.6238555908203125,-0.49761962890625,0.4369049072265625
1667824890827190300,1.298190185546875,-0.6235809326171875,-0.5060272216796875,0.443756103515625
1667824890837198600,1.308198486328125,-0.6422271728515625,-0.521820068359375,0.4531402587890625
1667824890847206400,1.318206298828125,-0.6753997802734375,-0.5462188720703125,0.4514923095703125
1667824890857213400,1.32821337890625,-0.698028564453125,-0.5622100830078125,0.4502105712890625
1667824890867221200,1.33822119140625,-0.7130584716796875,-0.569305419921875,0.45086669921875
1667824890877229600,1.3482294921875,-0.7133941650390625,-0.570831298828125,0.4478607177734375
1667824890887236400,1.358236328125,-0.7173919677734375,-0.5551910400390625,0.43365478515625
1667824890897244400,1.368244384765625,-0.7423553466796875,-0.53277587890625,0.41925048828125
1667824890907251500,1.37825146484375,-0.756256103515625,-0.5296173095703125,0.4090118408203125
1667824890917259500,1.388259521484375,-0.754791259765625,-0.53533935546875,0.4043731689453125
1667824890927267300,1.398267333984375,-0.742828369140625,-0.5441741943359375,0.4041290283203125
1667824890937274400,1.4082744140625,-0.7296295166015625,-0.55255126953125,0.4022674560546875
1667824890947282400,1.418282470703125,-0.724700927734375,-0.547119140625,0.4107513427734375
1667824890957289500,1.42828955078125,-0.7378082275390625,-0.536102294921875,0.4291534423828125
1667824890967297300,1.43829736328125,-0.7710113525390625,-0.5293731689453125,0.4471435546875
1667824890977305300,1.448305419921875,-0.8079986572265625,-0.5079803466796875,0.475677490234375
1667824890987312400,1.4583125,-0.8365478515625,-0.478485107421875,0.5014801025390625
1667824890997320400,1.468320556640625,-0.844818115234375,-0.4614715576171875,0.51617431640625
1667824891007327200,1.4783271484375,-0.85552978515625,-0.4611358642578125,0.5193328857421875
1667824891017335300,1.488335205078125,-0.8834075927734375,-0.47857666015625,0.511627197265625
1667824891027343600,1.498343505859375,-0.9176177978515625,-0.49969482421875,0.51300048828125
1667824891037350400,1.508350341796875,-0.946197509765625,-0.506134033203125,0.530426025390625
1667824891047358500,1.5183583984375,-0.9710540771484375,-0.482452392578125,0.5623321533203125
1667824891057365500,1.528365478515625,-0.9754791259765625,-0.4312744140625,0.624969482421875
1667824891067373600,1.53837353515625,-0.9547271728515625,-0.3968963623046875,0.680816650390625
1667824891077381400,1.54838134765625,-0.932647705078125,-0.4050445556640625,0.705902099609375
1667824891087388400,1.558388427734375,-0.932342529296875,-0.427001953125,0.7193756103515625
1667824891097396500,1.568396484375,-0.951629638671875,-0.4376983642578125,0.728546142578125
1667824891107404500,1.578404541015625,-0.9681549072265625,-0.44732666015625,0.7344970703125
1667824891117411300,1.588411376953125,-0.9684295654296875,-0.447998046875,0.735809326171875
1667824891127419400,1.59841943359375,-0.9454803466796875,-0.44171142578125,0.728729248046875
1667824891137426400,1.608426513671875,-0.8969573974609375,-0.4368133544921875,0.7030487060546875
1667824891147434500,1.6184345703125,-0.8278961181640625,-0.436798095703125,0.66265869140625
1667824891157442300,1.6284423828125,-0.7615814208984375,-0.444091796875,0.61431884765625
1667824891167449600,1.63844970703125,-0.704437255859375,-0.4495697021484375,0.5735931396484375
1667824891177457200,1.64845703125,-0.6619415283203125,-0.4478912353515625,0.545623779296875
1667824891187464000,1.6584638671875,-0.6298828125,-0.4528045654296875,0.527496337890625
1667824891197472000,1.668471923828125,-0.607208251953125,-0.46478271484375,0.513763427734375
1667824891207480000,1.67847998046875,-0.601409912109375,-0.475341796875,0.506103515625
1667824891217487000,1.688487060546875,-0.6197052001953125,-0.4755401611328125,0.5061187744140625
1667824891227495000,1.698494873046875,-0.660980224609375,-0.463623046875,0.5118560791015625
1667824891237502200,1.708502197265625,-0.700103759765625,-0.447418212890625,0.522491455078125
1667824891247510000,1.718510009765625,-0.7332000732421875,-0.4405059814453125,0.5309906005859375
1667824891257518000,1.72851806640625,-0.76116943359375,-0.43780517578125,0.528045654296875
1667824891267524900,1.73852490234375,-0.782745361328125,-0.42364501953125,0.5225830078125
1667824891277533000,1.748532958984375,-0.796600341796875,-0.4071807861328125,0.5154266357421875
1667824891287540000,1.7585400390625,-0.7887115478515625,-0.4035797119140625,0.5029144287109375
1667824891297548000,1.768548095703125,-0.7713165283203125,-0.416839599609375,0.4763031005859375
1667824891307555800,1.778555908203125,-0.7531585693359375,-0.4230804443359375,0.447052001953125
1667824891317563100,1.788563232421875,-0.7340545654296875,-0.4161834716796875,0.4275360107421875
1667824891327571000,1.798571044921875,-0.717742919921875,-0.413238525390625,0.4115142822265625
1667824891337578000,1.808577880859375,-0.7057952880859375,-0.421417236328125,0.3895111083984375
1667824891347585800,1.818585693359375,-0.6975250244140625,-0.428955078125,0.37469482421875
1667824891357594000,1.828593994140625,-0.694366455078125,-0.4313507080078125,0.376495361328125
1667824891367601000,1.838600830078125,-0.7021026611328125,-0.4340667724609375,0.386260986328125
1667824891377609000,1.84860888671875,-0.7089385986328125,-0.4352264404296875,0.400665283203125
1667824891387617000,1.858616943359375,-0.7209625244140625,-0.4325103759765625,0.4227294921875
1667824891397624000,1.8686240234375,-0.741058349609375,-0.4365081787109375,0.4557952880859375
1667824891407632100,1.878632080078125,-0.775421142578125,-0.4471435546875,0.4986724853515625
1667824891417639000,1.888638916015625,-0.7979888916015625,-0.448089599609375,0.5369873046875
1667824891427647200,1.898647216796875,-0.80523681640625,-0.43682861328125,0.5703582763671875
1667824891437655000,1.908655029296875,-0.803558349609375,-0.4262847900390625,0.59246826171875
1667824891447662000,1.918662109375,-0.7962799072265625,-0.42449951171875,0.5999603271484375
1667824891457670000,1.928669921875,-0.786468505859375,-0.422393798828125,0.603179931640625
1667824891467677200,1.93867724609375,-0.7761993408203125,-0.4120330810546875,0.6032562255859375
1667824891477685000,1.94868505859375,-0.7631072998046875,-0.3892669677734375,0.59649658203125
1667824891487693000,1.958693115234375,-0.74407958984375,-0.3557281494140625,0.5806427001953125
1667824891497700000,1.9687001953125,-0.7126007080078125,-0.3230743408203125,0.5615997314453125
1667824891507708200,1.978708251953125,-0.676513671875,-0.2968292236328125,0.53729248046875
1667824891517715000,1.98871484375,-0.6342926025390625,-0.2798309326171875,0.5140533447265625
1667824891527723000,1.998722900390625,-0.5959320068359375,-0.2744598388671875,0.493896484375
1667824891537730800,2.008730712890625,-0.56463623046875,-0.289215087890625,0.477020263671875
1667824891547738000,2.018738037109375,-0.55194091796875,-0.329925537109375,0.46417236328125
1667824891557746000,2.028745849609375,-0.55755615234375,-0.3786468505859375,0.4608917236328125
1667824891567753000,2.0387529296875,-0.568572998046875,-0.3983001708984375,0.4835205078125
1667824891577761000,2.048760986328125,-0.582733154296875,-0.3889617919921875,0.540252685546875
1667824891587769000,2.05876904296875,-0.62860107421875,-0.382537841796875,0.6038360595703125
1667824891597776000,2.06877587890625,-0.7203826904296875,-0.3912506103515625,0.646728515625
1667824891607784000,2.078783935546875,-0.8283538818359375,-0.3964996337890625,0.689361572265625
1667824891617792000,2.0887919921875,-0.9199371337890625,-0.376708984375,0.7398834228515625
1667824891627799000,2.098799072265625,-0.9975738525390625,-0.34100341796875,0.765625
1667824891637806800,2.108806884765625,-1.0365753173828125,-0.2976531982421875,0.7622528076171875
1667824891647814100,2.118814208984375,-1.0206146240234375,-0.26531982421875,0.7296600341796875
1667824891657822000,2.128822021484375,-0.95574951171875,-0.257049560546875,0.67303466796875
1667824891667830000,2.138830078125,-0.85504150390625,-0.2572174072265625,0.603271484375
1667824891677836800,2.1488369140625,-0.754608154296875,-0.2565460205078125,0.5282745361328125
1667824891687844900,2.158844970703125,-0.674591064453125,-0.2543487548828125,0.45428466796875
1667824891697852000,2.168851806640625,-0.6171875,-0.257171630859375,0.38720703125
1667824891707860000,2.17885986328125,-0.576019287109375,-0.274322509765625,0.3338775634765625
1667824891717868000,2.188867919921875,-0.5569305419921875,-0.2986602783203125,0.2947540283203125
1667824891727875000,2.198875,-0.5572509765625,-0.3162384033203125,0.2662811279296875
1667824891737883100,2.208883056640625,-0.5706787109375,-0.32403564453125,0.2544403076171875
1667824891747890000,2.218889892578125,-0.599151611328125,-0.3264007568359375,0.2577362060546875
1667824891757898000,2.22889794921875,-0.636077880859375,-0.331146240234375,0.2583160400390625
1667824891767906000,2.238906005859375,-0.6693878173828125,-0.3414306640625,0.2551116943359375
1667824891777913000,2.2489130859375,-0.698516845703125,-0.3531341552734375,0.2582550048828125
1667824891787921000,2.2589208984375,-0.7157440185546875,-0.3709869384765625,0.2552032470703125
1667824891797928200,2.26892822265625,-0.72784423828125,-0.391815185546875,0.2518463134765625
1667824891807936000,2.27893603515625,-0.73345947265625,-0.408782958984375,0.25250244140625
1667824891817944000,2.288944091796875,-0.737701416015625,-0.420654296875,0.25262451171875
1667824891827950800,2.298950927734375,-0.74566650390625,-0.4253387451171875,0.2464599609375
1667824891837959200,2.308959228515625,-0.7584991455078125,-0.4313201904296875,0.2407684326171875
1667824891847967000,2.318967041015625,-0.77923583984375,-0.4364013671875,0.23980712890625
1667824891857974000,2.32897412109375,-0.8076019287109375,-0.4395599365234375,0.2336883544921875
1667824891867981800,2.33898193359375,-0.8359222412109375,-0.435760498046875,0.2309722900390625
1667824891877989000,2.348989013671875,-0.858673095703125,-0.4342193603515625,0.23602294921875
1667824891887997000,2.358996826171875,-0.87091064453125,-0.4452667236328125,0.239227294921875
1667824891898005000,2.3690048828125,-0.8751068115234375,-0.4477081298828125,0.2470550537109375
1667824891908012000,2.379011962890625,-0.8809356689453125,-0.44476318359375,0.253265380859375
1667824891918020000,2.38902001953125,-0.890228271484375,-0.4531707763671875,0.2602996826171875
1667824891928027000,2.39902685546875,-0.9020843505859375,-0.466278076171875,0.2666778564453125
1667824891938035000,2.409034912109375,-0.911834716796875,-0.47052001953125,0.2828216552734375
1667824891948043000,2.41904296875,-0.9214019775390625,-0.465484619140625,0.3110809326171875
1667824891958050000,2.429050048828125,-0.94976806640625,-0.46746826171875,0.354034423828125
1667824891968058000,2.43905810546875,-1.0041656494140625,-0.484649658203125,0.3968048095703125
1667824891978065000,2.44906494140625,-1.0608062744140625,-0.5014801025390625,0.4439239501953125
1667824891988073200,2.4590732421875,-1.09814453125,-0.50030517578125,0.4971160888671875
1667824891998081000,2.4690810546875,-1.1107940673828125,-0.47808837890625,0.55889892578125
1667824892008088000,2.479088134765625,-1.10943603515625,-0.4512939453125,0.6064300537109375
1667824892018095900,2.489095947265625,-1.091522216796875,-0.4219207763671875,0.6336212158203125
1667824892028104200,2.499104248046875,-1.06878662109375,-0.3892059326171875,0.6436767578125
1667824892038111000,2.509111083984375,-1.034149169921875,-0.351837158203125,0.6337432861328125
1667824892048119000,2.519119140625,-0.9899139404296875,-0.319427490234375,0.6024627685546875
1667824892058126000,2.5291259765625,-0.9467010498046875,-0.309478759765625,0.543792724609375
1667824892068134100,2.539134033203125,-0.890838623046875,-0.309814453125,0.4791259765625
1667824892078142000,2.549141845703125,-0.826324462890625,-0.312530517578125,0.423858642578125
1667824892088149000,2.55914892578125,-0.78033447265625,-0.32733154296875,0.37445068359375
1667824892098157000,2.569156982421875,-0.7590789794921875,-0.346466064453125,0.34075927734375
1667824892108164000,2.5791640625,-0.7582855224609375,-0.3482208251953125,0.3329010009765625
1667824892118172000,2.589171875,-0.7698516845703125,-0.3405609130859375,0.341033935546875
1667824892128180000,2.599179931640625,-0.7943572998046875,-0.335784912109375,0.3574981689453125
1667824892138187000,2.60918701171875,-0.8221588134765625,-0.33526611328125,0.389068603515625
1667824892148195000,2.619195068359375,-0.865386962890625,-0.3368682861328125,0.4320068359375
1667824892158201900,2.629201904296875,-0.9227142333984375,-0.338531494140625,0.4722137451171875
1667824892168210000,2.6392099609375,-0.971221923828125,-0.336334228515625,0.516326904296875
1667824892178222300,2.649222412109375,-1.0039825439453125,-0.3267669677734375,0.5613861083984375
1667824892188229400,2.6592294921875,-1.025146484375,-0.31817626953125,0.6005706787109375
1667824892198237400,2.669237548828125,-1.0185089111328125,-0.313262939453125,0.619049072265625
1667824892208244200,2.679244140625,-0.97760009765625,-0.316680908203125,0.608001708984375
1667824892218252500,2.68925244140625,-0.8978271484375,-0.3376007080078125,0.57147216796875
1667824892228260400,2.69926025390625,-0.8077392578125,-0.3698577880859375,0.5322113037109375
1667824892238267400,2.709267333984375,-0.732452392578125,-0.389495849609375,0.498779296875
1667824892248275200,2.719275146484375,-0.68255615234375,-0.3996124267578125,0.473876953125
1667824892258283300,2.729283203125,-0.6575469970703125,-0.4125213623046875,0.458404541015625
1667824892268290300,2.739290283203125,-0.650482177734375,-0.4290008544921875,0.4417877197265625
1667824892278298400,2.74929833984375,-0.6590728759765625,-0.4457550048828125,0.42742919921875
1667824892288305400,2.759305419921875,-0.678802490234375,-0.455841064453125,0.4183807373046875
1667824892298313500,2.7693134765625,-0.7008819580078125,-0.4626007080078125,0.4105377197265625
1667824892308321500,2.779321533203125,-0.722381591796875,-0.4698028564453125,0.3988800048828125
1667824892318328300,2.789328369140625,-0.738067626953125,-0.469451904296875,0.3859100341796875
1667824892328336400,2.79933642578125,-0.7516632080078125,-0.4664154052734375,0.378631591796875
1667824892338343400,2.809343505859375,-0.76458740234375,-0.459014892578125,0.3713531494140625
1667824892348351500,2.8193515625,-0.772796630859375,-0.444122314453125,0.3672943115234375
1667824892358359300,2.829359375,-0.7744598388671875,-0.4352569580078125,0.3617706298828125
1667824892368366600,2.83936669921875,-0.767913818359375,-0.4383392333984375,0.3536376953125
1667824892378374400,2.84937451171875,-0.7595977783203125,-0.4444580078125,0.350311279296875
1667824892388381400,2.85938134765625,-0.763702392578125,-0.4511260986328125,0.34490966796875
1667824892398389200,2.86938916015625,-0.776519775390625,-0.4504241943359375,0.3444976806640625
1667824892408397300,2.879397216796875,-0.7858428955078125,-0.4384765625,0.3578948974609375
1667824892418404400,2.889404296875,-0.8004150390625,-0.4279327392578125,0.38275146484375
1667824892428412400,2.899412353515625,-0.8180999755859375,-0.4197845458984375,0.40716552734375
1667824892438419500,2.90941943359375,-0.83819580078125,-0.413909912109375,0.434417724609375
1667824892448427500,2.919427490234375,-0.8524017333984375,-0.403900146484375,0.46905517578125
1667824892458435300,2.929435302734375,-0.8543853759765625,-0.391571044921875,0.4999542236328125
1667824892468442400,2.9394423828125,-0.84442138671875,-0.3841705322265625,0.5218505859375
1667824892478450200,2.9494501953125,-0.8268280029296875,-0.3791961669921875,0.5418548583984375
1667824892488458500,2.95945849609375,-0.8150634765625,-0.374053955078125,0.56640625
1667824892498465300,2.96946533203125,-0.811614990234375,-0.3622283935546875,0.5896148681640625
1667824892508473300,2.979473388671875,-0.813812255859375,-0.344207763671875,0.609375
1667824892518480400,2.98948046875,-0.8130035400390625,-0.326202392578125,0.6195526123046875
1667824892528488400,2.999488525390625,-0.798004150390625,-0.3097991943359375,0.6185455322265625
1667824892538496500,3.00949658203125,-0.766265869140625,-0.289947509765625,0.6117095947265625
1667824892548503300,3.01950341796875,-0.7284088134765625,-0.26751708984375,0.5990142822265625
1667824892558511600,3.02951171875,-0.6909027099609375,-0.2573699951171875,0.579132080078125
1667824892568518400,3.039518310546875,-0.6541900634765625,-0.2678070068359375,0.5605926513671875
1667824892578526500,3.0495263671875,-0.6283111572265625,-0.289703369140625,0.5497894287109375
1667824892588534300,3.0595341796875,-0.614501953125,-0.302734375,0.5539398193359375
1667824892598541600,3.06954150390625,-0.618560791015625,-0.303131103515625,0.5765533447265625
1667824892608549400,3.07954931640625,-0.6441802978515625,-0.2976226806640625,0.6010894775390625
1667824892618556400,3.089556396484375,-0.697265625,-0.28741455078125,0.6245574951171875
1667824892628564500,3.099564453125,-0.7514495849609375,-0.267425537109375,0.6457061767578125
1667824892638572500,3.109572509765625,-0.7921295166015625,-0.2444000244140625,0.65521240234375
1667824892648579300,3.119579345703125,-0.81048583984375,-0.2252197265625,0.6479339599609375
1667824892658587400,3.12958740234375,-0.803497314453125,-0.2115020751953125,0.6262054443359375
1667824892668594400,3.139594482421875,-0.7748565673828125,-0.20965576171875,0.5861968994140625
1667824892678602500,3.1496025390625,-0.7208251953125,-0.2204132080078125,0.5358123779296875
1667824892688610300,3.1596103515625,-0.66015625,-0.2372589111328125,0.4837799072265625
1667824892698617300,3.169617431640625,-0.6102142333984375,-0.2467193603515625,0.4371795654296875
1667824892708625400,3.17962548828125,-0.5777740478515625,-0.25494384765625,0.3979034423828125
1667824892718633500,3.189633544921875,-0.569122314453125,-0.2686614990234375,0.3585052490234375
1667824892728640300,3.19964013671875,-0.5749053955078125,-0.28387451171875,0.3319091796875
1667824892738648300,3.2096484375,-0.5953369140625,-0.3020172119140625,0.3172149658203125
1667824892748655400,3.2196552734375,-0.6259002685546875,-0.3176422119140625,0.3058624267578125
1667824892758663400,3.229663330078125,-0.6536712646484375,-0.3246307373046875,0.3027496337890625
1667824892768671200,3.239671142578125,-0.6837310791015625,-0.333465576171875,0.3070526123046875
1667824892778678500,3.249678466796875,-0.71832275390625,-0.3490447998046875,0.3093109130859375
1667824892788686300,3.259686279296875,-0.7467803955078125,-0.36572265625,0.313262939453125
1667824892798693400,3.269693359375,-0.772003173828125,-0.377471923828125,0.32476806640625
1667824892808701200,3.279701171875,-0.7958984375,-0.38787841796875,0.33624267578125
1667824892818709200,3.289709228515625,-0.8133697509765625,-0.40301513671875,0.3338470458984375
1667824892828716300,3.29971630859375,-0.8246002197265625,-0.4166259765625,0.322357177734375
1667824892838724400,3.309724365234375,-0.8333892822265625,-0.4195098876953125,0.319244384765625
1667824892848731400,3.3197314453125,-0.84710693359375,-0.4111328125,0.32147216796875
1667824892858739500,3.329739501953125,-0.8662109375,-0.393035888671875,0.3218231201171875
1667824892868747500,3.33974755859375,-0.895294189453125,-0.3741607666015625,0.32550048828125
1667824892878754300,3.34975439453125,-0.9289093017578125,-0.355377197265625,0.3321533203125
1667824892888762400,3.359762451171875,-0.958587646484375,-0.345611572265625,0.3369598388671875
1667824892898769400,3.369769287109375,-0.976837158203125,-0.34771728515625,0.336883544921875
1667824892908777500,3.379777587890625,-0.972412109375,-0.3565216064453125,0.3294525146484375
1667824892918785300,3.389785400390625,-0.9477081298828125,-0.3720855712890625,0.3168792724609375
1667824892928792600,3.39979248046875,-0.90753173828125,-0.3902435302734375,0.3100128173828125
1667824892938800400,3.40980029296875,-0.8708343505859375,-0.4053192138671875,0.304718017578125
1667824892948808400,3.419808349609375,-0.845855712890625,-0.41973876953125,0.305633544921875
1667824892958815200,3.429815185546875,-0.827972412109375,-0.4349212646484375,0.313690185546875
1667824892968823600,3.439823486328125,-0.8311004638671875,-0.4499053955078125,0.3274383544921875
1667824892978830300,3.449830322265625,-0.8455047607421875,-0.4578857421875,0.3378753662109375
1667824892988838400,3.45983837890625,-0.8606414794921875,-0.4522857666015625,0.3526763916015625
1667824892998846200,3.46984619140625,-0.8695831298828125,-0.4453582763671875,0.3728790283203125
1667824893008853500,3.479853515625,-0.86993408203125,-0.4367523193359375,0.3791046142578125
1667824893018861300,3.489861328125,-0.8665618896484375,-0.423828125,0.380950927734375
1667824893028868400,3.499868408203125,-0.8742828369140625,-0.4282379150390625,0.37261962890625
1667824893038876400,3.50987646484375,-0.8897247314453125,-0.4509124755859375,0.3575592041015625
1667824893048884500,3.519884521484375,-0.9151763916015625,-0.4945068359375,0.334136962890625
1667824893058891300,3.529891357421875,-0.924652099609375,-0.5236053466796875,0.3271942138671875
1667824893068899300,3.5398994140625,-0.9033050537109375,-0.4947662353515625,0.351837158203125
1667824893078906400,3.54990625,-0.882171630859375,-0.436187744140625,0.408660888671875
1667824893088914400,3.55991455078125,-0.908447265625,-0.4008331298828125,0.4797821044921875
1667824893098922500,3.569922607421875,-0.9902801513671875,-0.4018707275390625,0.546539306640625
1667824893108929300,3.57992919921875,-1.0888824462890625,-0.40081787109375,0.5985565185546875
1667824893118937600,3.5899375,-1.1783294677734375,-0.3691253662109375,0.646514892578125
1667824893128944400,3.5999443359375,-1.23828125,-0.33221435546875,0.68536376953125
1667824893138952400,3.609952392578125,-1.2422027587890625,-0.3018035888671875,0.7015228271484375
1667824893148960300,3.619960205078125,-1.1971893310546875,-0.28631591796875,0.68701171875
1667824893158967600,3.629967529296875,-1.1091156005859375,-0.2933349609375,0.656951904296875
1667824893168975400,3.639975341796875,-1.0061798095703125,-0.3276519775390625,0.6138153076171875
1667824893178978000,3.64997802734375,-0.9191741943359375,-0.3719482421875,0.5715789794921875
1667824893188986000,3.659986083984375,-0.8646240234375,-0.406005859375,0.537353515625
1667824893198994000,3.669993896484375,-0.8424224853515625,-0.427703857421875,0.513214111328125
1667824893209001000,3.6800009765625,-0.850982666015625,-0.4483489990234375,0.503692626953125
1667824893219009000,3.690009033203125,-0.8774871826171875,-0.4547271728515625,0.4998626708984375
1667824893229017000,3.70001708984375,-0.902374267578125,-0.4473114013671875,0.4973907470703125
1667824893239023900,3.71002392578125,-0.9075775146484375,-0.4380035400390625,0.480499267578125
1667824893249032000,3.720031982421875,-0.8926849365234375,-0.43328857421875,0.446929931640625
1667824893259039000,3.7300390625,-0.8574066162109375,-0.4268646240234375,0.413177490234375
1667824893269047000,3.740047119140625,-0.812652587890625,-0.4276580810546875,0.378509521484375
1667824893279055000,3.75005517578125,-0.7626495361328125,-0.4378204345703125,0.3487091064453125
1667824893289062100,3.760062255859375,-0.733245849609375,-0.44482421875,0.3233489990234375
1667824893299070200,3.7700703125,-0.719390869140625,-0.442901611328125,0.3080596923828125
1667824893309077000,3.780076904296875,-0.710601806640625,-0.444000244140625,0.30035400390625
1667824893319085000,3.7900849609375,-0.7011871337890625,-0.45574951171875,0.287445068359375
1667824893329092900,3.8000927734375,-0.7002410888671875,-0.4638214111328125,0.2699127197265625
1667824893339100200,3.81010009765625,-0.71234130859375,-0.465789794921875,0.2650146484375
1667824893349108000,3.82010791015625,-0.72540283203125,-0.45782470703125,0.2784576416015625
1667824893359115000,3.830114990234375,-0.744598388671875,-0.4581756591796875,0.2931671142578125
1667824893369123000,3.840123046875,-0.7637481689453125,-0.466217041015625,0.3203125
1667824893379131100,3.850131103515625,-0.7852783203125,-0.4725341796875,0.3421173095703125
1667824893389138000,3.860137939453125,-0.8060455322265625,-0.4817047119140625,0.369110107421875
1667824893399146000,3.87014599609375,-0.82708740234375,-0.4986114501953125,0.39697265625
1667824893409154000,3.880154052734375,-0.84918212890625,-0.514251708984375,0.4284515380859375
1667824893419161000,3.8901611328125,-0.8742218017578125,-0.5184326171875,0.46807861328125
1667824893429169000,3.9001689453125,-0.9053192138671875,-0.50860595703125,0.49951171875
1667824893439176200,3.91017626953125,-0.9419708251953125,-0.4884796142578125,0.526214599609375
1667824893449184000,3.92018408203125,-0.97259521484375,-0.4654541015625,0.55169677734375
1667824893459191000,3.93019091796875,-1.00390625,-0.4446258544921875,0.568389892578125
1667824893469198800,3.94019873046875,-1.0214996337890625,-0.4103851318359375,0.5794677734375
1667824893479207000,3.95020703125,-1.0264739990234375,-0.366943359375,0.5771636962890625
1667824893489214000,3.9602138671875,-1.0122222900390625,-0.3302764892578125,0.5608673095703125
1667824893499222000,3.970221923828125,-0.9766845703125,-0.30462646484375,0.535400390625
1667824893509229800,3.980229736328125,-0.91864013671875,-0.2868804931640625,0.5091094970703125
1667824893519237000,3.990237060546875,-0.8590545654296875,-0.2757110595703125,0.4833526611328125
1667824893529245000,4.000244873046875,-0.804290771484375,-0.272918701171875,0.462158203125
1667824893539253000,4.0102529296875,-0.7623748779296875,-0.28253173828125,0.44720458984375
1667824893549259800,4.020259765625,-0.737457275390625,-0.2947540283203125,0.4402618408203125
1667824893559268000,4.03026806640625,-0.7372283935546875,-0.31060791015625,0.4407196044921875
1667824893569275000,4.04027490234375,-0.7564849853515625,-0.3238677978515625,0.4488983154296875
1667824893579283000,4.050282958984375,-0.7889556884765625,-0.32708740234375,0.4580230712890625
1667824893589291000,4.060291015625,-0.818206787109375,-0.315093994140625,0.4700469970703125
1667824893599298000,4.070298095703125,-0.8533172607421875,-0.2962188720703125,0.4792327880859375
1667824893609306000,4.08030615234375,-0.870697021484375,-0.2728271484375,0.4849700927734375
1667824893619313000,4.09031298828125,-0.8626556396484375,-0.2482452392578125,0.482757568359375
1667824893629321200,4.1003212890625,-0.82928466796875,-0.2369842529296875,0.465667724609375
1667824893639329000,4.1103291015625,-0.768829345703125,-0.2389678955078125,0.43341064453125
1667824893649336000,4.120336181640625,-0.70123291015625,-0.242431640625,0.39373779296875
1667824893659344000,4.13034375,-0.648406982421875,-0.24017333984375,0.35906982421875
1667824893669351200,4.14035107421875,-0.616668701171875,-0.2334442138671875,0.3273468017578125
1667824893679359000,4.15035888671875,-0.5989227294921875,-0.2317657470703125,0.292877197265625
1667824893689367000,4.160366943359375,-0.5890350341796875,-0.2349700927734375,0.265472412109375
1667824893699374000,4.1703740234375,-0.5782012939453125,-0.24169921875,0.2361602783203125
1667824893709382100,4.180382080078125,-0.5623321533203125,-0.2506103515625,0.2036285400390625
1667824893719389000,4.190388916015625,-0.5420989990234375,-0.257354736328125,0.1747894287109375
1667824893729397000,4.20039697265625,-0.525054931640625,-0.265869140625,0.1546478271484375
1667824893739404800,4.21040478515625,-0.5233001708984375,-0.2813262939453125,0.134674072265625
1667824893749412000,4.220412109375,-0.5365753173828125,-0.3011932373046875,0.1255645751953125
1667824893759420000,4.230419921875,-0.564910888671875,-0.321502685546875,0.1253204345703125
1667824893769427000,4.240427001953125,-0.6005096435546875,-0.3428192138671875,0.123809814453125
1667824893779435000,4.25043505859375,-0.6337432861328125,-0.358489990234375,0.1290283203125
1667824893789443000,4.260443115234375,-0.6671600341796875,-0.3705902099609375,0.1324310302734375
1667824893799449900,4.270449951171875,-0.7016143798828125,-0.37921142578125,0.1497344970703125
1667824893809458000,4.2804580078125,-0.736572265625,-0.38885498046875,0.1723785400390625
1667824893819466200,4.29046630859375,-0.7693328857421875,-0.40240478515625,0.1832275390625
1667824893829473000,4.30047314453125,-0.800933837890625,-0.41497802734375,0.2021026611328125
1667824893839481000,4.310481201171875,-0.82464599609375,-0.42962646484375,0.215240478515625
1667824893849488100,4.320488037109375,-0.83575439453125,-0.438323974609375,0.220855712890625
1667824893859496200,4.33049609375,-0.8462677001953125,-0.4371337890625,0.231475830078125
1667824893869504000,4.34050390625,-0.8653106689453125,-0.4385528564453125,0.24786376953125
1667824893879511000,4.350510986328125,-0.885955810546875,-0.43798828125,0.2554168701171875
1667824893889519000,4.36051904296875,-0.9071807861328125,-0.430633544921875,0.2607574462890625
1667824893899526100,4.370526123046875,-0.9356842041015625,-0.43438720703125,0.2633514404296875
1667824893909534000,4.380533935546875,-0.9612579345703125,-0.451385498046875,0.2627410888671875
1667824893919542000,4.3905419921875,-0.975311279296875,-0.471160888671875,0.2605743408203125
1667824893929549000,4.400549072265625,-0.983001708984375,-0.4953460693359375,0.2664031982421875
1667824893939557000,4.41055712890625,-0.9870758056640625,-0.522125244140625,0.2870330810546875
1667824893949564000,4.42056396484375,-0.9994964599609375,-0.5496063232421875,0.3085174560546875
1667824893959572000,4.430572021484375,-1.0154571533203125,-0.5662384033203125,0.3424530029296875
1667824893969580000,4.440580078125,-1.038299560546875,-0.568328857421875,0.366912841796875
1667824893979587000,4.450587158203125,-1.0893096923828125,-0.569793701171875,0.3910675048828125
1667824893989595000,4.460594970703125,-1.1087799072265625,-0.556732177734375,0.4259185791015625
1667824893999602200,4.470602294921875,-1.1190032958984375,-0.5217437744140625,0.454376220703125
1667824894009610000,4.48060986328125,-1.1154632568359375,-0.481353759765625,0.46710205078125
1667824894019618000,4.4906181640625,-1.09417724609375,-0.4411773681640625,0.4594573974609375
1667824894029624800,4.500624755859375,-1.063140869140625,-0.400543212890625,0.4431915283203125
1667824894039633200,4.510633056640625,-1.0237884521484375,-0.37225341796875,0.419586181640625
1667824894049641000,4.520640869140625,-0.98114013671875,-0.361328125,0.37933349609375
1667824894059648000,4.53064794921875,-0.94012451171875,-0.3690338134765625,0.337921142578125
1667824894069655800,4.54065576171875,-0.909942626953125,-0.3865966796875,0.3029022216796875
1667824894079663000,4.5506630859375,-0.885101318359375,-0.393707275390625,0.293548583984375
1667824894089671000,4.5606708984375,-0.8658447265625,-0.399993896484375,0.2940521240234375
1667824894099678000,4.570677978515625,-0.852783203125,-0.4039154052734375,0.3065185546875
1667824894109686000,4.58068603515625,-0.851959228515625,-0.4064788818359375,0.3206634521484375
1667824894119694000,4.590694091796875,-0.871612548828125,-0.414459228515625,0.33319091796875
1667824894129700900,4.600700927734375,-0.891693115234375,-0.4136962890625,0.3684234619140625
1667824894139709000,4.610708984375,-0.9095458984375,-0.4165496826171875,0.4028778076171875
1667824894149717000,4.620717041015625,-0.9262237548828125,-0.4176025390625,0.4316253662109375
1667824894159724000,4.63072412109375,-0.9381866455078125,-0.402313232421875,0.4564666748046875
1667824894169732000,4.640732177734375,-0.9274749755859375,-0.3795928955078125,0.4630126953125
1667824894179739100,4.6507392578125,-0.896270751953125,-0.3741912841796875,0.4483795166015625
1667824894189747500,4.66074755859375,-0.846466064453125,-0.3917999267578125,0.418670654296875
1667824894199755300,4.67075537109375,-0.7920684814453125,-0.41558837890625,0.383087158203125
1667824894209762300,4.68076220703125,-0.76092529296875,-0.43243408203125,0.3498382568359375
1667824894219770000,4.69077001953125,-0.7555999755859375,-0.44671630859375,0.3277435302734375
1667824894229777400,4.70077734375,-0.7701416015625,-0.4676666259765625,0.314849853515625
1667824894239785200,4.71078515625,-0.789215087890625,-0.4825592041015625,0.3107452392578125
1667824894249793300,4.720793212890625,-0.8080596923828125,-0.4917449951171875,0.3141632080078125
1667824894259800300,4.73080029296875,-0.8258819580078125,-0.4981842041015625,0.3152618408203125
1667824894269808400,4.740808349609375,-0.8359832763671875,-0.4979705810546875,0.3134918212890625
1667824894279815200,4.750815185546875,-0.8326263427734375,-0.4954376220703125,0.3022918701171875
1667824894289823200,4.7608232421875,-0.817169189453125,-0.5027313232421875,0.2885284423828125
1667824894299831000,4.7708310546875,-0.791351318359375,-0.5166473388671875,0.26922607421875
1667824894309838300,4.78083837890625,-0.7711029052734375,-0.534942626953125,0.249114990234375
1667824894319846100,4.79084619140625,-0.75494384765625,-0.5498199462890625,0.2357025146484375
1667824894329853200,4.800853271484375,-0.7500457763671875,-0.5567626953125,0.22406005859375
1667824894339861200,4.810861328125,-0.763397216796875,-0.5588226318359375,0.2214202880859375
1667824894349869300,4.820869384765625,-0.7819366455078125,-0.55694580078125,0.23193359375
1667824894359876000,4.8308759765625,-0.8043365478515625,-0.5631561279296875,0.2420654296875
1667824894369884200,4.84088427734375,-0.822540283203125,-0.5701904296875,0.2548370361328125
1667824894379891200,4.85089111328125,-0.8411407470703125,-0.577789306640625,0.273773193359375
1667824894389899300,4.860899169921875,-0.859039306640625,-0.5797576904296875,0.3045654296875
1667824894399907300,4.8709072265625,-0.8871002197265625,-0.5802764892578125,0.3377532958984375
1667824894409914400,4.880914306640625,-0.925323486328125,-0.5836029052734375,0.366180419921875
1667824894419922400,4.89092236328125,-0.967041015625,-0.58807373046875,0.3927459716796875
1667824894429929200,4.90092919921875,-1.004547119140625,-0.577911376953125,0.432281494140625
1667824894439937300,4.910937255859375,-1.0395965576171875,-0.5471038818359375,0.46978759765625
1667824894449945000,4.920945068359375,-1.0592041015625,-0.5110015869140625,0.4998016357421875
1667824894459952400,4.930952392578125,-1.0592803955078125,-0.4767913818359375,0.52337646484375
1667824894469960200,4.940960205078125,-1.0469818115234375,-0.444976806640625,0.541748046875
1667824894479967200,4.95096728515625,-1.0216217041015625,-0.41656494140625,0.5544586181640625
1667824894489975300,4.960975341796875,-0.9799041748046875,-0.3925628662109375,0.5588531494140625
1667824894499983400,4.9709833984375,-0.9328155517578125,-0.3668060302734375,0.5532073974609375
1667824894509990100,4.980990234375,-0.8926849365234375,-0.3442840576171875,0.53802490234375
1667824894519998200,4.990998291015625,-0.85369873046875,-0.3224029541015625,0.51953125
1667824894530006300,5.00100634765625,-0.8074951171875,-0.29949951171875,0.4995574951171875
1667824894540013300,5.011013427734375,-0.7574462890625,-0.27923583984375,0.4738006591796875
1667824894550021000,5.021021240234375,-0.7080841064453125,-0.2679595947265625,0.4412078857421875
1667824894560028400,5.0310283203125,-0.6589813232421875,-0.265960693359375,0.410247802734375
1667824894570036200,5.0410361328125,-0.6171722412109375,-0.2706146240234375,0.3863525390625
1667824894580043300,5.051043212890625,-0.58734130859375,-0.2903594970703125,0.3577880859375
1667824894590051000,5.061051025390625,-0.57513427734375,-0.3103790283203125,0.3365478515625
1667824894600059400,5.071059326171875,-0.5801544189453125,-0.3140716552734375,0.33258056640625
1667824894610066200,5.081066162109375,-0.601898193359375,-0.317535400390625,0.326019287109375
1667824894620074200,5.09107421875,-0.6298065185546875,-0.32550048828125,0.319549560546875
1667824894630082300,5.101082275390625,-0.6522369384765625,-0.3374481201171875,0.318572998046875
1667824894640089300,5.11108935546875,-0.676849365234375,-0.345550537109375,0.3264007568359375
1667824894650097400,5.121097412109375,-0.7073516845703125,-0.346832275390625,0.3485565185546875
1667824894660104200,5.131104248046875,-0.7485198974609375,-0.3463592529296875,0.37030029296875
1667824894670112300,5.1411123046875,-0.79364013671875,-0.3493804931640625,0.3847808837890625
1667824894680120300,5.151120361328125,-0.832733154296875,-0.3629302978515625,0.3923492431640625
1667824894690127400,5.16112744140625,-0.86285400390625,-0.3611602783203125,0.401611328125
1667824894700135200,5.17113525390625,-0.8819122314453125,-0.33990478515625,0.40106201171875
1667824894710142500,5.181142578125,-0.88006591796875,-0.316558837890625,0.3868560791015625
1667824894720150300,5.191150390625,-0.860931396484375,-0.303192138671875,0.357147216796875
1667824894730158300,5.201158447265625,-0.8232574462890625,-0.2957763671875,0.318572998046875
1667824894740165000,5.2111650390625,-0.7759552001953125,-0.2908172607421875,0.2829132080078125
1667824894750173400,5.22117333984375,-0.72686767578125,-0.2871551513671875,0.2569427490234375
1667824894760180200,5.23118017578125,-0.6824188232421875,-0.292236328125,0.235870361328125
1667824894770188300,5.241188232421875,-0.649658203125,-0.3045196533203125,0.2140350341796875
1667824894780196000,5.251196044921875,-0.63067626953125,-0.3202056884765625,0.19781494140625
1667824894790203400,5.261203369140625,-0.62255859375,-0.3412322998046875,0.181243896484375
1667824894800211200,5.271211181640625,-0.6306610107421875,-0.3597412109375,0.17205810546875
1667824894810218200,5.28121826171875,-0.6550445556640625,-0.3676300048828125,0.17486572265625
1667824894820226300,5.291226318359375,-0.689788818359375,-0.3737945556640625,0.1820526123046875
1667824894830234400,5.301234375,-0.7201690673828125,-0.3857574462890625,0.186279296875
1667824894840241200,5.3112412109375,-0.7380828857421875,-0.4027099609375,0.1889190673828125
1667824894850249200,5.321249267578125,-0.74761962890625,-0.41680908203125,0.1950836181640625
1667824894860256300,5.33125634765625,-0.7491607666015625,-0.4347381591796875,0.1998291015625
1667824894870264300,5.341264404296875,-0.747283935546875,-0.4576873779296875,0.2028656005859375
1667824894880272100,5.351272216796875,-0.7498779296875,-0.48193359375,0.2108612060546875
1667824894890279200,5.361279052734375,-0.7601470947265625,-0.500946044921875,0.2240447998046875
1667824894900287200,5.371287353515625,-0.780303955078125,-0.50799560546875,0.24749755859375
1667824894910294300,5.381294189453125,-0.8197021484375,-0.5181427001953125,0.2686920166015625
1667824894920302000,5.391302001953125,-0.86431884765625,-0.5313568115234375,0.292266845703125
1667824894930310100,5.40131005859375,-0.9168243408203125,-0.5469207763671875,0.316070556640625
1667824894940317200,5.411317138671875,-0.962890625,-0.5641632080078125,0.3376007080078125
1667824894950325200,5.4213251953125,-0.996826171875,-0.5787506103515625,0.3525543212890625
1667824894960332000,5.43133203125,-1.01629638671875,-0.5882568359375,0.357757568359375
1667824894970340400,5.44134033203125,-1.024017333984375,-0.5905609130859375,0.3596954345703125
1667824894980348400,5.451348388671875,-1.0269317626953125,-0.5845947265625,0.363128662109375
1667824894990355200,5.461355224609375,-1.0233154296875,-0.5723114013671875,0.3700714111328125
1667824895000363300,5.47136328125,-1.0225982666015625,-0.5570526123046875,0.37188720703125
1667824895010371300,5.481371337890625,-1.0226593017578125,-0.5401611328125,0.3659820556640625
1667824895020378400,5.49137841796875,-1.030853271484375,-0.5179595947265625,0.3699188232421875
1667824895030386200,5.50138623046875,-1.0257415771484375,-0.49078369140625,0.369476318359375
1667824895040393500,5.5113935546875,-1.0116729736328125,-0.4604644775390625,0.3720703125
1667824895050401300,5.5214013671875,-0.9976806640625,-0.428985595703125,0.3730316162109375
1667824895060409300,5.531409423828125,-0.9748077392578125,-0.4039764404296875,0.366973876953125
1667824895070416100,5.541416015625,-0.941680908203125,-0.3734130859375,0.3621063232421875
1667824895080424200,5.551424072265625,-0.9114990234375,-0.3425140380859375,0.3547515869140625
1667824895090431200,5.56143115234375,-0.88970947265625,-0.3293914794921875,0.343994140625
1667824895100439300,5.571439208984375,-0.87811279296875,-0.33917236328125,0.3179473876953125
1667824895110447000,5.581447021484375,-0.8691864013671875,-0.3598175048828125,0.296630859375
1667824895120454400,5.591454345703125,-0.8558807373046875,-0.38201904296875,0.2835693359375
1667824895130462200,5.601462158203125,-0.8408203125,-0.3929901123046875,0.280059814453125
1667824895140469200,5.61146923828125,-0.8347625732421875,-0.3865814208984375,0.288604736328125
1667824895150477000,5.62147705078125,-0.8324432373046875,-0.371795654296875,0.3128662109375
1667824895160485400,5.6314853515625,-0.846466064453125,-0.37310791015625,0.346160888671875
1667824895170492200,5.6414921875,-0.887054443359375,-0.3968505859375,0.3836517333984375
1667824895180500500,5.65150048828125,-0.950714111328125,-0.4275360107421875,0.430694580078125
1667824895190507500,5.661507568359375,-1.0053558349609375,-0.4454498291015625,0.47882080078125
1667824895200515600,5.671515625,-1.0500030517578125,-0.443603515625,0.5230560302734375
1667824895210523600,5.681523681640625,-1.0875701904296875,-0.4318084716796875,0.55242919921875
1667824895220530400,5.691530517578125,-1.093414306640625,-0.415283203125,0.566162109375
1667824895230538500,5.70153857421875,-1.0551300048828125,-0.400054931640625,0.563232421875
1667824895240545500,5.711545654296875,-0.97802734375,-0.396942138671875,0.5334014892578125
1667824895250553600,5.7215537109375,-0.8880615234375,-0.4089508056640625,0.483673095703125
1667824895260561400,5.7315615234375,-0.81256103515625,-0.4246826171875,0.43817138671875
1667824895270568700,5.741568603515625,-0.757965087890625,-0.432525634765625,0.3988189697265625
1667824895280576500,5.751576416015625,-0.717498779296875,-0.4331207275390625,0.37176513671875
1667824895290583600,5.76158349609375,-0.69122314453125,-0.4307861328125,0.3492431640625
1667824895300591400,5.77159130859375,-0.679412841796875,-0.4318084716796875,0.3270263671875
1667824895310599700,5.781599609375,-0.6756134033203125,-0.434906005859375,0.313720703125
1667824895320606500,5.7916064453125,-0.6769561767578125,-0.4439849853515625,0.303802490234375
1667824895330614500,5.801614501953125,-0.6784210205078125,-0.46136474609375,0.2901763916015625
1667824895340621600,5.81162158203125,-0.675567626953125,-0.475311279296875,0.280975341796875
1667824895350629600,5.821629638671875,-0.67974853515625,-0.4850921630859375,0.2685089111328125
1667824895360637400,5.831637451171875,-0.686553955078125,-0.4912109375,0.2566680908203125
1667824895370644500,5.84164453125,-0.6874542236328125,-0.49462890625,0.245513916015625
1667824895380652500,5.851652587890625,-0.6850128173828125,-0.4982452392578125,0.237213134765625
1667824895390659600,5.86165966796875,-0.69427490234375,-0.50408935546875,0.23065185546875
1667824895400667400,5.87166748046875,-0.701934814453125,-0.50421142578125,0.23028564453125
1667824895410675500,5.881675537109375,-0.7125396728515625,-0.507720947265625,0.2290496826171875
1667824895420682500,5.8916826171875,-0.7270050048828125,-0.5191650390625,0.231903076171875
1667824895430690600,5.901690673828125,-0.7503662109375,-0.5287322998046875,0.2368316650390625
1667824895440698600,5.91169873046875,-0.7736663818359375,-0.5273590087890625,0.259429931640625
1667824895450705400,5.921705322265625,-0.807952880859375,-0.5220489501953125,0.2885284423828125
1667824895460713500,5.93171337890625,-0.8445281982421875,-0.51690673828125,0.326690673828125
1667824895470720500,5.941720458984375,-0.88330078125,-0.5126953125,0.36029052734375
1667824895480728300,5.951728271484375,-0.917694091796875,-0.501739501953125,0.384735107421875
1667824895490735600,5.961735595703125,-0.9442291259765625,-0.4788970947265625,0.4136810302734375
1667824895500743400,5.971743408203125,-0.9592132568359375,-0.4575653076171875,0.4320831298828125
1667824895510751500,5.98175146484375,-0.9571075439453125,-0.439239501953125,0.443756103515625
1667824895520758300,5.99175830078125,-0.943695068359375,-0.41229248046875,0.4599151611328125
1667824895530766600,6.0017666015625,-0.928802490234375,-0.380462646484375,0.476898193359375
1667824895540774700,6.011774658203125,-0.9109039306640625,-0.354339599609375,0.476959228515625
1667824895550781400,6.021781494140625,-0.8810577392578125,-0.3359832763671875,0.4707794189453125
1667824895560789500,6.03178955078125,-0.833251953125,-0.3256988525390625,0.4671783447265625
1667824895570796500,6.041796630859375,-0.78436279296875,-0.3183441162109375,0.46441650390625
1667824895580804600,6.0518046875,-0.7434844970703125,-0.3226318359375,0.454254150390625
1667824895590812400,6.0618125,-0.709503173828125,-0.343963623046875,0.4488372802734375
1667824895600819700,6.07181982421875,-0.69012451171875,-0.3779144287109375,0.4523468017578125
1667824895610827500,6.08182763671875,-0.690185546875,-0.413330078125,0.4598236083984375
1667824895620834600,6.09183447265625,-0.7150115966796875,-0.430877685546875,0.480194091796875
1667824895630842400,6.10184228515625,-0.747802734375,-0.429046630859375,0.5081024169921875
1667824895640850400,6.111850341796875,-0.77996826171875,-0.42193603515625,0.5255279541015625
1667824895650857500,6.121857421875,-0.8144683837890625,-0.4170684814453125,0.531982421875
1667824895660865500,6.131865478515625,-0.8417205810546875,-0.4049835205078125,0.5381317138671875
1667824895670872600,6.14187255859375,-0.8550872802734375,-0.3799285888671875,0.53887939453125
1667824895680880600,6.151880615234375,-0.855865478515625,-0.353302001953125,0.52752685546875
1667824895690888400,6.161888427734375,-0.8378143310546875,-0.334503173828125,0.5034942626953125
1667824895700895500,6.1718955078125,-0.8026885986328125,-0.3347015380859375,0.4644775390625
1667824895710903300,6.1819033203125,-0.74688720703125,-0.3434906005859375,0.413848876953125
1667824895720910600,6.19191064453125,-0.68804931640625,-0.3521270751953125,0.36883544921875
1667824895730918400,6.20191845703125,-0.637939453125,-0.3588104248046875,0.32830810546875
1667824895740926500,6.211926513671875,-0.612060546875,-0.3697357177734375,0.28668212890625
1667824895750933500,6.22193359375,-0.607757568359375,-0.379913330078125,0.260772705078125
1667824895760941600,6.231941650390625,-0.6182861328125,-0.3913421630859375,0.2398681640625
1667824895770948400,6.2419482421875,-0.6439361572265625,-0.39404296875,0.2265777587890625
1667824895780956400,6.251956298828125,-0.669281005859375,-0.38848876953125,0.2246551513671875
1667824895790964500,6.261964599609375,-0.6855621337890625,-0.388946533203125,0.21673583984375
1667824895800971500,6.271971435546875,-0.697601318359375,-0.3928680419921875,0.2090911865234375
1667824895810979600,6.2819794921875,-0.7080841064453125,-0.394134521484375,0.2018280029296875
1667824895820986600,6.291986572265625,-0.7197723388671875,-0.392852783203125,0.196807861328125
1667824895830994700,6.30199462890625,-0.7335357666015625,-0.397247314453125,0.19384765625
1667824895841002500,6.31200244140625,-0.7471466064453125,-0.4046783447265625,0.194000244140625
1667824895851009500,6.322009521484375,-0.765533447265625,-0.4145660400390625,0.1939544677734375
1667824895861017300,6.332017333984375,-0.784759521484375,-0.420806884765625,0.1988983154296875
1667824895871024600,6.342024658203125,-0.811859130859375,-0.4293060302734375,0.1982269287109375
1667824895881032400,6.352032470703125,-0.841522216796875,-0.4385833740234375,0.1981353759765625
1667824895891040500,6.36204052734375,-0.867523193359375,-0.441162109375,0.19512939453125
1667824895901047600,6.372047607421875,-0.8862457275390625,-0.4364471435546875,0.1952667236328125
1667824895911055600,6.3820556640625,-0.887481689453125,-0.4304962158203125,0.20611572265625
1667824895921062400,6.3920625,-0.8936920166015625,-0.430267333984375,0.2170562744140625
1667824895931070500,6.402070556640625,-0.9118804931640625,-0.4436187744140625,0.2295379638671875
1667824895941078500,6.41207861328125,-0.9321136474609375,-0.4682159423828125,0.2454986572265625
1667824895951085600,6.42208544921875,-0.9547119140625,-0.48602294921875,0.2647857666015625
1667824895961093400,6.43209326171875,-0.978118896484375,-0.489501953125,0.285552978515625
1667824895971100700,6.4421005859375,-1.0043792724609375,-0.4976959228515625,0.3057861328125
1667824895981108500,6.4521083984375,-1.0330810546875,-0.5232086181640625,0.3153533935546875
1667824895991116500,6.462116455078125,-1.054656982421875,-0.5381622314453125,0.3269500732421875
1667824896001123300,6.472123291015625,-1.0849761962890625,-0.5384674072265625,0.3460540771484375
1667824896011131600,6.482131591796875,-1.0885772705078125,-0.5271759033203125,0.3526153564453125
1667824896021138400,6.492138427734375,-1.080322265625,-0.501373291015625,0.35650634765625
1667824896031146500,6.502146484375,-1.047698974609375,-0.4717864990234375,0.3462371826171875
1667824896041154600,6.512154541015625,-1.0055389404296875,-0.44970703125,0.3265533447265625
1667824896051161600,6.52216162109375,-0.9569549560546875,-0.425689697265625,0.3120880126953125
1667824896061169700,6.532169677734375,-0.913055419921875,-0.3987884521484375,0.3018798828125
1667824896071176400,6.542176513671875,-0.8757781982421875,-0.3773345947265625,0.2847137451171875
1667824896081184500,6.5521845703125,-0.847686767578125,-0.3721160888671875,0.2637939453125
1667824896091192600,6.562192626953125,-0.8278350830078125,-0.37939453125,0.24700927734375
1667824896101199400,6.572199462890625,-0.82745361328125,-0.3986663818359375,0.2294921875
1667824896111207400,6.58220751953125,-0.8382568359375,-0.43389892578125,0.2102813720703125
1667824896121214500,6.59221435546875,-0.8330078125,-0.4615325927734375,0.205078125
1667824896131222500,6.602222412109375,-0.8229217529296875,-0.4716644287109375,0.2112579345703125
1667824896141230600,6.612230712890625,-0.81640625,-0.4663543701171875,0.2336578369140625
1667824896151237400,6.6222373046875,-0.8341827392578125,-0.4667816162109375,0.2691802978515625
1667824896161245700,6.63224560546875,-0.900177001953125,-0.481231689453125,0.3150482177734375
1667824896171252500,6.64225244140625,-0.996856689453125,-0.4960174560546875,0.383697509765625
1667824896181263600,6.652263671875,-1.075653076171875,-0.4957122802734375,0.450836181640625
1667824896191271700,6.662271728515625,-1.1283416748046875,-0.481048583984375,0.4948883056640625
1667824896201278700,6.67227880859375,-1.165863037109375,-0.4627227783203125,0.51593017578125
1667824896211286800,6.682286865234375,-1.170745849609375,-0.4363861083984375,0.52655029296875
1667824896221293600,6.69229345703125,-1.1230316162109375,-0.40643310546875,0.5194244384765625
1667824896231302000,6.702302001953125,-1.0203857421875,-0.3972015380859375,0.487884521484375
1667824896241309700,6.712309814453125,-0.9066925048828125,-0.408355712890625,0.4373931884765625
1667824896251316700,6.722316650390625,-0.819793701171875,-0.4179229736328125,0.388427734375
1667824896261324500,6.732324462890625,-0.7614898681640625,-0.4292449951171875,0.35107421875
1667824896271331800,6.742331787109375,-0.7159423828125,-0.4416351318359375,0.3267364501953125
1667824896281339600,6.752339599609375,-0.680145263671875,-0.4555206298828125,0.3086700439453125
1667824896291347700,6.76234765625,-0.6650543212890625,-0.46728515625,0.2967681884765625
1667824896301354800,6.772354736328125,-0.670135498046875,-0.472442626953125,0.28692626953125
1667824896311362800,6.78236279296875,-0.684234619140625,-0.480072021484375,0.284332275390625
1667824896321369600,6.79236962890625,-0.7007293701171875,-0.4933624267578125,0.2857513427734375
1667824896331377700,6.802377685546875,-0.7172698974609375,-0.508331298828125,0.2845611572265625
1667824896341385700,6.8123857421875,-0.7320556640625,-0.517974853515625,0.282257080078125
1667824896351392800,6.822392822265625,-0.741241455078125,-0.5180816650390625,0.2780303955078125
1667824896361400800,6.83240087890625,-0.7360076904296875,-0.5219573974609375,0.2744598388671875
1667824896371408600,6.84240869140625,-0.721771240234375,-0.52984619140625,0.2633514404296875
1667824896381416000,6.852416015625,-0.6984405517578125,-0.5336456298828125,0.2465972900390625
1667824896391423700,6.862423828125,-0.6820068359375,-0.528472900390625,0.2380828857421875
1667824896401430800,6.8724306640625,-0.680084228515625,-0.52288818359375,0.234222412109375
1667824896411438600,6.8824384765625,-0.6924591064453125,-0.52215576171875,0.22650146484375
1667824896421446000,6.89244580078125,-0.7178802490234375,-0.520355224609375,0.22283935546875
1667824896431453700,6.90245361328125,-0.7538909912109375,-0.5235137939453125,0.2326202392578125
1667824896441461800,6.912461669921875,-0.7950592041015625,-0.536376953125,0.2445220947265625
1667824896451468800,6.92246875,-0.8218841552734375,-0.540191650390625,0.259368896484375
1667824896461476900,6.932476806640625,-0.840118408203125,-0.535003662109375,0.28668212890625
1667824896471483600,6.942483642578125,-0.8587493896484375,-0.5303497314453125,0.3264312744140625
1667824896481491700,6.95249169921875,-0.87896728515625,-0.53179931640625,0.3697967529296875
1667824896491499800,6.962499755859375,-0.90362548828125,-0.54364013671875,0.402313232421875
1667824896501506800,6.9725068359375,-0.926300048828125,-0.5424652099609375,0.4359893798828125
1667824896511514600,6.9825146484375,-0.9596710205078125,-0.526336669921875,0.47662353515625
1667824896521522000,6.99252197265625,-0.996124267578125,-0.494659423828125,0.5151519775390625
1667824896531529700,7.00252978515625,-1.0299224853515625,-0.4424285888671875,0.5461883544921875
1667824896541537800,7.012537841796875,-1.034912109375,-0.378936767578125,0.5685882568359375
1667824896551544600,7.022544677734375,-1.00689697265625,-0.3327789306640625,0.5688629150390625
1667824896561552600,7.032552734375,-0.9449615478515625,-0.30584716796875,0.5441741943359375
1667824896571559700,7.0425595703125,-0.84942626953125,-0.2952117919921875,0.5069580078125
1667824896581567700,7.052567626953125,-0.7449951171875,-0.2948150634765625,0.470367431640625
1667824896591575800,7.062575927734375,-0.6562042236328125,-0.2939910888671875,0.4417724609375
1667824896601582800,7.072582763671875,-0.5850677490234375,-0.303070068359375,0.4140167236328125
1667824896611591000,7.0825908203125,-0.54010009765625,-0.3359527587890625,0.3974456787109375
1667824896621598700,7.0925986328125,-0.51812744140625,-0.3825225830078125,0.3926849365234375
1667824896631605800,7.102605712890625,-0.526611328125,-0.423797607421875,0.3943023681640625
1667824896641613800,7.11261376953125,-0.5614166259765625,-0.4401397705078125,0.4112091064453125
1667824896651620900,7.122620849609375,-0.606231689453125,-0.4375457763671875,0.434722900390625
1667824896661628700,7.132628662109375,-0.653045654296875,-0.4269256591796875,0.453033447265625
1667824896671636700,7.14263671875,-0.69256591796875,-0.4152374267578125,0.4573211669921875
1667824896681643800,7.152643798828125,-0.72601318359375,-0.4064483642578125,0.4554443359375
1667824896691651800,7.16265185546875,-0.7437591552734375,-0.3928680419921875,0.4530487060546875
1667824896701658600,7.17265869140625,-0.7586669921875,-0.3855438232421875,0.442596435546875
1667824896711667000,7.1826669921875,-0.766021728515625,-0.386871337890625,0.4246673583984375
1667824896721674800,7.1926748046875,-0.767486572265625,-0.3892822265625,0.40814208984375
1667824896731681800,7.202681884765625,-0.765045166015625,-0.3865966796875,0.390472412109375
1667824896741689600,7.212689697265625,-0.754180908203125,-0.378631591796875,0.3669281005859375
1667824896751697000,7.22269677734375,-0.736785888671875,-0.3775787353515625,0.33587646484375
1667824896761704700,7.23270458984375,-0.7218017578125,-0.3859710693359375,0.294586181640625
1667824896771712800,7.242712646484375,-0.7054443359375,-0.39495849609375,0.259307861328125
1667824896781719800,7.2527197265625,-0.6904144287109375,-0.3980712890625,0.23858642578125
1667824896791727900,7.262727783203125,-0.6784515380859375,-0.4002532958984375,0.2227783203125
1667824896801734700,7.272734619140625,-0.670074462890625,-0.4044952392578125,0.20562744140625
1667824896811742700,7.28274267578125,-0.6677398681640625,-0.4136199951171875,0.192352294921875
1667824896821750500,7.29275048828125,-0.674224853515625,-0.4299163818359375,0.187652587890625
1667824896831757800,7.3027578125,-0.692535400390625,-0.4378204345703125,0.1809539794921875
1667824896841765600,7.312765625,-0.7083282470703125,-0.433807373046875,0.1815032958984375
1667824896851772700,7.322772705078125,-0.72760009765625,-0.4365997314453125,0.179840087890625
1667824896861780700,7.33278076171875,-0.7530059814453125,-0.452972412109375,0.1720428466796875
1667824896871788800,7.342788818359375,-0.77667236328125,-0.4593353271484375,0.1685791015625
1667824896881795600,7.352795654296875,-0.7967376708984375,-0.457275390625,0.1670989990234375
1667824896891803600,7.3628037109375,-0.81561279296875,-0.4601898193359375,0.1670989990234375
1667824896901810700,7.372810791015625,-0.8374176025390625,-0.4606170654296875,0.162445068359375
1667824896911818800,7.38281884765625,-0.8509368896484375,-0.4496612548828125,0.1639556884765625
1667824896921826800,7.392826904296875,-0.8526153564453125,-0.4376983642578125,0.1828155517578125
1667824896931833900,7.402833740234375,-0.863311767578125,-0.4409637451171875,0.2023773193359375
1667824896941842000,7.412842041015625,-0.884857177734375,-0.4492950439453125,0.219818115234375
1667824896951848700,7.4228486328125,-0.9137420654296875,-0.45849609375,0.2489013671875
1667824896961856800,7.432856689453125,-0.9552154541015625,-0.4792022705078125,0.285247802734375
1667824896971864600,7.442864501953125,-0.9996490478515625,-0.501007080078125,0.315277099609375
1667824896981871900,7.452871826171875,-1.0404205322265625,-0.51739501953125,0.3447265625
1667824896991879700,7.462879638671875,-1.0653228759765625,-0.5338287353515625,0.3744659423828125
1667824897001886700,7.47288671875,-1.070220947265625,-0.54986572265625,0.3844451904296875
1667824897011894800,7.482894775390625,-1.0551910400390625,-0.55255126953125,0.3761138916015625
1667824897021902800,7.49290283203125,-1.05517578125,-0.5542449951171875,0.364990234375
1667824897031909600,7.50290966796875,-1.0442352294921875,-0.5403594970703125,0.3647613525390625
1667824897041917700,7.512917724609375,-1.022857666015625,-0.5095062255859375,0.37158203125
1667824897051924700,7.5229248046875,-0.9954071044921875,-0.4768829345703125,0.36346435546875
1667824897061932800,7.532932861328125,-0.9617767333984375,-0.4517364501953125,0.3556060791015625
1667824897071940600,7.542940673828125,-0.9392852783203125,-0.436798095703125,0.3511810302734375
1667824897081948000,7.552947998046875,-0.92071533203125,-0.425384521484375,0.3443450927734375
1667824897091955700,7.562955810546875,-0.8933868408203125,-0.4066314697265625,0.33917236328125
1667824897101962800,7.572962646484375,-0.860595703125,-0.38665771484375,0.3341064453125
1667824897111970600,7.582970458984375,-0.8265533447265625,-0.3803863525390625,0.3159027099609375
1667824897121979000,7.592978759765625,-0.8026885986328125,-0.3964080810546875,0.2857208251953125
1667824897131985700,7.602985595703125,-0.80084228515625,-0.4296417236328125,0.262664794921875
1667824897141993700,7.61299365234375,-0.8003997802734375,-0.462127685546875,0.2552642822265625
1667824897152000800,7.623000732421875,-0.791961669921875,-0.478912353515625,0.2595062255859375
1667824897162008800,7.6330087890625,-0.78350830078125,-0.4792022705078125,0.2803955078125
1667824897172017000,7.643016845703125,-0.7975616455078125,-0.4818572998046875,0.3098907470703125
1667824897182020000,7.65302001953125,-0.8423919677734375,-0.4912872314453125,0.351806640625
1667824897192028200,7.663028076171875,-0.9141082763671875,-0.49871826171875,0.4118194580078125
1667824897202035200,7.67303515625,-0.9895172119140625,-0.4924774169921875,0.4727630615234375
1667824897212043300,7.683043212890625,-1.0600128173828125,-0.474822998046875,0.51806640625
1667824897222051300,7.69305126953125,-1.131683349609375,-0.453521728515625,0.5462493896484375
1667824897232058400,7.703058349609375,-1.174530029296875,-0.4202423095703125,0.5636444091796875
1667824897242066400,7.71306640625,-1.14837646484375,-0.385986328125,0.55670166015625
1667824897252073200,7.7230732421875,-1.0492095947265625,-0.3821563720703125,0.50848388671875
1667824897262081300,7.733081298828125,-0.9227752685546875,-0.4046173095703125,0.4389495849609375
1667824897272089300,7.74308935546875,-0.808624267578125,-0.415740966796875,0.3716888427734375
1667824897282096400,7.753096435546875,-0.7260589599609375,-0.4347381591796875,0.3237457275390625
1667824897292104200,7.763104248046875,-0.6630096435546875,-0.465301513671875,0.2908935546875
1667824897302111500,7.773111572265625,-0.6185302734375,-0.490234375,0.2680206298828125
1667824897312119300,7.783119384765625,-0.6024322509765625,-0.5001220703125,0.2621917724609375
1667824897322127400,7.79312744140625,-0.6184844970703125,-0.5074462890625,0.2645721435546875
1667824897332134100,7.803134033203125,-0.65838623046875,-0.5194854736328125,0.2667388916015625
1667824897342142500,7.813142578125,-0.6939849853515625,-0.5280914306640625,0.26702880859375
1667824897352149200,7.823149169921875,-0.7145843505859375,-0.533050537109375,0.2645721435546875
1667824897362157300,7.8331572265625,-0.720977783203125,-0.54461669921875,0.257598876953125
1667824897372165000,7.8431650390625,-0.7218780517578125,-0.558319091796875,0.24658203125
1667824897382172400,7.85317236328125,-0.717559814453125,-0.567626953125,0.2372283935546875
1667824897392180200,7.86318017578125,-0.71331787109375,-0.57269287109375,0.23724365234375
1667824897402187300,7.873187255859375,-0.7245635986328125,-0.575958251953125,0.237091064453125
1667824897412195300,7.8831953125,-0.7425079345703125,-0.5719451904296875,0.2424163818359375
1667824897422203400,7.893203369140625,-0.7624359130859375,-0.5610809326171875,0.249298095703125
1667824897432210200,7.903210205078125,-0.7839202880859375,-0.55523681640625,0.26025390625
1667824897442218200,7.91321826171875,-0.80963134765625,-0.5588226318359375,0.2637481689453125
1667824897452225300,7.923225341796875,-0.8351898193359375,-0.56219482421875,0.2657928466796875
1667824897462233300,7.9332333984375,-0.8590087890625,-0.561767578125,0.2734832763671875
1667824897472241400,7.943241455078125,-0.876068115234375,-0.5524444580078125,0.295501708984375
1667824897482248200,7.953248291015625,-0.8972320556640625,-0.541046142578125,0.3282318115234375
1667824897492256500,7.963256591796875,-0.934600830078125,-0.5268707275390625,0.3572845458984375
1667824897502263300,7.97326318359375,-0.976043701171875,-0.5035552978515625,0.3890533447265625
1667824897512271400,7.983271240234375,-1.0159149169921875,-0.4784698486328125,0.423614501953125
1667824897522279200,7.993279052734375,-1.0448455810546875,-0.4509735107421875,0.459136962890625
1667824897532286500,8.003286376953126,-1.062408447265625,-0.4138031005859375,0.4959564208984375
1667824897542294300,8.013294189453125,-1.0700225830078125,-0.366241455078125,0.531402587890625
1667824897552301300,8.02330126953125,-1.063385009765625,-0.320892333984375,0.5605621337890625
1667824897562309400,8.033309326171874,-1.0312652587890625,-0.295074462890625,0.56976318359375
1667824897572317400,8.0433173828125,-0.969482421875,-0.2766876220703125,0.556304931640625
1667824897582324200,8.05332421875,-0.8892364501953125,-0.249542236328125,0.5380401611328125
1667824897592332300,8.063332275390625,-0.811065673828125,-0.2330322265625,0.5067291259765625
1667824897602339300,8.07333935546875,-0.7429046630859375,-0.2296600341796875,0.4720611572265625
1667824897612347400,8.083347412109376,-0.6914520263671875,-0.234344482421875,0.449798583984375
1667824897622355200,8.093355224609375,-0.651580810546875,-0.2465362548828125,0.4329071044921875
1667824897632362200,8.1033623046875,-0.6263427734375,-0.26666259765625,0.4226226806640625
1667824897642370300,8.113370361328125,-0.6175384521484375,-0.2859039306640625,0.4235687255859375
1667824897652377300,8.12337744140625,-0.63641357421875,-0.297637939453125,0.4351043701171875
1667824897662385200,8.13338525390625,-0.671722412109375,-0.2994842529296875,0.447845458984375
1667824897672393200,8.143393310546875,-0.704132080078125,-0.2947845458984375,0.45587158203125
1667824897682400300,8.153400146484374,-0.719818115234375,-0.2855377197265625,0.4552154541015625
1667824897692408300,8.163408203125,-0.725311279296875,-0.275848388671875,0.4432373046875
1667824897702415000,8.1734150390625,-0.7235565185546875,-0.2693634033203125,0.42279052734375
1667824897712423400,8.18342333984375,-0.715301513671875,-0.2682342529296875,0.39312744140625
1667824897722431200,8.19343115234375,-0.6945648193359375,-0.2796173095703125,0.354888916015625
1667824897732438300,8.203438232421876,-0.6670379638671875,-0.2996826171875,0.311737060546875
1667824897742446000,8.213446044921875,-0.6385650634765625,-0.31463623046875,0.27056884765625
1667824897752453400,8.223453369140625,-0.6244354248046875,-0.3292236328125,0.2345733642578125
1667824897762461200,8.233461181640624,-0.6127471923828125,-0.3499603271484375,0.2022247314453125
1667824897772469200,8.24346923828125,-0.611663818359375,-0.3765106201171875,0.1680908203125
1667824897782476300,8.253476318359375,-0.6118621826171875,-0.398162841796875,0.1444244384765625
1667824897792484400,8.263484375,-0.6180572509765625,-0.41278076171875,0.1326446533203125
1667824897802491100,8.2734912109375,-0.6271820068359375,-0.42852783203125,0.130523681640625
1667824897812499200,8.283499267578126,-0.6469573974609375,-0.449798583984375,0.13330078125
1667824897822507300,8.29350732421875,-0.668548583984375,-0.4606781005859375,0.137420654296875
1667824897832514300,8.303514404296875,-0.6986846923828125,-0.4631805419921875,0.138702392578125
1667824897842522400,8.3135224609375,-0.7375946044921875,-0.462921142578125,0.15020751953125
1667824897852529400,8.323529296875,-0.77471923828125,-0.462005615234375,0.16265869140625
1667824897862537500,8.333537353515625,-0.804779052734375,-0.4611053466796875,0.1681060791015625
1667824897872545300,8.343545166015625,-0.83697509765625,-0.4605712890625,0.17315673828125
1667824897882552300,8.35355224609375,-0.8774871826171875,-0.462554931640625,0.1710052490234375
1667824897892560100,8.36356005859375,-0.9102325439453125,-0.4546966552734375,0.170562744140625
1667824897902567400,8.3735673828125,-0.935211181640625,-0.4373626708984375,0.1778717041015625
1667824897912575200,8.3835751953125,-0.9611968994140625,-0.426605224609375,0.186004638671875
1667824897922583300,8.393583251953125,-0.992645263671875,-0.428863525390625,0.1880035400390625
1667824897932590300,8.40359033203125,-1.0226898193359375,-0.4354248046875,0.1913299560546875
1667824897942598400,8.413598388671875,-1.047210693359375,-0.4464569091796875,0.194061279296875
1667824897952605200,8.423605224609375,-1.0670623779296875,-0.4654998779296875,0.19677734375
1667824897962613200,8.43361328125,-1.0751495361328125,-0.4813690185546875,0.203033447265625
1667824897972621300,8.443621337890624,-1.080352783203125,-0.495361328125,0.2104949951171875
1667824897982628400,8.45362841796875,-1.086151123046875,-0.51165771484375,0.2250213623046875
1667824897992636200,8.46363623046875,-1.1024627685546875,-0.5299224853515625,0.240936279296875
1667824898002643500,8.4736435546875,-1.120452880859375,-0.5506591796875,0.260467529296875
1667824898012651300,8.4836513671875,-1.13909912109375,-0.5576019287109375,0.2863311767578125
1667824898022659300,8.493659423828126,-1.1495513916015625,-0.543212890625,0.3197479248046875
1667824898032666000,8.503666015625,-1.1575927734375,-0.522705078125,0.3487548828125
1667824898042674200,8.513674072265625,-1.1547698974609375,-0.4926910400390625,0.35791015625
1667824898052682500,8.5236826171875,-1.135345458984375,-0.4540557861328125,0.3488922119140625
1667824898062689300,8.533689208984375,-1.09686279296875,-0.417083740234375,0.3275146484375
1667824898072697300,8.543697265625,-1.0545654296875,-0.3807220458984375,0.3059844970703125
1667824898082704400,8.553704345703125,-1.0070648193359375,-0.3455963134765625,0.2843170166015625
1667824898092712400,8.56371240234375,-0.958251953125,-0.3250885009765625,0.25787353515625
1667824898102719200,8.57371923828125,-0.91229248046875,-0.3274993896484375,0.22833251953125
1667824898112727300,8.583727294921875,-0.878570556640625,-0.3487091064453125,0.205718994140625
1667824898122735400,8.5937353515625,-0.85772705078125,-0.3766937255859375,0.201690673828125
1667824898132742400,8.603742431640624,-0.84954833984375,-0.385894775390625,0.216461181640625
1667824898142750200,8.613750244140626,-0.8578643798828125,-0.3777923583984375,0.2558135986328125
1667824898152757500,8.623757568359375,-0.884796142578125,-0.361663818359375,0.3099822998046875
1667824898162765300,8.633765380859375,-0.9258575439453125,-0.358306884765625,0.3573760986328125
1667824898172773400,8.6437734375,-0.9777679443359375,-0.3741607666015625,0.3986053466796875
1667824898182780700,8.65378076171875,-1.025543212890625,-0.38385009765625,0.4444732666015625
1667824898192788500,8.66378857421875,-1.0515899658203125,-0.3718109130859375,0.4901275634765625
1667824898202795800,8.673795654296875,-1.0673065185546875,-0.3568115234375,0.5134429931640625
1667824898212803600,8.683803466796874,-1.055267333984375,-0.341461181640625,0.5108795166015625
1667824898222811600,8.693811767578126,-0.995635986328125,-0.3321075439453125,0.4887542724609375
1667824898232818700,8.703818603515625,-0.9073944091796875,-0.3388214111328125,0.4467010498046875
1667824898242826800,8.71382666015625,-0.8214111328125,-0.3547821044921875,0.4041748046875
1667824898252834600,8.72383447265625,-0.7486724853515625,-0.36590576171875,0.366180419921875
1667824898262841600,8.733841552734376,-0.6967315673828125,-0.3847503662109375,0.340789794921875
1667824898272849700,8.743849609375,-0.6656036376953125,-0.4168701171875,0.32293701171875
1667824898282856700,8.753856689453125,-0.6576690673828125,-0.451324462890625,0.3114776611328125
1667824898292864500,8.763864501953124,-0.666107177734375,-0.472869873046875,0.313568115234375
1667824898302872600,8.77387255859375,-0.66912841796875,-0.479583740234375,0.3223114013671875
1667824898312879600,8.783879638671875,-0.6680145263671875,-0.4859466552734375,0.3238372802734375
1667824898322887700,8.7938876953125,-0.6671295166015625,-0.4929656982421875,0.3192901611328125
1667824898332894500,8.80389453125,-0.6646270751953125,-0.50299072265625,0.308502197265625
1667824898342902800,8.81390283203125,-0.6577606201171875,-0.5210113525390625,0.2935943603515625
1667824898352910600,8.82391064453125,-0.6532440185546875,-0.5354461669921875,0.2807464599609375
1667824898362917600,8.833917724609375,-0.6560211181640625,-0.5367279052734375,0.2763824462890625
1667824898372925400,8.843925537109374,-0.658294677734375,-0.536041259765625,0.2697601318359375
1667824898382932700,8.8539326171875,-0.6594696044921875,-0.5405731201171875,0.2546539306640625
1667824898392940500,8.8639404296875,-0.6550750732421875,-0.5450592041015625,0.2382659912109375
1667824898402948600,8.873948486328125,-0.650909423828125,-0.549560546875,0.2221221923828125
1667824898412955600,8.88395556640625,-0.6579132080078125,-0.558380126953125,0.212615966796875
1667824898422963700,8.893963623046876,-0.6775970458984375,-0.572052001953125,0.2080535888671875
1667824898432970500,8.903970458984375,-0.7160491943359375,-0.587249755859375,0.2099151611328125
1667824898442978600,8.913978515625,-0.7681427001953125,-0.6001434326171875,0.22039794921875
1667824898452986600,8.923986572265624,-0.8140106201171875,-0.599334716796875,0.2372589111328125
1667824898462993700,8.93399365234375,-0.8414154052734375,-0.58258056640625,0.2671661376953125
1667824898473001700,8.944001708984375,-0.865142822265625,-0.560638427734375,0.29254150390625
1667824898483008500,8.954008544921875,-0.90545654296875,-0.54339599609375,0.3084564208984375
1667824898493016800,8.964016845703124,-0.9530792236328125,-0.5282135009765625,0.33465576171875
1667824898503024600,8.974024658203126,-1.0005035400390625,-0.5086517333984375,0.365203857421875
1667824898513031700,8.98403173828125,-1.0363616943359375,-0.4794921875,0.3912506103515625
1667824898523039500,8.99403955078125,-1.07318115234375,-0.4330291748046875,0.43377685546875
1667824898533046800,9.004046875,-1.096466064453125,-0.37890625,0.474273681640625
1667824898543054600,9.0140546875,-1.102813720703125,-0.33428955078125,0.5009918212890625
1667824898553062700,9.024062744140625,-1.0894927978515625,-0.301055908203125,0.5150604248046875
1667824898563069700,9.034069580078125,-1.0483856201171875,-0.2772216796875,0.512115478515625
1667824898573077800,9.044077880859374,-0.98260498046875,-0.2581939697265625,0.5000457763671875
1667824898583084500,9.05408447265625,-0.9051055908203125,-0.248565673828125,0.4765472412109375
1667824898593092600,9.064092529296875,-0.827911376953125,-0.251495361328125,0.4488983154296875
1667824898603100400,9.074100341796875,-0.766937255859375,-0.261077880859375,0.4300384521484375
1667824898613107700,9.084107666015624,-0.7209930419921875,-0.2671661376953125,0.42156982421875
1667824898623115500,9.094115478515626,-0.697784423828125,-0.2816314697265625,0.4178009033203125
1667824898633123600,9.10412353515625,-0.6947479248046875,-0.30145263671875,0.41998291015625
1667824898643130600,9.114130615234375,-0.7195281982421875,-0.3160552978515625,0.4312744140625
1667824898653138700,9.124138671875,-0.756866455078125,-0.311737060546875,0.4521026611328125
1667824898663145500,9.1341455078125,-0.7858123779296875,-0.2937164306640625,0.475555419921875
1667824898673153500,9.144153564453125,-0.7983245849609375,-0.2745513916015625,0.4873504638671875
1667824898683161900,9.154161865234375,-0.80291748046875,-0.2618255615234375,0.488128662109375
1667824898693168600,9.164168701171874,-0.795654296875,-0.25396728515625,0.475860595703125
1667824898703176700,9.1741767578125,-0.77069091796875,-0.2532501220703125,0.452239990234375
1667824898713183700,9.184183837890625,-0.7350006103515625,-0.260406494140625,0.4225006103515625
1667824898723191800,9.19419189453125,-0.6962890625,-0.2729949951171875,0.3875274658203125
1667824898733199600,9.20419970703125,-0.66339111328125,-0.284912109375,0.3542633056640625
1667824898743206700,9.21420654296875,-0.637847900390625,-0.2955474853515625,0.322967529296875
1667824898753214700,9.224214599609375,-0.6208953857421875,-0.306793212890625,0.2887115478515625
1667824898763221800,9.2342216796875,-0.6128082275390625,-0.310302734375,0.254180908203125
1667824898773229600,9.2442294921875,-0.615020751953125,-0.3110504150390625,0.2231903076171875
1667824898783237600,9.254237548828126,-0.6219635009765625,-0.3086395263671875,0.1969757080078125
1667824898793244700,9.26424462890625,-0.6186676025390625,-0.310211181640625,0.1826324462890625
1667824898803252700,9.274252685546875,-0.618255615234375,-0.3189849853515625,0.16302490234375
1667824898813259500,9.284259521484374,-0.609832763671875,-0.33447265625,0.1461181640625
1667824898823267600,9.294267578125,-0.6073455810546875,-0.3547210693359375,0.138214111328125
1667824898833275600,9.304275634765625,-0.6108551025390625,-0.3799896240234375,0.1394195556640625
1667824898843282700,9.31428271484375,-0.635345458984375,-0.407501220703125,0.1393585205078125
1667824898853290500,9.32429052734375,-0.67645263671875,-0.427947998046875,0.1463470458984375
1667824898863297800,9.3342978515625,-0.7213592529296875,-0.440704345703125,0.1602325439453125
1667824898873305600,9.3443056640625,-0.7700653076171875,-0.45147705078125,0.172332763671875
1667824898883313700,9.354313720703125,-0.8084564208984375,-0.4524078369140625,0.184356689453125
1667824898893320400,9.364320556640624,-0.83740234375,-0.4502716064453125,0.1833343505859375
1667824898903328800,9.374328857421874,-0.8573455810546875,-0.4493408203125,0.1754150390625
1667824898913335600,9.38433544921875,-0.876617431640625,-0.455047607421875,0.16455078125
1667824898923343600,9.394343505859375,-0.8922271728515625,-0.471466064453125,0.15423583984375
1667824898933351400,9.404351318359375,-0.901947021484375,-0.4819488525390625,0.1488800048828125
1667824898943358700,9.414358642578126,-0.9197845458984375,-0.493927001953125,0.1435546875
1667824898953366500,9.424366455078125,-0.940765380859375,-0.5112762451171875,0.138519287109375
1667824898963373600,9.43437353515625,-0.9691009521484375,-0.5239715576171875,0.1390228271484375
1667824898973381600,9.444381591796875,-1.00262451171875,-0.5309906005859375,0.1537628173828125
1667824898983389700,9.4543896484375,-1.03680419921875,-0.54339599609375,0.17059326171875
1667824898993396500,9.464396484375,-1.0857086181640625,-0.563446044921875,0.1891021728515625
1667824899003404500,9.474404541015625,-1.1217041015625,-0.5789642333984375,0.2214813232421875
1667824899013411600,9.48441162109375,-1.1796112060546875,-0.6087646484375,0.2590484619140625
1667824899023419600,9.494419677734374,-1.225067138671875,-0.6313934326171875,0.3001251220703125
1667824899033427700,9.504427734375,-1.2569122314453125,-0.6239166259765625,0.35137939453125
1667824899043434500,9.5144345703125,-1.278564453125,-0.5948333740234375,0.40185546875
1667824899053442800,9.52444287109375,-1.2806854248046875,-0.5460052490234375,0.4286956787109375
1667824899063450600,9.53445068359375,-1.26416015625,-0.4818572998046875,0.4432830810546875
1667824899073457700,9.544457763671875,-1.2247161865234375,-0.43231201171875,0.4291229248046875
1667824899083465500,9.554465576171875,-1.16668701171875,-0.403900146484375,0.3994598388671875
1667824899093472800,9.56447265625,-1.113311767578125,-0.37261962890625,0.367156982421875
1667824899103480600,9.57448046875,-1.050201416015625,-0.33795166015625,0.3501739501953125
1667824899113488600,9.584488525390626,-0.9749298095703125,-0.3238372802734375,0.3360137939453125
1667824899123495700,9.59449560546875,-0.9152069091796875,-0.3318634033203125,0.313690185546875
1667824899133503700,9.604503662109375,-0.8771820068359375,-0.34197998046875,0.3058929443359375
1667824899143510500,9.614510498046876,-0.8450927734375,-0.340057373046875,0.3367919921875
1667824899153518600,9.6245185546875,-0.8367767333984375,-0.346710205078125,0.3710174560546875
1667824899163526700,9.634526611328125,-0.8504180908203125,-0.3512115478515625,0.4138031005859375
1667824899173533700,9.64453369140625,-0.8865509033203125,-0.346038818359375,0.4740142822265625
1667824899183541800,9.654541748046874,-0.9510955810546875,-0.3435211181640625,0.5473175048828125
1667824899193548800,9.664548828125,-1.01837158203125,-0.3422393798828125,0.6089630126953125
1667824899203556900,9.674556884765625,-1.0844573974609375,-0.3560791015625,0.630096435546875
1667824899213565000,9.68456494140625,-1.129364013671875,-0.3824005126953125,0.6308746337890625
1667824899223571700,9.69457177734375,-1.128662109375,-0.385894775390625,0.6244659423828125
1667824899233579800,9.704579833984376,-1.0815582275390625,-0.3763427734375,0.5973968505859375
1667824899243586800,9.7145869140625,-1.015960693359375,-0.3692474365234375,0.5319366455078125
1667824899253594600,9.7245947265625,-0.9437713623046875,-0.3573455810546875,0.4528656005859375
1667824899263602700,9.734602783203124,-0.8678436279296875,-0.33935546875,0.387939453125
1667824899273609700,9.744609619140626,-0.7814178466796875,-0.327850341796875,0.3233184814453125
1667824899283617800,9.75461767578125,-0.694427490234375,-0.3233184814453125,0.2679901123046875
1667824899293624600,9.76462451171875,-0.6161346435546875,-0.3150634765625,0.2284393310546875
1667824899303632600,9.774632568359374,-0.560760498046875,-0.311248779296875,0.2003326416015625
1667824899313641000,9.784640869140626,-0.5345458984375,-0.3221893310546875,0.1820526123046875
1667824899323647700,9.794647705078125,-0.5296783447265625,-0.3416900634765625,0.1788482666015625
1667824899333655800,9.80465576171875,-0.526336669921875,-0.359619140625,0.1907958984375
1667824899343662800,9.814662841796874,-0.539703369140625,-0.3837432861328125,0.1952667236328125
1667824899353671000,9.8246708984375,-0.5674285888671875,-0.4130706787109375,0.192779541015625
1667824899363678700,9.8346787109375,-0.597320556640625,-0.429962158203125,0.197967529296875
1667824899373685800,9.844685791015625,-0.6284942626953125,-0.435089111328125,0.2133941650390625
1667824899383693600,9.854693603515624,-0.6600189208984375,-0.4358367919921875,0.2236328125
1667824899393700900,9.864700927734376,-0.6769256591796875,-0.43304443359375,0.24139404296875
1667824899403708700,9.874708740234375,-0.702850341796875,-0.4436798095703125,0.25421142578125
1667824899413716700,9.884716796875,-0.7307281494140625,-0.4638824462890625,0.25927734375
1667824899423723800,9.894723876953124,-0.7586212158203125,-0.4857177734375,0.27001953125
1667824899433731800,9.90473193359375,-0.7842254638671875,-0.5053558349609375,0.2762908935546875
1667824899443738600,9.914738525390625,-0.8023834228515625,-0.512451171875,0.2826995849609375
1667824899453746700,9.92474658203125,-0.8191680908203125,-0.516326904296875,0.289703369140625
1667824899463754800,9.934754638671874,-0.8397216796875,-0.517578125,0.3016357421875
1667824899473761800,9.94476171875,-0.862152099609375,-0.5101165771484375,0.3073883056640625
1667824899483769600,9.95476953125,-0.882904052734375,-0.5028533935546875,0.2984466552734375
1667824899493777000,9.96477685546875,-0.8966827392578125,-0.4971923828125,0.2993621826171875
1667824899503784700,9.97478466796875,-0.91180419921875,-0.4996337890625,0.306304931640625
1667824899513792800,9.984792724609376,-0.9297027587890625,-0.507537841796875,0.313568115234375
1667824899523799600,9.994799560546875,-0.9603424072265625,-0.5135498046875,0.333984375
1667824899533807900,10.004807861328125,-0.9961700439453125,-0.5077667236328125,0.372528076171875
1667824899543814700,10.014814697265624,-1.048980712890625,-0.49627685546875,0.4109649658203125
1667824899553822700,10.02482275390625,-1.1147003173828125,-0.476715087890625,0.4415283203125
1667824899563830800,10.034830810546875,-1.1689300537109375,-0.4371795654296875,0.47430419921875
1667824899573837800,10.044837890625,-1.185791015625,-0.394073486328125,0.490631103515625
1667824899583846000,10.054845947265624,-1.1568450927734375,-0.3673248291015625,0.4763946533203125
1667824899593852700,10.064852783203126,-1.1043548583984375,-0.3508453369140625,0.445831298828125
1667824899603860700,10.07486083984375,-1.0453338623046875,-0.3436431884765625,0.4127960205078125
1667824899613868800,10.084868896484375,-0.9981231689453125,-0.3538055419921875,0.3663787841796875
1667824899623875800,10.094875732421874,-0.94268798828125,-0.377166748046875,0.32916259765625
1667824899633883600,10.104883544921876,-0.901458740234375,-0.4095458984375,0.30975341796875
1667824899643891000,10.114890869140625,-0.8910675048828125,-0.445068359375,0.29339599609375
1667824899653898800,10.124898681640625,-0.927703857421875,-0.45611572265625,0.2869873046875
1667824899663906800,10.13490673828125,-0.9665985107421875,-0.4441070556640625,0.2904052734375
1667824899673913600,10.14491357421875,-0.99566650390625,-0.42730712890625,0.2937469482421875
1667824899683922000,10.154921875,-1.0077362060546875,-0.372406005859375,0.3253631591796875
1667824899693928700,10.1649287109375,-0.983734130859375,-0.3214569091796875,0.3856964111328125
1667824899703936800,10.174936767578124,-0.947662353515625,-0.3337860107421875,0.4034423828125
1667824899713944600,10.184944580078126,-0.9103546142578125,-0.3785400390625,0.3722991943359375
1667824899723951900,10.194951904296875,-0.8807830810546875,-0.4055023193359375,0.3487396240234375
1667824899733959700,10.204959716796875,-0.8561859130859375,-0.4183807373046875,0.3744049072265625
1667824899743966700,10.214966796875,-0.820648193359375,-0.4191741943359375,0.3952484130859375
1667824899753974800,10.224974853515626,-0.76702880859375,-0.3813934326171875,0.3557281494140625
1667824899763982800,10.23498291015625,-0.7321929931640625,-0.2940521240234375,0.2560882568359375
1667824899773989600,10.24498974609375,-0.7991485595703125,-0.29107666015625,0.2837371826171875
1667824899783997700,10.254997802734374,-0.874359130859375,-0.3522186279296875,0.2969970703125
1667824899794004700,10.265004638671876,-0.908355712890625,-0.3582611083984375,0.302459716796875
1667824899804012800,10.2750126953125,-0.92401123046875,-0.30902099609375,0.283203125
1667824899814020900,10.285020751953125,-0.901824951171875,-0.2677764892578125,0.2509307861328125
1667824899824028000,10.29502783203125,-0.874359130859375,-0.2884368896484375,0.1924591064453125
1667824899834036000,10.305035888671876,-0.8258819580078125,-0.3177642822265625,0.12548828125
1667824899844042800,10.315042724609375,-0.71710205078125,-0.3249053955078125,0.0946197509765625
1667824899854050600,10.325050537109375,-0.6203765869140625,-0.326812744140625,0.08551025390625
1667824899864058600,10.33505859375,-0.579833984375,-0.346343994140625,0.0671844482421875
1667824899874065700,10.345065673828126,-0.5386199951171875,-0.4000396728515625,0.108245849609375
1667824899884073700,10.35507373046875,-0.5403289794921875,-0.4046783447265625,0.155242919921875
1667824899894080500,10.36508056640625,-0.628814697265625,-0.3155517578125,0.1634674072265625
1667824899904088800,10.3750888671875,-0.72137451171875,-0.28570556640625,0.1468048095703125
1667824899914097000,10.385096923828126,-0.750213623046875,-0.3179931640625,0.099212646484375
1667824899924103700,10.395103759765625,-0.768646240234375,-0.394622802734375,0.0543060302734375
1667824899934111700,10.40511181640625,-0.762939453125,-0.4966278076171875,0.0027923583984375
1667824899944119800,10.415119873046875,-0.7417144775390625,-0.5708160400390625,-0.0068206787109375
1667824899954126800,10.425126953125,-0.7044219970703125,-0.6177215576171875,-0.01904296875
1667824899964134700,10.435134765625,-0.656982421875,-0.665435791015625,-0.0475006103515625
1667824899974142000,10.445141845703125,-0.6277618408203125,-0.70257568359375,-0.0700225830078125
1667824899984149800,10.455149658203124,-0.628204345703125,-0.7452545166015625,-0.0919342041015625
1667824899994156800,10.46515673828125,-0.6621246337890625,-0.791259765625,-0.1143798828125
1667824900004164600,10.47516455078125,-0.730499267578125,-0.839080810546875,-0.1311798095703125
1667824900014172700,10.485172607421875,-0.830352783203125,-0.86541748046875,-0.1088104248046875
1667824900024179700,10.4951796875,-0.9553985595703125,-0.8258514404296875,-0.05609130859375
1667824900034187800,10.505187744140626,-1.0919952392578125,-0.7452392578125,0.00341796875
1667824900044195600,10.515195556640625,-1.224639892578125,-0.66943359375,0.056182861328125
1667824900054203000,10.525202880859375,-1.3211669921875,-0.6214752197265625,0.093963623046875
1667824900064210700,10.535210693359375,-1.3747406005859375,-0.600555419921875,0.1125335693359375
1667824900074217700,10.5452177734375,-1.390533447265625,-0.5668182373046875,0.1159820556640625
1667824900084225500,10.5552255859375,-1.3779296875,-0.505828857421875,0.1096649169921875
1667824900094232800,10.56523291015625,-1.337158203125,-0.439178466796875,0.092681884765625
1667824900104240600,10.57524072265625,-1.28021240234375,-0.3841705322265625,0.0674591064453125
1667824900114248700,10.585248779296874,-1.2232513427734375,-0.3492279052734375,0.06787109375
1667824900124255700,10.595255859375,-1.162261962890625,-0.36309814453125,0.02001953125
1667824900134263800,10.605263916015625,-1.092254638671875,-0.4171142578125,-0.14678955078125
1667824900144272000,10.61527197265625,-1.0025177001953125,-0.4441680908203125,-0.2076873779296875
1667824900154278700,10.625278564453126,-0.9233856201171875,-0.42535400390625,-0.124298095703125
1667824900164287000,10.635286865234375,-0.8978271484375,-0.4433135986328125,-0.0242462158203125
1667824900174293800,10.645293701171875,-1.0066375732421875,-0.506561279296875,-0.0279541015625
1667824900184301000,10.655301025390624,-1.13018798828125,-0.6387939453125,-0.264404296875
1667824900194309000,10.66530908203125,-1.0072784423828125,-0.626495361328125,-0.16656494140625
1667824900204316200,10.675316162109375,-0.992279052734375,-0.5854644775390625,-0.08038330078125
1667824900214324200,10.68532421875,-1.0277557373046875,-0.564453125,-0.0989837646484375
1667824900224331300,10.695331298828124,-0.964141845703125,-0.5418548583984375,-0.103302001953125
1667824900234339300,10.70533935546875,-0.9391632080078125,-0.5168914794921875,-0.1028594970703125
1667824900244346000,10.71534619140625,-0.9333648681640625,-0.4922943115234375,-0.0775299072265625
1667824900254354200,10.725354248046875,-0.928375244140625,-0.4810333251953125,-0.054656982421875
1667824900264362000,10.735362060546874,-0.9337921142578125,-0.462493896484375,-0.0420074462890625
1667824900274369300,10.745369384765626,-0.929290771484375,-0.4373626708984375,-0.030975341796875
1667824900284377000,10.755377197265625,-0.90087890625,-0.4188079833984375,-0.0144195556640625
1667824900294385200,10.76538525390625,-0.858673095703125,-0.3740234375,0.0065765380859375
1667824900304392200,10.77539208984375,-0.8044586181640625,-0.3379058837890625,0.02789306640625
1667824900314400300,10.785400146484376,-0.75970458984375,-0.32861328125,0.03692626953125
1667824900324407000,10.795406982421875,-0.7224578857421875,-0.3288421630859375,0.045867919921875
1667824900334415000,10.8054150390625,-0.6832122802734375,-0.3279266357421875,0.0700225830078125
1667824900344423200,10.815423095703125,-0.657623291015625,-0.3186492919921875,0.0913848876953125
1667824900354430200,10.82543017578125,-0.6663970947265625,-0.3151397705078125,0.0980987548828125
1667824900364438000,10.83543798828125,-0.69903564453125,-0.327484130859375,0.0923004150390625
1667824900374445300,10.8454453125,-0.7205352783203125,-0.3478240966796875,0.0851593017578125
1667824900384453000,10.855453125,-0.7397003173828125,-0.368804931640625,0.0876922607421875
1667824900394460200,10.865460205078126,-0.7667694091796875,-0.38818359375,0.0972137451171875
1667824900404468000,10.875468017578125,-0.7932586669921875,-0.3977508544921875,0.098663330078125
1667824900414476000,10.88547607421875,-0.818572998046875,-0.4042510986328125,0.081298828125
1667824900424483000,10.895483154296874,-0.8458251953125,-0.421875,0.0496826171875
1667824900434491100,10.9054912109375,-0.86993408203125,-0.4427032470703125,0.01824951171875
1667824900444499200,10.915499267578125,-0.8891754150390625,-0.4575958251953125,-0.01055908203125
1667824900454506200,10.92550634765625,-0.8891143798828125,-0.4611968994140625,-0.027435302734375
1667824900464514300,10.935514404296875,-0.877777099609375,-0.45977783203125,-0.0383453369140625
1667824900474521000,10.94552099609375,-0.87091064453125,-0.4588623046875,-0.0483551025390625
1667824900484529200,10.955529052734375,-0.878692626953125,-0.4694061279296875,-0.0695343017578125
1667824900494537200,10.965537109375,-0.9057159423828125,-0.5050811767578125,-0.1198577880859375
1667824900504544300,10.975544189453124,-0.9339752197265625,-0.5666351318359375,-0.1820526123046875
1667824900514552000,10.985552001953126,-0.9351654052734375,-0.630950927734375,-0.2391815185546875
1667824900524559400,10.995559326171875,-0.8979949951171875,-0.655670166015625,-0.2869720458984375
1667824900534567200,11.005567138671875,-0.8336181640625,-0.6360931396484375,-0.3017425537109375
1667824900544575200,11.0155751953125,-0.7758026123046875,-0.59442138671875,-0.301666259765625
1667824900554582000,11.02558203125,-0.7683868408203125,-0.5710296630859375,-0.3109283447265625
1667824900564590300,11.03559033203125,-0.8049468994140625,-0.561248779296875,-0.307891845703125
1667824900574597000,11.04559716796875,-0.8762054443359375,-0.5330657958984375,-0.27728271484375
1667824900584605200,11.055605224609375,-0.947479248046875,-0.4689483642578125,-0.21868896484375
1667824900594612200,11.0656123046875,-0.982330322265625,-0.38482666015625,-0.1631927490234375
1667824900604620300,11.075620361328125,-0.9972991943359375,-0.2993011474609375,-0.11273193359375
1667824900614628000,11.085628173828125,-1.0011138916015625,-0.234710693359375,-0.0845794677734375
1667824900624635100,11.09563525390625,-0.987762451171875,-0.2013397216796875,-0.065399169921875
1667824900634643200,11.105643310546874,-0.9622039794921875,-0.202911376953125,-0.0596771240234375
1667824900644651300,11.1156513671875,-0.932373046875,-0.241058349609375,-0.0684661865234375
1667824900654658000,11.125657958984375,-0.90374755859375,-0.29266357421875,-0.0836944580078125
1667824900664666000,11.135666015625,-0.8753509521484375,-0.3382568359375,-0.1015472412109375
1667824900674673200,11.145673095703126,-0.8439788818359375,-0.3708038330078125,-0.1223297119140625
1667824900684681200,11.15568115234375,-0.8084259033203125,-0.384552001953125,-0.14410400390625
1667824900694689300,11.165689208984375,-0.749267578125,-0.3983306884765625,-0.1971282958984375
1667824900704696000,11.175696044921875,-0.7397308349609375,-0.400909423828125,-0.225494384765625
1667824900714704400,11.185704345703124,-0.7422027587890625,-0.3909454345703125,-0.2206878662109375
1667824900724711200,11.195711181640625,-0.76531982421875,-0.3814239501953125,-0.200927734375
1667824900734719200,11.20571923828125,-0.79547119140625,-0.37225341796875,-0.193939208984375
1667824900744727000,11.21572705078125,-0.829864501953125,-0.372528076171875,-0.202545166015625
1667824900754734300,11.225734375,-0.844635009765625,-0.37054443359375,-0.2005462646484375
1667824900764742100,11.2357421875,-0.8391265869140625,-0.36224365234375,-0.1973724365234375
1667824900774749200,11.245749267578125,-0.81939697265625,-0.355072021484375,-0.21380615234375
