time,seconds_elapsed,z,y,x
1667824889536209000,0.007208984375,-0.23626446723937988,0.5247284770011902,0.39914846420288086
1667824889546216000,0.0172158203125,-0.14185939729213715,0.566726803779602,0.35943061113357544
1667824889556223700,0.0272236328125,-0.047450073063373566,0.6124719381332397,0.28269001841545105
1667824889566232000,0.037232177734375,0.03605121001601219,0.6353559494018555,0.16745556890964508
1667824889576238800,0.04723876953125,0.09096638858318329,0.6348398327827454,0.0199808981269598
1667824889586247000,0.057246826171875,0.12478028237819672,0.6094644069671631,-0.14821504056453705
1667824889596254700,0.067254638671875,0.1332549899816513,0.5705162286758423,-0.31411850452423096
1667824889606262000,0.077261962890625,0.13150635361671448,0.5027126669883728,-0.46259960532188416
1667824889616269800,0.087269775390625,0.11905688047409058,0.41769683361053467,-0.5859947800636292
1667824889626276900,0.09727685546875,0.09342022985219955,0.3320799469947815,-0.6687354445457458
1667824889636285000,0.107284912109375,0.07474720478057861,0.2691904604434967,-0.713769793510437
1667824889646293000,0.11729296875,0.0664120465517044,0.23541012406349182,-0.7321168184280396
1667824889656299800,0.1272998046875,0.07112397998571396,0.20866426825523376,-0.7237933874130249
1667824889666307800,0.137307861328125,0.0922689437866211,0.14866670966148376,-0.7130142450332642
1667824889676315000,0.14731494140625,0.10952915996313095,0.0591655857861042,-0.6949185729026794
1667824889686323000,0.157322998046875,0.11363068968057632,-0.0760180652141571,-0.68882155418396
1667824889696331000,0.1673310546875,0.08664514869451523,-0.21254421770572662,-0.7106200456619263
1667824889706338000,0.177338134765625,0.0174410417675972,-0.32518288493156433,-0.7551169395446777
1667824889716346000,0.18734619140625,-0.07203744351863861,-0.4056481719017029,-0.8319342136383057
1667824889726354000,0.19735400390625,-0.16664597392082214,-0.4404066801071167,-0.9429659247398376
1667824889736361000,0.20736083984375,-0.24457299709320068,-0.4699552655220032,-1.0847619771957397
1667824889746368800,0.21736865234375,-0.30497854948043823,-0.5148902535438538,-1.2646081447601318
1667824889756376000,0.2273759765625,-0.3673551082611084,-0.5683353543281555,-1.4656916856765747
1667824889766383900,0.2373837890625,-0.4958544969558716,-0.6318954229354858,-1.651039481163025
1667824889776392000,0.247391845703125,-0.7014718055725098,-0.6638767719268799,-1.7746351957321167
1667824889786399000,0.25739892578125,-1.0014396905899048,-0.6595898866653442,-1.842585802078247
1667824889796407000,0.267406982421875,-1.312107801437378,-0.5791930556297302,-1.8776710033416748
1667824889806413800,0.277413818359375,-1.722225546836853,-0.3548702001571655,-1.8745783567428589
1667824889816422000,0.287421875,-2.1169798374176025,0.05922950059175491,-1.8538583517074585
1667824889826430000,0.297429931640625,-2.4808106422424316,0.6326927542686462,-1.7899326086044312
1667824889836437000,0.30743701171875,-2.7473835945129395,1.2562564611434937,-1.6391993761062622
1667824889846444800,0.31744482421875,-2.835012674331665,1.9960911273956299,-1.4800856113433838
1667824889856452000,0.3274521484375,-2.630716562271118,2.3909969329833984,-1.384892225265503
1667824889866460000,0.3374599609375,-2.16042423248291,2.228088140487671,-1.3889533281326294
1667824889876468000,0.347468017578125,-1.5069137811660767,1.716860294342041,-1.4605025053024292
1667824889886474800,0.357474853515625,-0.8653430342674255,1.2154451608657837,-1.4636716842651367
1667824889896483000,0.367483154296875,-0.3527841567993164,0.7567726373672485,-1.3833374977111816
1667824889906489900,0.37748974609375,-0.012731241062283516,0.4267662465572357,-1.1746785640716553
1667824889916498000,0.387497802734375,0.22618520259857178,0.22477293014526367,-0.8706722855567932
1667824889926505700,0.397505615234375,0.37319087982177734,0.05500732734799385,-0.5382903814315796
1667824889936513000,0.407512939453125,0.3516557812690735,-0.10375222563743591,-0.1794576346874237
1667824889946520800,0.417520751953125,0.24554291367530823,-0.35029488801956177,0.16489841043949127
1667824889956529000,0.42752880859375,0.06954631954431534,-0.8618924021720886,0.4849861264228821
1667824889966535700,0.43753564453125,-0.14986246824264526,-1.2822052240371704,0.8845803737640381
1667824889976544000,0.4475439453125,-0.31123244762420654,-1.4623345136642456,1.349995732307434
1667824889986550800,0.45755078125,-0.35458657145500183,-1.5093457698822021,1.8495155572891235
1667824889996558800,0.467558837890625,-0.3315318524837494,-0.9178659319877625,2.292860269546509
1667824890006567000,0.47756689453125,-0.31362369656562805,0.840645968914032,2.3799052238464355
1667824890016574000,0.487573974609375,-0.15975716710090637,2.1049747467041016,2.198153018951416
1667824890026582000,0.49758203125,0.07933476567268372,2.195777416229248,2.145036220550537
1667824890036588800,0.5075888671875,0.28729650378227234,1.6214746236801147,2.150426149368286
1667824890046597000,0.51759716796875,0.44580650329589844,0.8985332250595093,2.0850753784179688
1667824890056605000,0.52760498046875,0.5651065111160278,0.36383894085884094,1.9521220922470093
1667824890066612000,0.537612060546875,0.5568949580192566,0.20883789658546448,1.8967465162277222
1667824890076619800,0.547619873046875,0.39729568362236023,0.3319012522697449,1.9485223293304443
1667824890086627800,0.5576279296875,0.1668481081724167,0.486894816160202,2.0166022777557373
1667824890096635000,0.567634765625,-0.05895332992076874,0.46449896693229675,2.0140130519866943
1667824890106643000,0.577642822265625,-0.22712449729442596,0.5358583927154541,2.00301194190979
1667824890116650000,0.58764990234375,-0.30212655663490295,0.7762091755867004,2.0047383308410645
1667824890126658000,0.597657958984375,-0.27101659774780273,1.0554765462875366,1.9856786727905273
1667824890136665900,0.607665771484375,-0.19628162682056427,1.2948057651519775,1.9756401777267456
1667824890146673000,0.6176728515625,-0.1136820912361145,1.4973889589309692,1.9732660055160522
1667824890156680700,0.6276806640625,-0.03837934508919716,1.6395984888076782,1.96723473072052
1667824890166688000,0.63768798828125,0.011226022616028786,1.7245140075683594,1.9444199800491333
1667824890176696600,0.647696533203125,0.03422641381621361,1.7416157722473145,1.8886747360229492
1667824890186704400,0.657704345703125,-0.01582210697233677,1.6293315887451172,1.8070058822631836
1667824890196711400,0.66771142578125,-0.15035408735275269,1.3910033702850342,1.729786992073059
1667824890206719500,0.677719482421875,-0.33042240142822266,1.128391981124878,1.6350178718566895
1667824890216726300,0.687726318359375,-0.48435282707214355,0.9116415977478027,1.525793433189392
1667824890226734300,0.697734375,-0.5956942439079285,0.7720956802368164,1.4192477464675903
1667824890236742400,0.707742431640625,-0.6725669503211975,0.7119758725166321,1.3179025650024414
1667824890246749400,0.71774951171875,-0.7340185642242432,0.7403390407562256,1.2194324731826782
1667824890256757500,0.727757568359375,-0.7870365381240845,0.8627166748046875,1.1346544027328491
1667824890266764300,0.737764404296875,-0.8225476741790771,1.021034598350525,1.058287501335144
1667824890276772600,0.747772705078125,-0.8449751734733582,1.1759507656097412,0.9950991868972778
1667824890286780400,0.757780517578125,-0.8571953773498535,1.289258599281311,0.9526398777961731
1667824890296787500,0.767787353515625,-0.8676522970199585,1.35680091381073,0.9207104444503784
1667824890306795300,0.777795166015625,-0.860442042350769,1.391768455505371,0.8907485604286194
1667824890316803300,0.78780322265625,-0.8486676812171936,1.4118293523788452,0.8601562976837158
1667824890326810400,0.797810302734375,-0.8427525162696838,1.3847094774246216,0.841245174407959
1667824890336818400,0.807818359375,-0.8728299736976624,1.2862961292266846,0.8399232029914856
1667824890346825500,0.817825439453125,-0.9277645945549011,1.1424548625946045,0.8320927023887634
1667824890356833500,0.82783349609375,-0.9813356995582581,0.9573227763175964,0.8014463782310486
1667824890366841300,0.83784130859375,-1.045512318611145,0.7312473058700562,0.7291271686553955
1667824890376848400,0.847848388671875,-1.0989962816238403,0.4543267488479614,0.6231533288955688
1667824890386856200,0.857856201171875,-1.1418894529342651,0.14400804042816162,0.49868568778038025
1667824890396863500,0.867863525390625,-1.154382348060608,-0.16441610455513,0.36453136801719666
1667824890406871300,0.877871337890625,-1.1383575201034546,-0.39441201090812683,0.2276771068572998
1667824890416879400,0.88787939453125,-1.092289686203003,-0.5351108312606812,0.0998120829463005
1667824890426886400,0.897886474609375,-1.0383387804031372,-0.6339426040649414,-0.010402040556073189
1667824890436894500,0.90789453125,-0.9988782405853271,-0.7215182185173035,-0.09279997646808624
1667824890446901200,0.9179013671875,-0.9570519328117371,-0.8029595613479614,-0.1568564623594284
1667824890456909300,0.927909423828125,-0.8877413272857666,-0.879790723323822,-0.2180497795343399
1667824890466917600,0.937917724609375,-0.8192589282989502,-0.9373336434364319,-0.28750526905059814
1667824890476924400,0.94792431640625,-0.7750235199928284,-1.0000183582305908,-0.3583674728870392
1667824890486932500,0.957932373046875,-0.7398186922073364,-1.0811840295791626,-0.4291795790195465
1667824890496939500,0.967939453125,-0.7015905976295471,-1.1615352630615234,-0.4724394381046295
1667824890506947600,0.977947509765625,-0.6611151099205017,-1.192728877067566,-0.5106419324874878
1667824890516955400,0.987955322265625,-0.6124024391174316,-1.1548837423324585,-0.5336444973945618
1667824890526962400,0.99796240234375,-0.5599482655525208,-1.0987211465835571,-0.5212876796722412
1667824890536970500,1.007970458984375,-0.5155863761901855,-1.0413082838058472,-0.4739460051059723
1667824890546978600,1.017978515625,-0.4739452004432678,-0.9668686389923096,-0.41167783737182617
1667824890556985300,1.0279853515625,-0.4313354194164276,-0.9049311876296997,-0.34043827652931213
1667824890566993400,1.037993408203125,-0.3792506456375122,-0.8563788533210754,-0.2509126365184784
1667824890577000400,1.04800048828125,-0.32433414459228516,-0.8037249445915222,-0.16377881169319153
1667824890587008500,1.058008544921875,-0.2618001699447632,-0.7349517345428467,-0.0961262658238411
1667824890597016300,1.068016357421875,-0.1906927227973938,-0.6582460403442383,-0.03038533590734005
1667824890607023400,1.0780234375,-0.11508184671401978,-0.5792316794395447,0.029150960966944695
1667824890617031400,1.088031494140625,-0.04367291182279587,-0.49426165223121643,0.08962708711624146
1667824890627038500,1.09803857421875,0.03202930465340614,-0.4035743772983551,0.15383084118366241
1667824890637046300,1.10804638671875,0.10014710575342178,-0.30152761936187744,0.22744913399219513
1667824890647054300,1.118054443359375,0.1522129774093628,-0.19511835277080536,0.304024338722229
1667824890657061400,1.128061279296875,0.1943066269159317,-0.11570582538843155,0.37566763162612915
1667824890667069400,1.1380693359375,0.21470405161380768,-0.05451996624469757,0.441430926322937
1667824890677076200,1.148076171875,0.23069871962070465,-0.027540814131498337,0.48650678992271423
1667824890687084500,1.15808447265625,0.26090243458747864,-0.01179194450378418,0.5066139101982117
1667824890697092600,1.168092529296875,0.3071860373020172,0.020296748727560043,0.4860897362232208
1667824890707099400,1.178099365234375,0.36495745182037354,0.06538566201925278,0.4379664361476898
1667824890717107500,1.188107421875,0.4240298271179199,0.11885102093219757,0.36276382207870483
1667824890727114500,1.198114501953125,0.4608911871910095,0.17476089298725128,0.28004416823387146
1667824890737122600,1.20812255859375,0.4694604277610779,0.23039032518863678,0.18992599844932556
1667824890747130400,1.21813037109375,0.4713781774044037,0.2955823838710785,0.10775335878133774
1667824890757137700,1.2281376953125,0.45964667201042175,0.3697037398815155,0.024643028154969215
1667824890767145500,1.2381455078125,0.4286520183086395,0.42836493253707886,-0.034503381699323654
1667824890777152500,1.248152587890625,0.36109188199043274,0.4637356996536255,-0.07245448976755142
1667824890787160300,1.258160400390625,0.2643357813358307,0.47065219283103943,-0.10252530872821808
1667824890797168400,1.26816845703125,0.18362416326999664,0.4716644585132599,-0.13545049726963043
1667824890807175400,1.278175537109375,0.11829282343387604,0.4857981204986572,-0.16882790625095367
1667824890817183500,1.28818359375,0.06269560754299164,0.5245058536529541,-0.21560819447040558
1667824890827190300,1.298190185546875,0.021100491285324097,0.5729413032531738,-0.301370769739151
1667824890837198600,1.308198486328125,0.028433239087462425,0.5948907732963562,-0.4283204674720764
1667824890847206400,1.318206298828125,0.07872570306062698,0.5528929829597473,-0.5677379965782166
1667824890857213400,1.32821337890625,0.14670635759830475,0.4425606429576874,-0.712809681892395
1667824890867221200,1.33822119140625,0.20030805468559265,0.30465951561927795,-0.8464305996894836
1667824890877229600,1.3482294921875,0.23015570640563965,0.18718506395816803,-0.9775657057762146
1667824890887236400,1.358236328125,0.24349229037761688,0.08340807259082794,-1.1015625
1667824890897244400,1.368244384765625,0.2375984489917755,-0.02978239580988884,-1.1860100030899048
1667824890907251500,1.37825146484375,0.19671252369880676,-0.15926289558410645,-1.2026296854019165
1667824890917259500,1.388259521484375,0.11090095341205597,-0.21332426369190216,-1.1776235103607178
1667824890927267300,1.398267333984375,-0.011321363970637321,-0.1557943969964981,-1.1383602619171143
1667824890937274400,1.4082744140625,-0.13471519947052002,0.0023339942563325167,-1.0988152027130127
1667824890947282400,1.418282470703125,-0.248959481716156,0.2043275684118271,-1.0723631381988525
1667824890957289500,1.42828955078125,-0.32868361473083496,0.37607696652412415,-1.0516023635864258
1667824890967297300,1.43829736328125,-0.35365793108940125,0.4462054371833801,-0.9921113848686218
1667824890977305300,1.448305419921875,-0.35467419028282166,0.4082165062427521,-0.8850834965705872
1667824890987312400,1.4583125,-0.3431997001171112,0.34402793645858765,-0.745162308216095
1667824890997320400,1.468320556640625,-0.3229876458644867,0.3148394227027893,-0.5791177153587341
1667824891007327200,1.4783271484375,-0.2929919362068176,0.2935868799686432,-0.4305766820907593
1667824891017335300,1.488335205078125,-0.27380090951919556,0.2573319375514984,-0.32654374837875366
1667824891027343600,1.498343505859375,-0.2967246174812317,0.19619160890579224,-0.2757658064365387
1667824891037350400,1.508350341796875,-0.37304919958114624,0.1132916733622551,-0.2581343352794647
1667824891047358500,1.5183583984375,-0.49469229578971863,-0.021880265325307846,-0.24233487248420715
1667824891057365500,1.528365478515625,-0.6728242039680481,-0.07825405895709991,-0.21031728386878967
1667824891067373600,1.53837353515625,-0.8497060537338257,-0.006803844124078751,-0.16446590423583984
1667824891077381400,1.54838134765625,-0.969523549079895,0.11629411578178406,-0.10382626205682755
1667824891087388400,1.558388427734375,-0.993450939655304,0.20995056629180908,-0.0646253302693367
1667824891097396500,1.568396484375,-0.9363402724266052,0.19555991888046265,-0.033662088215351105
1667824891107404500,1.578404541015625,-0.8201627731323242,0.059005264192819595,0.023847009986639023
1667824891117411300,1.588411376953125,-0.6833255887031555,-0.17198188602924347,0.12318052351474762
1667824891127419400,1.59841943359375,-0.5533630847930908,-0.43617838621139526,0.2681262493133545
1667824891137426400,1.608426513671875,-0.4481455683708191,-0.6449300050735474,0.435337632894516
1667824891147434500,1.6184345703125,-0.360774964094162,-0.7649338841438293,0.5990426540374756
1667824891157442300,1.6284423828125,-0.28181809186935425,-0.7953959107398987,0.7383957505226135
1667824891167449600,1.63844970703125,-0.21369390189647675,-0.7541425228118896,0.8417146801948547
1667824891177457200,1.64845703125,-0.16129940748214722,-0.6537413001060486,0.8980410695075989
1667824891187464000,1.6584638671875,-0.12479519844055176,-0.4789854884147644,0.8943907022476196
1667824891197472000,1.668471923828125,-0.0884489044547081,-0.25816336274147034,0.8276681303977966
1667824891207480000,1.67847998046875,-0.055933840572834015,-0.03513668105006218,0.7009035348892212
1667824891217487000,1.688487060546875,-0.028780782595276833,0.09657207876443863,0.5243910551071167
1667824891227495000,1.698494873046875,-0.015135543420910835,0.09359493106603622,0.32298657298088074
1667824891237502200,1.708502197265625,-0.019832827150821686,-0.016097743064165115,0.11415266990661621
1667824891247510000,1.718510009765625,-0.01962270401418209,-0.2048221230506897,-0.07664310932159424
1667824891257518000,1.72851806640625,-0.012104067020118237,-0.4534180760383606,-0.24049782752990723
1667824891267524900,1.73852490234375,-0.0011230550007894635,-0.7470555901527405,-0.3649556040763855
1667824891277533000,1.748532958984375,0.0005155879771336913,-1.0196391344070435,-0.4461444616317749
1667824891287540000,1.7585400390625,-0.00010812433902174234,-1.2253694534301758,-0.4728764593601227
1667824891297548000,1.768548095703125,0.0052442969754338264,-1.368359088897705,-0.43688517808914185
1667824891307555800,1.778555908203125,-0.0007368966471403837,-1.4489953517913818,-0.36236754059791565
1667824891317563100,1.788563232421875,-0.0358155220746994,-1.4598631858825684,-0.2594273090362549
1667824891327571000,1.798571044921875,-0.09208198636770248,-1.3968786001205444,-0.1471250057220459
1667824891337578000,1.808577880859375,-0.16471464931964874,-1.2832673788070679,-0.026194585487246513
1667824891347585800,1.818585693359375,-0.26447880268096924,-1.129489541053772,0.09328733384609222
1667824891357594000,1.828593994140625,-0.3783845901489258,-0.9757529497146606,0.21108108758926392
1667824891367601000,1.838600830078125,-0.4833565354347229,-0.8149541616439819,0.3186749219894409
1667824891377609000,1.84860888671875,-0.5885777473449707,-0.6464040279388428,0.4051576256752014
1667824891387617000,1.858616943359375,-0.6983306407928467,-0.4824286997318268,0.4596874415874481
1667824891397624000,1.8686240234375,-0.8082922697067261,-0.3343486785888672,0.46930649876594543
1667824891407632100,1.878632080078125,-0.8890441060066223,-0.23940859735012054,0.4568716585636139
1667824891417639000,1.888638916015625,-0.9185724854469299,-0.19144345819950104,0.4522777199745178
1667824891427647200,1.898647216796875,-0.900783360004425,-0.17796467244625092,0.4617191553115845
1667824891437655000,1.908655029296875,-0.8322258591651917,-0.2030244916677475,0.5075729489326477
1667824891447662000,1.918662109375,-0.7174105644226074,-0.23995481431484222,0.5864967703819275
1667824891457670000,1.928669921875,-0.5873844027519226,-0.2700647711753845,0.6779252290725708
1667824891467677200,1.93867724609375,-0.45165854692459106,-0.30997198820114136,0.7776137590408325
1667824891477685000,1.94868505859375,-0.3302857577800751,-0.3634948432445526,0.8766726851463318
1667824891487693000,1.958693115234375,-0.2231939435005188,-0.3956088423728943,0.9724644422531128
1667824891497700000,1.9687001953125,-0.1425504833459854,-0.40995290875434875,1.0725734233856201
1667824891507708200,1.978708251953125,-0.09268173575401306,-0.40281590819358826,1.187026858329773
1667824891517715000,1.98871484375,-0.06298322975635529,-0.3548009693622589,1.3011200428009033
1667824891527723000,1.998722900390625,-0.04809802025556564,-0.27136972546577454,1.4144243001937866
1667824891537730800,2.008730712890625,-0.016376575455069542,-0.14317846298217773,1.5005741119384766
1667824891547738000,2.018738037109375,0.04095595329999924,0.030014891177415848,1.5252000093460083
1667824891557746000,2.028745849609375,0.10844658315181732,0.2503163814544678,1.471431851387024
1667824891567753000,2.0387529296875,0.1386801153421402,0.5572099685668945,1.3295040130615234
1667824891577761000,2.048760986328125,0.1312485635280609,0.9301161766052246,1.0896168947219849
1667824891587769000,2.05876904296875,0.13033775985240936,1.2916512489318848,0.7359659075737
1667824891597776000,2.06877587890625,0.1658392995595932,1.531042218208313,0.30712851881980896
1667824891607784000,2.078783935546875,0.21005256474018097,1.571295142173767,-0.12378399074077606
1667824891617792000,2.0887919921875,0.2602750062942505,1.378241777420044,-0.5033965706825256
1667824891627799000,2.098799072265625,0.3434599041938782,0.9479548335075378,-0.7783141732215881
1667824891637806800,2.108806884765625,0.4682984948158264,0.3981812000274658,-0.9156309962272644
1667824891647814100,2.118814208984375,0.6300711631774902,-0.1359405219554901,-0.9094037413597107
1667824891657822000,2.128822021484375,0.7937109470367432,-0.5062706470489502,-0.7847901582717896
1667824891667830000,2.138830078125,0.9257238507270813,-0.67171710729599,-0.5888746976852417
1667824891677836800,2.1488369140625,1.0196460485458374,-0.6601449251174927,-0.37620797753334045
1667824891687844900,2.158844970703125,1.0889774560928345,-0.5314338207244873,-0.20882351696491241
1667824891697852000,2.168851806640625,1.121820092201233,-0.3286505937576294,-0.1049858033657074
1667824891707860000,2.17885986328125,1.1100372076034546,-0.07649371027946472,-0.08377612382173538
1667824891717868000,2.188867919921875,1.063092589378357,0.19745634496212006,-0.14133422076702118
1667824891727875000,2.198875,0.975801408290863,0.44477346539497375,-0.2766784727573395
1667824891737883100,2.208883056640625,0.8628511428833008,0.6311182975769043,-0.4664318859577179
1667824891747890000,2.218889892578125,0.738218367099762,0.7154456973075867,-0.7006446719169617
1667824891757898000,2.22889794921875,0.6299004554748535,0.7263407111167908,-0.968792200088501
1667824891767906000,2.238906005859375,0.534008264541626,0.6795817017555237,-1.24017333984375
1667824891777913000,2.2489130859375,0.4504965841770172,0.5840860605239868,-1.4892410039901733
1667824891787921000,2.2589208984375,0.3904103636741638,0.47057202458381653,-1.6886597871780396
1667824891797928200,2.26892822265625,0.36294013261795044,0.3656933009624481,-1.8257875442504883
1667824891807936000,2.27893603515625,0.35998907685279846,0.2787565290927887,-1.8820303678512573
1667824891817944000,2.288944091796875,0.38611680269241333,0.22726590931415558,-1.8768731355667114
1667824891827950800,2.298950927734375,0.42047637701034546,0.20508523285388947,-1.8170052766799927
1667824891837959200,2.308959228515625,0.4550098478794098,0.20336909592151642,-1.7228527069091797
1667824891847967000,2.318967041015625,0.4717579483985901,0.21565265953540802,-1.6217646598815918
1667824891857974000,2.32897412109375,0.4777681529521942,0.20942619442939758,-1.5230977535247803
1667824891867981800,2.33898193359375,0.4721648693084717,0.1878039836883545,-1.4195634126663208
1667824891877989000,2.348989013671875,0.45819127559661865,0.171362966299057,-1.310744285583496
1667824891887997000,2.358996826171875,0.4496142864227295,0.18227019906044006,-1.1763217449188232
1667824891898005000,2.3690048828125,0.44295400381088257,0.22041653096675873,-1.0150123834609985
1667824891908012000,2.379011962890625,0.43991878628730774,0.2672942876815796,-0.8362022042274475
1667824891918020000,2.38902001953125,0.4363695979118347,0.32187336683273315,-0.6652107834815979
1667824891928027000,2.39902685546875,0.42225804924964905,0.4105241596698761,-0.5376560091972351
1667824891938035000,2.409034912109375,0.39488527178764343,0.5412595272064209,-0.456786185503006
1667824891948043000,2.41904296875,0.3543570041656494,0.6963119506835938,-0.41574978828430176
1667824891958050000,2.429050048828125,0.3085767328739166,0.824130117893219,-0.4303252696990967
1667824891968058000,2.43905810546875,0.265475332736969,0.8723794221878052,-0.4822361469268799
1667824891978065000,2.44906494140625,0.2318263053894043,0.8607224822044373,-0.5319011807441711
1667824891988073200,2.4590732421875,0.19586271047592163,0.8169068098068237,-0.5676146745681763
1667824891998081000,2.4690810546875,0.17144498229026794,0.7281444668769836,-0.5449738502502441
1667824892008088000,2.479088134765625,0.18915687501430511,0.6030613780021667,-0.4515053927898407
1667824892018095900,2.489095947265625,0.2648305892944336,0.4549722969532013,-0.30624061822891235
1667824892028104200,2.499104248046875,0.38330531120300293,0.27275508642196655,-0.1290658414363861
1667824892038111000,2.509111083984375,0.5175256729125977,0.04351099207997322,0.07367448508739471
1667824892048119000,2.519119140625,0.6345881223678589,-0.21919547021389008,0.27188530564308167
1667824892058126000,2.5291259765625,0.7053126692771912,-0.47426265478134155,0.44469010829925537
1667824892068134100,2.539134033203125,0.7264994382858276,-0.6483454704284668,0.5944236516952515
1667824892078142000,2.549141845703125,0.6972501873970032,-0.7067206501960754,0.6923336982727051
1667824892088149000,2.55914892578125,0.6296082735061646,-0.6677615642547607,0.7116720080375671
1667824892098157000,2.569156982421875,0.49526381492614746,-0.5270465016365051,0.6391589045524597
1667824892108164000,2.5791640625,0.29090532660484314,-0.32363373041152954,0.48970338702201843
1667824892118172000,2.589171875,0.020232301205396652,-0.07558610290288925,0.28054749965667725
1667824892128180000,2.599179931640625,-0.3016282916069031,0.16664864122867584,0.06135976314544678
1667824892138187000,2.60918701171875,-0.6348544359207153,0.39093393087387085,-0.15634725987911224
1667824892148195000,2.619195068359375,-0.938966691493988,0.5534964799880981,-0.3402233421802521
1667824892158201900,2.629201904296875,-1.1660422086715698,0.6209216117858887,-0.4830758571624756
1667824892168210000,2.6392099609375,-1.3128489255905151,0.5733423829078674,-0.5295994281768799
1667824892178222300,2.649222412109375,-1.3712494373321533,0.3828568458557129,-0.4758259356021881
1667824892188229400,2.6592294921875,-1.3350013494491577,0.06596756726503372,-0.3174133896827698
1667824892198237400,2.669237548828125,-1.2147921323776245,-0.28916069865226746,-0.07612992078065872
1667824892208244200,2.679244140625,-1.0383825302124023,-0.5627544522285461,0.21413812041282654
1667824892218252500,2.68925244140625,-0.8584577441215515,-0.681206226348877,0.5312194228172302
1667824892228260400,2.69926025390625,-0.705845832824707,-0.6486837267875671,0.8188825845718384
1667824892238267400,2.709267333984375,-0.5846837162971497,-0.5046644806861877,1.0498125553131104
1667824892248275200,2.719275146484375,-0.47539475560188293,-0.2841944396495819,1.1799191236495972
1667824892258283300,2.729283203125,-0.36006471514701843,-0.05290955305099487,1.2170768976211548
1667824892268290300,2.739290283203125,-0.2510649859905243,0.12032055109739304,1.1923742294311523
1667824892278298400,2.74929833984375,-0.15998727083206177,0.17978334426879883,1.1144407987594604
1667824892288305400,2.759305419921875,-0.10168375074863434,0.13762257993221283,0.9935026168823242
1667824892298313500,2.7693134765625,-0.07546040415763855,0.03436782583594322,0.8264947533607483
1667824892308321500,2.779321533203125,-0.0674339011311531,-0.12445590645074844,0.6358768343925476
1667824892318328300,2.789328369140625,-0.06775587797164917,-0.2790084779262543,0.4284096658229828
1667824892328336400,2.79933642578125,-0.08404510468244553,-0.417558878660202,0.2228597104549408
1667824892338343400,2.809343505859375,-0.11392656713724136,-0.5446776747703552,0.060920875519514084
1667824892348351500,2.8193515625,-0.16356629133224487,-0.6512725949287415,-0.04092932492494583
1667824892358359300,2.829359375,-0.22247861325740814,-0.736339807510376,-0.05651867017149925
1667824892368366600,2.83936669921875,-0.2873247265815735,-0.7857587337493896,-0.015357917174696922
1667824892378374400,2.84937451171875,-0.33630797266960144,-0.7911795973777771,0.05409013107419014
1667824892388381400,2.85938134765625,-0.3693130612373352,-0.7648270726203918,0.11665497720241547
1667824892398389200,2.86938916015625,-0.3963473439216614,-0.7344207167625427,0.1758975237607956
1667824892408397300,2.879397216796875,-0.43586599826812744,-0.7129964232444763,0.22502592206001282
1667824892418404400,2.889404296875,-0.48983654379844666,-0.6936621069908142,0.25340989232063293
1667824892428412400,2.899412353515625,-0.5445709228515625,-0.6643348336219788,0.25854527950286865
1667824892438419500,2.90941943359375,-0.5931512117385864,-0.623293936252594,0.2561284601688385
1667824892448427500,2.919427490234375,-0.631510853767395,-0.592353880405426,0.27618470788002014
1667824892458435300,2.929435302734375,-0.6519826054573059,-0.5756257772445679,0.3468138873577118
1667824892468442400,2.9394423828125,-0.6465811729431152,-0.5291258692741394,0.4647706151008606
1667824892478450200,2.9494501953125,-0.6054846048355103,-0.4509967267513275,0.5990434885025024
1667824892488458500,2.95945849609375,-0.5365545153617859,-0.34668925404548645,0.740306556224823
1667824892498465300,2.96946533203125,-0.44220831990242004,-0.2548738420009613,0.8693252801895142
1667824892508473300,2.979473388671875,-0.3288436532020569,-0.2130667269229889,0.9763790369033813
1667824892518480400,2.98948046875,-0.20831432938575745,-0.21479246020317078,1.0710519552230835
1667824892528488400,2.999488525390625,-0.08857008069753647,-0.21955819427967072,1.1586740016937256
1667824892538496500,3.00949658203125,0.008567389100790024,-0.2212437093257904,1.2422000169754028
1667824892548503300,3.01950341796875,0.09085959941148758,-0.22524723410606384,1.3265279531478882
1667824892558511600,3.02951171875,0.1628056913614273,-0.19324243068695068,1.3976125717163086
1667824892568518400,3.039518310546875,0.21936377882957458,-0.09369772672653198,1.4256963729858398
1667824892578526500,3.0495263671875,0.26825568079948425,0.09466951340436935,1.3915845155715942
1667824892588534300,3.0595341796875,0.2806606888771057,0.3516400456428528,1.2697970867156982
1667824892598541600,3.06954150390625,0.28771114349365234,0.6509724259376526,1.0570898056030273
1667824892608549400,3.07954931640625,0.29477810859680176,0.9074175357818604,0.7652971744537354
1667824892618556400,3.089556396484375,0.3033660054206848,1.0336748361587524,0.4373837113380432
1667824892628564500,3.099564453125,0.31768396496772766,1.027051568031311,0.13209597766399384
1667824892638572500,3.109572509765625,0.3325270712375641,0.8793025612831116,-0.0991729199886322
1667824892648579300,3.119579345703125,0.35675331950187683,0.6375711560249329,-0.23098181188106537
1667824892658587400,3.12958740234375,0.4075067937374115,0.36205700039863586,-0.27175480127334595
1667824892668594400,3.139594482421875,0.4823448061943054,0.1078721359372139,-0.21961624920368195
1667824892678602500,3.1496025390625,0.5708672404289246,-0.03773646056652069,-0.12129766494035721
1667824892688610300,3.1596103515625,0.6433930993080139,-0.05819805711507797,-0.026694728061556816
1667824892698617300,3.169617431640625,0.6942850351333618,0.032218124717473984,0.02202088013291359
1667824892708625400,3.17962548828125,0.7263617515563965,0.21253569424152374,0.005313538946211338
1667824892718633500,3.189633544921875,0.7285207509994507,0.41215187311172485,-0.08068099617958069
1667824892728640300,3.19964013671875,0.6863195300102234,0.5694482922554016,-0.20960302650928497
1667824892738648300,3.2096484375,0.6051729917526245,0.6758591532707214,-0.38397589325904846
1667824892748655400,3.2196552734375,0.49307921528816223,0.7294036149978638,-0.5952135920524597
1667824892758663400,3.229663330078125,0.3621169328689575,0.7405848503112793,-0.81577068567276
1667824892768671200,3.239671142578125,0.2472449392080307,0.710033655166626,-1.0426627397537231
1667824892778678500,3.249678466796875,0.15768656134605408,0.6377085447311401,-1.253556251525879
1667824892788686300,3.259686279296875,0.10113859921693802,0.5475163459777832,-1.4521607160568237
1667824892798693400,3.269693359375,0.0668828934431076,0.4457407295703888,-1.6179862022399902
1667824892808701200,3.279701171875,0.05759032443165779,0.3565312325954437,-1.747917890548706
1667824892818709200,3.289709228515625,0.08161257207393646,0.27993738651275635,-1.82437002658844
1667824892828716300,3.29971630859375,0.12094958871603012,0.22137819230556488,-1.8434749841690063
1667824892838724400,3.309724365234375,0.160678893327713,0.19451302289962769,-1.8128150701522827
1667824892848731400,3.3197314453125,0.19605766236782074,0.19068899750709534,-1.7566026449203491
1667824892858739500,3.329739501953125,0.21867135167121887,0.1991562396287918,-1.6959304809570312
1667824892868747500,3.33974755859375,0.22151321172714233,0.18115940690040588,-1.6114766597747803
1667824892878754300,3.34975439453125,0.20115521550178528,0.1008770763874054,-1.499064326286316
1667824892888762400,3.359762451171875,0.16207385063171387,-0.011814847588539124,-1.3591676950454712
1667824892898769400,3.369769287109375,0.11206848174333572,-0.12224654853343964,-1.1821883916854858
1667824892908777500,3.379777587890625,0.07322973757982254,-0.19552955031394958,-0.9669426679611206
1667824892918785300,3.389785400390625,0.05380890145897865,-0.20505328476428986,-0.7192170023918152
1667824892928792600,3.39979248046875,0.065882608294487,-0.127747043967247,-0.47602805495262146
1667824892938800400,3.40980029296875,0.10329069942235947,0.005392901133745909,-0.25080612301826477
1667824892948808400,3.419808349609375,0.161331906914711,0.1367192268371582,-0.04652861878275871
1667824892958815200,3.429815185546875,0.2329387068748474,0.25341522693634033,0.10130637884140015
1667824892968823600,3.439823486328125,0.3011648952960968,0.3287997245788574,0.18639704585075378
1667824892978830300,3.449830322265625,0.364920437335968,0.3583102226257324,0.22147539258003235
1667824892988838400,3.45983837890625,0.39766719937324524,0.34522637724876404,0.23118847608566284
1667824892998846200,3.46984619140625,0.42406153678894043,0.2780103087425232,0.24267150461673737
1667824893008853500,3.479853515625,0.44981110095977783,0.1889672577381134,0.25578197836875916
1667824893018861300,3.489861328125,0.4721827208995819,0.07897763699293137,0.26020681858062744
1667824893028868400,3.499868408203125,0.5124784708023071,-0.07774965465068817,0.259268581867218
1667824893038876400,3.50987646484375,0.5419029593467712,-0.2564818561077118,0.22916793823242188
1667824893048884500,3.519884521484375,0.5523452162742615,-0.42100316286087036,0.16982418298721313
1667824893058891300,3.529891357421875,0.5137376189231873,-0.5284276008605957,0.10109598934650421
1667824893068899300,3.5398994140625,0.3899243175983429,-0.4524811804294586,0.01540558785200119
1667824893078906400,3.54990625,0.1596572995185852,-0.18723806738853455,-0.1395035684108734
1667824893088914400,3.55991455078125,-0.14129267632961273,0.13837066292762756,-0.3671519160270691
1667824893098922500,3.569922607421875,-0.4435095191001892,0.3129800260066986,-0.6214909553527832
1667824893108929300,3.57992919921875,-0.6846968531608582,0.250639408826828,-0.8508999347686768
1667824893118937600,3.5899375,-0.8527827858924866,-0.008764995262026787,-1.0350607633590698
1667824893128944400,3.5999443359375,-0.9529770612716675,-0.41265228390693665,-1.0804442167282104
1667824893138952400,3.609952392578125,-0.9686878323554993,-0.8517348170280457,-0.957584023475647
1667824893148960300,3.619960205078125,-0.9336568713188171,-1.169240951538086,-0.6743709444999695
1667824893158967600,3.629967529296875,-0.9004999995231628,-1.292820930480957,-0.28383198380470276
1667824893168975400,3.639975341796875,-0.87993985414505,-1.204656958580017,0.12579920887947083
1667824893178978000,3.64997802734375,-0.8629730939865112,-0.9423017501831055,0.46744921803474426
1667824893188986000,3.659986083984375,-0.8160066604614258,-0.5898286700248718,0.6905645728111267
1667824893198994000,3.669993896484375,-0.7425335049629211,-0.24657435715198517,0.7804092764854431
1667824893209001000,3.6800009765625,-0.6619563698768616,-0.003005110891535878,0.7585936784744263
1667824893219009000,3.690009033203125,-0.5982959270477295,0.05878714844584465,0.6876026391983032
1667824893229017000,3.70001708984375,-0.5538160800933838,-0.05980660766363144,0.5942441821098328
1667824893239023900,3.71002392578125,-0.5117778182029724,-0.27882710099220276,0.5130475759506226
1667824893249032000,3.720031982421875,-0.4820944666862488,-0.5176109075546265,0.4557502269744873
1667824893259039000,3.7300390625,-0.4739300310611725,-0.739325761795044,0.4407547414302826
1667824893269047000,3.740047119140625,-0.4740152359008789,-0.8743661046028137,0.46135562658309937
1667824893279055000,3.75005517578125,-0.46586117148399353,-0.9175341129302979,0.48998913168907166
1667824893289062100,3.760062255859375,-0.44321390986442566,-0.9076167345046997,0.5097346305847168
1667824893299070200,3.7700703125,-0.4291660189628601,-0.8666767477989197,0.5129149556159973
1667824893309077000,3.780076904296875,-0.4269726276397705,-0.8005115985870361,0.5107426047325134
1667824893319085000,3.7900849609375,-0.4163402318954468,-0.7121217846870422,0.5257695317268372
1667824893329092900,3.8000927734375,-0.38855811953544617,-0.6027175784111023,0.5565410256385803
1667824893339100200,3.81010009765625,-0.3676299452781677,-0.5132896900177002,0.6264625787734985
1667824893349108000,3.82010791015625,-0.3545791208744049,-0.46069809794425964,0.7284954786300659
1667824893359115000,3.830114990234375,-0.3508110046386719,-0.4162158668041229,0.8320990800857544
1667824893369123000,3.840123046875,-0.35159051418304443,-0.39339444041252136,0.9245352745056152
1667824893379131100,3.850131103515625,-0.3615475594997406,-0.37961363792419434,0.9818542003631592
1667824893389138000,3.860137939453125,-0.3734950125217438,-0.3507678806781769,0.9885347485542297
1667824893399146000,3.87014599609375,-0.37178048491477966,-0.3138010799884796,0.9442879557609558
1667824893409154000,3.880154052734375,-0.34209635853767395,-0.2618289589881897,0.8594310879707336
1667824893419161000,3.8901611328125,-0.27601560950279236,-0.21989880502223969,0.7613974809646606
1667824893429169000,3.9001689453125,-0.18367847800254822,-0.19466163218021393,0.6411640048027039
1667824893439176200,3.91017626953125,-0.09532305598258972,-0.20538298785686493,0.5361646413803101
1667824893449184000,3.92018408203125,-0.027850007638335228,-0.2453136146068573,0.45698806643486023
1667824893459191000,3.93019091796875,0.019933760166168213,-0.3072297275066376,0.4101102948188782
1667824893469198800,3.94019873046875,0.04892200231552124,-0.38839513063430786,0.40970656275749207
1667824893479207000,3.95020703125,0.08707817643880844,-0.4960576891899109,0.459321528673172
1667824893489214000,3.9602138671875,0.13635064661502838,-0.5961584448814392,0.5697659850120544
1667824893499222000,3.970221923828125,0.18504388630390167,-0.6623409390449524,0.7418168783187866
1667824893509229800,3.980229736328125,0.2397790402173996,-0.6596798896789551,0.9631276726722717
1667824893519237000,3.990237060546875,0.2971171736717224,-0.5677944421768188,1.1851868629455566
1667824893529245000,4.000244873046875,0.3616487383842468,-0.39616596698760986,1.3721282482147217
1667824893539253000,4.0102529296875,0.4172273278236389,-0.15833131968975067,1.4937752485275269
1667824893549259800,4.020259765625,0.47027456760406494,0.10655174404382706,1.53529953956604
1667824893559268000,4.03026806640625,0.5130244493484497,0.353640079498291,1.4698952436447144
1667824893569275000,4.04027490234375,0.5427732467651367,0.5379700064659119,1.3064621686935425
1667824893579283000,4.050282958984375,0.5460678339004517,0.6247818470001221,1.0738608837127686
1667824893589291000,4.060291015625,0.5223601460456848,0.6104793548583984,0.795222818851471
1667824893599298000,4.070298095703125,0.4769340753555298,0.49935948848724365,0.5072121024131775
1667824893609306000,4.08030615234375,0.4281249940395355,0.32193809747695923,0.25934502482414246
1667824893619313000,4.09031298828125,0.388121634721756,0.11878843605518341,0.08702198415994644
1667824893629321200,4.1003212890625,0.38166508078575134,-0.04086567461490631,0.00005326322207110934
1667824893639329000,4.1103291015625,0.41740840673446655,-0.086729034781456,-0.015681492164731026
1667824893649336000,4.120336181640625,0.4734397232532501,-0.021948708221316338,0.010276872664690018
1667824893659344000,4.13034375,0.5273962020874023,0.08861082792282104,0.042332276701927185
1667824893669351200,4.14035107421875,0.5718802809715271,0.20452570915222168,0.06889517605304718
1667824893679359000,4.15035888671875,0.5980559587478638,0.2799384295940399,0.0717460885643959
1667824893689367000,4.160366943359375,0.6041796207427979,0.3110215365886688,0.061831943690776825
1667824893699374000,4.1703740234375,0.5931437611579895,0.3105615973472595,0.03509806469082832
1667824893709382100,4.180382080078125,0.5731271505355835,0.3149124085903168,-0.010486995801329613
1667824893719389000,4.190388916015625,0.5335419774055481,0.3629592955112457,-0.06841767579317093
1667824893729397000,4.20039697265625,0.48136743903160095,0.44646164774894714,-0.16177985072135925
1667824893739404800,4.21040478515625,0.41751280426979065,0.5363563895225525,-0.28096774220466614
1667824893749412000,4.220412109375,0.33874955773353577,0.6105448603630066,-0.43416422605514526
1667824893759420000,4.230419921875,0.2588683068752289,0.6556302905082703,-0.6144623756408691
1667824893769427000,4.240427001953125,0.1908692866563797,0.6793726682662964,-0.8044725060462952
1667824893779435000,4.25043505859375,0.13602787256240845,0.7022507786750793,-0.9858473539352417
1667824893789443000,4.260443115234375,0.09705544263124466,0.7086418867111206,-1.142638087272644
1667824893799449900,4.270449951171875,0.06286445260047913,0.7108701467514038,-1.2425428628921509
1667824893809458000,4.2804580078125,0.042810581624507904,0.6726502776145935,-1.278489351272583
1667824893819466200,4.29046630859375,0.044383976608514786,0.6098366975784302,-1.2475098371505737
1667824893829473000,4.30047314453125,0.08043652027845383,0.5484402179718018,-1.1754522323608398
1667824893839481000,4.310481201171875,0.15729615092277527,0.5227468013763428,-1.0723215341567993
1667824893849488100,4.320488037109375,0.24838531017303467,0.5366581082344055,-0.9499841928482056
1667824893859496200,4.33049609375,0.3268015682697296,0.5808237195014954,-0.8325038552284241
1667824893869504000,4.34050390625,0.39107879996299744,0.6305036544799805,-0.7312211990356445
1667824893879511000,4.350510986328125,0.43654242157936096,0.6544612050056458,-0.6430431604385376
1667824893889519000,4.36051904296875,0.44784674048423767,0.6493076682090759,-0.5829917788505554
1667824893899526100,4.370526123046875,0.42199838161468506,0.6247711777687073,-0.549322783946991
1667824893909534000,4.380533935546875,0.36315131187438965,0.5691843628883362,-0.5402722954750061
1667824893919542000,4.3905419921875,0.281909704208374,0.49900367856025696,-0.5418400764465332
1667824893929549000,4.400549072265625,0.19837407767772675,0.4535142183303833,-0.5812721848487854
1667824893939557000,4.41055712890625,0.1445728987455368,0.4525592029094696,-0.6619697213172913
1667824893949564000,4.42056396484375,0.1411382108926773,0.4815637171268463,-0.7730863690376282
1667824893959572000,4.430572021484375,0.19757139682769775,0.4947950839996338,-0.8963332176208496
1667824893969580000,4.440580078125,0.29420021176338196,0.45592784881591797,-1.0230463743209839
1667824893979587000,4.450587158203125,0.41761934757232666,0.3474399745464325,-1.1357247829437256
1667824893989595000,4.460594970703125,0.5374200344085693,0.18551073968410492,-1.1706651449203491
1667824893999602200,4.470602294921875,0.6472586393356323,0.03386768698692322,-1.140941858291626
1667824894009610000,4.48060986328125,0.7702069282531738,-0.103391632437706,-1.05649995803833
1667824894019618000,4.4906181640625,0.8842658996582031,-0.22416731715202332,-0.9040462374687195
1667824894029624800,4.500624755859375,0.9699645638465881,-0.3462221324443817,-0.7028164863586426
1667824894039633200,4.510633056640625,1.0097638368606567,-0.4452536404132843,-0.48517680168151855
1667824894049641000,4.520640869140625,1.0163600444793701,-0.5269458293914795,-0.2683725953102112
1667824894059648000,4.53064794921875,0.9954048991203308,-0.5668905973434448,-0.09563038498163223
1667824894069655800,4.54065576171875,0.9365213513374329,-0.545141875743866,0.006983873434364796
1667824894079663000,4.5506630859375,0.8043612241744995,-0.4730357229709625,0.035649873316287994
1667824894089671000,4.5606708984375,0.5987470746040344,-0.3501095473766327,0.014126471243798733
1667824894099678000,4.570677978515625,0.31429988145828247,-0.20367589592933655,-0.040046751499176025
1667824894109686000,4.58068603515625,0.012460930272936821,-0.056107476353645325,-0.14048334956169128
1667824894119694000,4.590694091796875,-0.2971930503845215,0.0629749745130539,-0.242343932390213
1667824894129700900,4.600700927734375,-0.5859492421150208,0.12517575919628143,-0.28834524750709534
1667824894139709000,4.610708984375,-0.8095831274986267,0.15353842079639435,-0.28807786107063293
1667824894149717000,4.620717041015625,-0.9372614622116089,0.13783696293830872,-0.2379707545042038
1667824894159724000,4.63072412109375,-0.9863110184669495,0.09044920653104782,-0.12161005288362503
1667824894169732000,4.640732177734375,-0.9549967646598816,0.028683044016361237,0.06787198781967163
1667824894179739100,4.6507392578125,-0.8575530648231506,-0.0021763353142887354,0.33244213461875916
1667824894189747500,4.66074755859375,-0.7329892516136169,0.048276983201503754,0.6432737708091736
1667824894199755300,4.67075537109375,-0.6110854744911194,0.17254380881786346,0.941814661026001
1667824894209762300,4.68076220703125,-0.52452552318573,0.3137139678001404,1.1796983480453491
1667824894219770000,4.69077001953125,-0.4689829349517822,0.41905638575553894,1.3196498155593872
1667824894229777400,4.70077734375,-0.45469027757644653,0.4511392116546631,1.3470889329910278
1667824894239785200,4.71078515625,-0.48695075511932373,0.41642969846725464,1.2678987979888916
1667824894249793300,4.720793212890625,-0.5457871556282043,0.31168732047080994,1.0945242643356323
1667824894259800300,4.73080029296875,-0.606699526309967,0.145046666264534,0.8734102845191956
1667824894269808400,4.740808349609375,-0.6523817777633667,-0.073709636926651,0.6389937996864319
1667824894279815200,4.750815185546875,-0.6821918487548828,-0.2942332327365875,0.4178832471370697
1667824894289823200,4.7608232421875,-0.6801550984382629,-0.47016802430152893,0.25086256861686707
1667824894299831000,4.7708310546875,-0.6568364500999451,-0.5772372484207153,0.1532537341117859
1667824894309838300,4.78083837890625,-0.6209279894828796,-0.6086534857749939,0.13452132046222687
1667824894319846100,4.79084619140625,-0.5851281881332397,-0.5748686194419861,0.18093755841255188
1667824894329853200,4.800853271484375,-0.5449514389038086,-0.4987589418888092,0.25977006554603577
1667824894339861200,4.810861328125,-0.5206935405731201,-0.43606945872306824,0.3610817790031433
1667824894349869300,4.820869384765625,-0.5074301958084106,-0.41185998916625977,0.45855557918548584
1667824894359876000,4.8308759765625,-0.48994919657707214,-0.4093742072582245,0.5254696607589722
1667824894369884200,4.84088427734375,-0.4741300344467163,-0.41334444284439087,0.5478364825248718
1667824894379891200,4.85089111328125,-0.4640086889266968,-0.41846171021461487,0.5253151655197144
1667824894389899300,4.860899169921875,-0.4597873091697693,-0.4111851453781128,0.4495357275009155
1667824894399907300,4.8709072265625,-0.4420093595981598,-0.38893017172813416,0.322292298078537
1667824894409914400,4.880914306640625,-0.4064881205558777,-0.3769294321537018,0.15983787178993225
1667824894419922400,4.89092236328125,-0.35938453674316406,-0.37687990069389343,0.012462528422474861
1667824894429929200,4.90092919921875,-0.3222147822380066,-0.4215879738330841,-0.09030566364526749
1667824894439937300,4.910937255859375,-0.30043360590934753,-0.5172916054725647,-0.1206156313419342
1667824894449945000,4.920945068359375,-0.2810881435871124,-0.6307481527328491,-0.07985755056142807
1667824894459952400,4.930952392578125,-0.2622081935405731,-0.7361605763435364,0.024340493604540825
1667824894469960200,4.940960205078125,-0.23761309683322906,-0.7977285981178284,0.1688729077577591
1667824894479967200,4.95096728515625,-0.19401554763317108,-0.8091682195663452,0.3367713689804077
1667824894489975300,4.960975341796875,-0.12701919674873352,-0.7754610776901245,0.5145759582519531
1667824894499983400,4.9709833984375,-0.03827335312962532,-0.7213547229766846,0.6881027817726135
1667824894509990100,4.980990234375,0.06246151402592659,-0.69097501039505,0.8434462547302246
1667824894519998200,4.990998291015625,0.14419180154800415,-0.6837713718414307,0.9857065081596375
1667824894530006300,5.00100634765625,0.20187319815158844,-0.6849123239517212,1.100274920463562
1667824894540013300,5.011013427734375,0.24259400367736816,-0.6778280138969421,1.1910638809204102
1667824894550021000,5.021021240234375,0.2874365746974945,-0.6432716250419617,1.248152256011963
1667824894560028400,5.0310283203125,0.3197827935218811,-0.5839942097663879,1.2776507139205933
1667824894570036200,5.0410361328125,0.3400193452835083,-0.49995577335357666,1.2793959379196167
1667824894580043300,5.051043212890625,0.3566393554210663,-0.3580241799354553,1.2347522974014282
1667824894590051000,5.061051025390625,0.3488897979259491,-0.17072753608226776,1.1432902812957764
1667824894600059400,5.071059326171875,0.31228014826774597,0.003266899613663554,1.0121593475341797
1667824894610066200,5.081066162109375,0.26700693368911743,0.1479891985654831,0.8441533446311951
1667824894620074200,5.09107421875,0.21430963277816772,0.27842044830322266,0.6568199396133423
1667824894630082300,5.101082275390625,0.15896674990653992,0.40599730610847473,0.45873668789863586
1667824894640089300,5.11108935546875,0.10089811682701111,0.5449591875076294,0.24654453992843628
1667824894650097400,5.121097412109375,0.04506547749042511,0.6635745167732239,0.03311161324381828
1667824894660104200,5.131104248046875,0.004718322306871414,0.7265340685844421,-0.19382885098457336
1667824894670112300,5.1411123046875,-0.014119015075266361,0.7316939234733582,-0.423575758934021
1667824894680120300,5.151120361328125,-0.010575146414339542,0.6800054311752319,-0.6381999254226685
1667824894690127400,5.16112744140625,-0.002046372974291444,0.563666820526123,-0.8224733471870422
1667824894700135200,5.17113525390625,0.005352687556296587,0.39511510729789734,-0.9614027142524719
1667824894710142500,5.181142578125,0.011863850057125092,0.20613771677017212,-1.0347081422805786
1667824894720150300,5.191150390625,0.02196921408176422,0.03536784276366234,-1.0384477376937866
1667824894730158300,5.201158447265625,0.040645431727170944,-0.0906558707356453,-0.9622347354888916
1667824894740165000,5.2111650390625,0.044310204684734344,-0.16222113370895386,-0.8403780460357666
1667824894750173400,5.22117333984375,0.03785257413983345,-0.16301394999027252,-0.6872257590293884
1667824894760180200,5.23118017578125,0.028739236295223236,-0.1125345304608345,-0.5472934246063232
1667824894770188300,5.241188232421875,0.0359734483063221,-0.015989884734153748,-0.44371113181114197
1667824894780196000,5.251196044921875,0.05156359076499939,0.13260598480701447,-0.39928534626960754
1667824894790203400,5.261203369140625,0.06897294521331787,0.2997339963912964,-0.4097382426261902
1667824894800211200,5.271211181640625,0.07035059481859207,0.4374108910560608,-0.4588456153869629
1667824894810218200,5.28121826171875,0.04075248911976814,0.5041118860244751,-0.5320857167243958
1667824894820226300,5.291226318359375,-0.01088833436369896,0.506726861000061,-0.6018009185791016
1667824894830234400,5.301234375,-0.06113525852560997,0.46503746509552,-0.6517173051834106
1667824894840241200,5.3112412109375,-0.10021208971738815,0.4119257628917694,-0.6775339841842651
1667824894850249200,5.321249267578125,-0.1297907531261444,0.3718513250350952,-0.6837775111198425
1667824894860256300,5.33125634765625,-0.13921009004116058,0.3727613091468811,-0.668354868888855
1667824894870264300,5.341264404296875,-0.1231757253408432,0.432989239692688,-0.6525927186012268
1667824894880272100,5.351272216796875,-0.07438129186630249,0.5474662780761719,-0.6303837895393372
1667824894890279200,5.361279052734375,-0.013198093511164188,0.6677961349487305,-0.598494291305542
1667824894900287200,5.371287353515625,0.050761979073286057,0.7643306851387024,-0.566057562828064
1667824894910294300,5.381294189453125,0.1068340390920639,0.8233332633972168,-0.5455895662307739
1667824894920302000,5.391302001953125,0.1418498158454895,0.8258957862854004,-0.5493094325065613
1667824894930310100,5.40131005859375,0.15894757211208344,0.7612299919128418,-0.577941358089447
1667824894940317200,5.411317138671875,0.16810618340969086,0.6558231115341187,-0.6244902610778809
1667824894950325200,5.4213251953125,0.19269248843193054,0.5358448028564453,-0.6821092963218689
1667824894960332000,5.43133203125,0.24391520023345947,0.4328576922416687,-0.744338870048523
1667824894970340400,5.44134033203125,0.30314284563064575,0.3544462323188782,-0.779595136642456
1667824894980348400,5.451348388671875,0.35498231649398804,0.3003355860710144,-0.8002673983573914
1667824894990355200,5.461355224609375,0.3943273425102234,0.27447789907455444,-0.797079861164093
1667824895000363300,5.47136328125,0.44530555605888367,0.25210335850715637,-0.7703246474266052
1667824895010371300,5.481371337890625,0.5044642090797424,0.22050653398036957,-0.7255814075469971
1667824895020378400,5.49137841796875,0.5612034201622009,0.1332874894142151,-0.6392449140548706
1667824895030386200,5.50138623046875,0.6265259385108948,0.04188726097345352,-0.5162753462791443
1667824895040393500,5.5113935546875,0.6725251078605652,-0.03972610831260681,-0.37131282687187195
1667824895050401300,5.5214013671875,0.7110182046890259,-0.1361839324235916,-0.20274032652378082
1667824895060409300,5.531409423828125,0.743588924407959,-0.20590922236442566,-0.01618349738419056
1667824895070416100,5.541416015625,0.7564573287963867,-0.23245668411254883,0.16644863784313202
1667824895080424200,5.551424072265625,0.7417372465133667,-0.2729242146015167,0.34319543838500977
1667824895090431200,5.56143115234375,0.7150344848632812,-0.34262391924858093,0.5000343322753906
1667824895100439300,5.571439208984375,0.6849607825279236,-0.424434632062912,0.618816614151001
1667824895110447000,5.581447021484375,0.640243649482727,-0.48962217569351196,0.6869069933891296
1667824895120454400,5.591454345703125,0.5760300159454346,-0.49841833114624023,0.7261380553245544
1667824895130462200,5.601462158203125,0.47654658555984497,-0.4388340711593628,0.7123074531555176
1667824895140469200,5.61146923828125,0.3231932520866394,-0.32954141497612,0.661623477935791
1667824895150477000,5.62147705078125,0.10973767936229706,-0.15353496372699738,0.5731807351112366
1667824895160485400,5.6314853515625,-0.1367083191871643,0.07513629645109177,0.42985469102859497
1667824895170492200,5.6414921875,-0.37840455770492554,0.26663967967033386,0.23444180190563202
1667824895180500500,5.65150048828125,-0.5678578615188599,0.3918050527572632,0.021682925522327423
1667824895190507500,5.661507568359375,-0.6800677180290222,0.4004659354686737,-0.16717754304409027
1667824895200515600,5.671515625,-0.7224003076553345,0.2598302364349365,-0.30084559321403503
1667824895210523600,5.681523681640625,-0.7069768309593201,0.01041295938193798,-0.36192864179611206
1667824895220530400,5.691530517578125,-0.6544683575630188,-0.30336493253707886,-0.31481412053108215
1667824895230538500,5.70153857421875,-0.5797770619392395,-0.568967878818512,-0.1608583927154541
1667824895240545500,5.711545654296875,-0.48548761010169983,-0.6899827122688293,0.06431587040424347
1667824895250553600,5.7215537109375,-0.39751753211021423,-0.6682142615318298,0.31051552295684814
1667824895260561400,5.7315615234375,-0.32249388098716736,-0.5544925332069397,0.534155011177063
1667824895270568700,5.741568603515625,-0.26375067234039307,-0.38351330161094666,0.6960144639015198
1667824895280576500,5.751576416015625,-0.2198178470134735,-0.20520055294036865,0.7959048748016357
1667824895290583600,5.76158349609375,-0.18781223893165588,-0.0731343999505043,0.8386680483818054
1667824895300591400,5.77159130859375,-0.16325576603412628,0.011377557180821896,0.8268334865570068
1667824895310599700,5.781599609375,-0.17086894810199738,0.037097834050655365,0.7638611793518066
1667824895320606500,5.7916064453125,-0.19145119190216064,0.012256932444870472,0.6741334199905396
1667824895330614500,5.801614501953125,-0.2097867876291275,-0.056175120174884796,0.562096357345581
1667824895340621600,5.81162158203125,-0.22146101295948029,-0.14742115139961243,0.4360734522342682
1667824895350629600,5.821629638671875,-0.21483321487903595,-0.23683065176010132,0.3063977360725403
1667824895360637400,5.831637451171875,-0.20721390843391418,-0.3205505907535553,0.18980056047439575
1667824895370644500,5.84164453125,-0.21978561580181122,-0.36928775906562805,0.11631542444229126
1667824895380652500,5.851652587890625,-0.24666038155555725,-0.3665628135204315,0.06962701678276062
1667824895390659600,5.86165966796875,-0.2899492681026459,-0.3259493410587311,0.05898156017065048
1667824895400667400,5.87166748046875,-0.33753517270088196,-0.2863848805427551,0.08220911771059036
1667824895410675500,5.881675537109375,-0.3697229325771332,-0.24517540633678436,0.12011469155550003
1667824895420682500,5.8916826171875,-0.37916621565818787,-0.2034655064344406,0.1501341015100479
1667824895430690600,5.901690673828125,-0.3860033452510834,-0.16999010741710663,0.18392376601696014
1667824895440698600,5.91169873046875,-0.39903581142425537,-0.17504052817821503,0.200991690158844
1667824895450705400,5.921705322265625,-0.421965092420578,-0.18775498867034912,0.17483945190906525
1667824895460713500,5.93171337890625,-0.44146713614463806,-0.18724872171878815,0.1016097143292427
1667824895470720500,5.941720458984375,-0.44277051091194153,-0.18949642777442932,0.0045585329644382
1667824895480728300,5.951728271484375,-0.4404008090496063,-0.24532108008861542,-0.06888478994369507
1667824895490735600,5.961735595703125,-0.44608667492866516,-0.3254803717136383,-0.09655769914388657
1667824895500743400,5.971743408203125,-0.4558093249797821,-0.3980288505554199,-0.06464584171772003
1667824895510751500,5.98175146484375,-0.46629154682159424,-0.41647523641586304,0.014401842840015888
1667824895520758300,5.99175830078125,-0.4734905958175659,-0.4011727273464203,0.1402852088212967
1667824895530766600,6.0017666015625,-0.4525187313556671,-0.39392387866973877,0.305407851934433
1667824895540774700,6.011774658203125,-0.3946876525878906,-0.39927229285240173,0.49848276376724243
1667824895550781400,6.021781494140625,-0.3111112713813782,-0.39482295513153076,0.7204359173774719
1667824895560789500,6.03178955078125,-0.22138139605522156,-0.35101553797721863,0.9504126906394958
1667824895570796500,6.041796630859375,-0.1258884221315384,-0.2640572190284729,1.1518059968948364
1667824895580804600,6.0518046875,-0.03274250030517578,-0.14088761806488037,1.3115493059158325
1667824895590812400,6.0618125,0.051720984280109406,-0.00481366366147995,1.412959337234497
1667824895600819700,6.07181982421875,0.12321087718009949,0.1740008294582367,1.4329431056976318
1667824895610827500,6.08182763671875,0.1838286817073822,0.3830786645412445,1.3413077592849731
1667824895620834600,6.09183447265625,0.2331714630126953,0.5766843557357788,1.1558172702789307
1667824895630842400,6.10184228515625,0.2696293592453003,0.7049725651741028,0.921786367893219
1667824895640850400,6.111850341796875,0.3064986765384674,0.7450187802314758,0.6584146618843079
1667824895650857500,6.121857421875,0.3450535237789154,0.7157202959060669,0.397306352853775
1667824895660865500,6.131865478515625,0.38083869218826294,0.6293273568153381,0.1619849056005478
1667824895670872600,6.14187255859375,0.4203762412071228,0.47633299231529236,-0.027704864740371704
1667824895680880600,6.151880615234375,0.47224265336990356,0.2825731039047241,-0.1603393405675888
1667824895690888400,6.161888427734375,0.5312814712524414,0.082376629114151,-0.21419857442378998
1667824895700895500,6.1718955078125,0.6041492819786072,-0.05859833210706711,-0.21593043208122253
1667824895710903300,6.1819033203125,0.6633457541465759,-0.1048411950469017,-0.17437046766281128
1667824895720910600,6.19191064453125,0.699573278427124,-0.047931306064128876,-0.13882818818092346
1667824895730918400,6.20191845703125,0.7178326845169067,0.08595538884401321,-0.12238103896379471
1667824895740926500,6.211926513671875,0.7260288596153259,0.23947010934352875,-0.1514102965593338
1667824895750933500,6.22193359375,0.7193506956100464,0.38101205229759216,-0.2367323786020279
1667824895760941600,6.231941650390625,0.6916266679763794,0.4668441414833069,-0.3677181005477905
1667824895770948400,6.2419482421875,0.6383528113365173,0.4776294231414795,-0.5274174809455872
1667824895780956400,6.251956298828125,0.558668851852417,0.4221874475479126,-0.7001900672912598
1667824895790964500,6.261964599609375,0.48125264048576355,0.3532198369503021,-0.8799920678138733
1667824895800971500,6.271971435546875,0.42352837324142456,0.2967411279678345,-1.0564831495285034
1667824895810979600,6.2819794921875,0.382960706949234,0.2647054195404053,-1.2065973281860352
1667824895820986600,6.291986572265625,0.3463717997074127,0.24684973061084747,-1.304870843887329
1667824895830994700,6.30199462890625,0.30458545684814453,0.23971378803253174,-1.344766616821289
1667824895841002500,6.31200244140625,0.2654532492160797,0.23046809434890747,-1.3300342559814453
1667824895851009500,6.322009521484375,0.23197251558303833,0.23088088631629944,-1.2869848012924194
1667824895861017300,6.332017333984375,0.21144886314868927,0.2334953099489212,-1.238196849822998
1667824895871024600,6.342024658203125,0.20823149383068085,0.2313022017478943,-1.2034697532653809
1667824895881032400,6.352032470703125,0.2159365564584732,0.22593753039836884,-1.1786274909973145
1667824895891040500,6.36204052734375,0.2159072607755661,0.20232167840003967,-1.1439083814620972
1667824895901047600,6.372047607421875,0.19951283931732178,0.21229708194732666,-1.0859944820404053
1667824895911055600,6.3820556640625,0.16900020837783813,0.26816806197166443,-0.9985767602920532
1667824895921062400,6.3920625,0.14023646712303162,0.3703785836696625,-0.8971071243286133
1667824895931070500,6.402070556640625,0.1217069923877716,0.5063580274581909,-0.7967562675476074
1667824895941078500,6.41207861328125,0.13373702764511108,0.6294008493423462,-0.683886706829071
1667824895951085600,6.42208544921875,0.1588868498802185,0.7000206708908081,-0.5603101849555969
1667824895961093400,6.43209326171875,0.19088873267173767,0.722072422504425,-0.4544391334056854
1667824895971100700,6.4421005859375,0.22689945995807648,0.6874087452888489,-0.38286587595939636
1667824895981108500,6.4521083984375,0.27949315309524536,0.5988922119140625,-0.3306785821914673
1667824895991116500,6.462116455078125,0.32314157485961914,0.4843269884586334,-0.3702329099178314
1667824896001123300,6.472123291015625,0.36065831780433655,0.3133983910083771,-0.4511759579181671
1667824896011131600,6.482131591796875,0.38696208596229553,0.12742532789707184,-0.5472843647003174
1667824896021138400,6.492138427734375,0.4033767580986023,-0.05134334787726402,-0.607532262802124
1667824896031146500,6.502146484375,0.4118863642215729,-0.21761514246463776,-0.6007137894630432
1667824896041154600,6.512154541015625,0.4175562262535095,-0.3238161504268646,-0.5106843113899231
1667824896051161600,6.52216162109375,0.4197472035884857,-0.37148380279541016,-0.3783571720123291
1667824896061169700,6.532169677734375,0.42403116822242737,-0.3864651620388031,-0.19773651659488678
1667824896071176400,6.542176513671875,0.4392215609550476,-0.3833175599575043,0.013825533911585808
1667824896081184500,6.5521845703125,0.44292789697647095,-0.37293124198913574,0.24078917503356934
1667824896091192600,6.562192626953125,0.4374138116836548,-0.3778575360774994,0.4423190951347351
1667824896101199400,6.572199462890625,0.43525078892707825,-0.3977300524711609,0.5890097618103027
1667824896111207400,6.58220751953125,0.4177969694137573,-0.41474711894989014,0.6816539168357849
1667824896121214500,6.59221435546875,0.37068140506744385,-0.3780958950519562,0.7208558917045593
1667824896131222500,6.602222412109375,0.2676173150539398,-0.25546160340309143,0.7094570398330688
1667824896141230600,6.612230712890625,0.10187070816755295,-0.0162988118827343,0.6220872402191162
1667824896151237400,6.6222373046875,-0.11949604004621506,0.2546165883541107,0.4412972331047058
1667824896161245700,6.63224560546875,-0.3645681142807007,0.44203707575798035,0.18320603668689728
1667824896171252500,6.64225244140625,-0.598110020160675,0.47237393260002136,-0.11193612217903137
1667824896181263600,6.652263671875,-0.7584879994392395,0.34168967604637146,-0.3665148913860321
1667824896191271700,6.662271728515625,-0.8232882618904114,0.08934985101222992,-0.549547553062439
1667824896201278700,6.67227880859375,-0.7982223629951477,-0.2585902810096741,-0.6231312155723572
1667824896211286800,6.682286865234375,-0.7318731546401978,-0.6460213661193848,-0.5583513975143433
1667824896221293600,6.69229345703125,-0.6551389694213867,-0.9757236242294312,-0.32402920722961426
1667824896231302000,6.702302001953125,-0.5817595720291138,-1.1338921785354614,0.03555532917380333
1667824896241309700,6.712309814453125,-0.5202117562294006,-1.079655647277832,0.4085022807121277
1667824896251316700,6.722316650390625,-0.4747745096683502,-0.8734920620918274,0.7178694605827332
1667824896261324500,6.732324462890625,-0.4379997253417969,-0.600961446762085,0.9484094381332397
1667824896271331800,6.742331787109375,-0.4138520359992981,-0.3168826103210449,1.1220877170562744
1667824896281339600,6.752339599609375,-0.3972221910953522,-0.04208247363567352,1.227684736251831
1667824896291347700,6.76234765625,-0.3834158182144165,0.16294178366661072,1.2551566362380981
1667824896301354800,6.772354736328125,-0.38489681482315063,0.2633674442768097,1.2159309387207031
1667824896311362800,6.78236279296875,-0.4019775390625,0.27067995071411133,1.1130772829055786
1667824896321369600,6.79236962890625,-0.42477765679359436,0.186420738697052,0.966166079044342
1667824896331377700,6.802377685546875,-0.4442240595817566,0.06042312830686569,0.7671430110931396
1667824896341385700,6.8123857421875,-0.4566493034362793,-0.11494496464729309,0.5611376166343689
1667824896351392800,6.822392822265625,-0.46840769052505493,-0.30535298585891724,0.37372273206710815
1667824896361400800,6.83240087890625,-0.47262081503868103,-0.4587973952293396,0.24099476635456085
1667824896371408600,6.84240869140625,-0.4693158268928528,-0.5426195859909058,0.1671208143234253
1667824896381416000,6.852416015625,-0.4603135287761688,-0.5322284698486328,0.15729321539402008
1667824896391423700,6.862423828125,-0.46088531613349915,-0.46460390090942383,0.19017580151557922
1667824896401430800,6.8724306640625,-0.4530883729457855,-0.3798818290233612,0.26202547550201416
1667824896411438600,6.8824384765625,-0.4267001748085022,-0.317776620388031,0.33741477131843567
1667824896421446000,6.89244580078125,-0.40781599283218384,-0.28923872113227844,0.4047147333621979
1667824896431453700,6.90245361328125,-0.3920639157295227,-0.3221452832221985,0.44783636927604675
1667824896441461800,6.912461669921875,-0.386997252702713,-0.40123531222343445,0.46851980686187744
1667824896451468800,6.92246875,-0.39922595024108887,-0.48278555274009705,0.46136096119880676
1667824896461476900,6.932476806640625,-0.4409070909023285,-0.515177845954895,0.41278064250946045
1667824896471483600,6.942483642578125,-0.506216824054718,-0.4743156433105469,0.3197537660598755
1667824896481491700,6.95249169921875,-0.5490018725395203,-0.3805822432041168,0.20504795014858246
1667824896491499800,6.962499755859375,-0.5537276268005371,-0.25072357058525085,0.10336686670780182
1667824896501506800,6.9725068359375,-0.5278292298316956,-0.12015863507986069,0.03081170842051506
1667824896511514600,6.9825146484375,-0.495343416929245,-0.033061545342206955,0.0015632755821570754
1667824896521522000,6.99252197265625,-0.44751837849617004,-0.03600194305181503,0.01461915671825409
1667824896531529700,7.00252978515625,-0.3949284255504608,-0.1423928290605545,0.08249460905790329
1667824896541537800,7.012537841796875,-0.3419160544872284,-0.3431624174118042,0.2314358800649643
1667824896551544600,7.022544677734375,-0.26545989513397217,-0.560161828994751,0.4436109960079193
1667824896561552600,7.032552734375,-0.17492839694023132,-0.7071073651313782,0.7048380970954895
1667824896571559700,7.0425595703125,-0.07262200862169266,-0.7367781400680542,1.0039193630218506
1667824896581567700,7.052567626953125,0.022221149876713753,-0.6602064371109009,1.2994489669799805
1667824896591575800,7.062575927734375,0.11415160447359085,-0.4894849956035614,1.5537891387939453
1667824896601582800,7.072582763671875,0.1994372010231018,-0.26276665925979614,1.7319377660751343
1667824896611591000,7.0825908203125,0.27274763584136963,0.018495652824640274,1.8145922422409058
1667824896621598700,7.0925986328125,0.3366459310054779,0.3554039001464844,1.7764335870742798
1667824896631605800,7.102605712890625,0.3973124623298645,0.6925491690635681,1.6110198497772217
1667824896641613800,7.11261376953125,0.4513016641139984,0.9444413185119629,1.3572396039962769
1667824896651620900,7.122620849609375,0.49457991123199463,1.0615860223770142,1.0573787689208984
1667824896661628700,7.132628662109375,0.5255340933799744,1.078465461730957,0.7529552578926086
1667824896671636700,7.14263671875,0.5525875687599182,1.0215520858764648,0.4588160514831543
1667824896681643800,7.152643798828125,0.5542885065078735,0.9224633574485779,0.20008595287799835
1667824896691651800,7.16265185546875,0.5369585156440735,0.8128388524055481,-0.024871794506907463
1667824896701658600,7.17265869140625,0.5155376195907593,0.6983527541160583,-0.2155783623456955
1667824896711667000,7.1826669921875,0.49812591075897217,0.5634178519248962,-0.3689447343349457
1667824896721674800,7.1926748046875,0.4847131669521332,0.4432551860809326,-0.4981362819671631
1667824896731681800,7.202681884765625,0.46115642786026,0.3480250835418701,-0.6193943023681641
1667824896741689600,7.212689697265625,0.42085960507392883,0.28526103496551514,-0.7296371459960938
1667824896751697000,7.22269677734375,0.3784506320953369,0.24946868419647217,-0.8254177570343018
1667824896761704700,7.23270458984375,0.33468106389045715,0.22593912482261658,-0.8936188817024231
1667824896771712800,7.242712646484375,0.2828673720359802,0.20729567110538483,-0.9302743673324585
1667824896781719800,7.2527197265625,0.22764967381954193,0.18782129883766174,-0.9560703039169312
1667824896791727900,7.262727783203125,0.18125207722187042,0.17974978685379028,-0.9913451671600342
1667824896801734700,7.272734619140625,0.1585662066936493,0.20196162164211273,-1.0443521738052368
1667824896811742700,7.28274267578125,0.15646231174468994,0.2421359419822693,-1.1178733110427856
1667824896821750500,7.29275048828125,0.1681234985589981,0.27201154828071594,-1.2005690336227417
1667824896831757800,7.3027578125,0.17727065086364746,0.2953967750072479,-1.2695610523223877
1667824896841765600,7.312765625,0.16321821510791779,0.3134532570838928,-1.311894416809082
1667824896851772700,7.322772705078125,0.1534995436668396,0.3111421763896942,-1.3348519802093506
1667824896861780700,7.33278076171875,0.13656742870807648,0.30859699845314026,-1.3370120525360107
1667824896871788800,7.342788818359375,0.11839748173952103,0.30690935254096985,-1.3271408081054688
1667824896881795600,7.352795654296875,0.09253872185945511,0.3037763833999634,-1.3101359605789185
1667824896891803600,7.3628037109375,0.07516904920339584,0.31567567586898804,-1.2857608795166016
1667824896901810700,7.372810791015625,0.062189336866140366,0.32356899976730347,-1.2443891763687134
1667824896911818800,7.38281884765625,0.02098996937274933,0.34902137517929077,-1.1613656282424927
1667824896921826800,7.392826904296875,-0.04890735447406769,0.4237552583217621,-1.0430775880813599
1667824896931833900,7.402833740234375,-0.11989311128854752,0.540200412273407,-0.9085717797279358
1667824896941842000,7.412842041015625,-0.17681658267974854,0.6670421957969666,-0.7737042307853699
1667824896951848700,7.4228486328125,-0.20980942249298096,0.7710344195365906,-0.6577909588813782
1667824896961856800,7.432856689453125,-0.20331770181655884,0.7959640026092529,-0.5658210515975952
1667824896971864600,7.442864501953125,-0.16626514494419098,0.7163354754447937,-0.5071377754211426
1667824896981871900,7.452871826171875,-0.10105790942907333,0.5581916570663452,-0.49062269926071167
1667824896991879700,7.462879638671875,-0.008840896189212799,0.36150628328323364,-0.49317774176597595
1667824897001886700,7.47288671875,0.1047772765159607,0.15703383088111877,-0.4818659722805023
1667824897011894800,7.482894775390625,0.22775593400001526,0.018434934318065643,-0.4954046905040741
1667824897021902800,7.49290283203125,0.32053565979003906,-0.1044371947646141,-0.48299703001976013
1667824897031909600,7.50290966796875,0.3632301390171051,-0.19827979803085327,-0.41991233825683594
1667824897041917700,7.512917724609375,0.37303030490875244,-0.23878301680088043,-0.3075660765171051
1667824897051924700,7.5229248046875,0.38669899106025696,-0.2434547394514084,-0.14746882021427155
1667824897061932800,7.532932861328125,0.4077094495296478,-0.21518954634666443,0.04686098173260689
1667824897071940600,7.542940673828125,0.4460890591144562,-0.1833391934633255,0.22784967720508575
1667824897081948000,7.552947998046875,0.49379345774650574,-0.17982728779315948,0.40567800402641296
1667824897091955700,7.562955810546875,0.5345672965049744,-0.19419237971305847,0.5708179473876953
1667824897101962800,7.572962646484375,0.5749314427375793,-0.19839857518672943,0.7174428105354309
1667824897111970600,7.582970458984375,0.6298013925552368,-0.22195850312709808,0.8499284386634827
1667824897121979000,7.592978759765625,0.6730039715766907,-0.27668485045433044,0.9325771927833557
1667824897131985700,7.602985595703125,0.6748530268669128,-0.33211109042167664,0.9388449788093567
1667824897141993700,7.61299365234375,0.6139036417007446,-0.3296343684196472,0.8704304695129395
1667824897152000800,7.623000732421875,0.4897382855415344,-0.2140398472547531,0.7250988483428955
1667824897162008800,7.6330087890625,0.3145723044872284,0.00996395107358694,0.5134486556053162
1667824897172017000,7.643016845703125,0.10915844142436981,0.29872196912765503,0.23658670485019684
1667824897182020000,7.65302001953125,-0.09537951648235321,0.5365822315216064,-0.07695762813091278
1667824897192028200,7.663028076171875,-0.27376389503479004,0.6578913331031799,-0.3860081434249878
1667824897202035200,7.67303515625,-0.39260613918304443,0.601182222366333,-0.6434907913208008
1667824897212043300,7.683043212890625,-0.43122994899749756,0.35416659712791443,-0.8377668261528015
1667824897222051300,7.69305126953125,-0.41507068276405334,-0.09239225089550018,-0.9462344646453857
1667824897232058400,7.703058349609375,-0.39018478989601135,-0.6372760534286499,-0.9223703742027283
1667824897242066400,7.71306640625,-0.3735983669757843,-1.105970025062561,-0.7481629252433777
1667824897252073200,7.7230732421875,-0.3629521131515503,-1.3554142713546753,-0.44056594371795654
1667824897262081300,7.733081298828125,-0.3804783523082733,-1.3748196363449097,-0.08128633350133896
1667824897272089300,7.74308935546875,-0.41495752334594727,-1.1838083267211914,0.241916224360466
1667824897282096400,7.753096435546875,-0.4541105031967163,-0.8662373423576355,0.5039936304092407
1667824897292104200,7.763104248046875,-0.4820380210876465,-0.4840140640735626,0.6967955827713013
1667824897302111500,7.773111572265625,-0.49091511964797974,-0.09056238830089569,0.8200823664665222
1667824897312119300,7.783119384765625,-0.4861757755279541,0.22451379895210266,0.8731911182403564
1667824897322127400,7.79312744140625,-0.4748823642730713,0.37717604637145996,0.8548312783241272
1667824897332134100,7.803134033203125,-0.45549002289772034,0.3769936263561249,0.7778891324996948
1667824897342142500,7.813142578125,-0.4527086317539215,0.2507645785808563,0.6666603088378906
1667824897352149200,7.823149169921875,-0.46144992113113403,0.06451267749071121,0.5358543992042542
1667824897362157300,7.8331572265625,-0.4809245467185974,-0.11256489157676697,0.387144535779953
1667824897372165000,7.8431650390625,-0.5083960890769958,-0.25167909264564514,0.2441873699426651
1667824897382172400,7.85317236328125,-0.5432015061378479,-0.3354027569293976,0.12170007079839706
1667824897392180200,7.86318017578125,-0.5823430418968201,-0.3722896873950958,0.030176011845469475
1667824897402187300,7.873187255859375,-0.5979630351066589,-0.38361263275146484,-0.02503344789147377
1667824897412195300,7.8831953125,-0.5948982238769531,-0.4071102440357208,-0.04333362355828285
1667824897422203400,7.893203369140625,-0.590416431427002,-0.4308856129646301,-0.04158339649438858
1667824897432210200,7.903210205078125,-0.5778801441192627,-0.4574357271194458,-0.030224481597542763
1667824897442218200,7.91321826171875,-0.5453299283981323,-0.4808340072631836,-0.010121610015630722
1667824897452225300,7.923225341796875,-0.4997616112232208,-0.5188359618186951,0.019103121012449265
1667824897462233300,7.9332333984375,-0.453867107629776,-0.5423516631126404,0.05829047039151192
1667824897472241400,7.943241455078125,-0.4312185049057007,-0.5093172788619995,0.08031854033470154
1667824897482248200,7.953248291015625,-0.42446020245552063,-0.42003270983695984,0.07317408174276352
1667824897492256500,7.963256591796875,-0.4227994680404663,-0.3170778155326843,0.03327672928571701
1667824897502263300,7.97326318359375,-0.430594801902771,-0.2341347336769104,-0.010360228829085827
1667824897512271400,7.983271240234375,-0.44826194643974304,-0.17148840427398682,-0.03110678680241108
1667824897522279200,7.993279052734375,-0.4663360118865967,-0.1445433348417282,0.0012420982820913196
1667824897532286500,8.003286376953126,-0.46842074394226074,-0.1597318798303604,0.08883026987314224
1667824897542294300,8.013294189453125,-0.4471870958805084,-0.2316579967737198,0.22282588481903076
1667824897552301300,8.02330126953125,-0.3845468759536743,-0.334359347820282,0.4093230664730072
1667824897562309400,8.033309326171874,-0.2569766640663147,-0.445087194442749,0.6417555212974548
1667824897572317400,8.0433173828125,-0.07696988433599472,-0.4968388080596924,0.9079411029815674
1667824897582324200,8.05332421875,0.12209261953830719,-0.47725602984428406,1.1676284074783325
1667824897592332300,8.063332275390625,0.3132987916469574,-0.3933694064617157,1.398016333580017
1667824897602339300,8.07333935546875,0.47004660964012146,-0.27281448245048523,1.576462984085083
1667824897612347400,8.083347412109376,0.5779733061790466,-0.1121680811047554,1.6878222227096558
1667824897622355200,8.093355224609375,0.6501058340072632,0.09307188540697098,1.7027215957641602
1667824897632362200,8.1033623046875,0.6957105994224548,0.3464106619358063,1.6254523992538452
1667824897642370300,8.113370361328125,0.7191141843795776,0.6029444336891174,1.4470911026000977
1667824897652377300,8.12337744140625,0.7299458384513855,0.7926784157752991,1.1867480278015137
1667824897662385200,8.13338525390625,0.7405071258544922,0.8626732230186462,0.8668762445449829
1667824897672393200,8.143393310546875,0.7451306581497192,0.8247743248939514,0.5446617007255554
1667824897682400300,8.153400146484374,0.7525230050086975,0.7394937872886658,0.24590803682804108
1667824897692408300,8.163408203125,0.7621375918388367,0.6156471967697144,-0.007843808270990849
1667824897702415000,8.1734150390625,0.7750187516212463,0.44063037633895874,-0.18811291456222534
1667824897712423400,8.18342333984375,0.7777032256126404,0.24419642984867096,-0.3085349202156067
1667824897722431200,8.19343115234375,0.7636632919311523,0.09721576422452927,-0.38912245631217957
1667824897732438300,8.203438232421876,0.7206236720085144,0.030485205352306366,-0.456108957529068
1667824897742446000,8.213446044921875,0.6589992046356201,0.03424612060189247,-0.536312997341156
1667824897752453400,8.223453369140625,0.5767677426338196,0.06932128220796585,-0.6146117448806763
1667824897762461200,8.233461181640624,0.4908309578895569,0.11258353292942047,-0.6969321966171265
1667824897772469200,8.24346923828125,0.40743276476860046,0.16348187625408173,-0.7808372378349304
1667824897782476300,8.253476318359375,0.3127858638763428,0.22599318623542786,-0.8855080008506775
1667824897792484400,8.263484375,0.21695974469184875,0.3044579029083252,-0.9985077977180481
1667824897802491100,8.2734912109375,0.1397658884525299,0.3625342547893524,-1.1181172132492065
1667824897812499200,8.283499267578126,0.09198638051748276,0.4076412618160248,-1.2412059307098389
1667824897822507300,8.29350732421875,0.090669184923172,0.4353101849555969,-1.3585666418075562
1667824897832514300,8.303514404296875,0.104325070977211,0.4583161771297455,-1.4667503833770752
1667824897842522400,8.3135224609375,0.11259978264570236,0.4735981822013855,-1.5446445941925049
1667824897852529400,8.323529296875,0.10140091925859451,0.45642560720443726,-1.5587420463562012
1667824897862537500,8.333537353515625,0.07350537925958633,0.4427585303783417,-1.5264935493469238
1667824897872545300,8.343545166015625,0.04138152673840523,0.44663527607917786,-1.47411048412323
1667824897882552300,8.35355224609375,0.029745379462838173,0.4436240494251251,-1.3996858596801758
1667824897892560100,8.36356005859375,0.020063722506165504,0.41845476627349854,-1.295445203781128
1667824897902567400,8.3735673828125,-0.004582501482218504,0.39996764063835144,-1.1759483814239502
1667824897912575200,8.3835751953125,-0.04090668633580208,0.39345860481262207,-1.0520647764205933
1667824897922583300,8.393583251953125,-0.0804908499121666,0.38495326042175293,-0.9363354444503784
1667824897932590300,8.40359033203125,-0.12196984887123108,0.3740777373313904,-0.8371521830558777
1667824897942598400,8.413598388671875,-0.14802594482898712,0.3689250349998474,-0.7464891076087952
1667824897952605200,8.423605224609375,-0.16438814997673035,0.38876664638519287,-0.6611531972885132
1667824897962613200,8.43361328125,-0.16619695723056793,0.4346790313720703,-0.5817006826400757
1667824897972621300,8.443621337890624,-0.1540529429912567,0.4835219383239746,-0.4900360107421875
1667824897982628400,8.45362841796875,-0.13254153728485107,0.5164306163787842,-0.3942500948905945
1667824897992636200,8.46363623046875,-0.09224311262369156,0.5039374232292175,-0.30922868847846985
1667824898002643500,8.4736435546875,-0.022160163149237633,0.43601325154304504,-0.24391865730285645
1667824898012651300,8.4836513671875,0.05844999477267265,0.325510174036026,-0.21634961664676666
1667824898022659300,8.493659423828126,0.14893782138824463,0.18791158497333527,-0.22283068299293518
1667824898032666000,8.503666015625,0.24449150264263153,0.02821832150220871,-0.24839062988758087
1667824898042674200,8.513674072265625,0.34913963079452515,-0.17499284446239471,-0.2614672780036926
1667824898052682500,8.5236826171875,0.4397600591182709,-0.38608723878860474,-0.22265490889549255
1667824898062689300,8.533689208984375,0.492424339056015,-0.5582252144813538,-0.1340043991804123
1667824898072697300,8.543697265625,0.49477723240852356,-0.6903107762336731,0.013171462342143059
1667824898082704400,8.553704345703125,0.45414406061172485,-0.7917101383209229,0.20800167322158813
1667824898092712400,8.56371240234375,0.3978453576564789,-0.8254470229148865,0.41107437014579773
1667824898102719200,8.57371923828125,0.33537641167640686,-0.7902632355690002,0.5925445556640625
1667824898112727300,8.583727294921875,0.2685145437717438,-0.6927467584609985,0.7288835048675537
1667824898122735400,8.5937353515625,0.19420942664146423,-0.5450987219810486,0.7957711815834045
1667824898132742400,8.603742431640624,0.0824115201830864,-0.3632327914237976,0.7862482666969299
1667824898142750200,8.613750244140626,-0.07228511571884155,-0.1938088834285736,0.716235339641571
1667824898152757500,8.623757568359375,-0.253818154335022,-0.03958975523710251,0.5797531008720398
1667824898162765300,8.633765380859375,-0.42331716418266296,0.07516159862279892,0.4109707474708557
1667824898172773400,8.6437734375,-0.563819169998169,0.08447173982858658,0.2505509853363037
1667824898182780700,8.65378076171875,-0.6756716370582581,-0.007457383442670107,0.13348855078220367
1667824898192788500,8.66378857421875,-0.747620165348053,-0.1991594433784485,0.06413397938013077
1667824898202795800,8.673795654296875,-0.7591841220855713,-0.44888830184936523,0.03995833545923233
1667824898212803600,8.683803466796874,-0.7318470478057861,-0.6984848380088806,0.09175308793783188
1667824898222811600,8.693811767578126,-0.6926538348197937,-0.8477666974067688,0.22334866225719452
1667824898232818700,8.703818603515625,-0.6723839640617371,-0.8628732562065125,0.40812358260154724
1667824898242826800,8.71382666015625,-0.6877139210700989,-0.7696008086204529,0.6260386109352112
1667824898252834600,8.72383447265625,-0.7272698879241943,-0.5923128724098206,0.8247881531715393
1667824898262841600,8.733841552734376,-0.771685779094696,-0.37196531891822815,0.9821005463600159
1667824898272849700,8.743849609375,-0.7891348600387573,-0.16250555217266083,1.0814484357833862
1667824898282856700,8.753856689453125,-0.7832306027412415,-0.029703300446271896,1.1022911071777344
1667824898292864500,8.763864501953124,-0.7629554271697998,0.008807872422039509,1.0542833805084229
1667824898302872600,8.77387255859375,-0.7310203909873962,-0.022972160950303078,0.9517325162887573
1667824898312879600,8.783879638671875,-0.6895390152931213,-0.0852576419711113,0.8013182878494263
1667824898322887700,8.7938876953125,-0.6355242133140564,-0.16476577520370483,0.6177801489830017
1667824898332894500,8.80389453125,-0.5816777944564819,-0.24266670644283295,0.44302430748939514
1667824898342902800,8.81390283203125,-0.5257346034049988,-0.3057303726673126,0.306712806224823
1667824898352910600,8.82391064453125,-0.48788419365882874,-0.3391202688217163,0.2210594117641449
1667824898362917600,8.833917724609375,-0.47562459111213684,-0.35033032298088074,0.19337931275367737
1667824898372925400,8.843925537109374,-0.4711454212665558,-0.360812246799469,0.21633975207805634
1667824898382932700,8.8539326171875,-0.4628342390060425,-0.348519891500473,0.27698713541030884
1667824898392940500,8.8639404296875,-0.4457274079322815,-0.3062262535095215,0.3426377773284912
1667824898402948600,8.873948486328125,-0.423051118850708,-0.24209332466125488,0.3926072120666504
1667824898412955600,8.88395556640625,-0.38885587453842163,-0.18049068748950958,0.3872891366481781
1667824898422963700,8.893963623046876,-0.34957611560821533,-0.15279726684093475,0.3255770206451416
1667824898432970500,8.903970458984375,-0.30966517329216003,-0.17796599864959717,0.2027192860841751
1667824898442978600,8.913978515625,-0.28014376759529114,-0.25074753165245056,0.038543131202459335
1667824898452986600,8.923986572265624,-0.2590446174144745,-0.3480261564254761,-0.11851812154054642
1667824898462993700,8.93399365234375,-0.2479807734489441,-0.3952125608921051,-0.25232598185539246
1667824898473001700,8.944001708984375,-0.23316161334514618,-0.390135794878006,-0.36151906847953796
1667824898483008500,8.954008544921875,-0.22212041914463043,-0.3422020971775055,-0.4354822337627411
1667824898493016800,8.964016845703124,-0.22313295304775238,-0.2859981954097748,-0.47983983159065247
1667824898503024600,8.974024658203126,-0.2183842658996582,-0.20723041892051697,-0.479871541261673
1667824898513031700,8.98403173828125,-0.21867108345031738,-0.13584119081497192,-0.4330478310585022
1667824898523039500,8.99403955078125,-0.229568213224411,-0.10484892129898071,-0.3169443905353546
1667824898533046800,9.004046875,-0.24055428802967072,-0.14027854800224304,-0.12417521327733994
1667824898543054600,9.0140546875,-0.22359873354434967,-0.21990039944648743,0.13315193355083466
1667824898553062700,9.024062744140625,-0.16594529151916504,-0.3014623820781708,0.41380009055137634
1667824898563069700,9.034069580078125,-0.06981849670410156,-0.35602867603302,0.7261753082275391
1667824898573077800,9.044077880859374,0.04268035292625427,-0.3624037504196167,1.0384048223495483
1667824898583084500,9.05408447265625,0.15892574191093445,-0.3021739721298218,1.317721962928772
1667824898593092600,9.064092529296875,0.26540690660476685,-0.165012389421463,1.5295215845108032
1667824898603100400,9.074100341796875,0.34397974610328674,0.029618078842759132,1.6530482769012451
1667824898613107700,9.084107666015624,0.39276114106178284,0.2688996493816376,1.683685064315796
1667824898623115500,9.094115478515626,0.4164195954799652,0.5354421138763428,1.6097676753997803
1667824898633123600,9.10412353515625,0.4121348261833191,0.7726245522499084,1.4327998161315918
1667824898643130600,9.114130615234375,0.3864920437335968,0.929338812828064,1.1676470041275024
1667824898653138700,9.124138671875,0.333278089761734,0.9896079897880554,0.8525812029838562
1667824898663145500,9.1341455078125,0.2680221199989319,0.9604613184928894,0.5301903486251831
1667824898673153500,9.144153564453125,0.21418073773384094,0.8637979030609131,0.24104857444763184
1667824898683161900,9.154161865234375,0.1792674958705902,0.7058809399604797,-0.004452539142221212
1667824898693168600,9.164168701171874,0.17476648092269897,0.5174740552902222,-0.17970238626003265
1667824898703176700,9.1741767578125,0.2014196664094925,0.3347300589084625,-0.28884485363960266
1667824898713183700,9.184183837890625,0.25121358036994934,0.20516647398471832,-0.34784746170043945
1667824898723191800,9.19419189453125,0.3186357617378235,0.14878122508525848,-0.39348897337913513
1667824898733199600,9.20419970703125,0.379001647233963,0.1653255820274353,-0.45641013979911804
1667824898743206700,9.21420654296875,0.43005043268203735,0.22802624106407166,-0.5412864089012146
1667824898753214700,9.224214599609375,0.47342589497566223,0.2946947515010834,-0.633672297000885
1667824898763221800,9.2342216796875,0.48917341232299805,0.3529767096042633,-0.722520112991333
1667824898773229600,9.2442294921875,0.46767905354499817,0.37335628271102905,-0.7973376512527466
1667824898783237600,9.254237548828126,0.40516799688339233,0.3579637408256531,-0.83174729347229
1667824898793244700,9.26424462890625,0.3158503770828247,0.31825998425483704,-0.8314766883850098
1667824898803252700,9.274252685546875,0.22737909853458405,0.2870943546295166,-0.8158040046691895
1667824898813259500,9.284259521484374,0.15601862967014313,0.3001489043235779,-0.809336245059967
1667824898823267600,9.294267578125,0.10500577837228775,0.3691263794898987,-0.822783887386322
1667824898833275600,9.304275634765625,0.07497890293598175,0.47434201836586,-0.8675015568733215
1667824898843282700,9.31428271484375,0.0690871924161911,0.5705990195274353,-0.9407358169555664
1667824898853290500,9.32429052734375,0.07167258858680725,0.6241645216941833,-1.0221718549728394
1667824898863297800,9.3342978515625,0.08093240112066269,0.6139070987701416,-1.097662329673767
1667824898873305600,9.3443056640625,0.1038784608244896,0.5531095266342163,-1.142336368560791
1667824898883313700,9.354313720703125,0.12708577513694763,0.44727975130081177,-1.14937162399292
1667824898893320400,9.364320556640624,0.15464070439338684,0.33700066804885864,-1.114548921585083
1667824898903328800,9.374328857421874,0.16901299357414246,0.23456749320030212,-1.053889274597168
1667824898913335600,9.38433544921875,0.16700603067874908,0.1581195890903473,-0.9929092526435852
1667824898923343600,9.394343505859375,0.14881451427936554,0.11646270006895065,-0.9396615028381348
1667824898933351400,9.404351318359375,0.1257811039686203,0.10563721507787704,-0.9213359951972961
1667824898943358700,9.414358642578126,0.11412923783063889,0.1363610327243805,-0.9261131882667542
1667824898953366500,9.424366455078125,0.10583801567554474,0.17323702573776245,-0.9333274364471436
1667824898963373600,9.43437353515625,0.0780940055847168,0.20424208045005798,-0.9232628345489502
1667824898973381600,9.444381591796875,0.019267970696091652,0.2425074428319931,-0.8971135020256042
1667824898983389700,9.4543896484375,-0.05162857472896576,0.2876474857330322,-0.8646879196166992
1667824898993396500,9.464396484375,-0.12604714930057526,0.29647693037986755,-0.8203465342521667
1667824899003404500,9.474404541015625,-0.1776496171951294,0.31327322125434875,-0.8028013706207275
1667824899013411600,9.48441162109375,-0.18359538912773132,0.3035700023174286,-0.804631233215332
1667824899023419600,9.494419677734374,-0.1480587124824524,0.22645044326782227,-0.794314444065094
1667824899033427700,9.504427734375,-0.07563084363937378,0.15504977107048035,-0.7941961884498596
1667824899043434500,9.5144345703125,0.05162058398127556,0.03238563612103462,-0.7518841624259949
1667824899053442800,9.52444287109375,0.20686902105808258,-0.137144535779953,-0.6428452730178833
1667824899063450600,9.53445068359375,0.3578127324581146,-0.3239106833934784,-0.45447829365730286
1667824899073457700,9.544457763671875,0.47683846950531006,-0.4856087863445282,-0.20610523223876953
1667824899083465500,9.554465576171875,0.5411519408226013,-0.6290602087974548,0.0720057487487793
1667824899093472800,9.56447265625,0.5300009846687317,-0.7455069422721863,0.3340671956539154
1667824899103480600,9.57448046875,0.44644832611083984,-0.8018575310707092,0.5538091659545898
1667824899113488600,9.584488525390626,0.3260124623775482,-0.7411651611328125,0.7262511849403381
1667824899123495700,9.59449560546875,0.19366560876369476,-0.6066955327987671,0.8218355178833008
1667824899133503700,9.604503662109375,0.01323883980512619,-0.3740795850753784,0.859708845615387
1667824899143510500,9.614510498046876,-0.20354832708835602,-0.07519595324993134,0.837426483631134
1667824899153518600,9.6245185546875,-0.4089456796646118,0.2219398468732834,0.7933468818664551
1667824899163526700,9.634526611328125,-0.5894278287887573,0.4823288321495056,0.7154382467269897
1667824899173533700,9.64453369140625,-0.7498292326927185,0.6345878839492798,0.6066241264343262
1667824899183541800,9.654541748046874,-0.8840805292129517,0.6446085572242737,0.4627191722393036
1667824899193548800,9.664548828125,-0.9578298330307007,0.49581295251846313,0.282507061958313
1667824899203556900,9.674556884765625,-0.9526667594909668,0.21405503153800964,0.06035282090306282
1667824899213565000,9.68456494140625,-0.8951965570449829,-0.13279612362384796,-0.16601240634918213
1667824899223571700,9.69457177734375,-0.8258222937583923,-0.444942831993103,-0.339251846075058
1667824899233579800,9.704579833984376,-0.7566877007484436,-0.6921142935752869,-0.416179358959198
1667824899243586800,9.7145869140625,-0.6906633973121643,-0.8982911705970764,-0.3848635256290436
1667824899253594600,9.7245947265625,-0.665274441242218,-1.03386652469635,-0.2576152980327606
1667824899263602700,9.734602783203124,-0.6770884394645691,-1.1120671033859253,-0.03272891789674759
1667824899273609700,9.744609619140626,-0.7095862030982971,-1.1029391288757324,0.2592856287956238
1667824899283617800,9.75461767578125,-0.7662354111671448,-0.987697184085846,0.5847899317741394
1667824899293624600,9.76462451171875,-0.819947361946106,-0.7976372241973877,0.8875266313552856
1667824899303632600,9.774632568359374,-0.8506690263748169,-0.5550717711448669,1.107455849647522
1667824899313641000,9.784640869140626,-0.8503683805465698,-0.28787147998809814,1.2163662910461426
1667824899323647700,9.794647705078125,-0.8348850011825562,-0.02105868048965931,1.2320477962493896
1667824899333655800,9.80465576171875,-0.8080342411994934,0.20759207010269165,1.1965689659118652
1667824899343662800,9.814662841796874,-0.7690016031265259,0.3338536024093628,1.1340298652648926
1667824899353671000,9.8246708984375,-0.7183852791786194,0.38093775510787964,1.0504684448242188
1667824899363678700,9.8346787109375,-0.6784698367118835,0.4206041991710663,0.9571994543075562
1667824899373685800,9.844685791015625,-0.6424223780632019,0.41643691062927246,0.8822280168533325
1667824899383693600,9.854693603515624,-0.6111763119697571,0.3480583727359772,0.844082772731781
1667824899393700900,9.864700927734376,-0.588920533657074,0.25291773676872253,0.8321877717971802
1667824899403708700,9.874708740234375,-0.5590515732765198,0.12744078040122986,0.8149829506874084
1667824899413716700,9.884716796875,-0.5208176374435425,-0.005878661759197712,0.7662724256515503
1667824899423723800,9.894723876953124,-0.4771939814090729,-0.14387167990207672,0.6781372427940369
1667824899433731800,9.90473193359375,-0.4223872125148773,-0.28410470485687256,0.5676442384719849
1667824899443738600,9.914738525390625,-0.3739083409309387,-0.41748830676078796,0.43654191493988037
1667824899453746700,9.92474658203125,-0.3404505252838135,-0.5418605804443359,0.3090049922466278
1667824899463754800,9.934754638671874,-0.3315233290195465,-0.6386731863021851,0.20609857141971588
1667824899473761800,9.94476171875,-0.33704379200935364,-0.7265210151672363,0.15155144035816193
1667824899483769600,9.95476953125,-0.3574947416782379,-0.7946028113365173,0.15073971450328827
1667824899493777000,9.96477685546875,-0.407990425825119,-0.8108422756195068,0.17275872826576233
1667824899503784700,9.97478466796875,-0.46769794821739197,-0.7543087005615234,0.19523420929908752
1667824899513792800,9.984792724609376,-0.5172556638717651,-0.6551682353019714,0.1884375512599945
1667824899523799600,9.994799560546875,-0.5595445036888123,-0.516005277633667,0.14238297939300537
1667824899533807900,10.004807861328125,-0.5965433120727539,-0.38927584886550903,0.06496701389551163
1667824899543814700,10.014814697265624,-0.6164466738700867,-0.34470972418785095,-0.028564799576997757
1667824899553822700,10.02482275390625,-0.6395096778869629,-0.4322291910648346,-0.11477451771497726
1667824899563830800,10.034830810546875,-0.6731848120689392,-0.6169047355651855,-0.14928589761257172
1667824899573837800,10.044837890625,-0.6859032511711121,-0.842139720916748,-0.0926833301782608
1667824899583846000,10.054845947265624,-0.6780881881713867,-1.0077710151672363,0.05766382813453674
1667824899593852700,10.064852783203126,-0.6642161011695862,-1.079362392425537,0.2612539827823639
1667824899603860700,10.07486083984375,-0.648772120475769,-1.056719422340393,0.46187707781791687
1667824899613868800,10.084868896484375,-0.6221011281013489,-0.956092119216919,0.6296107172966003
1667824899623875800,10.094875732421874,-0.5972767472267151,-0.7015288472175598,0.7291862964630127
1667824899633883600,10.104883544921876,-0.5654609799385071,-0.3620402216911316,0.781099796295166
1667824899643891000,10.114890869140625,-0.5376525521278381,-0.030493194237351418,0.7749540209770203
1667824899653898800,10.124898681640625,-0.5336948037147522,0.25680941343307495,0.7300300002098083
1667824899663906800,10.13490673828125,-0.5488159656524658,0.4735630452632904,0.6823503375053406
1667824899673913600,10.14491357421875,-0.5929333567619324,0.5506988167762756,0.6571083664894104
1667824899683922000,10.154921875,-0.7273085117340088,0.5368197560310364,0.6315265893936157
1667824899693928700,10.1649287109375,-0.8925379514694214,0.519955575466156,0.5460377931594849
1667824899703936800,10.174936767578124,-0.9375003576278687,0.5126955509185791,0.40760692954063416
1667824899713944600,10.184944580078126,-0.8104129433631897,0.582048237323761,0.21621139347553253
1667824899723951900,10.194951904296875,-0.5754039287567139,0.6352845430374146,0.004514856729656458
1667824899733959700,10.204959716796875,-0.29742157459259033,0.5885213017463684,-0.18608039617538452
1667824899743966700,10.214966796875,0.0030304109677672386,0.5937578678131104,-0.3467201292514801
1667824899753974800,10.224974853515626,0.35091647505760193,0.708615779876709,-0.4529629647731781
1667824899763982800,10.23498291015625,0.5655752420425415,0.8614095449447632,-0.4917044937610626
1667824899773989600,10.24498974609375,0.6196091771125793,0.769583523273468,-0.49093616008758545
1667824899783997700,10.254997802734374,0.5546030402183533,0.5153341889381409,-0.44708001613616943
1667824899794004700,10.265004638671876,0.4435122013092041,0.09157226234674454,-0.3864787220954895
1667824899804012800,10.2750126953125,0.3114721477031708,-0.44297051429748535,-0.2742539346218109
1667824899814020900,10.285020751953125,0.16757407784461975,-1.0400434732437134,-0.05991686135530472
1667824899824028000,10.29502783203125,0.04326704517006874,-1.6456756591796875,0.21770942211151123
1667824899834036000,10.305035888671876,-0.05163762718439102,-2.1161935329437256,0.5226807594299316
1667824899844042800,10.315042724609375,-0.13246935606002808,-2.337618350982666,0.7949756979942322
1667824899854050600,10.325050537109375,-0.1941273957490921,-2.431915044784546,1.0036815404891968
1667824899864058600,10.33505859375,-0.2981717884540558,-2.4845125675201416,1.1571693420410156
1667824899874065700,10.345065673828126,-0.5549657344818115,-2.6508023738861084,1.3715487718582153
1667824899884073700,10.35507373046875,-0.7203155755996704,-2.528507709503174,1.453621745109558
1667824899894080500,10.36508056640625,-0.7576466798782349,-2.4151952266693115,1.4442580938339233
1667824899904088800,10.3750888671875,-0.7287143468856812,-2.390134811401367,1.472385287284851
1667824899914097000,10.385096923828126,-0.7006920576095581,-2.564218521118164,1.593945026397705
1667824899924103700,10.395103759765625,-0.6885062456130981,-2.835759401321411,1.7635310888290405
1667824899934111700,10.40511181640625,-0.6737715005874634,-2.954164505004883,1.8545726537704468
1667824899944119800,10.415119873046875,-0.6667327880859375,-2.8083696365356445,1.8219467401504517
1667824899954126800,10.425126953125,-0.6499788165092468,-2.514327049255371,1.6775081157684326
1667824899964134700,10.435134765625,-0.6247972846031189,-2.0823400020599365,1.4347585439682007
1667824899974142000,10.445141845703125,-0.5828434824943542,-1.5410642623901367,1.1299175024032593
1667824899984149800,10.455149658203124,-0.5664692521095276,-1.0389795303344727,0.8602340221405029
1667824899994156800,10.46515673828125,-0.5813915133476257,-0.6970022320747375,0.6503289937973022
1667824900004164600,10.47516455078125,-0.5911439657211304,-0.5270107984542847,0.44184210896492004
1667824900014172700,10.485172607421875,-0.6106569766998291,-0.48248621821403503,0.16553837060928345
1667824900024179700,10.4951796875,-0.6563009023666382,-0.560756504535675,-0.18873822689056396
1667824900034187800,10.505187744140626,-0.7345349788665771,-0.7599415183067322,-0.608502209186554
1667824900044195600,10.515195556640625,-0.8181667327880859,-0.9925279021263123,-1.027957797050476
1667824900054203000,10.525202880859375,-0.8868193030357361,-1.2289692163467407,-1.3264336585998535
1667824900064210700,10.535210693359375,-0.921346127986908,-1.4581525325775146,-1.4564443826675415
1667824900074217700,10.5452177734375,-0.9459444284439087,-1.659837007522583,-1.4301321506500244
1667824900084225500,10.5552255859375,-0.997999370098114,-1.8729362487792969,-1.296425700187683
1667824900094232800,10.56523291015625,-1.0948537588119507,-2.105900287628174,-1.0932636260986328
1667824900104240600,10.57524072265625,-1.236510992050171,-2.5039312839508057,-0.8594188690185547
1667824900114248700,10.585248779296874,-1.3991411924362183,-3.02064847946167,-0.6699296236038208
1667824900124255700,10.595255859375,-1.458640694618225,-2.74165678024292,-0.6543775796890259
1667824900134263800,10.605263916015625,-1.3863718509674072,-2.1795313358306885,-0.5796594023704529
1667824900144272000,10.61527197265625,-1.3745276927947998,-1.8798925876617432,-0.27480414509773254
1667824900154278700,10.625278564453126,-1.4788975715637207,-1.6369707584381104,0.13264618813991547
1667824900164287000,10.635286865234375,-1.7133930921554565,-1.3208531141281128,0.43708038330078125
1667824900174293800,10.645293701171875,-1.7057621479034424,-1.0480204820632935,0.42156535387039185
1667824900184301000,10.655301025390624,-1.49517023563385,-0.6395218968391418,0.3100803792476654
1667824900194309000,10.66530908203125,-1.3917256593704224,-0.2558583915233612,0.2760970890522003
1667824900204316200,10.675316162109375,-1.233437418937683,-0.11091639846563339,0.22180962562561035
1667824900214324200,10.68532421875,-0.9922152757644653,-0.08095796406269073,0.20758354663848877
1667824900224331300,10.695331298828124,-0.667218804359436,-0.06858571618795395,0.21943701803684235
1667824900234339300,10.70533935546875,-0.39421334862709045,-0.004775580484420061,0.1720047891139984
1667824900244346000,10.71534619140625,-0.1831200271844864,0.08783184736967087,0.08940471708774567
1667824900254354200,10.725354248046875,-0.04721704497933388,0.1635734885931015,-0.02810194157063961
1667824900264362000,10.735362060546874,0.037471476942300797,0.14898042380809784,-0.17841874063014984
1667824900274369300,10.745369384765626,0.06651777774095535,0.04893584921956062,-0.3129192888736725
1667824900284377000,10.755377197265625,0.07268911600112915,0.11452231556177139,-0.4577377438545227
1667824900294385200,10.76538525390625,0.05022668465971947,0.39922383427619934,-0.5742526054382324
1667824900304392200,10.77539208984375,-0.0041185785084962845,0.6764346361160278,-0.5812506079673767
1667824900314400300,10.785400146484376,-0.08276545256376266,0.7858399748802185,-0.4582171142101288
1667824900324407000,10.795406982421875,-0.1721360832452774,0.7966644167900085,-0.24857066571712494
1667824900334415000,10.8054150390625,-0.263901948928833,0.763304591178894,0.012298477813601494
1667824900344423200,10.815423095703125,-0.3380424976348877,0.6689104437828064,0.26134610176086426
1667824900354430200,10.82543017578125,-0.3836427330970764,0.4811093807220459,0.4427795708179474
1667824900364438000,10.83543798828125,-0.39992475509643555,0.22090521454811096,0.5565095543861389
1667824900374445300,10.8454453125,-0.415801465511322,-0.08947262167930603,0.6245933175086975
1667824900384453000,10.855453125,-0.4519176483154297,-0.4092423617839813,0.6752719283103943
1667824900394460200,10.865460205078126,-0.5122259855270386,-0.6867112517356873,0.7210551500320435
1667824900404468000,10.875468017578125,-0.5959603190422058,-0.922766387462616,0.7533432841300964
1667824900414476000,10.88547607421875,-0.6744710803031921,-1.140117883682251,0.7521352767944336
1667824900424483000,10.895483154296874,-0.7339288592338562,-1.3467587232589722,0.7317982912063599
1667824900434491100,10.9054912109375,-0.7586988806724548,-1.5577812194824219,0.6678749918937683
1667824900444499200,10.915499267578125,-0.764433741569519,-1.7250943183898926,0.5761871337890625
1667824900454506200,10.92550634765625,-0.7827043533325195,-1.8093324899673462,0.49492424726486206
1667824900464514300,10.935514404296875,-0.8318844437599182,-1.824138879776001,0.43719837069511414
1667824900474521000,10.94552099609375,-0.9091938734054565,-1.8329371213912964,0.4081864356994629
1667824900484529200,10.955529052734375,-0.9788235425949097,-1.9455771446228027,0.3990190327167511
1667824900494537200,10.965537109375,-1.042900800704956,-2.219425916671753,0.40824902057647705
1667824900504544300,10.975544189453124,-1.1077213287353516,-2.5467307567596436,0.41488295793533325
1667824900514552000,10.985552001953126,-1.1568212509155273,-2.7744545936584473,0.3855929672718048
1667824900524559400,10.995559326171875,-1.197788119316101,-2.7452504634857178,0.28370335698127747
1667824900534567200,11.005567138671875,-1.2253382205963135,-2.3888070583343506,0.07729505747556686
1667824900544575200,11.0155751953125,-1.219744324684143,-1.7170264720916748,-0.25783899426460266
1667824900554582000,11.02558203125,-1.2003538608551025,-0.8640043139457703,-0.662589430809021
1667824900564590300,11.03559033203125,-1.2085243463516235,-0.09518936276435852,-1.0139235258102417
1667824900574597000,11.04559716796875,-1.2369145154953003,0.37392300367355347,-1.2126924991607666
1667824900584605200,11.055605224609375,-1.299422025680542,0.5176721811294556,-1.2065328359603882
1667824900594612200,11.0656123046875,-1.3799885511398315,0.43984875082969666,-1.0366498231887817
1667824900604620300,11.075620361328125,-1.4526084661483765,0.23798806965351105,-0.7644667625427246
1667824900614628000,11.085628173828125,-1.52005136013031,-0.033002689480781555,-0.4583457410335541
1667824900624635100,11.09563525390625,-1.5917524099349976,-0.33580702543258667,-0.16322673857212067
1667824900634643200,11.105643310546874,-1.672783374786377,-0.6402825117111206,0.07232426106929779
1667824900644651300,11.1156513671875,-1.7540560960769653,-0.8871484994888306,0.2068205624818802
1667824900654658000,11.125657958984375,-1.8141287565231323,-1.0480502843856812,0.23999209702014923
1667824900664666000,11.135666015625,-1.8408259153366089,-1.1505047082901,0.20684266090393066
1667824900674673200,11.145673095703126,-1.8410661220550537,-1.2399859428405762,0.15713848173618317
1667824900684681200,11.15568115234375,-1.7917805910110474,-1.3622958660125732,0.18760211765766144
1667824900694689300,11.165689208984375,-1.684212327003479,-1.3753565549850464,0.22369594871997833
1667824900704696000,11.175696044921875,-1.592887282371521,-1.235815167427063,0.23554088175296783
1667824900714704400,11.185704345703124,-1.5455108880996704,-1.113140344619751,0.22079069912433624
1667824900724711200,11.195711181640625,-1.5545507669448853,-1.0256187915802002,0.15826952457427979
1667824900734719200,11.20571923828125,-1.5710538625717163,-0.9993274807929993,0.05200248211622238
1667824900744727000,11.21572705078125,-1.586618423461914,-1.0248368978500366,-0.07697414606809616
1667824900754734300,11.225734375,-1.6180520057678223,-1.069818377494812,-0.17204712331295013
1667824900764742100,11.2357421875,-1.6683454513549805,-1.1233210563659668,-0.21246033906936646
1667824900774749200,11.245749267578125,-1.6932690143585205,-1.1173456907272339,-0.19717085361480713
