time,seconds_elapsed,z,y,x
1667824622762721000,0.020720947265625,-0.4301632344722748,-0.6375195384025574,-0.08291149139404297
1667824622772729000,0.03072900390625,-0.4474194645881653,-0.652633786201477,-0.06257346272468567
1667824622782737200,0.040737060546875,-0.4661945700645447,-0.7059201598167419,-0.03693205118179321
1667824622792744200,0.050744140625,-0.4765542447566986,-0.7789770364761353,-0.011322296224534512
1667824622802752300,0.060752197265625,-0.47279807925224304,-0.8249809741973877,0.013392031192779541
1667824622812760000,0.070760009765625,-0.4538406431674957,-0.8214272260665894,0.03342273086309433
1667824622822767400,0.080767333984375,-0.41529351472854614,-0.7577362656593323,0.026306945830583572
1667824622832775200,0.090775146484375,-0.3574507236480713,-0.65777188539505,-0.0016754195094108582
1667824622842783200,0.100783203125,-0.29260778427124023,-0.5292553901672363,-0.05185136944055557
1667824622852790000,0.1107900390625,-0.22844184935092926,-0.36652666330337524,-0.12380518764257431
1667824622862798300,0.12079833984375,-0.18837063014507294,-0.1982068419456482,-0.20527033507823944
1667824622872805000,0.13080517578125,-0.19338403642177582,0.000545394723303616,-0.3006695508956909
1667824622882813200,0.140813232421875,-0.21602021157741547,0.24432815611362457,-0.41848599910736084
1667824622892821000,0.150821044921875,-0.24188855290412903,0.47501543164253235,-0.519507646560669
1667824622902828300,0.160828369140625,-0.29031673073768616,0.6722593307495117,-0.5992447137832642
1667824622912836000,0.170836181640625,-0.3698134422302246,0.8426259756088257,-0.6465850472450256
1667824622922844200,0.18084423828125,-0.4672561585903168,0.9958081841468811,-0.649888813495636
1667824622932850700,0.1908505859375,-0.5754950046539307,1.1495689153671265,-0.6378681063652039
1667824622942858800,0.200858642578125,-0.6747821569442749,1.3417106866836548,-0.6261443495750427
1667824622952866600,0.210866455078125,-0.7534535527229309,1.5991777181625366,-0.635310173034668
1667824622962873600,0.22087353515625,-0.7966344356536865,1.917976975440979,-0.6707649827003479
1667824622972881700,0.230881591796875,-0.8084381222724915,2.2411439418792725,-0.7260359525680542
1667824622982889700,0.2408896484375,-0.796820878982544,2.4678521156311035,-0.7796913385391235
1667824622992896500,0.250896484375,-0.7821268439292908,2.5284385681152344,-0.8130820393562317
1667824623002904600,0.260904541015625,-0.7971346378326416,2.4720916748046875,-0.8046076893806458
1667824623012911600,0.27091162109375,-0.8203808069229126,2.3546576499938965,-0.7660648226737976
1667824623022919700,0.280919677734375,-0.8277727365493774,2.1946120262145996,-0.6950169205665588
1667824623032927500,0.290927490234375,-0.814949095249176,2.0246846675872803,-0.6137162446975708
1667824623042934800,0.300934814453125,-0.7861647605895996,1.8861232995986938,-0.5144398808479309
1667824623052942600,0.310942626953125,-0.7386529445648193,1.7899610996246338,-0.42597851157188416
1667824623062950700,0.32095068359375,-0.6639739871025085,1.7545154094696045,-0.3512020409107208
1667824623072957400,0.33095751953125,-0.5911115407943726,1.7899231910705566,-0.2903221845626831
1667824623082965500,0.340965576171875,-0.5375944375991821,1.8568450212478638,-0.2472456991672516
1667824623092973800,0.350973876953125,-0.5003501772880554,1.8780579566955566,-0.24329039454460144
1667824623102980600,0.360980712890625,-0.484418660402298,1.8430280685424805,-0.27352651953697205
1667824623112988700,0.37098876953125,-0.481351763010025,1.78275728225708,-0.3241063356399536
1667824623122995700,0.38099560546875,-0.4856380820274353,1.724797010421753,-0.3999801278114319
1667824623133003800,0.391003662109375,-0.5074394941329956,1.6074434518814087,-0.4747944474220276
1667824623143011600,0.401011474609375,-0.5693680644035339,1.3465436697006226,-0.5441959500312805
1667824623153018600,0.4110185546875,-0.5749966502189636,1.1598619222640991,-0.526007890701294
1667824623163026700,0.421026611328125,-0.5859401822090149,1.0457607507705688,-0.4582920968532562
1667824623173034800,0.43103466796875,-0.5997803211212158,0.9421789646148682,-0.36115702986717224
1667824623183041500,0.44104150390625,-0.6015978455543518,0.8155685663223267,-0.23704302310943604
1667824623193049600,0.451049560546875,-0.6279863119125366,0.6742678880691528,-0.067652128636837
1667824623203057400,0.461057373046875,-0.6802324056625366,0.5493535995483398,0.13518311083316803
1667824623213064700,0.471064697265625,-0.6814563870429993,0.4123168885707855,0.3449893295764923
1667824623223072500,0.481072509765625,-0.5715148448944092,0.1660134494304657,0.5882056951522827
1667824623233080600,0.49108056640625,-0.5312936305999756,0.22789785265922546,0.7798553109169006
1667824623243087600,0.501087646484375,-0.5514536499977112,0.19717977941036224,0.9499770402908325
1667824623253095700,0.511095703125,-0.6183666586875916,-0.1703268587589264,0.9825307130813599
1667824623263102500,0.5211025390625,-0.7179830074310303,-0.6623914837837219,0.9013915061950684
1667824623273110500,0.531110595703125,-0.818734347820282,-0.9873296618461609,0.9015750288963318
1667824623283118800,0.541118896484375,-0.9745079278945923,-1.269348382949829,1.0169389247894287
1667824623293125600,0.551125732421875,-1.1486470699310303,-1.7573537826538086,1.1338269710540771
1667824623303133700,0.5611337890625,-1.2359778881072998,-2.483123302459717,1.216042160987854
1667824623313141500,0.5711416015625,-1.1891573667526245,-3.3592844009399414,1.3482528924942017
1667824623323148800,0.581148681640625,-1.0942869186401367,-4.137309551239014,1.5871098041534424
1667824623333156600,0.591156494140625,-1.0218710899353027,-4.899315357208252,1.8029019832611084
1667824623343164700,0.60116455078125,-1.0643632411956787,-4.967721939086914,1.7514970302581787
1667824623353171700,0.611171630859375,-1.1893398761749268,-4.693728446960449,1.7959723472595215
1667824623363179800,0.6211796875,-1.2331209182739258,-3.705801248550415,2.1249606609344482
1667824623373186600,0.6311865234375,-1.1850444078445435,-2.465833902359009,2.5378670692443848
1667824623383194600,0.641194580078125,-1.1758439540863037,-1.4787893295288086,2.788194179534912
1667824623393202400,0.651202392578125,-1.063687801361084,-0.9851879477500916,2.822190046310425
1667824623403209700,0.661209716796875,-0.8340504169464111,-0.977328896522522,2.6327271461486816
1667824623413217500,0.671217529296875,-0.602949857711792,-1.2272111177444458,2.2927346229553223
1667824623423225600,0.6812255859375,-0.4801466763019562,-1.3935534954071045,1.8903601169586182
1667824623433232600,0.691232666015625,-0.3973306119441986,-1.4682806730270386,1.517399549484253
1667824623443240700,0.70124072265625,-0.3186526894569397,-1.375603199005127,1.1932156085968018
1667824623453248500,0.71124853515625,-0.21752925217151642,-1.1314456462860107,0.9438028335571289
1667824623463255600,0.721255615234375,-0.0727391242980957,-0.7666081190109253,0.7474808096885681
1667824623473263600,0.731263671875,0.12166284024715424,-0.3247167468070984,0.6568464636802673
1667824623483270700,0.741270751953125,0.35614830255508423,0.11306615173816681,0.6838183999061584
1667824623493278500,0.751278564453125,0.5883546471595764,0.3983317017555237,0.766934335231781
1667824623503286500,0.76128662109375,0.7726969718933105,0.5221219658851624,0.8445397615432739
1667824623513293600,0.77129345703125,0.8996623754501343,0.5822257399559021,0.8530743718147278
1667824623523301600,0.781301513671875,0.998064398765564,0.6174030303955078,0.7811248302459717
1667824623533309700,0.791309814453125,1.052736759185791,0.6429355144500732,0.6373128294944763
1667824623543316500,0.80131640625,1.0620452165603638,0.6108235716819763,0.46584847569465637
1667824623553324800,0.81132470703125,1.0192447900772095,0.47184890508651733,0.25962740182876587
1667824623563332600,0.82133251953125,0.9508199095726013,0.2669602334499359,0.07342810183763504
1667824623573339600,0.831339599609375,0.8939337134361267,0.019085468724370003,-0.04720084369182587
1667824623583347500,0.841347412109375,0.8338809609413147,-0.2440100908279419,-0.08661404252052307
1667824623593355800,0.851355712890625,0.749332845211029,-0.5473902225494385,-0.08806760609149933
1667824623603362600,0.861362548828125,0.6246967315673828,-0.8903005123138428,-0.07481731474399567
1667824623613370600,0.87137060546875,0.4467492997646332,-1.233192801475525,-0.08304382115602493
1667824623623378400,0.88137841796875,0.23630809783935547,-1.5389095544815063,-0.1330479085445404
1667824623633385700,0.8913857421875,0.016474805772304535,-1.765774130821228,-0.2288556545972824
1667824623643393500,0.9013935546875,-0.16755127906799316,-1.8785570859909058,-0.36310872435569763
1667824623653400600,0.911400634765625,-0.28915733098983765,-1.848141074180603,-0.5140649676322937
1667824623663408600,0.92140869140625,-0.3508014678955078,-1.7127032279968262,-0.6452866792678833
1667824623673416700,0.931416748046875,-0.3788493573665619,-1.550295352935791,-0.7321227788925171
1667824623683423500,0.941423583984375,-0.3920513987541199,-1.355482578277588,-0.744242250919342
1667824623693431600,0.951431640625,-0.4096916615962982,-1.0738458633422852,-0.6669594645500183
1667824623703439600,0.961439697265625,-0.4338981509208679,-0.7571141719818115,-0.5472300052642822
1667824623713446700,0.97144677734375,-0.46157824993133545,-0.4842810332775116,-0.43052494525909424
1667824623723454700,0.981454833984375,-0.4693112075328827,-0.24319882690906525,-0.3240608870983124
1667824623733462500,0.991462646484375,-0.44426044821739197,-0.023061931133270264,-0.25268498063087463
1667824623743469800,1.0014697265625,-0.38582080602645874,0.14197766780853271,-0.22153380513191223
1667824623753477600,1.0114775390625,-0.3040678799152374,0.1867920160293579,-0.22919198870658875
1667824623763484700,1.021484619140625,-0.23278415203094482,0.14441554248332977,-0.24035583436489105
1667824623773492500,1.031492431640625,-0.18812879920005798,0.10663726180791855,-0.22264155745506287
1667824623783500500,1.04150048828125,-0.17392650246620178,0.08749015629291534,-0.19589748978614807
1667824623793507600,1.051507568359375,-0.18508674204349518,0.019459441304206848,-0.17011594772338867
1667824623803515600,1.061515625,-0.19623926281929016,-0.12049061059951782,-0.14716516435146332
1667824623813523500,1.0715234375,-0.20981872081756592,-0.3510010540485382,-0.14066866040229797
1667824623823530800,1.08153076171875,-0.23114947974681854,-0.6264346837997437,-0.1239234209060669
1667824623833538600,1.09153857421875,-0.2679860293865204,-0.7757962346076965,-0.05805811658501625
1667824623843546600,1.101546630859375,-0.3265392482280731,-0.7541256546974182,0.03442935273051262
1667824623853553400,1.111553466796875,-0.40240418910980225,-0.696001410484314,0.09190276265144348
1667824623863561700,1.121561767578125,-0.4779554605484009,-0.6908460259437561,0.10067373514175415
1667824623873568500,1.131568603515625,-0.5181292295455933,-0.7282248139381409,0.0722183957695961
1667824623883576600,1.14157666015625,-0.5248773694038391,-0.7804256081581116,0.015893951058387756
1667824623893584600,1.151584716796875,-0.5353478789329529,-0.8449881076812744,-0.04304340109229088
1667824623903591700,1.161591796875,-0.5791652202606201,-0.8545413017272949,-0.0511314757168293
1667824623913599700,1.171599853515625,-0.6509414315223694,-0.7437375783920288,0.001408963929861784
1667824623923607600,1.181607666015625,-0.7342306971549988,-0.5759244561195374,0.08023701608181
1667824623933615000,1.191614990234375,-0.8089898824691772,-0.4604437053203583,0.15505321323871613
1667824623943623200,1.201623046875,-0.8464745879173279,-0.44290706515312195,0.2183520495891571
1667824623953631200,1.21163134765625,-0.851860523223877,-0.4713298976421356,0.26990818977355957
1667824623963638000,1.221637939453125,-0.8415624499320984,-0.5113181471824646,0.30871260166168213
1667824623973646000,1.23164599609375,-0.8278982639312744,-0.558647871017456,0.3406867980957031
1667824623983653000,1.241653076171875,-0.8232042789459229,-0.6153972744941711,0.3808092176914215
1667824623993661200,1.2516611328125,-0.8164011836051941,-0.6318636536598206,0.44582682847976685
1667824624003669200,1.261669189453125,-0.8034033179283142,-0.5961077213287354,0.5547808408737183
1667824624013676300,1.27167626953125,-0.7752672433853149,-0.5608142018318176,0.6889314651489258
1667824624023684400,1.281684326171875,-0.7527419328689575,-0.5722642540931702,0.8358285427093506
1667824624033692200,1.291692138671875,-0.7377771139144897,-0.6160764694213867,0.9777287244796753
1667824624043699200,1.30169921875,-0.7366840243339539,-0.6520444750785828,1.094920039176941
1667824624053707000,1.31170703125,-0.7366209030151367,-0.6759871244430542,1.1750417947769165
1667824624063715300,1.32171533203125,-0.753886342048645,-0.6770280003547668,1.2228052616119385
1667824624073722000,1.33172216796875,-0.7849097847938538,-0.6302458643913269,1.267654538154602
1667824624083730200,1.341730224609375,-0.8151454925537109,-0.5740113258361816,1.3067517280578613
1667824624093738000,1.351738037109375,-0.8541901111602783,-0.5429255366325378,1.3242169618606567
1667824624103745300,1.361745361328125,-0.8905295729637146,-0.5748853087425232,1.3040943145751953
1667824624113753000,1.371753173828125,-0.9404451847076416,-0.6437730193138123,1.2513848543167114
1667824624123760000,1.381760009765625,-1.0279005765914917,-0.7435101866722107,1.1416951417922974
1667824624133768200,1.391768310546875,-1.1281859874725342,-0.8049157857894897,1.010766625404358
1667824624143776300,1.4017763671875,-1.185335636138916,-0.7885149121284485,0.8785629272460938
1667824624153783000,1.411782958984375,-1.21829354763031,-0.7754289507865906,0.7286173701286316
1667824624163791000,1.421791015625,-1.2705557346343994,-0.7853784561157227,0.5610989928245544
1667824624173799200,1.431799072265625,-1.3445886373519897,-0.7834274172782898,0.38145044445991516
1667824624183806200,1.44180615234375,-1.4107069969177246,-0.7503557205200195,0.20063462853431702
1667824624193814300,1.451814208984375,-1.4423226118087769,-0.693753182888031,0.031777165830135345
1667824624203822000,1.461822021484375,-1.4454755783081055,-0.6211723685264587,-0.11470877379179001
1667824624213829400,1.471829345703125,-1.43081533908844,-0.5574607849121094,-0.23736225068569183
1667824624223837200,1.481837158203125,-1.4062597751617432,-0.5123388767242432,-0.3261326551437378
1667824624233845200,1.49184521484375,-1.3563121557235718,-0.4716562032699585,-0.371549129486084
1667824624243852000,1.50185205078125,-1.3044626712799072,-0.47113022208213806,-0.37158745527267456
1667824624253860400,1.5118603515625,-1.2560245990753174,-0.49848464131355286,-0.32350754737854004
1667824624263867100,1.5218671875,-1.2139071226119995,-0.538477897644043,-0.24064098298549652
1667824624273875200,1.531875244140625,-1.174037218093872,-0.5768327116966248,-0.14110641181468964
1667824624283883000,1.541883056640625,-1.133124589920044,-0.5945833921432495,-0.04797463119029999
1667824624293890300,1.551890380859375,-1.0923619270324707,-0.5968505144119263,0.02488332986831665
1667824624303898000,1.561898193359375,-1.0502132177352905,-0.6155188083648682,0.0742412656545639
1667824624313906200,1.57190625,-1.011539340019226,-0.6492363214492798,0.10478159785270691
1667824624323913200,1.581913330078125,-0.9741964340209961,-0.6829630732536316,0.12334807962179184
1667824624333921300,1.59192138671875,-0.9325411319732666,-0.7173665761947632,0.13092289865016937
1667824624343929000,1.60192919921875,-0.8923237919807434,-0.7637718915939331,0.10941704362630844
1667824624353936100,1.61193603515625,-0.8581123352050781,-0.8265135884284973,0.057751454412937164
1667824624363944000,1.62194384765625,-0.8265801668167114,-0.8828650712966919,-0.030290428549051285
1667824624373952300,1.6319521484375,-0.7950587272644043,-0.9278897643089294,-0.15613918006420135
1667824624383959000,1.641958984375,-0.7510312795639038,-0.9565104842185974,-0.31323376297950745
1667824624393967000,1.651967041015625,-0.7084015607833862,-0.9343284964561462,-0.4907582104206085
1667824624403974100,1.66197412109375,-0.6659884452819824,-0.8273444175720215,-0.6723577976226807
1667824624413982200,1.671982177734375,-0.6250320076942444,-0.6163514852523804,-0.845076322555542
1667824624423990300,1.681990234375,-0.5828314423561096,-0.31393611431121826,-1.0152193307876587
1667824624433997000,1.6919970703125,-0.5221691727638245,0.03214887157082558,-1.1806559562683105
1667824624444005400,1.70200537109375,-0.436380535364151,0.3634328246116638,-1.3403685092926025
1667824624454013200,1.71201318359375,-0.3277864158153534,0.5974823236465454,-1.5313959121704102
1667824624464020200,1.722020263671875,-0.20857331156730652,0.6912232041358948,-1.7818745374679565
1667824624474028000,1.732028076171875,-0.06762390583753586,0.698814332485199,-2.091974973678589
1667824624484035300,1.742035400390625,0.09722838550806046,0.7036978006362915,-2.4060707092285156
1667824624494043100,1.752043212890625,0.31016382575035095,0.774716854095459,-2.657036542892456
1667824624504051200,1.76205126953125,0.5381293892860413,0.8777846097946167,-2.844160318374634
1667824624514058200,1.772058349609375,0.7276351451873779,0.9233078360557556,-2.925692558288574
1667824624524066300,1.78206640625,0.9048493504524231,0.9206058979034424,-2.8876824378967285
1667824624534074000,1.79207421875,1.0922967195510864,0.873949408531189,-2.724733352661133
1667824624544081200,1.8020810546875,1.3103657960891724,0.7723553776741028,-2.4604759216308594
1667824624554089000,1.8120888671875,1.539554476737976,0.6020931005477905,-2.1326868534088135
1667824624564097300,1.82209716796875,1.750003695487976,0.4099893569946289,-1.768860101699829
1667824624574104000,1.83210400390625,1.90317702293396,0.21181131899356842,-1.3768190145492554
1667824624584112000,1.842112060546875,1.9906140565872192,0.01618468575179577,-0.9746265411376953
1667824624594120200,1.8521201171875,1.9940706491470337,-0.1492021381855011,-0.5664257407188416
1667824624604127200,1.862127197265625,1.9268501996994019,-0.30557698011398315,-0.18575912714004517
1667824624614135300,1.87213525390625,1.7921062707901,-0.4664340317249298,0.14805907011032104
1667824624624143000,1.88214306640625,1.6332603693008423,-0.5778504610061646,0.4437468945980072
1667824624634150100,1.892150146484375,1.4598499536514282,-0.5882527828216553,0.7050014138221741
1667824624644158200,1.902158203125,1.3048667907714844,-0.535326361656189,0.8972110152244568
1667824624654165200,1.912165283203125,1.1758159399032593,-0.43859127163887024,1.0100764036178589
1667824624664173000,1.922173095703125,1.0804294347763062,-0.30272650718688965,1.0614345073699951
1667824624674181000,1.93218115234375,1.0166996717453003,-0.13467571139335632,1.0614923238754272
1667824624684188200,1.942188232421875,0.9630599021911621,0.015436826273798943,1.0279399156570435
1667824624694196200,1.9521962890625,0.9079707860946655,0.1475309580564499,0.9563160538673401
1667824624704204000,1.9622041015625,0.8577055931091309,0.2497161328792572,0.8792785406112671
1667824624714211300,1.97221142578125,0.7992409467697144,0.31886404752731323,0.7815722227096558
1667824624724219100,1.98221923828125,0.7462360262870789,0.36234763264656067,0.7005869746208191
1667824624734227200,1.992227294921875,0.6784162521362305,0.3818039000034332,0.6322202086448669
1667824624744234000,2.00223388671875,0.5819721817970276,0.40667223930358887,0.5869642496109009
1667824624754242300,2.0122421875,0.4456513524055481,0.4402959942817688,0.5570452213287354
1667824624764250400,2.02225048828125,0.3039938509464264,0.4628845751285553,0.5334864854812622
1667824624774257200,2.032257080078125,0.1766987442970276,0.5073026418685913,0.5013977885246277
1667824624784265000,2.042264892578125,0.0974150076508522,0.6266849637031555,0.4782218635082245
1667824624794272300,2.052272216796875,0.055558644235134125,0.8049788475036621,0.4449504613876343
1667824624804280000,2.062280029296875,0.046168968081474304,0.9573758244514465,0.37973740696907043
1667824624814288100,2.0722880859375,0.05625622346997261,1.0431567430496216,0.2772890627384186
1667824624824295200,2.082295166015625,0.10240817070007324,1.0801653861999512,0.1543939858675003
1667824624834303200,2.09230322265625,0.1715715378522873,1.1281893253326416,0.03583032637834549
1667824624844311300,2.102311279296875,0.2482922375202179,1.1956589221954346,-0.03315722569823265
1667824624854318000,2.112318115234375,0.3123391270637512,1.216471552848816,-0.07427936047315598
1667824624864326100,2.122326171875,0.34790101647377014,1.173870325088501,-0.09083683043718338
1667824624874334200,2.132334228515625,0.37964776158332825,1.106179118156433,-0.07807256281375885
1667824624884341200,2.14234130859375,0.4146091341972351,1.0227315425872803,-0.05199353024363518
1667824624894349000,2.15234912109375,0.4567680358886719,0.9042375683784485,-0.028149982914328575
1667824624904356400,2.1623564453125,0.5115289688110352,0.7547537088394165,-0.0037372864317148924
1667824624914364200,2.1723642578125,0.5783913731575012,0.5481422543525696,0.016998350620269775
1667824624924372200,2.182372314453125,0.6164036393165588,0.27569544315338135,0.013045094907283783
1667824624934378500,2.19237841796875,0.6091848611831665,-0.026319799944758415,-0.01230207271873951
1667824624944386600,2.202386474609375,0.564675509929657,-0.2996950149536133,-0.04965615272521973
1667824624954394400,2.212394287109375,0.5017064213752747,-0.4963923394680023,-0.06541647017002106
1667824624964401400,2.2224013671875,0.4134413003921509,-0.5627732872962952,-0.03984955698251724
1667824624974409200,2.2324091796875,0.30593162775039673,-0.513388454914093,0.008331021293997765
1667824624984417500,2.24241748046875,0.19219930469989777,-0.3687986433506012,0.08433361351490021
1667824624994424300,2.25242431640625,0.088624969124794,-0.14076998829841614,0.19048267602920532
1667824625004432400,2.262432373046875,0.017172921448946,0.12844790518283844,0.3237151801586151
1667824625014440200,2.272440185546875,0.011122752912342548,0.34473228454589844,0.4541786313056946
1667824625024447500,2.282447509765625,0.07179007679224014,0.44984620809555054,0.556833803653717
1667824625034455300,2.292455322265625,0.15727275609970093,0.44062262773513794,0.6414442658424377
1667824625044462300,2.30246240234375,0.21991652250289917,0.3276471197605133,0.7007471323013306
1667824625054470400,2.312470458984375,0.23062962293624878,0.15343672037124634,0.7457523941993713
1667824625064478500,2.322478515625,0.16935303807258606,-0.052003368735313416,0.7862378358840942
1667824625074485200,2.3324853515625,0.03639127314090729,-0.28743478655815125,0.808823823928833
1667824625084493300,2.342493408203125,-0.14057055115699768,-0.5582842826843262,0.8004388213157654
1667824625094501400,2.35250146484375,-0.3277745246887207,-0.8566051721572876,0.7323862314224243
1667824625104508400,2.36250830078125,-0.481770783662796,-1.1912802457809448,0.5701553821563721
1667824625114516500,2.3725166015625,-0.5866863131523132,-1.512601613998413,0.3169284462928772
1667824625124524300,2.382524169921875,-0.6379634737968445,-1.7542698383331299,-0.0009031384252011776
1667824625134531600,2.392531494140625,-0.6347543597221375,-1.9124113321304321,-0.33340439200401306
1667824625144539400,2.402539306640625,-0.5953465700149536,-2.0034937858581543,-0.6287772059440613
1667824625154547500,2.41254736328125,-0.5694984793663025,-2.0224716663360596,-0.8288043141365051
1667824625164554200,2.42255419921875,-0.5683149099349976,-1.9440600872039795,-0.909505307674408
1667824625174562600,2.4325625,-0.5982949137687683,-1.76499605178833,-0.8680843710899353
1667824625184569300,2.4425693359375,-0.6407651305198669,-1.5045183897018433,-0.7422246932983398
1667824625194577400,2.452577392578125,-0.6723526120185852,-1.1870386600494385,-0.5764671564102173
1667824625204585200,2.462585205078125,-0.6716846227645874,-0.8753429651260376,-0.40478527545928955
1667824625214592500,2.472592529296875,-0.6343758702278137,-0.6221325397491455,-0.26925143599510193
1667824625224600300,2.482600341796875,-0.5618207454681396,-0.45032989978790283,-0.19605331122875214
1667824625234608400,2.4926083984375,-0.46209096908569336,-0.36716312170028687,-0.17134049534797668
1667824625244615400,2.502615478515625,-0.36303237080574036,-0.3841099739074707,-0.18950386345386505
1667824625254623500,2.51262353515625,-0.2868369221687317,-0.49950531125068665,-0.23562875390052795
1667824625264631600,2.522631591796875,-0.2379303276538849,-0.692965567111969,-0.3012567162513733
1667824625274638300,2.532638427734375,-0.193669393658638,-0.9251383543014526,-0.36345404386520386
1667824625284646400,2.542646484375,-0.16799552738666534,-1.1561088562011719,-0.42737990617752075
1667824625294654500,2.552654541015625,-0.1622960865497589,-1.3622095584869385,-0.4834599494934082
1667824625304661500,2.56266162109375,-0.17612090706825256,-1.5484390258789062,-0.5229514241218567
1667824625314669300,2.57266943359375,-0.20591875910758972,-1.6949677467346191,-0.530021071434021
1667824625324677400,2.582677490234375,-0.2556740641593933,-1.812333106994629,-0.5116550922393799
1667824625334684400,2.592684326171875,-0.3287842273712158,-1.9055004119873047,-0.4704916775226593
1667824625344692500,2.6026923828125,-0.42918816208839417,-1.9854037761688232,-0.4143035411834717
1667824625354699300,2.61269921875,-0.5327768921852112,-2.007258415222168,-0.35427987575531006
1667824625364707600,2.62270751953125,-0.6323525905609131,-1.9428770542144775,-0.30710655450820923
1667824625374715400,2.63271533203125,-0.7071325182914734,-1.7828540802001953,-0.25151705741882324
1667824625384722400,2.642722412109375,-0.7684085369110107,-1.5516852140426636,-0.22479023039340973
1667824625394730200,2.652730224609375,-0.8084241151809692,-1.2419164180755615,-0.1679794043302536
1667824625404738300,2.66273828125,-0.843188464641571,-0.9059823155403137,-0.11131252348423004
1667824625414745300,2.672745361328125,-0.859345555305481,-0.5853281617164612,-0.045488499104976654
1667824625424753400,2.68275341796875,-0.8663873076438904,-0.32239922881126404,0.04429119452834129
1667824625434761500,2.692761474609375,-0.8627886176109314,-0.1367366760969162,0.14581967890262604
1667824625444768500,2.7027685546875,-0.8596694469451904,-0.027947736904025078,0.24628664553165436
1667824625454776600,2.712776611328125,-0.8737838864326477,0.017963828518986702,0.33053386211395264
1667824625464784400,2.722784423828125,-0.9081823229789734,0.03393351286649704,0.3797224462032318
1667824625474791400,2.73279150390625,-0.9584755897521973,0.040169570595026016,0.40464112162590027
1667824625484799500,2.742799560546875,-1.0096890926361084,0.033224865794181824,0.3991163671016693
1667824625494806500,2.752806640625,-1.0652843713760376,0.02224545180797577,0.3756597638130188
1667824625504814300,2.762814453125,-1.116500735282898,0.0038270854856818914,0.3272398114204407
1667824625514822400,2.772822509765625,-1.1522877216339111,-0.018609246239066124,0.2554774880409241
1667824625524829400,2.782829345703125,-1.1797535419464111,-0.06354711204767227,0.1501217931509018
1667824625534837500,2.79283740234375,-1.1965551376342773,-0.13389824330806732,0.024234971031546593
1667824625544845300,2.80284521484375,-1.2010067701339722,-0.22241750359535217,-0.11191131174564362
1667824625554852600,2.8128525390625,-1.1881616115570068,-0.2893925607204437,-0.25112032890319824
1667824625564860400,2.8228603515625,-1.1543132066726685,-0.31629258394241333,-0.3696960210800171
1667824625574868500,2.832868408203125,-1.0990022420883179,-0.31062936782836914,-0.46600446105003357
1667824625584875300,2.842875244140625,-1.036404013633728,-0.29454150795936584,-0.5558220148086548
1667824625594883300,2.85288330078125,-0.9765600562095642,-0.27269667387008667,-0.6472323536872864
1667824625604891400,2.862891357421875,-0.9060357213020325,-0.2334926277399063,-0.7383077144622803
1667824625614898400,2.8728984375,-0.8250197172164917,-0.1596764475107193,-0.8310464024543762
1667824625624906200,2.88290625,-0.7348741292953491,-0.07829046994447708,-0.9337512254714966
1667824625634913500,2.89291357421875,-0.6406546831130981,-0.011694660410284996,-1.0571112632751465
1667824625644921300,2.90292138671875,-0.524561882019043,0.03396102786064148,-1.1914929151535034
1667824625654929400,2.912929443359375,-0.383981853723526,0.06802872568368912,-1.3168505430221558
1667824625664936200,2.922936279296875,-0.22132566571235657,0.099551722407341,-1.4204890727996826
1667824625674944500,2.932944580078125,-0.04008504003286362,0.11971131712198257,-1.5075595378875732
1667824625684952600,2.94295263671875,0.17010989785194397,0.12765368819236755,-1.5878313779830933
1667824625694959400,2.95295947265625,0.4042835235595703,0.1628180742263794,-1.6401400566101074
1667824625704967400,2.962967529296875,0.6482651233673096,0.24897150695323944,-1.6602730751037598
1667824625714975200,2.972975341796875,0.897185206413269,0.3629486858844757,-1.6478595733642578
1667824625724982500,2.982982421875,1.150847315788269,0.4806773066520691,-1.6011171340942383
1667824625734990300,2.992990234375,1.4239267110824585,0.6059859395027161,-1.5140045881271362
1667824625744998400,3.002998291015625,1.7150566577911377,0.7448444366455078,-1.372450828552246
1667824625755005400,3.01300537109375,2.01535964012146,0.835900604724884,-1.1764861345291138
1667824625765013500,3.023013427734375,2.3004343509674072,0.8515377640724182,-0.9400269985198975
1667824625775020300,3.033020263671875,2.550891399383545,0.7629061341285706,-0.6933357119560242
1667824625785028400,3.0430283203125,2.7488818168640137,0.5869624614715576,-0.4442025125026703
1667824625795036400,3.053036376953125,2.8615753650665283,0.3542887270450592,-0.2068653106689453
1667824625805043500,3.06304345703125,2.8606879711151123,0.07158451527357101,0.001496932003647089
1667824625815051300,3.07305126953125,2.735279083251953,-0.24397796392440796,0.17329053580760956
1667824625825059300,3.083059326171875,2.490522861480713,-0.5388372540473938,0.3338785171508789
1667824625835066400,3.09306640625,2.1565442085266113,-0.7788322567939758,0.4889029860496521
1667824625845074400,3.103074462890625,1.7795971632003784,-0.9044004082679749,0.6407495141029358
1667824625855082500,3.11308251953125,1.4119752645492554,-0.8880422115325928,0.7811300754547119
1667824625865089500,3.123089599609375,1.1064157485961914,-0.7159501910209656,0.9147170186042786
1667824625875097600,3.13309765625,0.9009584784507751,-0.4279269874095917,1.02848219871521
1667824625885105400,3.14310546875,0.7817949056625366,-0.1317725032567978,1.1229908466339111
1667824625895112400,3.153112548828125,0.7301197052001953,0.104705810546875,1.1997910737991333
1667824625905120300,3.163120361328125,0.7177568674087524,0.2636367678642273,1.2227115631103516
1667824625915128600,3.173128662109375,0.7302588224411011,0.37383437156677246,1.2040832042694092
1667824625925135400,3.18313525390625,0.7345480918884277,0.4446299374103546,1.1518980264663696
1667824625935146800,3.193146728515625,0.7034745812416077,0.4982798397541046,1.072969675064087
1667824625945154000,3.203154052734375,0.6303864121437073,0.5438985824584961,0.9841089248657227
1667824625955161900,3.213161865234375,0.5167520046234131,0.5720615386962891,0.8866132497787476
1667824625965170000,3.223169921875,0.3731682300567627,0.5833488702774048,0.7821855545043945
1667824625975176700,3.2331767578125,0.21268323063850403,0.6124705672264099,0.6894628405570984
1667824625985185000,3.24318505859375,0.06680744141340256,0.6923052668571472,0.6274982690811157
1667824625995193000,3.253193115234375,-0.06329251080751419,0.7886924743652344,0.6086753010749817
1667824626005200000,3.263199951171875,-0.18095874786376953,0.8180207014083862,0.6091827750205994
1667824626015208000,3.2732080078125,-0.27214351296424866,0.7877000570297241,0.5960690975189209
1667824626025215700,3.2832158203125,-0.31460586190223694,0.7548032402992249,0.5688289403915405
1667824626035223000,3.29322314453125,-0.3219660222530365,0.7471604943275452,0.5106468796730042
1667824626045230800,3.30323095703125,-0.3079585134983063,0.7307023406028748,0.42479419708251953
1667824626055239000,3.313239013671875,-0.2852049767971039,0.6980037689208984,0.31354251503944397
1667824626065246000,3.323245849609375,-0.2647010087966919,0.6917428970336914,0.19122453033924103
1667824626075254000,3.33325390625,-0.25389763712882996,0.7307009100914001,0.07237057387828827
1667824626085261800,3.34326171875,-0.25722402334213257,0.7759371399879456,-0.04992315173149109
1667824626095268900,3.353268798828125,-0.2724514603614807,0.7905831933021545,-0.17395855486392975
1667824626105277000,3.36327685546875,-0.2823799252510071,0.7616739273071289,-0.29848891496658325
1667824626115284000,3.373283935546875,-0.28167685866355896,0.7203701734542847,-0.40167149901390076
1667824626125291800,3.383291748046875,-0.2552763521671295,0.6918685436248779,-0.4665919840335846
1667824626135299800,3.3932998046875,-0.2189662754535675,0.6660133004188538,-0.4853094518184662
1667824626145307000,3.403306884765625,-0.1863325983285904,0.6283177733421326,-0.4601103365421295
1667824626155315000,3.41331494140625,-0.17628821730613708,0.5898225903511047,-0.4061432480812073
1667824626165323000,3.423322998046875,-0.17532047629356384,0.5859410166740417,-0.32069292664527893
1667824626175330000,3.433330078125,-0.17100349068641663,0.6211011409759521,-0.227715864777565
1667824626185338000,3.443338134765625,-0.14933863282203674,0.6699312329292297,-0.13309359550476074
1667824626195346000,3.453345947265625,-0.11657801270484924,0.7100392580032349,-0.03195073828101158
1667824626205353000,3.46335302734375,-0.07425140589475632,0.7319585084915161,0.08881860226392746
1667824626215360800,3.47336083984375,-0.0334421843290329,0.7419371008872986,0.2177014797925949
1667824626225369000,3.483369140625,-0.005678233690559864,0.7433802485466003,0.3515806496143341
1667824626235375900,3.4933759765625,0.018784765154123306,0.7259642481803894,0.49113187193870544
1667824626245384000,3.503384033203125,0.0391605943441391,0.6781909465789795,0.6356697678565979
1667824626255391000,3.513390869140625,0.05841231718659401,0.5766124129295349,0.7613835334777832
1667824626265399000,3.52339892578125,0.06706994026899338,0.39978116750717163,0.8467906713485718
1667824626275406800,3.53340673828125,0.06676580756902695,0.17541010677814484,0.8926343321800232
1667824626285414000,3.543413818359375,0.054091744124889374,-0.060994625091552734,0.9039594531059265
1667824626295422000,3.553421875,-0.0033433197531849146,-0.30560463666915894,0.8955124020576477
1667824626305430000,3.563429931640625,-0.09928709268569946,-0.5582249164581299,0.855884313583374
1667824626315436800,3.573436767578125,-0.23543374240398407,-0.8279768228530884,0.7665621638298035
1667824626325444900,3.58344482421875,-0.3906152546405792,-1.1243302822113037,0.5914478898048401
1667824626335452700,3.59345263671875,-0.5434514284133911,-1.403019666671753,0.3080848455429077
1667824626345460000,3.6034599609375,-0.6858356595039368,-1.5848520994186401,-0.07320108264684677
1667824626355467800,3.6134677734375,-0.791537344455719,-1.6497207880020142,-0.5070867538452148
1667824626365475800,3.623475830078125,-0.8554819226264954,-1.595093011856079,-0.9418762922286987
1667824626375483000,3.63348291015625,-0.8808158040046692,-1.4237114191055298,-1.3166602849960327
1667824626385491000,3.643490966796875,-0.874120831489563,-1.1610968112945557,-1.5693904161453247
1667824626395499000,3.6534990234375,-0.829203724861145,-0.8521389365196228,-1.6646325588226318
1667824626405505800,3.663505859375,-0.7427985668182373,-0.5316227674484253,-1.6006121635437012
1667824626415514000,3.67351416015625,-0.6201996803283691,-0.23557192087173462,-1.4078922271728516
1667824626425521000,3.68352099609375,-0.4673249125480652,-0.028917094692587852,-1.1333917379379272
1667824626435529000,3.693529052734375,-0.319471538066864,0.08774907141923904,-0.8254662156105042
1667824626445536800,3.703536865234375,-0.19227051734924316,0.1191752701997757,-0.5189197659492493
1667824626455544000,3.7135439453125,-0.10092435777187347,0.07220563292503357,-0.23795251548290253
1667824626465552000,3.7235517578125,-0.031440503895282745,-0.05188858509063721,-0.0005982066504657269
1667824626475560000,3.733559814453125,0.0320306159555912,-0.22513094544410706,0.19487275183200836
1667824626485567000,3.74356689453125,0.09366311877965927,-0.43619504570961,0.33508723974227905
1667824626495575000,3.753574951171875,0.15619893372058868,-0.6686607599258423,0.4191533923149109
1667824626505582800,3.763582763671875,0.22481709718704224,-0.87506502866745,0.4649748206138611
1667824626515590000,3.77358984375,0.3028320372104645,-1.0423882007598877,0.4762575626373291
1667824626525597700,3.78359765625,0.3995088040828705,-1.180209755897522,0.46118342876434326
1667824626535606000,3.79360595703125,0.48356136679649353,-1.2757863998413086,0.45054569840431213
1667824626545612800,3.80361279296875,0.543942391872406,-1.3306552171707153,0.45854926109313965
1667824626555620900,3.813620849609375,0.5452574491500854,-1.3479143381118774,0.5014874339103699
1667824626565629000,3.82362890625,0.4698672592639923,-1.3302748203277588,0.5768367052078247
1667824626575636000,3.833635986328125,0.29282909631729126,-1.2668147087097168,0.645853579044342
1667824626585644000,3.84364404296875,0.04421420767903328,-1.161604642868042,0.6929738521575928
1667824626595650800,3.85365087890625,-0.219915971159935,-1.0222909450531006,0.6967323422431946
1667824626605659100,3.8636591796875,-0.4608953297138214,-0.8545086979866028,0.6533709764480591
1667824626615667000,3.8736669921875,-0.644320547580719,-0.6934984922409058,0.5698938965797424
1667824626625674000,3.883674072265625,-0.7387794852256775,-0.5412157773971558,0.4559042155742645
1667824626635681800,3.893681884765625,-0.7492523789405823,-0.3983249068260193,0.3383685350418091
1667824626645689900,3.90368994140625,-0.7043418288230896,-0.28728950023651123,0.23608092963695526
1667824626655697000,3.91369677734375,-0.6486855149269104,-0.21906624734401703,0.15843114256858826
1667824626665705000,3.923705078125,-0.6312070488929749,-0.18569670617580414,0.11477696895599365
1667824626675712800,3.933712646484375,-0.6700801849365234,-0.16126087307929993,0.11642839759588242
1667824626685720000,3.943719970703125,-0.7629389762878418,-0.14559908211231232,0.14279848337173462
1667824626695727900,3.953727783203125,-0.8896205425262451,-0.13193313777446747,0.17634202539920807
1667824626705736000,3.96373583984375,-1.0252496004104614,-0.1294442117214203,0.16853933036327362
1667824626715742700,3.97374267578125,-1.1586873531341553,-0.12682126462459564,0.11400099098682404
1667824626725751000,3.9837509765625,-1.270752191543579,-0.10019762814044952,0.007245365530252457
1667824626735759000,3.993759033203125,-1.3409321308135986,-0.04109915345907211,-0.12699685990810394
1667824626745766000,4.003765869140625,-1.3704822063446045,0.04934593662619591,-0.25464850664138794
1667824626755774000,4.01377392578125,-1.3698753118515015,0.12957099080085754,-0.3683777153491974
1667824626765781800,4.02378173828125,-1.3246501684188843,0.20022998750209808,-0.45575594902038574
1667824626775789000,4.0337890625,-1.2382835149765015,0.2695653736591339,-0.5236812233924866
1667824626785796900,4.043796875,-1.1449261903762817,0.3366735875606537,-0.5788944363594055
1667824626795804000,4.053803955078125,-1.0493801832199097,0.40246883034706116,-0.6201723217964172
1667824626805812000,4.06381201171875,-0.9718364477157593,0.4689420759677887,-0.632732093334198
1667824626815820000,4.073820068359375,-0.9166099429130554,0.5384649634361267,-0.627199649810791
1667824626825826800,4.083826904296875,-0.8729410171508789,0.6059003472328186,-0.6091153621673584
1667824626835835000,4.0938349609375,-0.8299311995506287,0.6638131737709045,-0.5923014879226685
1667824626845843000,4.103843017578125,-0.7710336446762085,0.715833842754364,-0.5809972286224365
1667824626855850000,4.11385009765625,-0.6874439120292664,0.7496858239173889,-0.5870394110679626
1667824626865857800,4.12385791015625,-0.5793892741203308,0.7575504779815674,-0.6178190112113953
1667824626875865900,4.133865966796875,-0.43241843581199646,0.7372233867645264,-0.6665084958076477
1667824626885873000,4.143872802734375,-0.24880248308181763,0.6552782654762268,-0.7381412386894226
1667824626895881000,4.153880859375,-0.023876426741480827,0.45004788041114807,-0.8581371307373047
1667824626905888800,4.163888671875,0.2362603396177292,0.09135150909423828,-1.0505163669586182
1667824626915896000,4.17389599609375,0.5247288942337036,-0.27175372838974,-1.3350427150726318
1667824626925904000,4.18390380859375,0.8206496834754944,-0.5091349482536316,-1.6315381526947021
1667824626935909400,4.193909423828125,1.078757405281067,-0.6199296116828918,-1.8315850496292114
1667824626945916200,4.203916259765625,1.2523338794708252,-0.5907001495361328,-1.8406684398651123
1667824626955924200,4.21392431640625,1.3213003873825073,-0.47101932764053345,-1.6342971324920654
1667824626965931300,4.22393115234375,1.3070989847183228,-0.3592052161693573,-1.272838830947876
1667824626975939300,4.233939208984375,1.2675071954727173,-0.2969575524330139,-0.8472728729248047
1667824626985947100,4.243947021484375,1.2463858127593994,-0.2948888838291168,-0.4626055359840393
1667824626995954200,4.2539541015625,1.274359107017517,-0.3017159104347229,-0.1703081578016281
1667824627005962200,4.263962158203125,1.3234210014343262,-0.32221874594688416,0.026444431394338608
1667824627015970300,4.27397021484375,1.357571005821228,-0.3368280529975891,0.1681341826915741
1667824627025977000,4.28397705078125,1.3713641166687012,-0.32935985922813416,0.28317704796791077
1667824627035985200,4.293985107421875,1.351299524307251,-0.28973549604415894,0.4114292860031128
1667824627045993200,4.3039931640625,1.2931443452835083,-0.22135794162750244,0.5461660623550415
1667824627056000300,4.314000244140625,1.207844853401184,-0.13840898871421814,0.6588001847267151
1667824627066008300,4.32400830078125,1.1077326536178589,-0.033455632627010345,0.7394732236862183
1667824627076016000,4.33401611328125,1.008481740951538,0.0781736969947815,0.7941359281539917
1667824627086023400,4.3440234375,0.9130511283874512,0.18741223216056824,0.8089897036552429
1667824627096031200,4.35403125,0.8312193751335144,0.2767418622970581,0.7948328852653503
1667824627106039300,4.364039306640625,0.7658102512359619,0.336699515581131,0.7676408290863037
1667824627116046000,4.374046142578125,0.716855525970459,0.37518858909606934,0.7536872029304504
1667824627126054400,4.384054443359375,0.6810905337333679,0.39358556270599365,0.7472735643386841
1667824627136061200,4.394061279296875,0.641861081123352,0.3821728527545929,0.7553727626800537
1667824627146069200,4.4040693359375,0.5848087072372437,0.3611450791358948,0.7823468446731567
1667824627156077000,4.4140771484375,0.5170973539352417,0.35464563965797424,0.8250799179077148
1667824627166084400,4.42408447265625,0.43359434604644775,0.3516964614391327,0.8764687776565552
1667824627176092200,4.434092041015625,0.33549734950065613,0.3313395380973816,0.9174503087997437
1667824627186100200,4.444100341796875,0.2338484227657318,0.32355037331581116,0.9417288899421692
1667824627196107300,4.454107177734375,0.14396832883358002,0.3445800244808197,0.9509497880935669
1667824627206115300,4.464115234375,0.062161266803741455,0.3826925754547119,0.941075325012207
1667824627216123400,4.474123291015625,-0.0012675062753260136,0.4056732654571533,0.8851335048675537
1667824627226130200,4.484130126953125,-0.0310225710272789,0.4607149660587311,0.8174319267272949
1667824627236138200,4.49413818359375,-0.006205106154084206,0.5444746017456055,0.7485303282737732
1667824627246146300,4.504146240234375,0.04803014174103737,0.5983026623725891,0.665869951248169
1667824627256153300,4.5141533203125,0.10269898176193237,0.6207925081253052,0.560824453830719
1667824627266161200,4.5241611328125,0.155177041888237,0.643753170967102,0.4443189799785614
1667824627276168400,4.53416845703125,0.19106578826904297,0.6852793097496033,0.3368005156517029
1667824627286176300,4.54417626953125,0.204759880900383,0.7449381351470947,0.25450146198272705
1667824627296184300,4.554184326171875,0.20161043107509613,0.7928215265274048,0.1972898542881012
1667824627306191000,4.564191162109375,0.19475191831588745,0.8001956939697266,0.1670045107603073
1667824627316199400,4.574199462890625,0.19669575989246368,0.7411384582519531,0.14462970197200775
1667824627326207200,4.584207275390625,0.2181698977947235,0.6091848611831665,0.10520848631858826
1667824627336214300,4.59421435546875,0.26028141379356384,0.416113942861557,0.03594446927309036
1667824627346222000,4.60422216796875,0.31294164061546326,0.20759092271327972,-0.037610020488500595
1667824627356230100,4.614230224609375,0.34066063165664673,0.03993161395192146,-0.0944133847951889
1667824627366237200,4.6242373046875,0.3335888087749481,-0.0727323368191719,-0.10880312323570251
1667824627376245200,4.634245361328125,0.2885507643222809,-0.09378302842378616,-0.0674961656332016
1667824627386253300,4.64425341796875,0.2337227314710617,0.003590264590457082,0.04525670036673546
1667824627396260400,4.65426025390625,0.17763017117977142,0.17391912639141083,0.20058636367321014
1667824627406268400,4.664268310546875,0.14791765809059143,0.3549719750881195,0.35536879301071167
1667824627416276200,4.674276123046875,0.15132597088813782,0.46102383732795715,0.4883337616920471
1667824627426283300,4.684283203125,0.1846330761909485,0.4807381331920624,0.5932431221008301
1667824627436291300,4.694291259765625,0.23506535589694977,0.4421215057373047,0.6728529930114746
1667824627446298400,4.70429833984375,0.2774388790130615,0.32691553235054016,0.7334172129631042
1667824627456306200,4.71430615234375,0.3008571267127991,0.1456405371427536,0.7734682559967041
1667824627466314200,4.724314208984375,0.30195727944374084,-0.09139131009578705,0.7764633297920227
1667824627476321300,4.7343212890625,0.29235124588012695,-0.3504790663719177,0.7528013586997986
1667824627486329300,4.744329345703125,0.22964493930339813,-0.6496753096580505,0.719653308391571
1667824627496337200,4.754337158203125,0.10178817808628082,-0.9849518537521362,0.6439966559410095
1667824627506344200,4.76434423828125,-0.08099415898323059,-1.2867721319198608,0.504835307598114
1667824627516352300,4.774352294921875,-0.28351932764053345,-1.4903441667556763,0.2656261622905731
1667824627526360300,4.7843603515625,-0.4612155258655548,-1.5703622102737427,-0.051978111267089844
1667824627536367000,4.7943671875,-0.593718409538269,-1.5134011507034302,-0.429700642824173
1667824627546375200,4.804375244140625,-0.6669701933860779,-1.344148874282837,-0.8212108612060547
1667824627556383200,4.81438330078125,-0.6807440519332886,-1.118337631225586,-1.1710528135299683
1667824627566390300,4.824390380859375,-0.6535195708274841,-0.8615497946739197,-1.4325616359710693
1667824627576398000,4.834398193359375,-0.5886825323104858,-0.55743008852005,-1.5591741800308228
1667824627586405400,4.8444052734375,-0.49543678760528564,-0.24850846827030182,-1.5503697395324707
1667824627596413200,4.8544130859375,-0.3903566896915436,0.04062000662088394,-1.4159841537475586
1667824627606421200,4.864421142578125,-0.29646649956703186,0.24691374599933624,-1.1946165561676025
1667824627616428000,4.874427978515625,-0.2226809561252594,0.34302109479904175,-0.9331973195075989
1667824627626436400,4.884436279296875,-0.16912607848644257,0.3630821108818054,-0.6624410152435303
1667824627636444400,4.8944443359375,-0.12894883751869202,0.3161364197731018,-0.4132988452911377
1667824627646451200,4.904451171875,-0.09276334941387177,0.20989644527435303,-0.19288912415504456
1667824627656459300,4.914459228515625,-0.05592171102762222,0.0500045120716095,-0.0004405840300023556
1667824627666467000,4.924467041015625,-0.027075352147221565,-0.1384456902742386,0.1654050648212433
1667824627676474400,4.934474365234375,-0.005262996535748243,-0.34918534755706787,0.2995316982269287
1667824627686482200,4.944482177734375,0.021595099940896034,-0.5550212860107422,0.39929673075675964
1667824627696490200,4.954490234375,0.05508940666913986,-0.7225876450538635,0.47288253903388977
1667824627706497300,4.964497314453125,0.08809714764356613,-0.8319635987281799,0.5078819394111633
1667824627716505300,4.97450537109375,0.1070503294467926,-0.8932895064353943,0.5163942575454712
1667824627726513200,4.98451318359375,0.10625840723514557,-0.9150382280349731,0.5022331476211548
1667824627736520200,4.994520263671875,0.08770602941513062,-0.9087725877761841,0.4646559953689575
1667824627746528300,5.0045283203125,0.05453293025493622,-0.890557050704956,0.41639241576194763
1667824627756535300,5.014535400390625,-0.01149642001837492,-0.8455514907836914,0.36013659834861755
1667824627766543000,5.024543212890625,-0.11251449584960938,-0.78814297914505,0.31737416982650757
1667824627776551200,5.03455126953125,-0.24636763334274292,-0.7237250804901123,0.2665514647960663
1667824627786558200,5.04455810546875,-0.3903328776359558,-0.6585245728492737,0.2182319462299347
1667824627796566300,5.054566162109375,-0.5337861776351929,-0.6130961179733276,0.15858060121536255
1667824627806574300,5.06457421875,-0.6631070375442505,-0.5957058668136597,0.07430106401443481
1667824627816581400,5.074581298828125,-0.7686737179756165,-0.5806081891059875,-0.021672604605555534
1667824627826589400,5.08458935546875,-0.8478225469589233,-0.5487471222877502,-0.12251673638820648
1667824627836597200,5.09459716796875,-0.9080666899681091,-0.5011769533157349,-0.20685051381587982
1667824627846604300,5.104604248046875,-0.9615103006362915,-0.4305083453655243,-0.2564479410648346
1667824627856612000,5.114612060546875,-1.027449131011963,-0.32695239782333374,-0.25799763202667236
1667824627866620400,5.124620361328125,-1.0989896059036255,-0.1962580680847168,-0.22983835637569427
1667824627876627200,5.134627197265625,-1.1632777452468872,-0.06308457255363464,-0.18255366384983063
1667824627886635300,5.14463525390625,-1.208383560180664,0.04038762301206589,-0.14009377360343933
1667824627896642300,5.154642333984375,-1.2248402833938599,0.09322447329759598,-0.13487105071544647
1667824627906650400,5.164650390625,-1.228537678718567,0.1254422813653946,-0.16181470453739166
1667824627916658200,5.174658203125,-1.2218214273452759,0.1508464366197586,-0.21239133179187775
1667824627926665200,5.184665283203125,-1.2074130773544312,0.196542426943779,-0.26335054636001587
1667824627936676000,5.194676025390625,-1.1742734909057617,0.23185087740421295,-0.3080730140209198
1667824627946684000,5.204683837890625,-1.125615119934082,0.23957201838493347,-0.35382136702537537
1667824627956691000,5.21469091796875,-1.070255160331726,0.2278149425983429,-0.40163788199424744
1667824627966699000,5.224698974609375,-1.017379641532898,0.21687430143356323,-0.4519142210483551
1667824627976707000,5.23470703125,-0.9628843665122986,0.24377967417240143,-0.5059697031974792
1667824627986713900,5.2447138671875,-0.9095708727836609,0.28929296135902405,-0.536400318145752
1667824627996722000,5.254721923828125,-0.8430901169776917,0.33386948704719543,-0.5442758202552795
1667824628006730000,5.26472998046875,-0.7615177631378174,0.38312798738479614,-0.5343112945556641
1667824628016737000,5.274737060546875,-0.6572757959365845,0.41210877895355225,-0.5135530233383179
1667824628026745000,5.2847451171875,-0.5385624170303345,0.4271162450313568,-0.5069607496261597
1667824628036753000,5.2947529296875,-0.4110499620437622,0.4134129583835602,-0.5246416926383972
1667824628046760200,5.30476025390625,-0.28908756375312805,0.3434184193611145,-0.5903632044792175
1667824628056768000,5.31476806640625,-0.15463201701641083,0.17948462069034576,-0.7119748592376709
1667824628066775000,5.324775146484375,-0.007102492265403271,-0.04456552118062973,-0.8902444839477539
1667824628076782800,5.334782958984375,0.16865655779838562,-0.2369868904352188,-1.1067041158676147
1667824628086791000,5.344791015625,0.3688911199569702,-0.3500663638114929,-1.296476125717163
1667824628096798000,5.3547978515625,0.5703709721565247,-0.369003564119339,-1.40581214427948
1667824628106806000,5.364805908203125,0.7456886768341064,-0.2656193971633911,-1.3859299421310425
1667824628116813800,5.374813720703125,0.8846470713615417,-0.0779334157705307,-1.2695729732513428
1667824628126821000,5.384821044921875,1.0135639905929565,0.11583013087511063,-1.1059603691101074
1667824628136829000,5.394828857421875,1.1449931859970093,0.2806345224380493,-0.9186965227127075
1667824628146837000,5.4048369140625,1.297972559928894,0.4283599853515625,-0.7060384750366211
1667824628156843800,5.41484375,1.446665644645691,0.5176501870155334,-0.47758156061172485
1667824628166852000,5.42485205078125,1.585205316543579,0.519111692905426,-0.23673754930496216
1667824628176859000,5.43485888671875,1.6935265064239502,0.425403356552124,0.006135020405054092
1667824628186867000,5.444866943359375,1.7606720924377441,0.2388816922903061,0.25950172543525696
1667824628196875000,5.454875,1.7619456052780151,-0.0018643345683813095,0.5049434304237366
1667824628206882000,5.464882080078125,1.6745998859405518,-0.257018506526947,0.7274006009101868
1667824628216890000,5.47489013671875,1.4996345043182373,-0.4724450707435608,0.9335724115371704
1667824628226898000,5.48489794921875,1.2598541975021362,-0.621273398399353,1.0968042612075806
1667824628236905200,5.4949052734375,0.9945402145385742,-0.6522622108459473,1.2070863246917725
1667824628246913000,5.5049130859375,0.7445296049118042,-0.5870869755744934,1.245068073272705
1667824628256921000,5.514921142578125,0.5455060005187988,-0.4583260416984558,1.2041102647781372
1667824628266927900,5.524927978515625,0.4049939513206482,-0.31226521730422974,1.1040387153625488
1667824628276936000,5.53493603515625,0.3339275121688843,-0.1584514081478119,0.954321563243866
1667824628286944000,5.544944091796875,0.32431232929229736,0.01919921487569809,0.7926886677742004
1667824628296951000,5.554950927734375,0.3546675741672516,0.1968459039926529,0.6381108164787292
1667824628306958800,5.564958740234375,0.39197495579719543,0.3509931266307831,0.5064759850502014
1667824628316966100,5.574966064453125,0.41323336958885193,0.46456149220466614,0.4045272171497345
1667824628326974000,5.584973876953125,0.39910268783569336,0.5477609038352966,0.34042888879776
1667824628336982000,5.59498193359375,0.3478621542453766,0.6130747199058533,0.3135581314563751
1667824628346988800,5.60498876953125,0.26191362738609314,0.6577462553977966,0.3204405903816223
1667824628356997000,5.6149970703125,0.15916061401367188,0.6737355589866638,0.3555122911930084
1667824628367005200,5.625005126953125,0.06970919668674469,0.6725430488586426,0.39657849073410034
1667824628377012000,5.635011962890625,0.0014587719924747944,0.6861089468002319,0.4404607117176056
1667824628387020000,5.64502001953125,-0.029462259262800217,0.7208859324455261,0.47531601786613464
1667824628397028000,5.655028076171875,-0.015389315783977509,0.7551863789558411,0.485075443983078
1667824628407035100,5.66503515625,0.04954312741756439,0.7856622934341431,0.4865899085998535
1667824628417043000,5.67504296875,0.1462198793888092,0.80792236328125,0.4822598695755005
1667824628427051000,5.685051025390625,0.24893024563789368,0.8056546449661255,0.4737514555454254
1667824628437058000,5.69505810546875,0.33170074224472046,0.7826648950576782,0.4670006036758423
1667824628447066000,5.705066162109375,0.39114126563072205,0.7643766403198242,0.4594433307647705
1667824628457073000,5.715072998046875,0.42818182706832886,0.7559221982955933,0.4582765996456146
1667824628467081000,5.7250810546875,0.4501718282699585,0.7047459483146667,0.4490014314651489
1667824628477089000,5.735089111328125,0.4638008177280426,0.6003748178482056,0.41244766116142273
1667824628487096000,5.745095947265625,0.46545711159706116,0.4376527667045593,0.33370697498321533
1667824628497104000,5.755103759765625,0.46700918674468994,0.25841963291168213,0.20317961275577545
1667824628507112000,5.76511181640625,0.4759728014469147,0.1036040335893631,0.05242791399359703
1667824628517119000,5.775118896484375,0.48130178451538086,-0.009195484220981598,-0.07949230819940567
1667824628527127000,5.785126953125,0.46555188298225403,-0.06054363772273064,-0.149623304605484
1667824628537134800,5.795134765625,0.41576701402664185,-0.023654596880078316,-0.14550791680812836
1667824628547142100,5.80514208984375,0.33868229389190674,0.08808308094739914,-0.0761287733912468
1667824628557150000,5.81514990234375,0.24952605366706848,0.26044315099716187,0.03775092586874962
1667824628567158000,5.825157958984375,0.17999617755413055,0.4505451023578644,0.16858677566051483
1667824628577164800,5.835164794921875,0.14756686985492706,0.580611526966095,0.2857400178909302
1667824628587172900,5.8451728515625,0.13679714500904083,0.6806620359420776,0.39430171251296997
1667824628597181200,5.85518115234375,0.1434324085712433,0.7467123866081238,0.5059382319450378
1667824628607188000,5.86518798828125,0.14827729761600494,0.7276177406311035,0.5970667004585266
1667824628617196000,5.875196044921875,0.15005628764629364,0.633667528629303,0.6619735360145569
1667824628627203000,5.885203125,0.15493637323379517,0.4870230257511139,0.7057399749755859
1667824628637211100,5.895211181640625,0.14938688278198242,0.3179823160171509,0.7185255885124207
1667824628647219000,5.905218994140625,0.12257461249828339,0.11898376792669296,0.7060654163360596
1667824628657226000,5.91522607421875,0.05486107990145683,-0.08481596410274506,0.6564483046531677
1667824628667234000,5.925234130859375,-0.03969204053282738,-0.27619171142578125,0.5826919078826904
1667824628677242000,5.9352421875,-0.16310054063796997,-0.4992924630641937,0.4821586012840271
1667824628687249000,5.945248779296875,-0.2973179519176483,-0.7064895629882812,0.3414418399333954
1667824628697257000,5.955257080078125,-0.4225001037120819,-0.8716716170310974,0.15982170403003693
1667824628707265000,5.96526513671875,-0.5280085206031799,-1.0005954504013062,-0.06762757152318954
1667824628717272000,5.97527197265625,-0.615482747554779,-1.0953130722045898,-0.35208699107170105
1667824628727279900,5.98527978515625,-0.6810181140899658,-1.1355668306350708,-0.6745173335075378
1667824628737287200,5.995287109375,-0.7149038910865784,-1.1006114482879639,-1.0100200176239014
1667824628747295000,6.005294921875,-0.7224160432815552,-0.9819813966751099,-1.3202606439590454
1667824628757303000,6.015302978515625,-0.7190293073654175,-0.80735182762146,-1.5714532136917114
1667824628767309800,6.025309814453125,-0.7046381235122681,-0.590341329574585,-1.7022185325622559
1667824628777318000,6.03531787109375,-0.6850433349609375,-0.3622775077819824,-1.7154608964920044
1667824628787326200,6.045326171875,-0.6561452150344849,-0.17393289506435394,-1.6112161874771118
1667824628797333000,6.0553330078125,-0.6211991906166077,-0.046367205679416656,-1.4163633584976196
1667824628807341000,6.065341064453125,-0.5862868428230286,-0.010739519260823727,-1.1795063018798828
1667824628817348900,6.075348876953125,-0.5493272542953491,-0.08689554035663605,-0.9443838000297546
1667824628827356200,6.085356201171875,-0.5085464715957642,-0.24457024037837982,-0.7370166778564453
1667824628837364000,6.095364013671875,-0.45694905519485474,-0.41958412528038025,-0.5627626180648804
1667824628847372000,6.1053720703125,-0.3903265595436096,-0.5868270993232727,-0.41253989934921265
1667824628857379000,6.115379150390625,-0.3274597227573395,-0.7358267307281494,-0.2751644551753998
1667824628867387100,6.12538720703125,-0.2738286554813385,-0.8420386910438538,-0.15050891041755676
1667824628877394000,6.135393798828125,-0.22326748073101044,-0.8960838317871094,-0.04076750576496124
1667824628887402000,6.145402099609375,-0.17902493476867676,-0.9118737578392029,0.047203317284584045
1667824628897409800,6.155409912109375,-0.14268504083156586,-0.9091323018074036,0.10018131881952286
1667824628907417000,6.1654169921875,-0.11842342466115952,-0.8885167241096497,0.12671130895614624
1667824628917425000,6.1754248046875,-0.09799644351005554,-0.8458888530731201,0.1584966778755188
1667824628927433000,6.185432861328125,-0.10655444860458374,-0.811603844165802,0.16532281041145325
1667824628937436700,6.195436767578125,-0.13758426904678345,-0.7790797352790833,0.16311851143836975
1667824628947444500,6.205444580078125,-0.18230988085269928,-0.7621456384658813,0.15458938479423523
1667824628957452500,6.21545263671875,-0.2366064041852951,-0.7637432813644409,0.1538146734237671
1667824628967459300,6.225459228515625,-0.28673920035362244,-0.7644805312156677,0.15474428236484528
1667824628977467600,6.235467529296875,-0.3326273262500763,-0.7810424566268921,0.17688339948654175
1667824628987474400,6.245474365234375,-0.38128870725631714,-0.8159902095794678,0.2059033215045929
1667824628997482500,6.255482421875,-0.4487026333808899,-0.8543813228607178,0.2233443707227707
1667824629007490300,6.265490234375,-0.5181415677070618,-0.8815181851387024,0.23164652287960052
1667824629017497600,6.27549755859375,-0.5832891464233398,-0.8978673219680786,0.2039341926574707
1667824629027505400,6.28550537109375,-0.6463845372200012,-0.895185112953186,0.13902872800827026
1667824629037513500,6.295513427734375,-0.6936149001121521,-0.8720057606697083,0.04727323725819588
1667824629047520500,6.3055205078125,-0.7234570980072021,-0.8140078783035278,-0.053534433245658875
1667824629057528600,6.315528564453125,-0.7340042591094971,-0.7263286113739014,-0.14695359766483307
1667824629067536600,6.32553662109375,-0.7455459237098694,-0.6138902902603149,-0.2101525217294693
1667824629077543400,6.33554345703125,-0.7629345059394836,-0.48175597190856934,-0.25028741359710693
1667824629087551500,6.345551513671875,-0.794981837272644,-0.31968504190444946,-0.26906535029411316
1667824629097559600,6.3555595703125,-0.8368238210678101,-0.14396223425865173,-0.27598661184310913
1667824629107566600,6.365566650390625,-0.8770403861999512,0.03382805362343788,-0.2779987156391144
1667824629117574400,6.375574462890625,-0.9121533632278442,0.20208735764026642,-0.2863181531429291
1667824629127581700,6.385581787109375,-0.9248068928718567,0.3403289020061493,-0.2960188090801239
1667824629137589500,6.395589599609375,-0.9136924743652344,0.45035502314567566,-0.31129124760627747
1667824629147597600,6.40559765625,-0.8768293261528015,0.5238189697265625,-0.34050506353378296
1667824629157604400,6.415604248046875,-0.8220475912094116,0.5709545612335205,-0.37420472502708435
1667824629167612700,6.42561279296875,-0.7389096021652222,0.5967530012130737,-0.40794238448143005
1667824629177620500,6.435620361328125,-0.6377918124198914,0.6165136098861694,-0.42779386043548584
1667824629187627500,6.44562744140625,-0.5263082385063171,0.6337645649909973,-0.4341058135032654
1667824629197635300,6.45563525390625,-0.4196241497993469,0.6435517072677612,-0.4285438060760498
1667824629207643400,6.465643310546875,-0.3155791759490967,0.6752034425735474,-0.40850865840911865
1667824629217650400,6.475650390625,-0.20663964748382568,0.7209256887435913,-0.3776109218597412
1667824629227658500,6.485658447265625,-0.09922736883163452,0.761957049369812,-0.33559486269950867
1667824629237666600,6.49566650390625,0.005804235581308603,0.7559787631034851,-0.2978554666042328
1667824629247673600,6.505673583984375,0.11003238707780838,0.7091980576515198,-0.27142781019210815
1667824629257681700,6.515681640625,0.21908484399318695,0.6159956455230713,-0.27909237146377563
1667824629267688400,6.5256884765625,0.36347848176956177,0.457259863615036,-0.3270754814147949
1667824629277696500,6.535696533203125,0.5296090841293335,0.2746080160140991,-0.4156431555747986
1667824629287704600,6.54570458984375,0.6876372694969177,0.0766194611787796,-0.5349703431129456
1667824629297711600,6.555711669921875,0.8294527530670166,-0.07028529793024063,-0.7021917700767517
1667824629307719400,6.565719482421875,0.9592123627662659,-0.1643896996974945,-0.8753465414047241
1667824629317727500,6.5757275390625,1.0655585527420044,-0.18783453106880188,-1.0015336275100708
1667824629327734500,6.585734619140625,1.1479233503341675,-0.1573224514722824,-1.0416935682296753
1667824629337742600,6.59574267578125,1.206840991973877,-0.09266969561576843,-0.9903281331062317
1667824629347750400,6.60575048828125,1.2570258378982544,-0.0032898455392569304,-0.8499441146850586
1667824629357757700,6.6157578125,1.3066599369049072,0.09573394060134888,-0.6412414908409119
1667824629367765500,6.625765625,1.3569716215133667,0.1980830281972885,-0.4021523594856262
1667824629377773600,6.635773681640625,1.394588828086853,0.2572805881500244,-0.1682138890028
1667824629387780400,6.6457802734375,1.4174323081970215,0.2747895419597626,0.05836809054017067
1667824629397788400,6.655788330078125,1.4202909469604492,0.24475309252738953,0.2664392590522766
1667824629407795500,6.66579541015625,1.3895281553268433,0.16065296530723572,0.4679037630558014
1667824629417803500,6.675803466796875,1.3108365535736084,0.056559327989816666,0.6520912051200867
1667824629427811300,6.685811279296875,1.199228048324585,-0.04914015159010887,0.8053308129310608
1667824629437818600,6.695818603515625,1.0609256029129028,-0.12876386940479279,0.924326479434967
1667824629447826400,6.705826416015625,0.9149622917175293,-0.15577048063278198,0.9931519031524658
1667824629457834500,6.71583447265625,0.775787889957428,-0.13563218712806702,1.003873348236084
1667824629467841300,6.72584130859375,0.6605083346366882,-0.10504943132400513,0.9749115705490112
1667824629477849600,6.735849609375,0.5754266977310181,-0.0743463784456253,0.908354640007019
1667824629487857700,6.745857666015625,0.5206938982009888,-0.04262666776776314,0.8203835487365723
1667824629497864400,6.755864501953125,0.4870035648345947,-0.015159089118242264,0.7118453979492188
1667824629507872500,6.76587255859375,0.4593729078769684,0.013332759961485863,0.6080055236816406
1667824629517879600,6.775879638671875,0.4142698645591736,0.033390626311302185,0.5044775009155273
1667824629527887600,6.7858876953125,0.35437071323394775,0.06284216791391373,0.40969759225845337
1667824629537895400,6.7958955078125,0.26544028520584106,0.10610468685626984,0.3209269940853119
1667824629547902500,6.80590234375,0.16804438829421997,0.1691286265850067,0.25152838230133057
1667824629557910500,6.81591064453125,0.0803757905960083,0.26182395219802856,0.21218816936016083
1667824629567918600,6.825918701171875,0.025997642427682877,0.3496563136577606,0.1952633410692215
1667824629577925400,6.83592529296875,-0.0005394271574914455,0.3797881305217743,0.18923580646514893
1667824629587933400,6.845933349609375,0.003084116615355015,0.3697928190231323,0.17385196685791016
1667824629597941500,6.85594140625,0.04082696512341499,0.3572288453578949,0.15397971868515015
1667824629607948500,6.865948486328125,0.09331069886684418,0.34722959995269775,0.14067544043064117
1667824629617956400,6.875956298828125,0.14996172487735748,0.3148796558380127,0.13603222370147705
1667824629627964400,6.88596435546875,0.1964607536792755,0.28622278571128845,0.14601737260818481
1667824629637971500,6.895971435546875,0.22353844344615936,0.2719213366508484,0.16479584574699402
1667824629647979500,6.9059794921875,0.24676737189292908,0.2601291537284851,0.17984123528003693
1667824629657986300,6.915986328125,0.2589963376522064,0.24523276090621948,0.1906946897506714
1667824629667994600,6.92599462890625,0.2715306878089905,0.22792375087738037,0.18619520962238312
1667824629678002700,6.936002685546875,0.29670846462249756,0.20692579448223114,0.17257393896579742
1667824629688009500,6.946009521484375,0.3390654921531677,0.1600060760974884,0.15836699306964874
1667824629698017500,6.956017578125,0.3843863606452942,0.10023381561040878,0.14257922768592834
1667824629708025300,6.966025390625,0.41506150364875793,0.05751098692417145,0.13125701248645782
1667824629718032600,6.97603271484375,0.4312431514263153,0.04527456313371658,0.13732954859733582
1667824629728040400,6.98604052734375,0.4237259328365326,0.05488600581884384,0.1627451330423355
1667824629738048500,6.996048583984375,0.3892931044101715,0.07282932102680206,0.2198081612586975
1667824629748055600,7.0060556640625,0.33582180738449097,0.08674370497465134,0.2993333637714386
1667824629758063600,7.016063720703125,0.2686973810195923,0.10672460496425629,0.3712959587574005
1667824629768070400,7.0260703125,0.21058553457260132,0.17677389085292816,0.45308834314346313
1667824629778078500,7.036078369140625,0.17018644511699677,0.2925417721271515,0.5340167284011841
1667824629788086500,7.04608642578125,0.14224332571029663,0.4002108573913574,0.623310387134552
1667824629798093600,7.056093505859375,0.12195349484682083,0.4715191423892975,0.7103118896484375
1667824629808101400,7.066101318359375,0.11440055817365646,0.5086904168128967,0.7789510488510132
1667824629818109400,7.076109375,0.10810590535402298,0.5251322388648987,0.844649076461792
1667824629828116500,7.086116455078125,0.09803571552038193,0.5035576224327087,0.90171217918396
1667824629838124500,7.09612451171875,0.07926016300916672,0.4487617611885071,0.942738950252533
1667824629848132600,7.106132568359375,0.053928472101688385,0.35977262258529663,0.9739747047424316
1667824629858139400,7.116139404296875,0.006693048402667046,0.2428441196680069,0.9796211123466492
1667824629868147700,7.126147705078125,-0.07268082350492477,0.09737800061702728,0.9456577301025391
1667824629878154500,7.136154541015625,-0.19538062810897827,-0.08036083728075027,0.8531121015548706
1667824629888162600,7.14616259765625,-0.33979329466819763,-0.26652228832244873,0.6770952939987183
1667824629898170400,7.15617041015625,-0.4863473176956177,-0.4766198694705963,0.409434050321579
1667824629908177400,7.166177490234375,-0.5941901803016663,-0.7550337910652161,0.033840909600257874
1667824629918185500,7.176185546875,-0.6522865295410156,-1.0182135105133057,-0.42634347081184387
1667824629928193500,7.186193603515625,-0.6736355423927307,-1.1731215715408325,-0.9132034182548523
1667824629938204700,7.19620458984375,-0.6758291721343994,-1.2229541540145874,-1.3549981117248535
1667824629948212700,7.206212646484375,-0.6850526928901672,-1.1145249605178833,-1.679303765296936
1667824629958220800,7.216220703125,-0.6869552731513977,-0.8448753952980042,-1.8457984924316406
1667824629968227600,7.2262275390625,-0.6853430867195129,-0.48724520206451416,-1.8418247699737549
1667824629978235600,7.236235595703125,-0.6812071800231934,-0.12491147965192795,-1.704163908958435
1667824629988243700,7.24624365234375,-0.6486412286758423,0.1648382991552353,-1.4966305494308472
1667824629998250800,7.256250732421875,-0.588360071182251,0.4072147011756897,-1.2545068264007568
1667824630008258800,7.2662587890625,-0.5099846124649048,0.6058986186981201,-0.9978196620941162
1667824630018265600,7.276265625,-0.45121240615844727,0.7349340915679932,-0.7368130683898926
1667824630028274000,7.28627392578125,-0.41151630878448486,0.8322931528091431,-0.4689585268497467
1667824630038281700,7.29628173828125,-0.38058581948280334,0.8891314268112183,-0.2120756059885025
1667824630048288800,7.306288818359375,-0.34284135699272156,0.8912370204925537,0.006101229228079319
1667824630058296600,7.316296630859375,-0.2900063991546631,0.8425959944725037,0.18647019565105438
1667824630068305000,7.326304931640625,-0.22656278312206268,0.750827431678772,0.3318185806274414
1667824630078311700,7.336311767578125,-0.16332736611366272,0.6079486012458801,0.44460344314575195
1667824630088319700,7.34631982421875,-0.10174062103033066,0.4035210907459259,0.517524003982544
1667824630098326800,7.356326904296875,-0.03739731013774872,0.17807862162590027,0.5607457756996155
1667824630108334800,7.3663349609375,0.02337532490491867,-0.04310011863708496,0.568773627281189
1667824630118342700,7.3763427734375,0.06870631873607635,-0.2549567222595215,0.5546407699584961
1667824630128349700,7.386349609375,0.08159799873828888,-0.43981921672821045,0.5198162794113159
1667824630138357800,7.396357666015625,0.05199643224477768,-0.5720770955085754,0.487261027097702
1667824630148365800,7.40636572265625,-0.015580547042191029,-0.6541699171066284,0.47401878237724304
1667824630158372600,7.41637255859375,-0.13147492706775665,-0.695523738861084,0.4594574272632599
1667824630168380700,7.426380615234375,-0.2946452498435974,-0.682860255241394,0.4565293788909912
1667824630178388700,7.436388671875,-0.4828846752643585,-0.6256499290466309,0.45177215337753296
1667824630188395800,7.446395751953125,-0.6610332131385803,-0.5334151387214661,0.4375360906124115
1667824630198403800,7.45640380859375,-0.8137362003326416,-0.44120344519615173,0.4022585451602936
1667824630208411600,7.46641162109375,-0.9174620509147644,-0.36650440096855164,0.3505447804927826
1667824630218419000,7.4764189453125,-0.9643115997314453,-0.3058125376701355,0.3016885817050934
1667824630228426800,7.4864267578125,-0.9760211706161499,-0.2668287456035614,0.25478506088256836
1667824630238433800,7.496433837890625,-0.9605674147605896,-0.24890325963497162,0.23824924230575562
1667824630248441600,7.506441650390625,-0.9114229083061218,-0.24256578087806702,0.2656000852584839
1667824630258450000,7.516449951171875,-0.8453802466392517,-0.26272857189178467,0.34143707156181335
1667824630268456700,7.526456787109375,-0.7953382134437561,-0.30631715059280396,0.44578278064727783
1667824630278464800,7.53646484375,-0.7771214246749878,-0.3760818541049957,0.5455799698829651
1667824630288472600,7.54647265625,-0.7885053753852844,-0.45726367831230164,0.623486340045929
1667824630298479900,7.55647998046875,-0.8225980997085571,-0.5215497016906738,0.6639019250869751
1667824630308487700,7.56648779296875,-0.8652564287185669,-0.6001366376876831,0.6486583352088928
1667824630318495700,7.576495849609375,-0.9240905046463013,-0.6914287209510803,0.5760096907615662
1667824630328502500,7.58650244140625,-0.9785115122795105,-0.7347164154052734,0.47162938117980957
1667824630338510800,7.5965107421875,-1.0073988437652588,-0.7112497091293335,0.34291985630989075
1667824630348517600,7.606517578125,-1.014927625656128,-0.6543717980384827,0.18570223450660706
1667824630358525700,7.616525634765625,-1.0031819343566895,-0.5591952204704285,0.00024156086146831512
1667824630368533800,7.62653369140625,-0.9840507507324219,-0.4495694935321808,-0.2030462920665741
1667824630378540800,7.636540771484375,-0.9485638737678528,-0.32305121421813965,-0.41810160875320435
1667824630388548900,7.646548828125,-0.9046604037284851,-0.16999037563800812,-0.6153031587600708
1667824630398556700,7.656556640625,-0.8636623620986938,-0.0037579848431050777,-0.7900568842887878
1667824630408564000,7.66656396484375,-0.8263656497001648,0.16161689162254333,-0.9269477725028992
1667824630418571800,7.67657177734375,-0.7807427644729614,0.33620786666870117,-1.0135737657546997
1667824630428579800,7.686579833984375,-0.7283230423927307,0.5284985303878784,-1.0656086206436157
1667824630438586600,7.696586669921875,-0.6604808568954468,0.6950556039810181,-1.0894286632537842
1667824630448594700,7.7065947265625,-0.5714112520217896,0.8050705194473267,-1.085914134979248
1667824630458601700,7.716601806640625,-0.45084089040756226,0.8394311666488647,-1.0638126134872437
1667824630468609800,7.72660986328125,-0.28314632177352905,0.7793143391609192,-1.04291832447052
1667824630478617600,7.73661767578125,-0.07961423695087433,0.6555825471878052,-1.0356495380401611
1667824630488625000,7.746625,0.1586429923772812,0.5151504278182983,-1.0259641408920288
1667824630498632700,7.7566328125,0.40800169110298157,0.35655784606933594,-1.0259246826171875
1667824630508640800,7.766640869140625,0.6369736790657043,0.18737560510635376,-1.0186753273010254
1667824630518647600,7.7766474609375,0.8281569480895996,0.03572828322649002,-1.0012778043746948
1667824630528656000,7.78665576171875,0.9838836789131165,-0.08844137191772461,-0.9510132670402527
1667824630538663700,7.79666357421875,1.1024644374847412,-0.1282486915588379,-0.8404542803764343
1667824630548670700,7.806670654296875,1.2013359069824219,-0.10497955977916718,-0.6673737168312073
1667824630558678500,7.816678466796875,1.294801115989685,-0.06112714484333992,-0.4424324929714203
1667824630568685800,7.826685791015625,1.3923914432525635,-0.033120155334472656,-0.19516442716121674
1667824630578693600,7.836693603515625,1.4895095825195312,-0.07407771050930023,0.060874804854393005
1667824630588701700,7.84670166015625,1.572727918624878,-0.1593061238527298,0.29962196946144104
1667824630598708700,7.856708740234375,1.6148817539215088,-0.26231852173805237,0.5059341192245483
1667824630608716800,7.866716796875,1.5894075632095337,-0.3647730052471161,0.6685706377029419
1667824630618724900,7.876724853515625,1.4926499128341675,-0.47328245639801025,0.7716911435127258
1667824630628731600,7.886731689453125,1.351908802986145,-0.5441392064094543,0.816321849822998
1667824630638739700,7.89673974609375,1.1773260831832886,-0.5606955885887146,0.8058678507804871
1667824630648747800,7.906747802734375,0.9851340651512146,-0.5083703994750977,0.7562642693519592
1667824630658754800,7.9167548828125,0.7910924553871155,-0.3915790915489197,0.6754463911056519
1667824630668762600,7.9267626953125,0.6106671690940857,-0.22674083709716797,0.576886773109436
1667824630678770700,7.936770751953125,0.4632633328437805,-0.04184502735733986,0.4800664484500885
1667824630688777700,7.94677783203125,0.3585685193538666,0.15671220421791077,0.3875386714935303
1667824630698785800,7.956785888671875,0.2895657420158386,0.3528737425804138,0.30502089858055115
1667824630708792600,7.96679248046875,0.2544914782047272,0.50800621509552,0.2227952629327774
1667824630718801000,7.97680078125,0.23789040744304657,0.6090750098228455,0.13379135727882385
1667824630728808700,7.98680859375,0.23268847167491913,0.6907953023910522,0.052118681371212006
1667824630738815700,7.996815673828125,0.23832398653030396,0.744683027267456,-0.0086317528039217
1667824630748823600,8.006823486328125,0.25343242287635803,0.7410446405410767,-0.05609632283449173
1667824630758831600,8.01683154296875,0.27767810225486755,0.6920067667961121,-0.05758902430534363
1667824630768838700,8.026838623046874,0.3064917027950287,0.5973798632621765,-0.03790327534079552
1667824630778846700,8.0368466796875,0.33308789134025574,0.4842355251312256,0.016074204817414284
1667824630788854800,8.046854736328125,0.3542957007884979,0.3830161690711975,0.09197425842285156
1667824630798861800,8.05686181640625,0.36243271827697754,0.3134392201900482,0.17151568830013275
1667824630808870000,8.066869873046874,0.35824429988861084,0.2813284397125244,0.24321873486042023
1667824630818876700,8.076876708984376,0.3589921295642853,0.2817066013813019,0.29739513993263245
1667824630828884700,8.086884765625,0.37558868527412415,0.2810078263282776,0.31807222962379456
1667824630838892800,8.096892822265625,0.41772496700286865,0.2845871150493622,0.3080451786518097
1667824630848899800,8.10689990234375,0.4812695384025574,0.2548917233943939,0.2765519917011261
1667824630858907600,8.11690771484375,0.5588380694389343,0.1825096607208252,0.23160317540168762
1667824630868915700,8.126915771484375,0.6220135688781738,0.09469346702098846,0.16688832640647888
1667824630878922800,8.1369228515625,0.6733862161636353,0.011883536353707314,0.09929116815328598
1667824630888930800,8.146930908203124,0.7004326581954956,-0.0656747967004776,0.04590143263339996
1667824630898938600,8.156938720703126,0.7059254050254822,-0.09659968316555023,0.027858249843120575
1667824630908946000,8.16694580078125,0.6923410892486572,-0.08249595761299133,0.05383768677711487
1667824630918953700,8.17695361328125,0.65754634141922,-0.06021008640527725,0.11792026460170746
1667824630928960800,8.186960693359374,0.6056970953941345,-0.06357666850090027,0.20283932983875275
1667824630938964500,8.196964599609375,0.5450473427772522,-0.09373190999031067,0.29177719354629517
1667824630948972500,8.20697265625,0.49287351965904236,-0.13308295607566833,0.36193931102752686
1667824630958979300,8.216979248046876,0.4417954385280609,-0.15676511824131012,0.4138254225254059
1667824630968987400,8.2269873046875,0.37996336817741394,-0.14602643251419067,0.45664289593696594
1667824630978995200,8.2369951171875,0.3141646385192871,-0.07059453427791595,0.501123309135437
1667824630989002500,8.24700244140625,0.23720058798789978,0.07042159885168076,0.5628112554550171
1667824630999010300,8.25701025390625,0.15782055258750916,0.23755678534507751,0.6375887989997864
1667824631009018400,8.267018310546876,0.09998635947704315,0.3950107991695404,0.73287433385849
1667824631019025400,8.277025390625,0.05853718891739845,0.49908554553985596,0.8341655135154724
1667824631029033500,8.287033447265625,0.027636030688881874,0.5416478514671326,0.9278761148452759
1667824631039040300,8.297040283203126,-0.0023988327011466026,0.5211426019668579,1.0035794973373413
1667824631049048300,8.30704833984375,-0.04523004963994026,0.4513850510120392,1.0535149574279785
1667824631059056600,8.317056640625,-0.10499324649572372,0.3372536599636078,1.0777174234390259
1667824631069063400,8.3270634765625,-0.1827300488948822,0.1939028799533844,1.0624926090240479
1667824631079071500,8.337071533203124,-0.27341148257255554,0.035186197608709335,0.9982028603553772
1667824631089079300,8.347079345703126,-0.3654985725879669,-0.11061476171016693,0.8837384581565857
1667824631099086600,8.357086669921875,-0.45744583010673523,-0.23967154324054718,0.7215543389320374
1667824631109094400,8.367094482421875,-0.5446791052818298,-0.3738361597061157,0.5228596925735474
1667824631119102500,8.3771025390625,-0.6353189945220947,-0.5425180792808533,0.2841871678829193
1667824631129109500,8.387109619140626,-0.7177067995071411,-0.7427244186401367,-0.018269624561071396
1667824631139117600,8.39711767578125,-0.792883574962616,-0.92979496717453,-0.405726820230484
1667824631149124400,8.407124267578125,-0.8486429452896118,-1.0357167720794678,-0.8650344610214233
1667824631159132400,8.41713232421875,-0.8703171014785767,-1.0255624055862427,-1.339051365852356
1667824631169140200,8.42714013671875,-0.873705267906189,-0.9077883958816528,-1.756154179573059
1667824631179147500,8.4371474609375,-0.8729052543640137,-0.68265300989151,-2.0329434871673584
1667824631189155300,8.4471552734375,-0.8615254759788513,-0.3730304539203644,-2.126073122024536
1667824631199163400,8.457163330078124,-0.8408606648445129,-0.04951070621609688,-2.044419050216675
1667824631209170400,8.46717041015625,-0.7868019938468933,0.24356941878795624,-1.8170998096466064
1667824631219178500,8.477178466796875,-0.6804696917533875,0.4645952582359314,-1.494384527206421
1667824631229185300,8.487185302734375,-0.5327587723731995,0.5409103035926819,-1.147178292274475
1667824631239193300,8.497193359375,-0.37448760867118835,0.46891045570373535,-0.8235507011413574
1667824631249201400,8.507201416015626,-0.22679075598716736,0.3146211802959442,-0.5508009195327759
1667824631259208400,8.51720849609375,-0.09936915338039398,0.10699769109487534,-0.32758674025535583
1667824631269216300,8.52721630859375,-0.00805580336600542,-0.12810491025447845,-0.14910584688186646
1667824631279224300,8.537224365234374,0.033049020916223526,-0.38473987579345703,-0.002352630253881216
1667824631289231400,8.5472314453125,0.04529934376478195,-0.6328538656234741,0.11766953021287918
1667824631299239400,8.557239501953125,0.04030831903219223,-0.8488753437995911,0.21208631992340088
1667824631309247500,8.56724755859375,0.03769943490624428,-1.018447995185852,0.2684873938560486
1667824631319254300,8.577254150390624,0.044790368527173996,-1.1324493885040283,0.27843430638313293
1667824631329262600,8.5872626953125,0.061486825346946716,-1.170025110244751,0.26035019755363464
1667824631339270400,8.5972705078125,0.07521089166402817,-1.1624122858047485,0.2171979397535324
1667824631349277400,8.60727734375,0.04921703785657883,-1.1317594051361084,0.15683907270431519
1667824631359285200,8.61728515625,-0.03410874307155609,-1.0619488954544067,0.09039479494094849
1667824631369292500,8.62729248046875,-0.13954459130764008,-0.942876935005188,0.024427851662039757
1667824631379300400,8.63730029296875,-0.23719072341918945,-0.7932507395744324,-0.027626294642686844
1667824631389308400,8.647308349609375,-0.3038879930973053,-0.6482753157615662,-0.04998386651277542
1667824631399315500,8.6573154296875,-0.3621459901332855,-0.5252084732055664,-0.07115040719509125
1667824631409323500,8.667323486328126,-0.4096846282482147,-0.39413467049598694,-0.054371561855077744
1667824631419331300,8.677331298828125,-0.45138174295425415,-0.28866150975227356,-0.01123341266065836
1667824631429338400,8.68733837890625,-0.5067309141159058,-0.2187776118516922,0.06754609942436218
1667824631439346400,8.697346435546875,-0.5821282267570496,-0.17225351929664612,0.17341235280036926
1667824631449354500,8.7073544921875,-0.6800763607025146,-0.13906285166740417,0.28112077713012695
1667824631459361300,8.717361328125,-0.774476945400238,-0.12137573212385178,0.3747519254684448
1667824631469369300,8.727369384765625,-0.858547031879425,-0.09998708963394165,0.43292325735092163
1667824631479376400,8.73737646484375,-0.9198085069656372,-0.06717561930418015,0.4524993300437927
1667824631489384400,8.747384521484374,-0.9593693017959595,-0.05412878096103668,0.4240454435348511
1667824631499392500,8.757392578125,-0.982717752456665,-0.04755157232284546,0.3542919456958771
1667824631509399300,8.7673994140625,-0.9841514229774475,-0.03939606249332428,0.2563970386981964
1667824631519407600,8.77740771484375,-0.9792828559875488,-0.041712481528520584,0.15843264758586884
1667824631529415400,8.78741552734375,-0.9824836850166321,-0.061936892569065094,0.06998947262763977
1667824631539422500,8.79742236328125,-0.9862605929374695,-0.03279658034443855,-0.01564500480890274
1667824631549430300,8.80743017578125,-0.9779248833656311,0.05458566173911095,-0.08691428601741791
1667824631559438600,8.8174384765625,-0.9705921411514282,0.15111032128334045,-0.1438595950603485
1667824631569445400,8.8274453125,-0.9617628455162048,0.22661666572093964,-0.19589819014072418
1667824631579453400,8.837453369140626,-0.9418232440948486,0.30420202016830444,-0.2344205528497696
1667824631589460500,8.84746044921875,-0.9080394506454468,0.3757075369358063,-0.2616175711154938
1667824631599468500,8.857468505859375,-0.8685583472251892,0.4231967628002167,-0.2708406150341034
1667824631609476400,8.867476318359374,-0.8196420669555664,0.46887660026550293,-0.2600981891155243
1667824631619483400,8.8774833984375,-0.7595574259757996,0.4852723479270935,-0.23860888183116913
1667824631629491500,8.887491455078125,-0.6835496425628662,0.4846358895301819,-0.22100144624710083
1667824631639499500,8.89749951171875,-0.5941715240478516,0.48760902881622314,-0.20049190521240234
1667824631649506300,8.90750634765625,-0.493462473154068,0.49066153168678284,-0.18655264377593994
1667824631659514400,8.917514404296876,-0.3820531368255615,0.49139177799224854,-0.17738738656044006
1667824631669521400,8.927521484375,-0.26332923769950867,0.48755311965942383,-0.16813266277313232
1667824631679529500,8.937529541015625,-0.15286213159561157,0.5043395757675171,-0.14491203427314758
1667824631689537500,8.94753759765625,-0.03518545627593994,0.5278483033180237,-0.10921312123537064
1667824631699544300,8.95754443359375,0.08531592786312103,0.5154553055763245,-0.0828840434551239
1667824631709552600,8.967552734375,0.23041746020317078,0.4124045670032501,-0.09291750192642212
1667824631719560400,8.977560546875,0.39318907260894775,0.19798600673675537,-0.15832126140594482
1667824631729567500,8.9875673828125,0.558433473110199,-0.1208600178360939,-0.2931807339191437
1667824631739575300,8.9975751953125,0.6904021501541138,-0.42213597893714905,-0.48846954107284546
1667824631749583400,9.007583251953125,0.7991715669631958,-0.6616959571838379,-0.6995099186897278
1667824631759590400,9.01759033203125,0.8750839233398438,-0.8283496499061584,-0.893017053604126
1667824631769598500,9.027598388671874,0.9425689578056335,-0.8724817037582397,-1.0012489557266235
1667824631779605500,9.03760546875,0.9893766641616821,-0.7546477317810059,-1.0013192892074585
1667824631789613600,9.047613525390625,1.030548095703125,-0.49524354934692383,-0.8621917963027954
1667824631799621400,9.057621337890625,1.091006875038147,-0.19934290647506714,-0.6242258548736572
1667824631809628400,9.06762841796875,1.184478998184204,0.03414192795753479,-0.3385031521320343
1667824631819636200,9.07763623046875,1.3162541389465332,0.21101151406764984,-0.04739167541265488
1667824631829644500,9.08764453125,1.4704722166061401,0.3029325604438782,0.21755023300647736
1667824631839651300,9.0976513671875,1.5926705598831177,0.2862883508205414,0.44280916452407837
1667824631849659400,9.107659423828125,1.638077735900879,0.16252903640270233,0.637393057346344
1667824631859667200,9.117667236328124,1.608773112297058,-0.030442560091614723,0.8050802946090698
1667824631869674500,9.127674560546875,1.5007967948913574,-0.2870463728904724,0.9559321403503418
1667824631879682300,9.137682373046875,1.3088401556015015,-0.577399730682373,1.0497419834136963
1667824631889689300,9.147689453125,1.075411319732666,-0.7876137495040894,1.0823018550872803
1667824631899697400,9.157697509765624,0.8473786115646362,-0.883292555809021,1.0330336093902588
1667824631909705500,9.16770556640625,0.6638859510421753,-0.8608350157737732,0.8998041749000549
1667824631919712300,9.177712158203125,0.545109212398529,-0.7513803839683533,0.7090893387794495
1667824631929720300,9.18772021484375,0.5054476261138916,-0.5840638875961304,0.48453909158706665
1667824631939728600,9.197728759765624,0.507738471031189,-0.3732544481754303,0.27419009804725647
1667824631949736000,9.20773583984375,0.5084048509597778,-0.15527839958667755,0.10223798453807831
1667824631959743700,9.21774365234375,0.4726050794124603,0.041854918003082275,-0.009520769119262695
1667824631969751800,9.227751708984375,0.4066670536994934,0.1771276742219925,-0.07132004201412201
1667824631979758800,9.2377587890625,0.32645636796951294,0.2505302429199219,-0.08224432915449142
1667824631989767000,9.247766845703126,0.24232354760169983,0.2727604806423187,-0.0623694583773613
1667824631999773700,9.257773681640625,0.156737819314003,0.24905622005462646,-0.018206525593996048
1667824632009781800,9.26778173828125,0.08491751551628113,0.21231868863105774,0.03432329744100571
1667824632019789600,9.27778955078125,0.02988515794277191,0.20907442271709442,0.10196226090192795
1667824632029796900,9.287796875,-0.0075414287857711315,0.23570403456687927,0.159771129488945
1667824632039804700,9.2978046875,-0.022393345832824707,0.29750484228134155,0.19842851161956787
1667824632049812700,9.307812744140625,-0.004177474416792393,0.37825217843055725,0.21216997504234314
1667824632059819800,9.31781982421875,0.04001928120851517,0.46527042984962463,0.20511499047279358
1667824632069827800,9.327827880859376,0.09921922534704208,0.5232216715812683,0.18367309868335724
1667824632079834600,9.337834716796875,0.15210215747356415,0.5398770570755005,0.14825358986854553
1667824632089842700,9.3478427734375,0.17646101117134094,0.5358878374099731,0.09306807816028595
1667824632099851000,9.35785107421875,0.17838329076766968,0.554874837398529,0.0345136895775795
1667824632109857800,9.36785791015625,0.16564838588237762,0.6006734371185303,-0.010943812318146229
1667824632119865900,9.377865966796875,0.14627335965633392,0.6265215277671814,-0.03787556290626526
1667824632129873700,9.387873779296875,0.13420362770557404,0.6402295231819153,-0.05190436169505119
1667824632139881000,9.397880859375,0.12725117802619934,0.6595019698143005,-0.05157812312245369
1667824632149888800,9.407888671875,0.12729524075984955,0.7059016227722168,-0.03387385979294777
1667824632159896800,9.417896728515625,0.14450618624687195,0.7774998545646667,0.005912968888878822
1667824632169903900,9.42790380859375,0.19319269061088562,0.8156942129135132,0.04411069303750992
1667824632179912000,9.437911865234375,0.27317512035369873,0.8065962791442871,0.07311651855707169
1667824632189918700,9.447918701171876,0.36462125182151794,0.7691038846969604,0.0989464819431305
1667824632199926800,9.4579267578125,0.43463441729545593,0.7166268825531006,0.11719579249620438
1667824632209934600,9.4679345703125,0.4651268422603607,0.6647317409515381,0.14202430844306946
1667824632219942000,9.47794189453125,0.4732060730457306,0.6189125776290894,0.1894347071647644
1667824632229949700,9.48794970703125,0.4627072215080261,0.5879799723625183,0.2519671320915222
1667824632239957800,9.497957763671875,0.45676571130752563,0.5884116291999817,0.33588841557502747
1667824632249964800,9.50796484375,0.4579773545265198,0.6105563640594482,0.43324869871139526
1667824632259972900,9.517972900390625,0.4763481020927429,0.6472795009613037,0.5337079763412476
1667824632269980700,9.527980712890624,0.506172776222229,0.6767268776893616,0.6268654465675354
1667824632279987700,9.53798779296875,0.5501735210418701,0.6491565108299255,0.6861032247543335
1667824632289995800,9.547995849609375,0.5955507159233093,0.5593832731246948,0.7126189470291138
1667824632300002800,9.5580029296875,0.621425449848175,0.4269474744796753,0.6988503932952881
1667824632310010600,9.5680107421875,0.6178246140480042,0.2359073907136917,0.6436356902122498
1667824632320018700,9.578018798828126,0.5701164603233337,0.021576987579464912,0.5581253170967102
1667824632330025700,9.588025634765625,0.4908035695552826,-0.19963935017585754,0.4384078085422516
1667824632340033800,9.59803369140625,0.38149356842041016,-0.44490718841552734,0.27412858605384827
1667824632350041900,9.608041748046874,0.2595445513725281,-0.7129701972007751,0.04377136379480362
1667824632360049000,9.618048828125,0.14531010389328003,-0.9652961492538452,-0.25936615467071533
1667824632370057000,9.628056884765625,0.04391549155116081,-1.1516094207763672,-0.6220998764038086
1667824632380064800,9.638064697265625,-0.042603421956300735,-1.251744270324707,-1.0140553712844849
1667824632390071800,9.64807177734375,-0.1264498233795166,-1.2269171476364136,-1.380704641342163
1667824632400079600,9.65807958984375,-0.19120939075946808,-1.0354180335998535,-1.6292883157730103
1667824632410087000,9.6680869140625,-0.23102356493473053,-0.7031064033508301,-1.7118914127349854
1667824632420094700,9.6780947265625,-0.24947555363178253,-0.32654204964637756,-1.6293156147003174
1667824632430102800,9.688102783203124,-0.2433488368988037,-0.010466144420206547,-1.4213358163833618
1667824632440109800,9.69810986328125,-0.1847851276397705,0.2484666258096695,-1.123651385307312
1667824632450118000,9.708117919921875,-0.09648716449737549,0.39719754457473755,-0.8046851754188538
1667824632460125700,9.718125732421875,-0.015147567726671696,0.41780802607536316,-0.49483489990234375
1667824632470132700,9.7281328125,0.03317400813102722,0.35883644223213196,-0.1945849359035492
1667824632480140800,9.738140869140626,0.05192425847053528,0.2748587131500244,0.07995342463254929
1667824632490148900,9.74814892578125,0.04531867429614067,0.18330538272857666,0.3160259425640106
1667824632500155600,9.75815576171875,0.013391898013651371,0.08431249111890793,0.508655846118927
1667824632510163700,9.768163818359374,-0.027753038331866264,-0.032438553869724274,0.641269326210022
1667824632520170800,9.778170654296876,-0.0638926699757576,-0.15166747570037842,0.7185883522033691
1667824632530178800,9.7881787109375,-0.09282656759023666,-0.2521704137325287,0.7397059202194214
1667824632540187000,9.798186767578125,-0.11526290327310562,-0.3522277772426605,0.6995156407356262
1667824632550193700,9.808193603515624,-0.13150599598884583,-0.4249914586544037,0.619238555431366
1667824632560202000,9.818201904296876,-0.15671175718307495,-0.46805211901664734,0.5028879642486572
1667824632570209800,9.828209716796875,-0.19419828057289124,-0.4728001654148102,0.36274242401123047
1667824632580216800,9.838216796875,-0.24719864130020142,-0.45615968108177185,0.240657240152359
1667824632590224600,9.848224609375,-0.3246186673641205,-0.45440909266471863,0.12908318638801575
1667824632600233000,9.85823291015625,-0.4285602271556854,-0.47986093163490295,0.030981121584773064
1667824632610239700,9.86823974609375,-0.5532695651054382,-0.5025814175605774,-0.044264815747737885
1667824632620247800,9.878247802734375,-0.6781725883483887,-0.5163975954055786,-0.10224742442369461
1667824632630254800,9.8882548828125,-0.7851947546005249,-0.5326446890830994,-0.13934504985809326
1667824632640263000,9.898262939453126,-0.8746024370193481,-0.5552673935890198,-0.16264210641384125
1667824632650270700,9.908270751953125,-0.9448757171630859,-0.6196398138999939,-0.18415895104408264
1667824632660277800,9.91827783203125,-0.9948089718818665,-0.7259542942047119,-0.22258144617080688
1667824632670285800,9.928285888671875,-1.0407493114471436,-0.7971794605255127,-0.2601838707923889
1667824632680294000,9.9382939453125,-1.0801366567611694,-0.8146892189979553,-0.28137198090553284
1667824632690300700,9.94830078125,-1.1320747137069702,-0.7705196738243103,-0.26748210191726685
1667824632700308700,9.958308837890625,-1.198383092880249,-0.6597830653190613,-0.2170221507549286
1667824632710316800,9.96831689453125,-1.2733571529388428,-0.5060337781906128,-0.15446196496486664
1667824632720323800,9.97832373046875,-1.3553955554962158,-0.3173304498195648,-0.0877457857131958
1667824632730332000,9.988331787109376,-1.4268878698349,-0.12315315008163452,-0.045150626450777054
1667824632740338700,9.998338623046875,-1.4779225587844849,0.05993570759892464,-0.04584544524550438
1667824632750347000,10.008346923828125,-1.5100094079971313,0.2223016321659088,-0.07566994428634644
1667824632760354800,10.018354736328124,-1.5266658067703247,0.3512127101421356,-0.12419513612985611
1667824632770361900,10.02836181640625,-1.5379116535186768,0.4282796084880829,-0.16998904943466187
1667824632780369700,10.03836962890625,-1.5427730083465576,0.4541519582271576,-0.23403488099575043
1667824632790377700,10.048377685546875,-1.5404324531555176,0.4379812479019165,-0.3138144314289093
1667824632800384800,10.058384765625,-1.5208263397216797,0.4023311138153076,-0.403726726770401
1667824632810392800,10.068392822265626,-1.4916681051254272,0.3572697043418884,-0.495749294757843
1667824632820400600,10.078400634765625,-1.4530935287475586,0.3156372904777527,-0.5845977067947388
1667824632830408000,10.088407958984375,-1.4000152349472046,0.25552403926849365,-0.6668345928192139
1667824632840415700,10.098415771484374,-1.3274749517440796,0.17665240168571472,-0.753789484500885
1667824632850422800,10.1084228515625,-1.2350152730941772,0.08125387132167816,-0.8497468829154968
1667824632860430600,10.1184306640625,-1.131030797958374,-0.032701995223760605,-0.9541784524917603
1667824632870439000,10.12843896484375,-1.026024580001831,-0.11423489451408386,-1.0634312629699707
1667824632880445700,10.13844580078125,-0.9061406254768372,-0.16383706033229828,-1.1617480516433716
1667824632890453800,10.148453857421876,-0.7668001651763916,-0.18519656360149384,-1.2386013269424438
1667824632900461600,10.158461669921875,-0.6096473336219788,-0.18285192549228668,-1.282750129699707
1667824632910468900,10.16846875,-0.4316640794277191,-0.1758282333612442,-1.2926498651504517
1667824632920476700,10.1784765625,-0.23054054379463196,-0.18087917566299438,-1.2808313369750977
1667824632930484700,10.188484619140626,0.004378930199891329,-0.2337087243795395,-1.2688050270080566
1667824632940491300,10.1984912109375,0.2641652524471283,-0.34039631485939026,-1.2654273509979248
1667824632950499300,10.208499267578125,0.534799337387085,-0.4760877192020416,-1.2611305713653564
1667824632960506000,10.218506103515624,0.8070113658905029,-0.6109177470207214,-1.2607358694076538
1667824632970514200,10.22851416015625,1.0756003856658936,-0.7219163775444031,-1.2493356466293335
1667824632980522500,10.2385224609375,1.3202354907989502,-0.8053409457206726,-1.2153321504592896
1667824632990529300,10.248529296875,1.5380274057388306,-0.8619648218154907,-1.135212779045105
1667824633000537300,10.258537353515624,1.7081496715545654,-0.8676655888557434,-0.9903290867805481
1667824633010545200,10.268545166015626,1.8193787336349487,-0.7929500937461853,-0.7506821155548096
1667824633020552400,10.278552490234375,1.8719130754470825,-0.6546843647956848,-0.4420531988143921
1667824633030560300,10.288560302734375,1.885514736175537,-0.46692153811454773,-0.10382244735956192
1667824633040568300,10.298568359375,1.893845558166504,-0.3303096294403076,0.18770954012870789
1667824633050575400,10.308575439453126,1.8968466520309448,-0.275849848985672,0.42111000418663025
1667824633060583400,10.31858349609375,1.8810548782348633,-0.27970266342163086,0.5778990983963013
1667824633070591200,10.32859130859375,1.8191475868225098,-0.32031044363975525,0.6832149028778076
1667824633080598300,10.338598388671874,1.692623496055603,-0.37220507860183716,0.758205235004425
1667824633090606300,10.3486064453125,1.5177229642868042,-0.3816833794116974,0.8072115778923035
1667824633100613400,10.35861328125,1.311510443687439,-0.3182756304740906,0.8537758588790894
1667824633110621200,10.36862109375,1.1073695421218872,-0.18547530472278595,0.9014734625816345
1667824633120629200,10.378629150390625,0.9055660367012024,-0.02356230467557907,0.9516152143478394
1667824633130636300,10.38863623046875,0.7247744202613831,0.13741947710514069,0.9837589859962463
1667824633140644400,10.398644287109375,0.5803378820419312,0.25455382466316223,0.9980684518814087
1667824633150652200,10.408652099609375,0.4899786710739136,0.31597432494163513,0.9593798518180847
1667824633160659200,10.4186591796875,0.44959715008735657,0.3389795124530792,0.875984787940979
1667824633170667300,10.428667236328126,0.4499169588088989,0.34964126348495483,0.7673553824424744
1667824633180675300,10.43867529296875,0.4689396619796753,0.3526458144187927,0.6568759679794312
1667824633190682000,10.44868212890625,0.5109134912490845,0.3414974808692932,0.5720818042755127
1667824633200690200,10.458690185546875,0.5543392300605774,0.31837165355682373,0.5167360305786133
1667824633210697200,10.468697265625,0.5666908025741577,0.27162471413612366,0.49661654233932495
1667824633220705300,10.478705322265625,0.5529866814613342,0.2215365171432495,0.4900960922241211
1667824633230713300,10.48871337890625,0.5153710246086121,0.20578043162822723,0.49648478627204895
1667824633240720400,10.498720458984375,0.4685440957546234,0.24508708715438843,0.504592776298523
1667824633250728400,10.508728515625,0.42013970017433167,0.28749391436576843,0.5163180232048035
1667824633260736300,10.518736328125,0.37225472927093506,0.31088128685951233,0.5046321153640747
1667824633270743300,10.528743408203125,0.3350844979286194,0.2545320987701416,0.4425680935382843
1667824633280751000,10.538751220703125,0.31722134351730347,0.11289962381124496,0.30112573504447937
1667824633290759400,10.548759521484374,0.3256368339061737,-0.052079156041145325,0.0835624635219574
1667824633300766200,10.55876611328125,0.34769579768180847,-0.15433575212955475,-0.14843589067459106
1667824633310774300,10.568774169921875,0.36314839124679565,-0.17335693538188934,-0.3385244607925415
1667824633320781300,10.57878125,0.3706579804420471,-0.0921851173043251,-0.4364299774169922
1667824633330789400,10.588789306640624,0.3699473440647125,0.11622887849807739,-0.40642547607421875
1667824633340797200,10.598797119140626,0.366954505443573,0.44700679183006287,-0.2407211810350418
1667824633350804200,10.60880419921875,0.3731305003166199,0.8139789700508118,0.007536121644079685
1667824633360812300,10.618812255859375,0.40481334924697876,1.0798910856246948,0.261390745639801
1667824633370820400,10.6288203125,0.4734289050102234,1.20806884765625,0.4709579348564148
1667824633380827100,10.6388271484375,0.5829399228096008,1.2020877599716187,0.5966878533363342
1667824633390835200,10.648835205078125,0.6907522082328796,1.113635778427124,0.6354727745056152
1667824633400843300,10.65884326171875,0.7672946453094482,0.9750680327415466,0.6340743899345398
1667824633410850300,10.668850341796874,0.7817258238792419,0.8328026533126831,0.6214802265167236
1667824633420858400,10.6788583984375,0.7205934524536133,0.6855199933052063,0.6112251877784729
1667824633430866200,10.6888662109375,0.6043432354927063,0.5539225935935974,0.6213476657867432
1667824633440873500,10.69887353515625,0.46000415086746216,0.4807799160480499,0.6667377948760986
1667824633450881300,10.70888134765625,0.31992417573928833,0.48635247349739075,0.7313406467437744
1667824633460888300,10.718888427734376,0.21179476380348206,0.5642991662025452,0.7877740859985352
1667824633470896000,10.728896240234375,0.16161836683750153,0.6597808003425598,0.8220483064651489
1667824633480904400,10.738904541015625,0.17886047065258026,0.7523975968360901,0.8321670293807983
1667824633490911200,10.7489111328125,0.23749786615371704,0.8032483458518982,0.8193311095237732
1667824633500919300,10.758919189453126,0.2983801066875458,0.8204584717750549,0.7925407886505127
1667824633510927000,10.768927001953125,0.3455798625946045,0.8156527280807495,0.7672867774963379
1667824633520934400,10.778934326171875,0.38765645027160645,0.7772299647331238,0.7383843064308167
1667824633530942200,10.788942138671874,0.4167821407318115,0.6753768920898438,0.7132691740989685
1667824633540950300,10.7989501953125,0.42680656909942627,0.5166170597076416,0.6900514960289001
1667824633550957300,10.808957275390625,0.39175519347190857,0.3215149939060211,0.6522604823112488
1667824633560965400,10.81896533203125,0.31514349579811096,0.10364949703216553,0.595679759979248
1667824633570972200,10.82897216796875,0.20668888092041016,-0.13760775327682495,0.49625664949417114
1667824633580980200,10.838980224609376,0.07166635990142822,-0.4200386703014374,0.3260422945022583
1667824633590988300,10.84898828125,-0.06685909628868103,-0.7627813816070557,0.06466028839349747
1667824633600995300,10.858995361328125,-0.1998877227306366,-1.1199742555618286,-0.29407045245170593
1667824633611003400,10.86900341796875,-0.31100547313690186,-1.4425990581512451,-0.7458704710006714
1667824633621011200,10.87901123046875,-0.37242621183395386,-1.6392862796783447,-1.26474928855896
1667824633631018500,10.8890185546875,-0.3818689286708832,-1.6655110120773315,-1.7696361541748047
1667824633641026300,10.8990263671875,-0.3627980351448059,-1.5473159551620483,-2.2079737186431885
1667824633651034400,10.909034423828125,-0.3472731113433838,-1.2877118587493896,-2.5055923461914062
1667824633661041200,10.919041259765624,-0.32880541682243347,-0.882958173751831,-2.6064090728759766
1667824633671049500,10.929049560546876,-0.31029272079467773,-0.42215755581855774,-2.504910469055176
1667824633681056300,10.93905615234375,-0.258085161447525,-0.010068800300359726,-2.255021333694458
1667824633691064300,10.949064208984375,-0.17156106233596802,0.2734103500843048,-1.899570107460022
1667824633701072100,10.959072021484374,-0.063307024538517,0.45909473299980164,-1.4982436895370483
1667824633711079400,10.969079345703125,0.05219641700387001,0.5163500905036926,-1.1233946084976196
1667824633721087200,10.979087158203125,0.18000605702400208,0.458864688873291,-0.817777156829834
1667824633731095300,10.98909521484375,0.29850202798843384,0.401477575302124,-0.5874906182289124
1667824633741102300,10.999102294921874,0.41108715534210205,0.31260523200035095,-0.42772144079208374
1667824633751110400,11.0091103515625,0.5197253823280334,0.23170040547847748,-0.2945582866668701
1667824633761118200,11.0191181640625,0.6421346664428711,0.27068188786506653,-0.19156983494758606
1667824633771125200,11.029125244140625,0.8116052746772766,0.6934423446655273,-0.053457826375961304
1667824633781133000,11.039133056640624,1.046865463256836,1.0145998001098633,-0.029267266392707825
1667824633791140400,11.049140380859376,1.2326271533966064,0.7054380774497986,-0.2785465717315674
1667824633801148200,11.059148193359375,1.3390315771102905,0.4498156011104584,-0.40199020504951477
1667824633811156200,11.06915625,1.4070497751235962,0.49704957008361816,-0.26396968960762024
1667824633821163300,11.079163330078124,1.3873891830444336,0.5300408005714417,-0.2612743079662323
1667824633831171300,11.08917138671875,1.2965095043182373,0.2284679263830185,-0.39540186524391174
1667824633841179400,11.099179443359375,1.2315877676010132,0.07780330628156662,-0.3130713105201721
1667824633851186200,11.109186279296875,1.1533863544464111,-0.0756046324968338,-0.08478967845439911
1667824633861194500,11.119194580078124,0.9992049932479858,-0.3957538902759552,0.19778263568878174
1667824633871202300,11.129202392578126,0.7394293546676636,-0.675708532333374,0.5335184335708618
1667824633881209300,11.139209228515625,0.40888261795043945,-0.7952216267585754,0.8881250023841858
1667824633891217200,11.149217041015625,0.07458563148975372,-0.8706440925598145,1.170594334602356
1667824633901225200,11.15922509765625,-0.21383044123649597,-0.9107667803764343,1.3353049755096436
1667824633911232300,11.169232177734376,-0.4330448806285858,-0.8567267656326294,1.4081335067749023
1667824633921240300,11.179240234375,-0.6026642322540283,-0.7802967429161072,1.3701798915863037
1667824633931247400,11.189247314453125,-0.7510828375816345,-0.4974766671657562,1.2089662551879883
1667824633941255700,11.199255615234375,-0.8356725573539734,-0.18992950022220612,1.0008745193481445
1667824633951263500,11.209263427734374,-0.8410435318946838,0.13285383582115173,0.7818236351013184
1667824633961270500,11.2192705078125,-0.8197238445281982,0.4122940003871918,0.5307847261428833
1667824633971278300,11.2292783203125,-0.8120993971824646,0.5441696643829346,0.2973436117172241
1667824633981286400,11.239286376953125,-0.8645442128181458,0.6607591509819031,0.17292313277721405
1667824633991293400,11.24929345703125,-0.9402665495872498,0.6739751696586609,0.1805243194103241
1667824634001301500,11.259301513671875,-1.0185589790344238,0.5480917692184448,0.2959619462490082
1667824634011309600,11.2693095703125,-1.0978074073791504,0.3728809952735901,0.49396955966949463
1667824634021316600,11.279316650390625,-1.1913446187973022,0.34025779366493225,0.7212865948677063
1667824634031324700,11.28932470703125,-1.2782238721847534,0.5021867156028748,0.9057480692863464
1667824634041332500,11.29933251953125,-1.3246912956237793,0.8457198143005371,1.003366231918335
1667824634051339500,11.309339599609375,-1.3177250623703003,1.3172943592071533,0.9855991005897522
1667824634061347600,11.31934765625,-1.2792754173278809,1.8059614896774292,0.8480742573738098
1667824634071354600,11.329354736328124,-1.1891229152679443,2.134634494781494,0.5749786496162415
1667824634081362400,11.339362548828126,-1.0517501831054688,2.2192916870117188,0.16815762221813202
1667824634091370500,11.34937060546875,-0.9214198589324951,2.1944477558135986,-0.3065779507160187
1667824634101377500,11.35937744140625,-0.7064830660820007,2.239584445953369,-0.7023268938064575
1667824634111385600,11.369385498046874,-0.4202330708503723,2.464799165725708,-1.045994520187378
1667824634121393400,11.379393310546876,-0.11841382831335068,2.331754207611084,-1.5411025285720825
1667824634131400700,11.389400634765625,0.20361429452896118,1.7755223512649536,-2.133838176727295
1667824634141408500,11.399408447265625,0.4885301887989044,1.140753149986267,-2.6150622367858887
1667824634151416600,11.40941650390625,0.6457592844963074,0.5648037791252136,-2.9408671855926514
1667824634161423400,11.41942333984375,0.6868516206741333,0.09670346230268478,-3.116128444671631
1667824634171431400,11.429431396484375,0.6642796993255615,-0.47584280371665955,-3.1097331047058105
1667824634181438500,11.4394384765625,0.6482490301132202,-1.1184923648834229,-2.8931281566619873
1667824634191446500,11.449446533203124,0.675956130027771,-1.0051289796829224,-2.5160014629364014
1667824634201454600,11.45945458984375,0.6805487871170044,-0.5106436610221863,-2.048616409301758
1667824634211461600,11.469461669921875,0.7557739019393921,-0.6288560628890991,-1.4051399230957031
1667824634221469700,11.4794697265625,0.8601658344268799,-0.5989093780517578,-0.7295143008232117
1667824634231477500,11.4894775390625,0.9220782518386841,-0.39144161343574524,-0.07728619873523712
1667824634241484500,11.499484619140626,0.89930260181427,-0.32585781812667847,0.5453981161117554
1667824634251492600,11.50949267578125,0.8007615804672241,-0.40560394525527954,1.0738282203674316
1667824634261500700,11.519500732421875,0.600749135017395,-0.5931607484817505,1.395993709564209
1667824634271507500,11.529507568359374,0.3844407796859741,-0.9005698561668396,1.4805817604064941
1667824634281515500,11.539515625,0.19815507531166077,-1.1779743432998657,1.421776294708252
1667824634291523600,11.549523681640625,0.11481614410877228,-1.1865917444229126,1.3352842330932617
1667824634301530600,11.559530517578125,0.17396415770053864,-0.9185429215431213,1.3053876161575317
1667824634311538400,11.569538330078124,0.3223085403442383,-0.5622389316558838,1.3048499822616577
1667824634321545700,11.579545654296876,0.4620736539363861,-0.2799239158630371,1.2515240907669067
1667824634331553500,11.589553466796875,0.5014780163764954,-0.07216613739728928,1.1200507879257202
1667824634341561600,11.5995615234375,0.4532868266105652,0.06516589224338531,0.9155929684638977
1667824634351568400,11.609568359375,0.37696966528892517,0.16028548777103424,0.6931021213531494
1667824634361576400,11.619576416015626,0.31063273549079895,0.21843880414962769,0.5040045976638794
1667824634371584800,11.629584716796876,0.28080737590789795,0.556533932685852,0.33072906732559204
1667824634381591600,11.639591552734375,0.26702287793159485,0.9672924280166626,0.17738080024719238
1667824634391599400,11.649599365234375,0.26979732513427734,0.8302685618400574,0.121101975440979
1667824634401607400,11.659607421875,0.18941965699195862,0.8320472836494446,0.1550293117761612
1667824634411614500,11.669614501953125,0.05162648856639862,0.9029639959335327,0.24711939692497253
1667824634421622500,11.67962255859375,-0.01945221796631813,0.8908199667930603,0.3572158217430115
1667824634431630600,11.689630615234375,-0.03027503937482834,0.872548520565033,0.4850715100765228
1667824634441637600,11.6996376953125,-0.032048504799604416,0.8700317740440369,0.6372954845428467
1667824634451645700,11.709645751953126,-0.04431802034378052,0.8327516913414001,0.8002071976661682
1667824634461652500,11.719652587890625,-0.0654323622584343,0.7737360596656799,0.9641330242156982
1667824634471660500,11.72966064453125,-0.09017758816480637,0.6594058275222778,1.1169453859329224
1667824634481668400,11.73966845703125,-0.14823316037654877,0.4703536629676819,1.246748685836792
1667824634491675600,11.749675537109376,-0.22718007862567902,0.31244957447052,1.376163363456726
1667824634501683500,11.759683349609375,-0.2679208517074585,0.16723617911338806,1.4666472673416138
1667824634511691500,11.76969140625,-0.24128098785877228,-0.0014514988288283348,1.4339009523391724
1667824634521698600,11.779698486328124,-0.1630929857492447,-0.17088766396045685,1.2864470481872559
1667824634531706600,11.78970654296875,-0.06756367534399033,-0.2737923860549927,1.0820547342300415
1667824634541714400,11.79971435546875,-0.02431420236825943,-0.25534787774086,0.8544449806213379
1667824634551721500,11.809721435546875,-0.04501665011048317,-0.1904817521572113,0.6322627067565918
1667824634561729500,11.8197294921875,-0.10298141837120056,-0.11091742664575577,0.45901528000831604
1667824634571736600,11.829736572265626,-0.1300843507051468,-0.016034070402383804,0.3419838845729828
1667824634581744400,11.839744384765625,-0.06524118036031723,0.09983661025762558,0.3130824565887451
1667824634591752400,11.84975244140625,0.05836904048919678,0.25380948185920715,0.36842894554138184
1667824634601759500,11.859759521484374,0.1916797012090683,0.419923335313797,0.4776073694229126
1667824634611767600,11.869767578125,0.2913879156112671,0.5321010947227478,0.5835543274879456
1667824634621775600,11.879775634765625,0.3342485725879669,0.5415207147598267,0.6730889678001404
1667824634631782700,11.88978271484375,0.32831260561943054,0.46635085344314575,0.7464379668235779
1667824634641790700,11.899790771484374,0.2857808768749237,0.33682480454444885,0.816966712474823
1667824634651798500,11.909798583984376,0.22151224315166473,0.21030595898628235,0.8705213665962219
1667824634661805600,11.9198056640625,0.10232087969779968,0.04893890395760536,0.8616583347320557
1667824634671813400,11.9298134765625,-0.024409323930740356,-0.08518775552511215,0.8128244280815125
1667824634681821700,11.93982177734375,-0.12749069929122925,-0.19169582426548004,0.7096964120864868
1667824634691828500,11.949828369140626,-0.1932118535041809,-0.2505258023738861,0.5628142356872559
1667824634701836500,11.95983642578125,-0.22726835310459137,-0.2947161793708801,0.3803432285785675
1667824634711843600,11.969843505859375,-0.27152177691459656,-0.3936326801776886,0.10547827184200287
1667824634721851600,11.9798515625,-0.33978497982025146,-0.5369717478752136,-0.2531864047050476
1667824634731859500,11.989859375,-0.3900153636932373,-0.6464658975601196,-0.628926157951355
1667824634741866500,11.999866455078125,-0.39290544390678406,-0.7216197848320007,-0.9757735729217529
1667824634751874600,12.00987451171875,-0.34214743971824646,-0.7924991250038147,-1.2588120698928833
1667824634761882600,12.019882568359375,-0.26631179451942444,-0.803982675075531,-1.4278408288955688
1667824634771889400,12.029889404296876,-0.18258796632289886,-0.699911892414093,-1.431115984916687
1667824634781897500,12.0398974609375,-0.07524686306715012,-0.47316956520080566,-1.2456964254379272
1667824634791905500,12.049905517578125,0.032212987542152405,-0.14485207200050354,-0.9267818927764893
1667824634801912600,12.05991259765625,0.13880202174186707,0.21166157722473145,-0.5538777709007263
1667824634811920600,12.069920654296874,0.2385273575782776,0.4805487394332886,-0.2036927044391632
1667824634821927400,12.079927490234375,0.31738513708114624,0.5711781978607178,0.041928522288799286
1667824634831935700,12.089935791015625,0.3627971410751343,0.4897337853908539,0.1724662035703659
1667824634841943600,12.099943603515625,0.37759846448898315,0.3414146304130554,0.2013860046863556
1667824634851950600,12.10995068359375,0.3818051815032959,0.177248015999794,0.16350382566452026
1667824634861958400,12.11995849609375,0.3881419003009796,0.0061742630787193775,0.08965596556663513
1667824634871966700,12.129966796875,0.4084370732307434,-0.13959699869155884,0.01043974794447422
1667824634881973500,12.139973388671875,0.4469309449195862,-0.23867325484752655,-0.040193066000938416
1667824634891981600,12.149981689453124,0.4868122637271881,-0.28137362003326416,-0.046631719917058945
1667824634901989400,12.1599892578125,0.5298305153846741,-0.23656541109085083,0.01712755113840103
1667824634911996700,12.16999658203125,0.5682548880577087,-0.13674309849739075,0.1367446333169937
1667824634922004500,12.18000439453125,0.5956750512123108,0.01134889479726553,0.28827691078186035
1667824634932012500,12.190012451171874,0.6110017895698547,0.1742010861635208,0.42506495118141174
1667824634942019600,12.20001953125,0.6050317883491516,0.3137265145778656,0.5087918043136597
1667824634952027400,12.21002734375,0.5867249369621277,0.38896074891090393,0.5312337279319763
1667824634962034400,12.220034423828125,0.5558860898017883,0.39458000659942627,0.49139469861984253
1667824634972042200,12.230042236328124,0.5179447531700134,0.366062730550766,0.4203605055809021
1667824634982050300,12.24005029296875,0.4908372759819031,0.3420836329460144,0.36050915718078613
1667824634992057300,12.250057373046875,0.4970339238643646,0.3330513536930084,0.35900571942329407
1667824635002065400,12.2600654296875,0.5408679842948914,0.36727723479270935,0.41711029410362244
1667824635012073200,12.2700732421875,0.6183972954750061,0.46534594893455505,0.5140998959541321
1667824635022080500,12.28008056640625,0.707606315612793,0.5768306851387024,0.6086865663528442
1667824635032088300,12.29008837890625,0.7924855351448059,0.6525536179542542,0.6709507703781128
1667824635042096400,12.300096435546875,0.8399374485015869,0.6502401232719421,0.6731843948364258
1667824635052103200,12.310103271484374,0.8500404953956604,0.6093892455101013,0.6197159290313721
1667824635062111500,12.320111572265626,0.8541433215141296,0.5700199604034424,0.5307127833366394
1667824635072118300,12.3301181640625,0.8573798537254333,0.48091229796409607,0.40793856978416443
1667824635082126300,12.340126220703125,0.8642387986183167,0.3709879219532013,0.2835332453250885
1667824635092134400,12.350134521484375,0.8645234704017639,0.29935458302497864,0.18642748892307281
1667824635102141400,12.360141357421876,0.854947566986084,0.2700885832309723,0.1243974044919014
1667824635112149500,12.3701494140625,0.8333297967910767,0.25532636046409607,0.08893482387065887
1667824635122157300,12.3801572265625,0.7940415143966675,0.20851196348667145,0.06993263214826584
1667824635132164400,12.390164306640624,0.7343544960021973,0.16777752339839935,0.079201340675354
1667824635142172400,12.40017236328125,0.6762579083442688,0.15923011302947998,0.10755974799394608
1667824635152180500,12.410180419921875,0.6421323418617249,0.2750629186630249,0.1519177109003067
1667824635162187300,12.420187255859375,0.6245024800300598,0.5416876673698425,0.20106500387191772
1667824635172195300,12.4301953125,0.6354551911354065,0.8713347911834717,0.20252625644207
1667824635182203400,12.440203369140624,0.6851662993431091,1.1131362915039062,0.12644188106060028
1667824635192210400,12.45021044921875,0.7522443532943726,1.198641061782837,-0.014850856736302376
1667824635202218200,12.46021826171875,0.8117306232452393,1.1947163343429565,-0.1721872240304947
