time,seconds_elapsed,z,y,x
1667267000595474700,0.114474609375,0,0,0
1667267000600270000,0.11927001953125,0.004242897033691406,-0.012753486633300781,-0.035596251487731934
1667267000605065700,0.124065673828125,0.0013179779052734375,-0.0032674074172973633,-0.04378417134284973
1667267000609861000,0.128861083984375,0.026244163513183594,-0.00490415096282959,-0.03178790211677551
1667267000614656800,0.13365673828125,0.04412269592285156,0.02947366237640381,-0.00325658917427063
1667267000619452200,0.1384521484375,0.023939132690429688,-0.0007779598236083984,0.030173122882843018
1667267000624247600,0.14324755859375,0.06170845031738281,-0.00038254261016845703,-0.021247297525405884
1667267000629043200,0.148043212890625,0.10022926330566406,-0.0033965110778808594,-0.08208253979682922
1667267000633838600,0.152838623046875,0.09347152709960938,-0.028583168983459473,-0.09591376781463623
1667267000638634000,0.157634033203125,0.061600685119628906,-0.04967176914215088,-0.09560522437095642
1667267000643429600,0.1624296875,0.060455322265625,-0.06530416011810303,-0.06889057159423828
1667267000648225000,0.16722509765625,0.12357521057128906,-0.0661611557006836,-0.05946722626686096
1667267000653020400,0.1720205078125,0.1573171615600586,-0.053197622299194336,-0.028825759887695312
1667267000657816000,0.176816162109375,0.17407798767089844,-0.03598439693450928,0.04378598928451538
1667267000662611500,0.181611572265625,0.173919677734375,0.014535784721374512,0.13109201192855835
1667267000667406800,0.18640673828125,0.1521472930908203,0.05647444725036621,0.20364265143871307
1667267000672202500,0.191202392578125,0.10185623168945312,0.06928586959838867,0.24446141719818115
1667267000676998000,0.195997802734375,0.04340171813964844,0.08416497707366943,0.21798273921012878
1667267000681793500,0.20079345703125,0.02898406982421875,0.08510768413543701,0.16588863730430603
1667267000686589000,0.2055888671875,0.027864456176757812,0.04440665245056152,0.1094689667224884
1667267000691384300,0.21038427734375,0.03711128234863281,-0.012272834777832031,0.04942673444747925
1667267000696180000,0.215179931640625,0.05860710144042969,-0.05724477767944336,0.014420926570892334
1667267000700975400,0.219975341796875,0.14919471740722656,-0.07995140552520752,0.012658447027206421
1667267000705770800,0.224770751953125,0.22031497955322266,-0.07234430313110352,0.03493446111679077
1667267000710566400,0.22956640625,0.26953983306884766,-0.058629751205444336,0.0839678943157196
1667267000715361800,0.23436181640625,0.22533035278320312,-0.05627703666687012,0.1451583206653595
1667267000720157400,0.239157470703125,0.17743301391601562,-0.03143811225891113,0.18582281470298767
1667267000724952800,0.243952880859375,0.0623016357421875,-0.027489066123962402,0.21074292063713074
1667267000729748200,0.248748291015625,-0.01984882354736328,-0.02161872386932373,0.16578009724617004
1667267000734543600,0.253543701171875,-0.040256500244140625,-0.02522456645965576,0.017361223697662354
1667267000739339300,0.25833935546875,0.04889678955078125,-0.003413558006286621,-0.0771552324295044
1667267000744134700,0.263134765625,0.13999176025390625,0.0869758129119873,-0.023152947425842285
1667267000748930300,0.267930419921875,0.3434906005859375,0.30363619327545166,0.18013042211532593
1667267000753725700,0.2727255859375,0.7018966674804688,0.32142162322998047,0.02261766791343689
1667267000758521000,0.27752099609375,0.9253959655761719,0.28221869468688965,0.07054457068443298
1667267000763316700,0.282316650390625,0.9482040405273438,0.28077149391174316,0.2641710937023163
1667267000768112000,0.287112060546875,0.8781404495239258,0.31398558616638184,0.34023797512054443
1667267000772907500,0.291907470703125,0.8387432098388672,0.4250771999359131,0.350583553314209
1667267000777703200,0.296703125,0.8361597061157227,0.5431843996047974,0.2488495409488678
1667267000782498600,0.30149853515625,0.8017568588256836,0.6155741214752197,0.0744677484035492
1667267000787294200,0.306294189453125,0.7093896865844727,0.5394654273986816,-0.11294567584991455
1667267000792089600,0.311089599609375,0.5965709686279297,0.39290690422058105,-0.3611709475517273
1667267000796885000,0.315885009765625,0.3945960998535156,0.19980692863464355,-0.585390567779541
1667267000801680600,0.3206806640625,0.18123722076416016,0.06533670425415039,-0.7868723273277283
1667267000806476000,0.32547607421875,-0.03887748718261719,0.0001665353775024414,-0.9326158761978149
1667267000811271400,0.330271484375,-0.17690372467041016,-0.025073766708374023,-0.9856327772140503
1667267000816067000,0.335067138671875,-0.2886524200439453,-0.005273699760437012,-0.9797059893608093
1667267000820862500,0.339862548828125,-0.3724822998046875,0.01536250114440918,-0.9550546407699585
1667267000825657900,0.344657958984375,-0.44077205657958984,0.08153080940246582,-0.9012001156806946
1667267000830453500,0.34945361328125,-0.4727611541748047,0.15020060539245605,-0.8277129530906677
1667267000835249000,0.354248779296875,-0.5031585693359375,0.24820160865783691,-0.7415774464607239
1667267000840044300,0.359044189453125,-0.515559196472168,0.3244723081588745,-0.647566020488739
1667267000844840000,0.36383984375,-0.5972146987915039,0.37238597869873047,-0.5774907469749451
1667267000849635300,0.36863525390625,-0.6682395935058594,0.4339144229888916,-0.5332505702972412
1667267000854431000,0.373430908203125,-0.7324151992797852,0.4936026334762573,-0.4674205780029297
1667267000859226400,0.378226318359375,-0.8311080932617188,0.48240363597869873,-0.44743895530700684
1667267000864021800,0.383021728515625,-0.93914794921875,0.4546867609024048,-0.4762667417526245
1667267000868817400,0.3878173828125,-1.0129022598266602,0.3765751123428345,-0.5589079856872559
1667267000873612800,0.39261279296875,-1.0941877365112305,0.28549230098724365,-0.6695711612701416
1667267000878408200,0.397408203125,-1.1923809051513672,0.2112189531326294,-0.7348767518997192
1667267000883203800,0.402203857421875,-1.282536506652832,0.15463685989379883,-0.7544140815734863
1667267000887999200,0.406999267578125,-1.3589248657226562,0.10601603984832764,-0.7558389902114868
1667267000892794600,0.411794677734375,-1.4395065307617188,0.08646953105926514,-0.7019176483154297
1667267000897590300,0.41659033203125,-1.487680435180664,0.06708812713623047,-0.5945860147476196
1667267000902385700,0.4213857421875,-1.4567527770996094,0.06544649600982666,-0.4695385694503784
1667267000907181000,0.42618115234375,-1.3797006607055664,0.05768787860870361,-0.3645254373550415
1667267000911976700,0.430976806640625,-1.2594718933105469,0.049762725830078125,-0.27169275283813477
1667267000916772000,0.435772216796875,-1.071843147277832,0.05807459354400635,-0.16482329368591309
1667267000921567700,0.440567626953125,-0.8919830322265625,0.04109156131744385,-0.07559692859649658
1667267000926363100,0.445363037109375,-0.7196512222290039,0.0556255578994751,0.004626035690307617
1667267000931158500,0.450158447265625,-0.6207590103149414,0.049346089363098145,0.07367503643035889
1667267000935954200,0.4549541015625,-0.5989770889282227,0.04031407833099365,0.13059020042419434
1667267000940749600,0.45974951171875,-0.5764665603637695,0.02963423728942871,0.18975359201431274
1667267000945545200,0.464545166015625,-0.543818473815918,0.05420100688934326,0.23121416568756104
1667267000950340600,0.469340576171875,-0.5625782012939453,0.0723576545715332,0.23295199871063232
1667267000955136000,0.474135986328125,-0.5422706604003906,0.10199546813964844,0.2973897457122803
1667267000959931600,0.478931640625,-0.5130014419555664,0.09565496444702148,0.36045873165130615
1667267000964727000,0.48372705078125,-0.4229240417480469,0.16801238059997559,0.5074224472045898
1667267000969522400,0.4885224609375,-0.12475967407226562,0.16769635677337646,0.42461466789245605
1667267000974318000,0.493318115234375,0.12147998809814453,0.08240246772766113,0.3512424826622009
1667267000979113500,0.498113525390625,0.15680694580078125,-0.0099029541015625,0.40826845169067383
1667267000983908900,0.502908935546875,0.03205108642578125,-0.023798465728759766,0.488553524017334
1667267000988704500,0.50770458984375,-0.06536388397216797,0.03150951862335205,0.5966962575912476
1667267000993500000,0.5125,-0.043501853942871094,0.10063838958740234,0.5514328479766846
1667267000998295300,0.51729541015625,0.03481864929199219,0.1441575288772583,0.4199714660644531
1667267001003091000,0.522091064453125,0.07905292510986328,0.12672865390777588,0.32846152782440186
1667267001007886300,0.52688623046875,0.06591320037841797,0.09859263896942139,0.3091470003128052
1667267001012682000,0.531681884765625,0.046942710876464844,0.05030512809753418,0.3599308729171753
1667267001017477400,0.536477294921875,0.02693462371826172,-0.04030752182006836,0.4233984351158142
1667267001022272800,0.541272705078125,-0.01892375946044922,-0.1752232313156128,0.4806818962097168
1667267001027068400,0.546068359375,-0.07379722595214844,-0.3064662218093872,0.5225803852081299
1667267001031863800,0.55086376953125,-0.12577152252197266,-0.3973780870437622,0.534983217716217
1667267001036659200,0.5556591796875,-0.17133045196533203,-0.44247007369995117,0.5645005702972412
1667267001041454800,0.560454833984375,-0.2331075668334961,-0.4323735237121582,0.6158596277236938
1667267001046250200,0.565250244140625,-0.28012752532958984,-0.43519043922424316,0.6759724020957947
1667267001051046000,0.5700458984375,-0.3552103042602539,-0.44940173625946045,0.7236350774765015
1667267001055841300,0.57484130859375,-0.4722929000854492,-0.47110676765441895,0.740411639213562
1667267001060636700,0.57963671875,-0.5480947494506836,-0.4927365779876709,0.7373555898666382
1667267001065432300,0.584432373046875,-0.6186208724975586,-0.48815464973449707,0.7311599850654602
1667267001070227700,0.589227783203125,-0.6697835922241211,-0.46092939376831055,0.7204441428184509
1667267001075023000,0.594023193359375,-0.6875896453857422,-0.4396963119506836,0.6682729125022888
1667267001079818800,0.59881884765625,-0.6735372543334961,-0.4529317617416382,0.5892224311828613
1667267001084614100,0.6036142578125,-0.6112985610961914,-0.45528531074523926,0.509797215461731
1667267001089409500,0.608409423828125,-0.5356950759887695,-0.4088935852050781,0.4454559087753296
1667267001094205200,0.613205078125,-0.44681358337402344,-0.3559623956680298,0.4420766234397888
1667267001099000600,0.61800048828125,-0.38504791259765625,-0.30616605281829834,0.4303230047225952
1667267001103796000,0.6227958984375,-0.2967395782470703,-0.2620837688446045,0.42905473709106445
1667267001108591600,0.627591552734375,-0.2200603485107422,-0.2202014923095703,0.44638657569885254
1667267001113387000,0.632386962890625,-0.16199970245361328,-0.2257012128829956,0.4653743505477905
1667267001118182700,0.6371826171875,-0.09621524810791016,-0.2429029941558838,0.44338077306747437
1667267001122978000,0.64197802734375,0.01282501220703125,-0.24321722984313965,0.4543330669403076
1667267001127773400,0.6467734375,0.097198486328125,-0.24369466304779053,0.4791373610496521
1667267001132569000,0.651569091796875,0.2319164276123047,-0.2539098262786865,0.4632444381713867
1667267001137364500,0.656364501953125,0.34893321990966797,-0.24421584606170654,0.43188750743865967
1667267001142160000,0.661159912109375,0.41161346435546875,-0.21832776069641113,0.358936607837677
1667267001146955500,0.66595556640625,0.39548397064208984,-0.16109371185302734,0.33454394340515137
1667267001151751000,0.6707509765625,0.35814762115478516,-0.13097381591796875,0.29976600408554077
1667267001156546600,0.675546630859375,0.3721437454223633,-0.08026707172393799,0.27102339267730713
1667267001161342000,0.680342041015625,0.41217613220214844,-0.012818217277526855,0.25102055072784424
1667267001166137300,0.685137451171875,0.48403167724609375,0.052223801612854004,0.2782002091407776
1667267001170933000,0.68993310546875,0.5697555541992188,0.10293066501617432,0.31148386001586914
1667267001175728400,0.694728271484375,0.6264820098876953,0.1670776605606079,0.3665400743484497
1667267001180523800,0.699523681640625,0.5986518859863281,0.24706542491912842,0.42082715034484863
1667267001185319400,0.7043193359375,0.5890274047851562,0.3370267152786255,0.44348859786987305
1667267001190114800,0.70911474609375,0.5688772201538086,0.39907288551330566,0.4544646739959717
1667267001194910200,0.71391015625,0.518061637878418,0.4560352563858032,0.4298347234725952
1667267001199705900,0.718705810546875,0.503300666809082,0.48790276050567627,0.3662734031677246
1667267001204501200,0.723501220703125,0.48273754119873047,0.5161173343658447,0.27459532022476196
1667267001209296600,0.728296630859375,0.4968109130859375,0.5110509395599365,0.20146697759628296
1667267001214092300,0.73309228515625,0.5429067611694336,0.5048490762710571,0.13845574855804443
1667267001218887700,0.7378876953125,0.5661039352416992,0.5224871635437012,0.08395487070083618
1667267001223683300,0.742683349609375,0.5689601898193359,0.5863114595413208,0.08898377418518066
1667267001228478700,0.747478759765625,0.582514762878418,0.6423808336257935,0.09470438957214355
1667267001233274000,0.752274169921875,0.5698280334472656,0.6966023445129395,0.1078292727470398
1667267001238069800,0.75706982421875,0.537022590637207,0.7430188655853271,0.11391657590866089
1667267001242865200,0.761865234375,0.49611473083496094,0.7648869752883911,0.08775794506072998
1667267001247660500,0.76666064453125,0.4043846130371094,0.7481375932693481,0.04743361473083496
1667267001252456200,0.771456298828125,0.3132963180541992,0.7286173105239868,-0.03430205583572388
1667267001257251600,0.77625146484375,0.18931198120117188,0.6772226095199585,-0.10608828067779541
1667267001262047200,0.781047119140625,0.09716606140136719,0.6139923334121704,-0.17622268199920654
1667267001266842600,0.785842529296875,0.06629085540771484,0.549778938293457,-0.2539626955986023
1667267001271638000,0.790637939453125,0.06533527374267578,0.5095736980438232,-0.2795868515968323
1667267001276433700,0.79543359375,0.06678104400634766,0.4598989486694336,-0.26870793104171753
1667267001281229000,0.80022900390625,0.05045795440673828,0.44117045402526855,-0.24508273601531982
1667267001286024400,0.8050244140625,-0.02384662628173828,0.4141099452972412,-0.16232508420944214
1667267001290820000,0.809820068359375,-0.14140987396240234,0.3549656867980957,-0.09706342220306396
1667267001295615500,0.814615478515625,-0.2912311553955078,0.30941319465637207,-0.03980928659439087
1667267001300411100,0.8194111328125,-0.4279356002807617,0.3104734420776367,0.006945013999938965
1667267001305206500,0.82420654296875,-0.5409793853759766,0.2984660863876343,0.012109577655792236
1667267001310002000,0.829001953125,-0.6032686233520508,0.2688392400741577,-0.035958826541900635
1667267001314797600,0.833797607421875,-0.6353988647460938,0.23238933086395264,-0.09049111604690552
1667267001319593000,0.838593017578125,-0.6019716262817383,0.2282501459121704,-0.11911964416503906
1667267001324388400,0.843388427734375,-0.5284452438354492,0.15890014171600342,-0.187045156955719
1667267001329184000,0.84818408203125,-0.43884849548339844,0.09609365463256836,-0.20195293426513672
1667267001333979400,0.8529794921875,-0.3047800064086914,0.06247001886367798,-0.15748941898345947
1667267001338775000,0.857775146484375,-0.1823568344116211,0.08636051416397095,-0.08181256055831909
1667267001343570400,0.8625703125,-0.0821695327758789,0.055807411670684814,0.01199185848236084
1667267001348365800,0.86736572265625,0.009016036987304688,0.04733765125274658,0.10251224040985107
1667267001353161500,0.872161376953125,0.06632709503173828,0.0656169056892395,0.17193365097045898
1667267001357956900,0.876956787109375,0.12087821960449219,0.07609045505523682,0.1821897029876709
1667267001362752300,0.881752197265625,0.13945484161376953,0.07285302877426147,0.15632885694503784
1667267001367548000,0.8865478515625,0.21138381958007812,0.08687055110931396,0.13257646560668945
1667267001372343300,0.89134326171875,0.3231678009033203,0.08460724353790283,0.11554735898971558
1667267001377139000,0.896138916015625,0.4353170394897461,0.09089618921279907,0.10033658146858215
1667267001381934300,0.900934326171875,0.5276327133178711,0.0996788740158081,0.11866384744644165
1667267001386729700,0.905729736328125,0.6204671859741211,0.08218544721603394,0.17832276225090027
1667267001391525400,0.910525390625,0.6758308410644531,0.0658261775970459,0.23958712816238403
1667267001396320800,0.91532080078125,0.7237234115600586,0.06114095449447632,0.300160676240921
1667267001401116400,0.920116455078125,0.7903261184692383,0.006130397319793701,0.2826448082923889
1667267001405911800,0.924911865234375,0.8469924926757812,0.01971369981765747,0.3382296562194824
1667267001410707200,0.929707275390625,0.8165969848632812,-0.0066925883293151855,0.3160255253314972
1667267001415502800,0.9345029296875,0.7651462554931641,0.0623164176940918,0.3432769775390625
1667267001420298200,0.93929833984375,0.6547842025756836,0.12275862693786621,0.31696003675460815
1667267001425093600,0.94409375,0.5025968551635742,0.14862412214279175,0.2859331965446472
1667267001429889300,0.94888916015625,0.3195838928222656,0.15109872817993164,0.24405401945114136
1667267001434684700,0.9536845703125,0.13325881958007812,0.11531317234039307,0.15195143222808838
1667267001439480300,0.958480224609375,0.02913665771484375,0.06405973434448242,0.047113656997680664
1667267001444275700,0.963275634765625,0.05045604705810547,0.029705166816711426,-0.01682877540588379
1667267001449071000,0.968071044921875,0.14989566802978516,0.02272266149520874,-0.09098201990127563
1667267001453866800,0.97286669921875,0.19861125946044922,0.01088249683380127,-0.17032402753829956
1667267001458662100,0.977662109375,0.2563915252685547,-0.005736827850341797,-0.22132450342178345
1667267001463457800,0.982457763671875,0.3231801986694336,-0.004603445529937744,-0.20601600408554077
1667267001468253200,0.987253173828125,0.41314697265625,0.012935459613800049,-0.1700698733329773
1667267001473048600,0.992048583984375,0.4821815490722656,-0.003297150135040283,-0.13758224248886108
1667267001477844200,0.99684423828125,0.5838718414306641,-0.02224266529083252,-0.12064909934997559
1667267001482639600,1.0016396484375,0.7108535766601562,-0.017089128494262695,-0.1643567681312561
1667267001487435300,1.006435302734375,0.7822074890136719,-0.033262431621551514,-0.15182751417160034
1667267001492230700,1.011230712890625,0.8031482696533203,-0.08256125450134277,-0.07889816164970398
1667267001497026000,1.016026123046875,0.8049688339233398,-0.1386350691318512,-0.016076087951660156
1667267001501821700,1.02082177734375,0.8056735992431641,-0.1732073426246643,0.09518676996231079
1667267001506617000,1.0256171875,0.8195343017578125,-0.23401421308517456,0.18698281049728394
1667267001511412500,1.03041259765625,0.8132343292236328,-0.2899416387081146,0.23999297618865967
1667267001516208000,1.0352080078125,0.8320827484130859,-0.3729947507381439,0.2778780162334442
1667267001521003500,1.04000341796875,0.8663921356201172,-0.450735479593277,0.3005620241165161
1667267001525799200,1.044799072265625,0.8614158630371094,-0.4956286549568176,0.3357013463973999
1667267001530594600,1.049594482421875,0.7949018478393555,-0.4957680404186249,0.3394612967967987
1667267001535390000,1.054389892578125,0.6839427947998047,-0.4878573417663574,0.3144463300704956
1667267001540185600,1.059185546875,0.5229530334472656,-0.49785783886909485,0.269171804189682
1667267001544981000,1.06398095703125,0.34911060333251953,-0.5370994210243225,0.21084849536418915
1667267001549776400,1.0687763671875,0.13756179809570312,-0.5836314558982849,0.13939520716667175
1667267001554572000,1.073572021484375,-0.11141777038574219,-0.6561470031738281,0.0579199492931366
1667267001559367400,1.078367431640625,-0.33936309814453125,-0.7280001044273376,-0.048662424087524414
1667267001564163000,1.0831630859375,-0.5227270126342773,-0.8120623826980591,-0.12458640336990356
1667267001568958500,1.08795849609375,-0.6618881225585938,-0.8700242638587952,-0.2185268998146057
1667267001573753900,1.09275390625,-0.7346668243408203,-0.904387354850769,-0.24144089221954346
1667267001578549500,1.097549560546875,-0.7463445663452148,-0.9189324975013733,-0.26478201150894165
1667267001583345000,1.102344970703125,-0.7069101333618164,-0.8842964768409729,-0.269552618265152
1667267001588140500,1.107140625,-0.6239252090454102,-0.8399655818939209,-0.2540125548839569
1667267001592936000,1.11193603515625,-0.5328922271728516,-0.7316577434539795,-0.2479144036769867
1667267001597731300,1.1167314453125,-0.3731861114501953,-0.673620343208313,-0.31114643812179565
1667267001602527000,1.12152685546875,-0.12009716033935547,-0.6024747490882874,-0.3600923717021942
1667267001607322400,1.126322265625,-0.06239891052246094,-0.494770348072052,-0.3913206458091736
1667267001612118000,1.131117919921875,-0.060965538024902344,-0.3524068593978882,-0.48568668961524963
1667267001616913400,1.135913330078125,-0.019041061401367188,-0.2258317768573761,-0.6101764440536499
1667267001621708800,1.140708740234375,-0.016646385192871094,-0.12508288025856018,-0.7034163475036621
1667267001626504400,1.14550439453125,-0.11084556579589844,-0.11437979340553284,-0.7497618794441223
1667267001631299800,1.1502998046875,-0.26430797576904297,-0.11559158563613892,-0.827445387840271
1667267001636095200,1.15509521484375,-0.44344425201416016,-0.18444597721099854,-0.9558456540107727
1667267001640891000,1.159890869140625,-0.5587997436523438,-0.21902036666870117,-1.0811177492141724
1667267001645686300,1.164686279296875,-0.6142444610595703,-0.2191554605960846,-1.1899365186691284
1667267001650482000,1.16948193359375,-0.5588016510009766,-0.19311685860157013,-1.3190124034881592
1667267001655277300,1.17427734375,-0.4298830032348633,-0.09199169278144836,-1.4319536685943604
1667267001660072700,1.17907275390625,-0.1645946502685547,-0.029579877853393555,-1.500623106956482
1667267001664868400,1.183868408203125,0.2723054885864258,0.022467583417892456,-1.5466216802597046
1667267001669663700,1.188663818359375,0.7800407409667969,0.06928002834320068,-1.541809320449829
1667267001674459400,1.19345947265625,1.2522993087768555,0.11020606756210327,-1.5740901231765747
1667267001679254800,1.1982548828125,1.691725730895996,0.17534905672073364,-1.649065375328064
1667267001684050200,1.20305029296875,2.0782651901245117,0.3250020146369934,-1.7240512371063232
1667267001688845800,1.207845703125,2.0402889251708984,0.6414155960083008,-1.4440124034881592
1667267001693641200,1.21264111328125,2.0027246475219727,0.48922184109687805,-1.2455203533172607
1667267001698436900,1.217436767578125,1.8416404724121094,0.18225517868995667,-1.4063801765441895
1667267001703232300,1.222232177734375,1.9473133087158203,-0.012326598167419434,-1.4588143825531006
1667267001708027600,1.227027587890625,1.7893304824829102,-0.05231991410255432,-1.3281280994415283
1667267001712823300,1.2318232421875,1.5237092971801758,0.07259856164455414,-1.0173799991607666
1667267001717618700,1.23661865234375,1.2545642852783203,0.4034421443939209,-0.6961725354194641
1667267001722414000,1.2414140625,0.9556331634521484,0.85700523853302,-0.38922131061553955
1667267001727209700,1.246209716796875,0.6054964065551758,1.2766202688217163,-0.20255625247955322
1667267001732005000,1.251005126953125,0.16135120391845703,1.6255909204483032,-0.09167206287384033
1667267001736800800,1.25580078125,-0.3407745361328125,1.837577223777771,-0.10894185304641724
1667267001741596200,1.26059619140625,-0.8005599975585938,1.8976420164108276,-0.3198508620262146
1667267001746391800,1.265391845703125,-1.203902244567871,1.7956204414367676,-0.6998733282089233
1667267001751187200,1.270187255859375,-1.537898063659668,1.58696448802948,-1.1512869596481323
1667267001755982600,1.274982666015625,-1.665696144104004,1.2695509195327759,-1.4753235578536987
1667267001760778200,1.2797783203125,-1.7848587036132812,1.139430046081543,-1.515450358390808
1667267001765573600,1.28457373046875,-1.8834848403930664,1.0373252630233765,-0.9103400707244873
1667267001770369300,1.289369384765625,-1.9974017143249512,0.6153992414474487,-0.5698105692863464
1667267001775164700,1.29416455078125,-2.090651512145996,0.2914130985736847,-0.5019904375076294
1667267001779960000,1.2989599609375,-1.9224343299865723,0.09642872959375381,-0.41215068101882935
1667267001784755700,1.303755615234375,-2.006441593170166,0.004522114992141724,-0.03970646858215332
1667267001789551000,1.308551025390625,-2.051926612854004,0.03746480494737625,0.4597170054912567
1667267001794346500,1.313346435546875,-2.0076732635498047,0.17166104912757874,1.050138235092163
1667267001799142100,1.31814208984375,-1.5650224685668945,0.4533367156982422,1.5877716541290283
1667267001803937500,1.3229375,-0.7408628463745117,0.7732576131820679,2.1295247077941895
1667267001808733200,1.327733154296875,0.1760873794555664,1.0631152391433716,2.6657156944274902
1667267001813528600,1.332528564453125,1.0794878005981445,1.4487900733947754,3.130190134048462
1667267001818324200,1.33732421875,2.0803098678588867,1.8966681957244873,3.582026243209839
1667267001823119600,1.34211962890625,2.877749443054199,1.9668152332305908,4.059642314910889
1667267001827915000,1.3469150390625,3.676480293273926,1.8704555034637451,4.086738109588623
1667267001832710700,1.351710693359375,4.262936592102051,1.5354090929031372,4.102672576904297
1667267001837506000,1.356506103515625,4.710537910461426,1.3653395175933838,3.631901502609253
1667267001842301400,1.361301513671875,5.085214614868164,1.1149489879608154,3.128024101257324
1667267001847097000,1.36609716796875,5.150907516479492,0.762001633644104,2.579003095626831
1667267001851892500,1.370892578125,4.913342475891113,0.3906382918357849,1.9628525972366333
1667267001856688000,1.375688232421875,4.520134925842285,0.0490494966506958,1.4655486345291138
1667267001861483500,1.3804833984375,3.9884033203125,-0.3064189553260803,0.9599310755729675
1667267001866279200,1.385279052734375,3.4342823028564453,-0.6993908286094666,0.46437153220176697
1667267001871074600,1.390074462890625,2.905550956726074,-1.0412777662277222,0.037380874156951904
1667267001875870000,1.394869873046875,2.3818435668945312,-1.2362492084503174,-0.267507940530777
1667267001880665600,1.39966552734375,1.759439468383789,-1.3601630926132202,-0.41968202590942383
1667267001885461000,1.4044609375,1.2260236740112305,-1.4920872449874878,-0.5353305339813232
1667267001890256400,1.40925634765625,0.8350515365600586,-1.5795624256134033,-0.6927205324172974
1667267001895052000,1.414052001953125,0.6016092300415039,-1.620424509048462,-0.7819523811340332
1667267001899847400,1.418847412109375,0.3964080810546875,-1.6437290906906128,-0.8450634479522705
1667267001904643000,1.42364306640625,0.23967552185058594,-1.579970359802246,-0.8005560636520386
1667267001909438500,1.4284384765625,0.1706399917602539,-1.3837248086929321,-0.6011236906051636
1667267001914234000,1.433234130859375,0.12215995788574219,-1.1176432371139526,-0.29408085346221924
1667267001919029500,1.438029541015625,0.05602073669433594,-0.8354229927062988,0.030690491199493408
1667267001923825000,1.442824951171875,-0.005009651184082031,-0.6597754955291748,0.24965733289718628
1667267001928620500,1.44762060546875,-0.05376148223876953,-0.5459589958190918,0.33942675590515137
1667267001933416000,1.452416015625,-0.12726211547851562,-0.46994471549987793,0.3326595425605774
1667267001938211300,1.45721142578125,-0.1812610626220703,-0.48028838634490967,0.24758228659629822
1667267001943007000,1.462007080078125,-0.10370635986328125,-0.5351731777191162,0.09347105026245117
1667267001947802400,1.46680224609375,0.26599788665771484,-0.6475740671157837,-0.07866495847702026
1667267001952598000,1.471597900390625,0.7144985198974609,-0.8152018785476685,-0.22648701071739197
1667267001957393400,1.476393310546875,1.1973390579223633,-0.9572826623916626,-0.3175981640815735
1667267001962189000,1.48118896484375,1.6594867706298828,-1.1103390455245972,-0.42793288826942444
1667267001966984400,1.485984375,2.06758975982666,-1.2043269872665405,-0.5214002132415771
1667267001971779800,1.49077978515625,2.3001222610473633,-1.207486867904663,-0.5974994897842407
1667267001976575500,1.495575439453125,2.428011894226074,-1.156083345413208,-0.639523983001709
1667267001981371000,1.500370849609375,2.4694528579711914,-1.072991132736206,-0.6607862710952759
1667267001986166300,1.505166259765625,2.5046463012695312,-0.9582675695419312,-0.7191604971885681
1667267001990962000,1.5099619140625,2.5061378479003906,-0.8931509256362915,-0.7471250891685486
1667267001995757300,1.51475732421875,2.4179563522338867,-0.8094561100006104,-0.764056384563446
1667267002000553000,1.519552978515625,2.2618236541748047,-0.7633785009384155,-0.7944900393486023
1667267002005348400,1.524348388671875,2.113088607788086,-0.7238476276397705,-0.7826336026191711
1667267002010144000,1.52914404296875,2.0778732299804688,-0.6553027629852295,-0.7008256316184998
1667267002014939400,1.533939453125,2.1713199615478516,-0.574955940246582,-0.5348754525184631
1667267002019734800,1.53873486328125,2.46700382232666,-0.4834885597229004,-0.4249188303947449
1667267002024530400,1.543530517578125,2.7304859161376953,-0.4324389696121216,-0.3861965537071228
1667267002029325800,1.548325927734375,2.7209787368774414,-0.4511150121688843,-0.34296488761901855
1667267002034121200,1.553121337890625,2.4072465896606445,-0.5530339479446411,-0.2958115339279175
1667267002038916900,1.557916748046875,1.8560113906860352,-0.7118667364120483,-0.3470333218574524
1667267002043712300,1.562712158203125,1.1063804626464844,-0.8951429128646851,-0.36556291580200195
1667267002048508000,1.5675078125,0.32263755798339844,-1.1157552003860474,-0.43146955966949463
1667267002053303300,1.57230322265625,-0.5092334747314453,-1.4246037006378174,-0.6817737221717834
1667267002058099000,1.577098876953125,-1.3245296478271484,-1.8093279600143433,-0.9876937866210938
1667267002062894300,1.581894287109375,-2.0780982971191406,-2.113753318786621,-1.2825796604156494
1667267002067689700,1.586689697265625,-2.611361503601074,-2.3779361248016357,-1.6487371921539307
1667267002072485400,1.5914853515625,-2.792631149291992,-2.4156742095947266,-1.8492071628570557
1667267002077280800,1.59628076171875,-2.5932741165161133,-2.550065517425537,-1.7369986772537231
1667267002082076400,1.601076416015625,-2.052783966064453,-2.648792266845703,-1.3004934787750244
1667267002086871800,1.605871826171875,-1.0971384048461914,-2.5280373096466064,-0.6117112636566162
1667267002091667200,1.610667236328125,0.219818115234375,-2.245608329772949,0.14457082748413086
1667267002096462800,1.615462890625,1.642770767211914,-1.8923295736312866,0.769591748714447
1667267002101258200,1.62025830078125,2.984042167663574,-1.5788965225219727,1.2119426727294922
1667267002106054000,1.625053955078125,4.187887191772461,-1.2432878017425537,1.423933506011963
1667267002110849300,1.629849365234375,5.186672210693359,-1.033060908317566,1.3254680633544922
1667267002115644700,1.634644775390625,5.775630950927734,-0.8503289222717285,1.0140968561172485
1667267002120440300,1.6394404296875,5.896198272705078,-0.654341459274292,0.5958315134048462
1667267002125235700,1.644235595703125,5.769317626953125,-0.5788040161132812,0.17634999752044678
1667267002130031400,1.64903125,5.659511566162109,-0.6805765628814697,-0.16661643981933594
1667267002134826800,1.65382666015625,5.490349769592285,-0.6764209270477295,-0.38069474697113037
1667267002139622400,1.658622314453125,5.236980438232422,-0.6693029403686523,-0.5782649517059326
1667267002144417800,1.663417724609375,4.991578102111816,-0.5995177030563354,-0.6960785388946533
1667267002149213200,1.668213134765625,4.941625595092773,-0.40748143196105957,-0.7045429944992065
1667267002154008800,1.6730087890625,5.158287048339844,-0.07007169723510742,-0.5778993368148804
1667267002158804200,1.67780419921875,5.627734184265137,0.34627699851989746,-0.33616453409194946
1667267002163599600,1.682599609375,6.05198860168457,0.8314757347106934,-0.0033705830574035645
1667267002168395300,1.687395263671875,6.218710899353027,1.3283638954162598,0.40351003408432007
1667267002173190700,1.692190673828125,6.043759346008301,1.7319570779800415,0.8143033385276794
1667267002177986300,1.696986328125,5.681881904602051,1.9526114463806152,1.136769413948059
1667267002182781700,1.70178173828125,5.304156303405762,2.022747755050659,1.3204618692398071
1667267002187577300,1.706577392578125,4.961862564086914,1.9566158056259155,1.467592716217041
1667267002192372700,1.711372802734375,4.699038505554199,1.824742078781128,1.537163257598877
1667267002197168000,1.716168212890625,4.509491920471191,1.65677809715271,1.5377731323242188
1667267002201963800,1.7209638671875,4.401374816894531,1.4882562160491943,1.5176191329956055
1667267002206759200,1.72575927734375,4.3458147048950195,1.3378270864486694,1.449859380722046
1667267002211554800,1.730554931640625,4.237615585327148,1.1837146282196045,1.4120118618011475
1667267002216350200,1.73535009765625,4.068499565124512,1.0973467826843262,1.3789970874786377
1667267002221145600,1.7401455078125,3.9029693603515625,1.0186668634414673,1.4397107362747192
1667267002225941200,1.744941162109375,3.806415557861328,0.9816722869873047,1.532148838043213
1667267002230736600,1.749736572265625,3.6960372924804688,0.9367022514343262,1.569420576095581
1667267002235532300,1.7545322265625,3.539414405822754,0.89387047290802,1.4722084999084473
1667267002240327700,1.75932763671875,3.2613048553466797,0.799004316329956,1.3285231590270996
1667267002245123000,1.764123046875,2.908527374267578,0.651976466178894,1.0906450748443604
1667267002249918700,1.768918701171875,2.513495445251465,0.5435464382171631,0.7718403339385986
1667267002254714000,1.773714111328125,2.06081485748291,0.4640378952026367,0.5011564493179321
1667267002259509800,1.778509765625,1.5781850814819336,0.37548255920410156,0.27340632677078247
1667267002264305200,1.78330517578125,1.0598230361938477,0.26032328605651855,0.08353090286254883
1667267002269100500,1.7881005859375,0.6647014617919922,0.24789953231811523,-0.007678508758544922
1667267002273896200,1.792896240234375,0.22789287567138672,0.20481491088867188,-0.005793273448944092
1667267002278691600,1.797691650390625,-0.22764301300048828,0.19635653495788574,0.05243813991546631
1667267002283487200,1.8024873046875,-0.7148170471191406,0.18131279945373535,0.1365966796875
1667267002288282600,1.80728271484375,-1.1736440658569336,0.19763660430908203,0.1984308362007141
1667267002293078300,1.812078369140625,-1.6255149841308594,0.21842718124389648,0.18792128562927246
1667267002297873700,1.816873779296875,-2.004584312438965,0.2706878185272217,0.13666224479675293
1667267002302669000,1.8216689453125,-2.2787132263183594,0.30444276332855225,0.08485472202301025
1667267002307464700,1.826464599609375,-2.494629383087158,0.3009301424026489,0.0762900710105896
1667267002312260000,1.831260009765625,-2.6715240478515625,0.2842433452606201,0.07095295190811157
1667267002317055500,1.836055419921875,-2.7903995513916016,0.2554600238800049,0.07066929340362549
1667267002321851100,1.84085107421875,-2.859781265258789,0.27066922187805176,0.07427135109901428
1667267002326646500,1.845646484375,-2.8177871704101562,0.2840350866317749,0.052085429430007935
1667267002331442200,1.850442138671875,-2.6754884719848633,0.3179664611816406,0.05356523394584656
1667267002336237600,1.855237548828125,-2.4427146911621094,0.3411123752593994,0.09838515520095825
1667267002341033200,1.860033203125,-2.1626949310302734,0.36268889904022217,0.1670195460319519
1667267002345828600,1.86482861328125,-1.8868980407714844,0.3705393075942993,0.23465614020824432
1667267002350624000,1.8696240234375,-1.7633113861083984,0.29675769805908203,0.3250187337398529
1667267002355419600,1.874419677734375,-1.7508659362792969,0.18369686603546143,0.37230968475341797
1667267002360215000,1.879215087890625,-1.8145732879638672,0.05696547031402588,0.3286782205104828
1667267002365010700,1.8840107421875,-1.8288049697875977,-0.06747126579284668,0.284110963344574
1667267002369806000,1.88880615234375,-1.861703872680664,-0.2025136947631836,0.20527860522270203
1667267002374601700,1.893601806640625,-1.9644966125488281,-0.3094099760055542,0.09211599826812744
1667267002379397000,1.898397216796875,-2.133403778076172,-0.3605395555496216,0.008933007717132568
1667267002384192500,1.903192626953125,-2.3288116455078125,-0.36276328563690186,-0.09101685881614685
1667267002388988200,1.90798828125,-2.531546115875244,-0.30882728099823,-0.22331783175468445
1667267002393783600,1.912783447265625,-2.7439661026000977,-0.22712790966033936,-0.30705973505973816
1667267002398579200,1.9175791015625,-2.9923219680786133,-0.17237436771392822,-0.35234349966049194
1667267002403374600,1.92237451171875,-3.2359209060668945,-0.12129580974578857,-0.3548281788825989
1667267002408170000,1.927169921875,-3.4258508682250977,-0.07127422094345093,-0.27909374237060547
1667267002412965600,1.931965576171875,-3.539597511291504,-0.03653842210769653,-0.1874525547027588
1667267002417761000,1.936760986328125,-3.5905327796936035,-0.018316030502319336,-0.11813849210739136
1667267002422556700,1.941556640625,-3.645735740661621,-0.02251267433166504,-0.05967521667480469
1667267002427352000,1.94635205078125,-3.7016725540161133,-0.07310384511947632,-0.0004004240036010742
1667267002432147700,1.951147705078125,-3.6652560234069824,-0.10440540313720703,0.026140272617340088
1667267002436943000,1.955943115234375,-3.5701894760131836,-0.1417568325996399,0.041644394397735596
1667267002441738500,1.960738525390625,-3.4094772338867188,-0.21648424863815308,0.010745406150817871
1667267002446534100,1.9655341796875,-3.1689934730529785,-0.2692677974700928,-0.004123985767364502
1667267002451329500,1.97032958984375,-2.7916440963745117,-0.3041025996208191,0.025952398777008057
1667267002456125000,1.975125,-2.3637619018554688,-0.33714765310287476,0.07262134552001953
1667267002460920600,1.979920654296875,-1.9905614852905273,-0.3259134292602539,0.10603737831115723
1667267002465716000,1.984716064453125,-1.6862621307373047,-0.3483601212501526,0.10080575942993164
1667267002470511600,1.98951171875,-1.536722183227539,-0.36057448387145996,0.01197284460067749
1667267002475307000,1.99430712890625,-1.5177488327026367,-0.39600497484207153,-0.11865109205245972
1667267002480102700,1.9991025390625,-1.6111774444580078,-0.44276607036590576,-0.24175310134887695
1667267002484898000,2.00389794921875,-1.6746959686279297,-0.49012455344200134,-0.37490612268447876
1667267002489693400,2.008693359375,-1.715585708618164,-0.550146222114563,-0.4838847517967224
1667267002494489000,2.013489013671875,-1.7267684936523438,-0.5775034427642822,-0.5953692197799683
1667267002499284500,2.018284423828125,-1.73455810546875,-0.6104618310928345,-0.6767939925193787
1667267002504080100,2.023080078125,-1.6887950897216797,-0.6444741487503052,-0.7064582705497742
1667267002508875500,2.02787548828125,-1.6552324295043945,-0.6795817613601685,-0.6671568155288696
1667267002513671000,2.0326708984375,-1.582437515258789,-0.7300522327423096,-0.5692708492279053
1667267002518466600,2.037466552734375,-1.5217876434326172,-0.7375596165657043,-0.4026159644126892
1667267002523262000,2.042261962890625,-1.426630973815918,-0.7713176012039185,-0.21223527193069458
1667267002528057600,2.0470576171875,-1.3602638244628906,-0.7737599611282349,-0.07858675718307495
1667267002532853000,2.05185302734375,-1.3154058456420898,-0.7708175778388977,0.07052457332611084
1667267002537648600,2.056648681640625,-1.3707962036132812,-0.7524974942207336,0.22322183847427368
1667267002542444000,2.061444091796875,-1.4879913330078125,-0.7218632102012634,0.3326113820075989
1667267002547239400,2.066239501953125,-1.6382102966308594,-0.6810064911842346,0.4007742702960968
1667267002552035000,2.07103515625,-1.758101463317871,-0.6620142459869385,0.4204857349395752
1667267002556830500,2.07583056640625,-1.8166875839233398,-0.6420421600341797,0.3430832624435425
1667267002561625900,2.0806259765625,-1.7830448150634766,-0.6772155165672302,0.2530568242073059
1667267002566421500,2.08542138671875,-1.7147150039672852,-0.7482301592826843,0.1303081512451172
1667267002571217000,2.090216796875,-1.6774845123291016,-0.8502190709114075,-0.001297295093536377
1667267002576012500,2.095012451171875,-1.70953369140625,-0.9613925814628601,-0.1172906756401062
1667267002580808000,2.099807861328125,-1.7617721557617188,-1.042411208152771,-0.2468496561050415
1667267002585603600,2.104603515625,-1.769700050354004,-1.0791316032409668,-0.36301302909851074
1667267002590399000,2.10939892578125,-1.7382116317749023,-1.067216396331787,-0.3956691324710846
1667267002595194400,2.1141943359375,-1.6996660232543945,-1.0415661334991455,-0.3909127116203308
1667267002599990000,2.118989990234375,-1.6552677154541016,-1.060957670211792,-0.36099445819854736
1667267002604785400,2.123785400390625,-1.5990333557128906,-1.0740654468536377,-0.3175230026245117
1667267002609581000,2.1285810546875,-1.4652595520019531,-1.1131998300552368,-0.2704305648803711
1667267002614376400,2.13337646484375,-1.2648210525512695,-1.1354979276657104,-0.2389167845249176
1667267002619171800,2.138171875,-1.0336370468139648,-1.1367212533950806,-0.1261347234249115
1667267002623967500,2.142967529296875,-0.615260124206543,-1.148578405380249,0.15772219002246857
1667267002628763000,2.147762939453125,-0.3816080093383789,-1.123112678527832,0.41801801323890686
1667267002633558500,2.15255859375,-0.3227272033691406,-1.0280306339263916,0.5092850923538208
1667267002638354000,2.15735400390625,-0.16946697235107422,-0.9365427494049072,0.4862610995769501
1667267002643149600,2.162149658203125,-0.02950000762939453,-0.872809112071991,0.43313390016555786
1667267002647945000,2.166945068359375,0.010043144226074219,-0.8607895374298096,0.45045551657676697
1667267002652740400,2.171740234375,0.1142578125,-0.9101572036743164,0.5392712354660034
1667267002657536000,2.176535888671875,0.19939804077148438,-1.0505905151367188,0.7482606172561646
1667267002662331400,2.181331298828125,0.045760154724121094,-1.2087807655334473,0.8278204202651978
1667267002667127000,2.186126953125,0.04205608367919922,-1.3712890148162842,0.5848538875579834
1667267002671922400,2.19092236328125,-0.06047248840332031,-1.4983508586883545,0.3567805290222168
1667267002676718000,2.195718017578125,-0.2866802215576172,-1.6161158084869385,0.10195890069007874
1667267002681513500,2.200513427734375,-0.5157327651977539,-1.6856615543365479,0.07964301109313965
1667267002686308900,2.205308837890625,-0.8396825790405273,-1.6585638523101807,0.03677891194820404
1667267002691104500,2.2101044921875,-1.160456657409668,-1.5713231563568115,0.07939746975898743
1667267002695900000,2.21489990234375,-1.343170166015625,-1.4830193519592285,0.1467352956533432
1667267002700695600,2.219695556640625,-1.4861154556274414,-1.3395092487335205,0.22246965765953064
1667267002705491000,2.224490966796875,-1.5332984924316406,-1.2215131521224976,0.2749013304710388
1667267002710286300,2.229286376953125,-1.6904172897338867,-1.1608343124389648,0.22265546023845673
1667267002715082000,2.23408203125,-1.9011545181274414,-1.0803735256195068,0.09198597073554993
1667267002719877400,2.23887744140625,-1.9683475494384766,-0.9764152765274048,-0.005981713533401489
1667267002724673000,2.243673095703125,-1.9042549133300781,-0.8671676516532898,-0.1076042652130127
1667267002729468400,2.248468505859375,-1.7891902923583984,-0.7194956541061401,-0.1717906892299652
1667267002734264000,2.25326416015625,-1.4237356185913086,-0.5759814977645874,-0.12950989603996277
1667267002739059500,2.2580595703125,-0.9995079040527344,-0.45290225744247437,-0.060681045055389404
1667267002743854800,2.262854736328125,-0.6825857162475586,-0.3798748850822449,-0.01255035400390625
1667267002748650500,2.267650390625,-0.348419189453125,-0.406597375869751,0.07716822624206543
1667267002753446000,2.27244580078125,0.15719127655029297,-0.46001219749450684,0.19112497568130493
1667267002758241300,2.2772412109375,0.5663881301879883,-0.5670503973960876,0.2872712314128876
1667267002763037000,2.282036865234375,0.6751680374145508,-0.6767567992210388,0.33531177043914795
1667267002767832300,2.286832275390625,0.5749120712280273,-0.7628783583641052,0.5017821788787842
1667267002772628000,2.2916279296875,0.3758964538574219,-0.812066376209259,0.6677349805831909
1667267002777423400,2.29642333984375,0.07346343994140625,-0.7726248502731323,0.8744258284568787
1667267002782219000,2.301218994140625,-0.19365406036376953,-0.7936785221099854,1.043061375617981
1667267002787014400,2.306014404296875,-0.43027496337890625,-0.8222097754478455,0.7041515111923218
1667267002791810000,2.31081005859375,-0.6698465347290039,-0.7482013702392578,0.20251917839050293
1667267002796605400,2.31560546875,-0.8334560394287109,-0.6756707429885864,-0.34944862127304077
1667267002801400800,2.32040087890625,-1.0239734649658203,-0.5578809380531311,-0.9657796025276184
1667267002806196500,2.325196533203125,-1.2580928802490234,-0.5012239217758179,-1.515411615371704
1667267002810991900,2.329991943359375,-1.4522066116333008,-0.5055187940597534,-1.846653938293457
1667267002815787300,2.334787353515625,-1.625624656677246,-0.5539621114730835,-1.869128942489624
1667267002820583000,2.3395830078125,-1.7401723861694336,-0.6396930813789368,-1.5252941846847534
1667267002825378300,2.34437841796875,-1.257009506225586,-0.4373999238014221,0.06726408004760742
1667267002830174000,2.349174072265625,-0.6369857788085938,-0.3495441675186157,1.0292245149612427
1667267002834969300,2.35396923828125,-0.27663516998291016,-0.4265204071998596,1.1718147993087769
1667267002839765000,2.358764892578125,0.03628063201904297,-0.3206261396408081,1.0644148588180542
1667267002844560400,2.363560302734375,0.23990726470947266,-0.25948894023895264,0.9288415312767029
1667267002849355800,2.368355712890625,0.29035377502441406,-0.31863802671432495,0.7395039796829224
1667267002854151400,2.3731513671875,0.30150890350341797,-0.39780867099761963,0.4637458324432373
1667267002858946800,2.37794677734375,0.3559608459472656,-0.4042056202888489,0.19907355308532715
1667267002863742500,2.382742431640625,0.39278602600097656,-0.3715698719024658,-0.02745378017425537
1667267002868537900,2.387537841796875,0.41208553314208984,-0.345373272895813,-0.20562613010406494
1667267002873333200,2.392333251953125,0.4007902145385742,-0.28841686248779297,-0.32645225524902344
1667267002878129000,2.39712890625,0.30152320861816406,-0.22176527976989746,-0.3826634883880615
1667267002882924300,2.40192431640625,0.1656627655029297,-0.14943921566009521,-0.39682114124298096
1667267002887720000,2.406719970703125,-0.03332042694091797,-0.07313311100006104,-0.3526853322982788
1667267002892515300,2.411515380859375,-0.30063724517822266,-0.03141653537750244,-0.25747084617614746
1667267002897311000,2.41631103515625,-0.629669189453125,-0.07746779918670654,-0.15947294235229492
1667267002902106400,2.4211064453125,-1.0533218383789062,-0.17494797706604004,-0.09264373779296875
1667267002906901800,2.42590185546875,-1.513509750366211,-0.2505977153778076,-0.09238481521606445
1667267002911697400,2.430697509765625,-1.9341983795166016,-0.29221010208129883,-0.1430065631866455
1667267002916492800,2.435492919921875,-2.2261295318603516,-0.3115670680999756,-0.2577838897705078
1667267002921288400,2.440288330078125,-2.417039394378662,-0.2944037914276123,-0.44440245628356934
1667267002926083800,2.445083740234375,-2.51291561126709,-0.2720705270767212,-0.6324167251586914
1667267002930879500,2.44987939453125,-2.573423385620117,-0.31413471698760986,-0.7813413143157959
1667267002935675000,2.4546748046875,-2.583968162536621,-0.4125361442565918,-0.9248034954071045
1667267002940470300,2.45947021484375,-2.578937530517578,-0.5198112726211548,-1.0091750621795654
1667267002945266000,2.464265869140625,-2.59151029586792,-0.6504616737365723,-1.0467283725738525
1667267002950061300,2.469061279296875,-2.591463088989258,-0.7555577754974365,-1.023284673690796
1667267002954857000,2.47385693359375,-2.608369827270508,-0.8305172920227051,-0.9689793586730957
1667267002959652400,2.47865234375,-2.6490979194641113,-0.8718321323394775,-0.8243536949157715
1667267002964447700,2.48344775390625,-2.7158708572387695,-0.8743739128112793,-0.654515266418457
1667267002969243400,2.488243408203125,-2.802485942840576,-0.8619644641876221,-0.47896695137023926
1667267002974038800,2.493038818359375,-2.8957409858703613,-0.8747600317001343,-0.3258129358291626
1667267002978834400,2.49783447265625,-3.0063719749450684,-0.8476806879043579,-0.2099313735961914
1667267002983629800,2.5026298828125,-3.1452231407165527,-0.8362895250320435,-0.11426472663879395
1667267002988425500,2.507425537109375,-3.2742085456848145,-0.8052891492843628,-0.0077866315841674805
1667267002993220900,2.512220947265625,-3.394775867462158,-0.7433943748474121,0.0697857141494751
1667267002998016300,2.517016357421875,-3.5214805603027344,-0.6776702404022217,0.12068533897399902
1667267003002812000,2.52181201171875,-3.630621910095215,-0.6448620557785034,0.10745036602020264
1667267003007607300,2.526607177734375,-3.690126419067383,-0.5884103775024414,0.048043012619018555
1667267003012403000,2.53140283203125,-3.719266891479492,-0.5239238739013672,-0.027785778045654297
1667267003017198300,2.5361982421875,-3.7373228073120117,-0.4871530532836914,-0.1274404525756836
1667267003021993700,2.54099365234375,-3.724066734313965,-0.458881139755249,-0.2235703468322754
1667267003026789400,2.545789306640625,-3.6484909057617188,-0.441525936126709,-0.29820775985717773
1667267003031584800,2.550584716796875,-3.5381393432617188,-0.45797061920166016,-0.3645061254501343
1667267003036380400,2.55538037109375,-3.409740447998047,-0.477280855178833,-0.38298213481903076
1667267003041175800,2.56017578125,-3.2512741088867188,-0.5008695125579834,-0.37258851528167725
1667267003045971500,2.564971435546875,-3.0877628326416016,-0.5421559810638428,-0.31159472465515137
1667267003050766800,2.569766845703125,-2.939385414123535,-0.603734016418457,-0.2342691421508789
1667267003055562500,2.5745625,-2.7689261436462402,-0.6249594688415527,-0.15816259384155273
1667267003060358000,2.57935791015625,-2.5380210876464844,-0.6289262771606445,-0.07539796829223633
1667267003065153300,2.5841533203125,-2.2920150756835938,-0.5909180641174316,-0.009211063385009766
1667267003069949000,2.588948974609375,-2.0881471633911133,-0.5599069595336914,0.06720268726348877
1667267003074744300,2.593744384765625,-1.9477901458740234,-0.6001784801483154,0.23534655570983887
1667267003079540000,2.5985400390625,-1.9066896438598633,-0.5776302814483643,0.4025952219963074
1667267003084335400,2.60333544921875,-1.9240665435791016,-0.6021637916564941,0.4883987307548523
1667267003089130800,2.608130859375,-1.934117317199707,-0.6210956573486328,0.4658464789390564
1667267003093926400,2.612926513671875,-1.9560141563415527,-0.6392459869384766,0.40675145387649536
1667267003098721800,2.6177216796875,-1.9791207313537598,-0.6756038665771484,0.38334351778030396
1667267003103517400,2.622517333984375,-2.0178518295288086,-0.6560351848602295,0.45588624477386475
1667267003108312800,2.627312744140625,-2.0496206283569336,-0.6295714378356934,0.5129960775375366
1667267003113108500,2.6321083984375,-2.018362045288086,-0.6047837734222412,0.5436894297599792
1667267003117904000,2.63690380859375,-1.9517831802368164,-0.5495340824127197,0.5977820158004761
1667267003122699300,2.64169921875,-1.863135814666748,-0.4833366870880127,0.6270742416381836
1667267003127495000,2.646494873046875,-1.7728233337402344,-0.4160175323486328,0.6493423581123352
1667267003132290300,2.651290283203125,-1.6616826057434082,-0.31096982955932617,0.6493844985961914
1667267003137086000,2.6560859375,-1.495124340057373,-0.20066142082214355,0.6324779987335205
1667267003141881300,2.66088134765625,-1.323394775390625,-0.12470746040344238,0.686753511428833
1667267003146676700,2.6656767578125,-1.2038249969482422,-0.09153556823730469,0.7914677858352661
1667267003151472400,2.670472412109375,-1.1147642135620117,-0.0880441665649414,0.9260221719741821
1667267003156267800,2.675267822265625,-0.9844722747802734,-0.12723922729492188,1.0125060081481934
1667267003161063400,2.6800634765625,-0.8607292175292969,-0.17931866645812988,1.0820748805999756
1667267003165858800,2.68485888671875,-0.7554264068603516,-0.26332831382751465,1.124098300933838
1667267003170654500,2.689654541015625,-0.6338129043579102,-0.3876640796661377,1.140782356262207
1667267003175449900,2.694449951171875,-0.48742198944091797,-0.510573148727417,1.1265885829925537
1667267003180245200,2.699245361328125,-0.3496208190917969,-0.6369820833206177,1.0473624467849731
1667267003185041000,2.704041015625,-0.19753646850585938,-0.7586941719055176,0.9015526175498962
1667267003189836300,2.708836181640625,-0.023843765258789062,-0.8365466594696045,0.7143184542655945
1667267003194632000,2.7136318359375,0.14524555206298828,-0.9029971361160278,0.5381826758384705
1667267003199427300,2.71842724609375,0.2680225372314453,-0.9666004180908203,0.3586612343788147
1667267003204223000,2.723222900390625,0.39601802825927734,-0.9904336929321289,0.19012770056724548
1667267003209018400,2.728018310546875,0.4659252166748047,-1.0320383310317993,0.044337183237075806
1667267003213813800,2.732813720703125,0.5041208267211914,-1.0818638801574707,-0.09238521754741669
1667267003218609400,2.737609375,0.5178127288818359,-1.1089000701904297,-0.20014803111553192
1667267003223404800,2.74240478515625,0.5189046859741211,-1.117802619934082,-0.26740744709968567
1667267003228200400,2.747200439453125,0.5109081268310547,-1.0845298767089844,-0.2990298271179199
1667267003232995800,2.751995849609375,0.5021076202392578,-1.0281181335449219,-0.27595657110214233
1667267003237791200,2.756791259765625,0.4398336410522461,-0.9305567741394043,-0.1596515029668808
1667267003242587000,2.7615869140625,0.37550830841064453,-0.8253514766693115,-0.07446806132793427
1667267003247382300,2.76638232421875,0.37720298767089844,-0.6659075021743774,-0.1530323028564453
1667267003252178000,2.771177978515625,0.33843231201171875,-0.5072704553604126,-0.2568279802799225
1667267003256973300,2.775973388671875,0.2723960876464844,-0.37090587615966797,-0.2934218943119049
1667267003261769000,2.78076904296875,0.15883731842041016,-0.2484111785888672,-0.26414546370506287
1667267003266564400,2.785564453125,0.01573467254638672,-0.13962578773498535,-0.1872902363538742
1667267003271359700,2.79035986328125,-0.15093612670898438,-0.0024802684783935547,-0.07405836880207062
1667267003276155400,2.7951552734375,-0.2742347717285156,0.13434052467346191,0.004840090870857239
1667267003280950800,2.79995068359375,-0.347076416015625,0.3114438056945801,0.031586624681949615
1667267003285746400,2.804746337890625,-0.33615779876708984,0.4883604049682617,0.04985825717449188
1667267003290541800,2.809541748046875,-0.3037729263305664,0.6615111827850342,0.021441057324409485
1667267003295337200,2.814337158203125,-0.23442459106445312,0.7962467670440674,0.0016228705644607544
1667267003300132900,2.8191328125,-0.17003631591796875,0.8963940143585205,0.006387427449226379
1667267003304928300,2.82392822265625,-0.1332721710205078,0.9630861282348633,0.004900634288787842
1667267003309724000,2.828723876953125,-0.08225154876708984,0.973670482635498,-0.004952087998390198
1667267003314519300,2.833519287109375,0.0045223236083984375,0.9676241874694824,0.010319605469703674
1667267003319315000,2.83831494140625,0.055316925048828125,0.9389092922210693,0.003041699528694153
1667267003324110300,2.8431103515625,0.08695697784423828,0.8599250316619873,0.0018421858549118042
1667267003328906000,2.847906005859375,0.08757209777832031,0.7867240905761719,-0.08655822277069092
1667267003333701400,2.852701416015625,0.07518959045410156,0.6832654476165771,-0.17559824883937836
1667267003338496800,2.857496826171875,0.043877601623535156,0.5770149230957031,-0.27840161323547363
1667267003343292400,2.86229248046875,-0.01947784423828125,0.48711228370666504,-0.30287498235702515
1667267003348087800,2.867087890625,-0.07423782348632812,0.4292569160461426,-0.2755049467086792
1667267003352883200,2.87188330078125,-0.09657669067382812,0.4048609733581543,-0.18436115980148315
1667267003357678800,2.876678955078125,-0.061530113220214844,0.41779303550720215,-0.06535494327545166
1667267003362474200,2.88147412109375,-0.049317359924316406,0.4551076889038086,0.05387932062149048
1667267003367270000,2.886269775390625,-0.04919242858886719,0.45954203605651855,0.11435268819332123
1667267003372065300,2.891065185546875,-0.0480499267578125,0.474318265914917,0.08307558298110962
1667267003376861000,2.89586083984375,-0.041129112243652344,0.46704888343811035,-0.015706241130828857
1667267003381656300,2.90065625,-0.08343505859375,0.4006049633026123,-0.09458264708518982
1667267003386452000,2.905451904296875,-0.18328571319580078,0.260617733001709,-0.18609192967414856
1667267003391247400,2.910247314453125,-0.27005767822265625,0.1401195526123047,-0.32579466700553894
1667267003396042800,2.915042724609375,-0.2803812026977539,0.029202699661254883,-0.48407867550849915
1667267003400838400,2.91983837890625,-0.23583221435546875,-0.05320930480957031,-0.6198091506958008
1667267003405633800,2.9246337890625,-0.1507720947265625,-0.1275942325592041,-0.6796940565109253
1667267003410429400,2.929429443359375,-0.04433155059814453,-0.17247962951660156,-0.6711705327033997
1667267003415224800,2.934224853515625,0.07989788055419922,-0.22001636028289795,-0.5704361200332642
1667267003420020200,2.939020263671875,0.2135324478149414,-0.24134528636932373,-0.45887553691864014
1667267003424815900,2.94381591796875,0.3553342819213867,-0.22298860549926758,-0.33021286129951477
1667267003429611300,2.948611328125,0.45987796783447266,-0.16848230361938477,-0.19676029682159424
1667267003434407000,2.953406982421875,0.5462799072265625,-0.09901213645935059,-0.06726020574569702
1667267003439202300,2.958202392578125,0.6336889266967773,-0.03729212284088135,0.0037751197814941406
1667267003443998000,2.962998046875,0.6957807540893555,0.02639305591583252,0.03703252971172333
1667267003448793300,2.96779345703125,0.7218093872070312,0.05031311511993408,0.034914836287498474
1667267003453588700,2.972588623046875,0.7381248474121094,0.07991719245910645,0.0509856641292572
1667267003458384400,2.97738427734375,0.7220401763916016,0.07331466674804688,0.035887569189071655
1667267003463179800,2.9821796875,0.7118806838989258,0.06741392612457275,0.005966588854789734
1667267003467975400,2.986975341796875,0.6813726425170898,0.03218269348144531,-0.015268385410308838
1667267003472770800,2.991770751953125,0.6652584075927734,-0.005155205726623535,-0.028273478150367737
1667267003477566500,2.99656640625,0.6671476364135742,-0.0496593713760376,-0.05622692406177521
1667267003482361900,3.00136181640625,0.7456293106079102,-0.025128960609436035,-0.08701466023921967
1667267003487157200,3.0061572265625,0.8456621170043945,0.005867123603820801,-0.0643191784620285
1667267003491953000,3.010952880859375,0.9469203948974609,0.026522517204284668,-0.05212344229221344
1667267003496748300,3.015748291015625,0.9992475509643555,0.04983103275299072,0.039537593722343445
1667267003501544000,3.0205439453125,0.9884004592895508,0.052997469902038574,0.0970955342054367
1667267003506339300,3.02533935546875,0.9599313735961914,0.047780752182006836,0.07725830376148224
1667267003511134700,3.030134765625,0.9186849594116211,0.03276872634887695,0.012107089161872864
1667267003515930400,3.034930419921875,0.8945770263671875,0.03170943260192871,-0.06882436573505402
1667267003520725800,3.039725830078125,0.8314218521118164,0.03610241413116455,-0.11925691366195679
1667267003525521400,3.044521484375,0.7902317047119141,0.02562117576599121,-0.1369001865386963
1667267003530316800,3.04931689453125,0.7231531143188477,0.04098391532897949,-0.14817014336585999
1667267003535112400,3.054112548828125,0.6421499252319336,0.035709381103515625,-0.14815032482147217
1667267003539907800,3.058907958984375,0.5496177673339844,0.044577956199645996,-0.1202387809753418
1667267003544703200,3.063703125,0.467041015625,0.030699849128723145,-0.11035528779029846
1667267003549499000,3.068498779296875,0.3620748519897461,0.07207739353179932,-0.09597063064575195
1667267003554294300,3.073294189453125,0.2621889114379883,0.10428178310394287,-0.06318235397338867
1667267003559090000,3.07808984375,0.16133975982666016,0.14547765254974365,-0.041200727224349976
1667267003563885300,3.08288525390625,0.06547260284423828,0.1575021743774414,-0.033854156732559204
1667267003568681000,3.087680908203125,-0.04096031188964844,0.14515089988708496,-0.07581838965415955
1667267003573476400,3.092476318359375,-0.12206363677978516,0.17532658576965332,-0.13202723860740662
1667267003578271700,3.097271728515625,-0.1575336456298828,0.17981791496276855,-0.17911210656166077
1667267003583067400,3.1020673828125,-0.18684864044189453,0.20763981342315674,-0.20916682481765747
1667267003587862800,3.10686279296875,-0.2398853302001953,0.16807937622070312,-0.1269780993461609
1667267003592658400,3.111658447265625,-0.32261085510253906,0.13916397094726562,0.0043062567710876465
1667267003597453800,3.116453857421875,-0.40871334075927734,0.09714794158935547,0.10332348942756653
1667267003602249500,3.12124951171875,-0.49828243255615234,0.07480192184448242,0.17715245485305786
