time,seconds_elapsed,z,y,x
1667267000575096800,0.094096923828125,-0.051922015845775604,0.18630841374397278,-0.06047387793660164
1667267000577494500,0.09649462890625,-0.054365407675504684,0.1844758689403534,-0.055587101727724075
1667267000579892500,0.098892578125,-0.05375456064939499,0.18142163753509521,-0.053143709897994995
1667267000582290200,0.101290283203125,-0.053143709897994995,0.18081079423427582,-0.047646086663007736
1667267000584687900,0.10368798828125,-0.05131116881966591,0.17653486132621765,-0.042759306728839874
1667267000587085600,0.10608544921875,-0.046424392610788345,0.1716480851173401,-0.0390942245721817
1667267000589483300,0.108483154296875,-0.043981000781059265,0.16798299551010132,-0.036039989441633224
1667267000591881000,0.110880859375,-0.0390942245721817,0.16309621930122375,-0.03420744836330414
1667267000594279000,0.11327880859375,-0.03420744836330414,0.1557660549879074,-0.03298575058579445
1667267000596676600,0.115676513671875,-0.02748812735080719,0.15332266688346863,-0.031153209507465363
1667267000599074300,0.11807421875,-0.02076880633831024,0.14782503247261047,-0.029320668429136276
1667267000601472000,0.120471923828125,-0.014049487188458443,0.14110571146011353,-0.028098974376916885
1667267000603870000,0.122869873046875,-0.006719320081174374,0.1325538605451584,-0.02748812735080719
1667267000606267600,0.125267578125,0.0012216945178806782,0.12583453953266144,-0.023823043331503868
1667267000608665300,0.127665283203125,0.005497625097632408,0.11606097966432571,-0.01954711228609085
1667267000611063000,0.13006298828125,0.00916270911693573,0.10811996459960938,-0.01710372418165207
1667267000613460700,0.132460693359375,0.012216945178806782,0.09590301662683487,-0.01038440316915512
1667267000615858400,0.1348583984375,0.014660334214568138,0.07635590434074402,-0.006108472589403391
1667267000618256400,0.13725634765625,0.01710372418165207,0.06169557198882103,-0.0024433890357613564
1667267000620654000,0.139654052734375,0.020157959312200546,0.04947862774133682,0
1667267000623051800,0.1420517578125,0.021990500390529633,0.037261683493852615,0.005497625097632408
1667267000625449500,0.144449462890625,0.023823043331503868,0.02870982140302658,0.008551862090826035
1667267000627847200,0.14684716796875,0.022601349279284477,0.020157959312200546,0.011606098152697086
1667267000630244900,0.149244873046875,0.02504473738372326,0.00916270911693573,0.012827792204916477
1667267000632642800,0.151642822265625,0.028098974376916885,-0.0024433890357613564,0.013438640162348747
1667267000635040500,0.15404052734375,0.02748812735080719,-0.01710372418165207,0.01588202826678753
1667267000637438200,0.156438232421875,0.02870982140302658,-0.02993151545524597,0.017714571207761765
1667267000639836000,0.1588359375,0.029320668429136276,-0.043981000781059265,0.021990500390529633
1667267000642233600,0.161233642578125,0.030542362481355667,-0.055587101727724075,0.02504473738372326
1667267000644631600,0.163631591796875,0.03298575058579445,-0.06047387793660164,0.029320668429136276
1667267000647029200,0.166029296875,0.03420744836330414,-0.06291726976633072,0.030542362481355667
1667267000649427000,0.168427001953125,0.03176405653357506,-0.06352811306715012,0.03542914241552353
1667267000651824600,0.17082470703125,0.028098974376916885,-0.06169557198882103,0.03542914241552353
1667267000654222300,0.173222412109375,0.02748812735080719,-0.05375456064939499,0.03787253051996231
1667267000656620000,0.1756201171875,0.021990500390529633,-0.04214845970273018,0.0390942245721817
1667267000659018000,0.17801806640625,0.017714571207761765,-0.029320668429136276,0.03787253051996231
1667267000661415700,0.180415771484375,0.013438640162348747,-0.012827792204916477,0.0390942245721817
1667267000663813400,0.1828134765625,0.005497625097632408,0.005497625097632408,0.038483377546072006
1667267000666211000,0.185211181640625,-0.004275931045413017,0.018936265259981155,0.03787253051996231
1667267000668608800,0.18760888671875,-0.010995250195264816,0.031153209507465363,0.03542914241552353
1667267000671006700,0.1900068359375,-0.01832541823387146,0.04153761267662048,0.034818295389413834
1667267000673404400,0.192404296875,-0.026877280324697495,0.051922015845775604,0.03237490355968475
1667267000675802000,0.194802001953125,-0.033596597611904144,0.05986303091049194,0.029320668429136276
1667267000678199800,0.19719970703125,-0.04214845970273018,0.06719319522380829,0.02626643143594265
1667267000680597500,0.199597412109375,-0.047646086663007736,0.07269082218408585,0.023823043331503868
1667267000682995200,0.2019951171875,-0.054365407675504684,0.08124268800020218,0.023823043331503868
1667267000685393200,0.20439306640625,-0.05986303091049194,0.08674030750989914,0.01954711228609085
1667267000687790800,0.206790771484375,-0.06169557198882103,0.09040539711713791,0.017714571207761765
1667267000690188500,0.2091884765625,-0.06658235192298889,0.09284878522157669,0.01588202826678753
1667267000692586200,0.211586181640625,-0.06841489672660828,0.09407047927379608,0.012216945178806782
1667267000694984000,0.21398388671875,-0.06902574002742767,0.09956810623407364,0.013438640162348747
1667267000697381600,0.216381591796875,-0.07024743407964706,0.10873081535100937,0.014049487188458443
1667267000699779600,0.218779541015625,-0.07207997888326645,0.1178935244679451,0.01588202826678753
1667267000702177300,0.22117724609375,-0.07391251623630524,0.12461283802986145,0.020157959312200546
1667267000704575000,0.223574951171875,-0.07513421028852463,0.13682979345321655,0.022601349279284477
1667267000706972700,0.22597265625,-0.07330167293548584,0.15026842057704926,0.02748812735080719
1667267000709370400,0.228370361328125,-0.07635590434074402,0.16309621930122375,0.03176405653357506
1667267000711768300,0.230768310546875,-0.08063183724880219,0.17470231652259827,0.034818295389413834
1667267000714166000,0.233166015625,-0.08429691940546036,0.18997350335121155,0.04092676565051079
1667267000716563700,0.235563720703125,-0.08674030750989914,0.20157960057258606,0.04337015375494957
1667267000718961400,0.23796142578125,-0.0910162404179573,0.21623992919921875,0.04947862774133682
1667267000721359000,0.240359130859375,-0.0922379344701767,0.2235700935125351,0.053143709897994995
1667267000723756800,0.2427568359375,-0.09345962852239609,0.22784602642059326,0.05741964280605316
1667267000726154800,0.24515478515625,-0.09468132257461548,0.23151111602783203,0.06047387793660164
1667267000728552400,0.247552490234375,-0.09284878522157669,0.22967857122421265,0.06352811306715012
1667267000730950100,0.2499501953125,-0.09407047927379608,0.23212195932865143,0.06413896381855011
1667267000733347800,0.252347900390625,-0.0922379344701767,0.23212195932865143,0.06291726976633072
1667267000735745500,0.25474560546875,-0.09407047927379608,0.2363978922367096,0.0647498071193695
1667267000738143500,0.2571435546875,-0.09407047927379608,0.24067382514476776,0.06658235192298889
1667267000740541200,0.259541259765625,-0.09345962852239609,0.2473931461572647,0.06841489672660828
1667267000742939000,0.26193896484375,-0.09773556143045425,0.24372805655002594,0.07085828483104706
1667267000745336600,0.264336669921875,-0.09712471067905426,0.2223484069108963,0.0787992998957634
1667267000747734300,0.266734375,-0.09773556143045425,0.20707722008228302,0.0922379344701767
1667267000750132000,0.269132080078125,-0.09651386737823486,0.2089097648859024,0.1056765764951706
1667267000752530000,0.271530029296875,-0.10017894953489304,0.22845686972141266,0.1172826737165451
1667267000754927600,0.273927734375,-0.1050657257437706,0.2608317732810974,0.12888877093791962
1667267000757325300,0.2763251953125,-0.11239589750766754,0.29626092314720154,0.13988402485847473
1667267000759723000,0.278722900390625,-0.11972606182098389,0.3310792148113251,0.14904673397541046
1667267000762120700,0.28112060546875,-0.1319430023431778,0.35856732726097107,0.1582094430923462
1667267000764518400,0.283518310546875,-0.1429382562637329,0.3781144618988037,0.16798299551010132
1667267000766916400,0.285916259765625,-0.1557660549879074,0.3939964771270752,0.17286977171897888
1667267000769314000,0.28831396484375,-0.1704263836145401,0.4037700295448303,0.17897824943065643
1667267000771711700,0.290711669921875,-0.183865025639534,0.4172086715698242,0.18691925704479218
1667267000774109400,0.293109375,-0.19974705576896667,0.42698222398757935,0.19974705576896667
1667267000776507400,0.29550732421875,-0.21623992919921875,0.4367557764053345,0.2089097648859024
1667267000778905000,0.297905029296875,-0.22601348161697388,0.4434750974178314,0.2211267054080963
1667267000781302800,0.300302734375,-0.24006296694278717,0.446529358625412,0.2345653474330902
1667267000783700500,0.302700439453125,-0.2498365342617035,0.4459185004234314,0.24617144465446472
1667267000786098200,0.30509814453125,-0.25594499707221985,0.4453076422214508,0.2596100866794586
1667267000788496000,0.307495849609375,-0.2638860046863556,0.4477510452270508,0.2724378705024719
1667267000790893600,0.3098935546875,-0.26694026589393616,0.448361873626709,0.2883199155330658
1667267000793291500,0.31229150390625,-0.26877278089523315,0.44958359003067017,0.3017585575580597
1667267000795689200,0.314689208984375,-0.26816195249557495,0.4453076422214508,0.3133646547794342
1667267000798087000,0.3170869140625,-0.2638860046863556,0.43919917941093445,0.32374903559684753
1667267000800484600,0.319484619140625,-0.2602209448814392,0.4306473135948181,0.33291175961494446
1667267000802882600,0.321882568359375,-0.25472331047058105,0.4220954477787018,0.3414636254310608
1667267000805280300,0.3242802734375,-0.2498365342617035,0.41293275356292725,0.3439069986343384
1667267000807678000,0.326677978515625,-0.24372805655002594,0.39888325333595276,0.3500154912471771
1667267000810075600,0.32907568359375,-0.2357870489358902,0.38605546951293945,0.34940463304519653
1667267000812473300,0.331473388671875,-0.23028941452503204,0.37261682748794556,0.3506263196468353
1667267000814871000,0.33387109375,-0.2235700935125351,0.35856732726097107,0.3506263196468353
1667267000817269000,0.33626904296875,-0.21501824259757996,0.3408527672290802,0.3500154912471771
1667267000819666700,0.338666748046875,-0.20585553348064423,0.32252734899520874,0.34940463304519653
1667267000822064400,0.341064453125,-0.19913621246814728,0.3042019307613373,0.34757208824157715
1667267000824462000,0.343462158203125,-0.19302773475646973,0.2901524603366852,0.34635040163993835
1667267000826859800,0.34585986328125,-0.18569757044315338,0.2742704153060913,0.3414636254310608
1667267000829257500,0.348257568359375,-0.17958909273147583,0.2638860046863556,0.3390202224254608
1667267000831655400,0.350655517578125,-0.17592400312423706,0.2522799074649811,0.33718767762184143
1667267000834053000,0.35305322265625,-0.1704263836145401,0.24556060135364532,0.3365768492221832
1667267000836450800,0.355450927734375,-0.16553960740566254,0.2376195788383484,0.33535513281822205
1667267000838848500,0.3578486328125,-0.16126367449760437,0.23028941452503204,0.33535513281822205
1667267000841246200,0.36024609375,-0.1557660549879074,0.2235700935125351,0.33596599102020264
1667267000843644200,0.36264404296875,-0.15210096538066864,0.21440738439559937,0.3365768492221832
1667267000846041900,0.365041748046875,-0.14782503247261047,0.208298921585083,0.33596599102020264
1667267000848439600,0.367439453125,-0.1441599577665329,0.19913621246814728,0.33291175961494446
1667267000850837200,0.369837158203125,-0.13988402485847473,0.18997350335121155,0.3280249834060669
1667267000853235000,0.37223486328125,-0.13621893525123596,0.1820324808359146,0.3249707520008087
1667267000855632600,0.374632568359375,-0.129499614238739,0.1698155403137207,0.32252734899520874
1667267000858030600,0.377030517578125,-0.12461283802986145,0.16065283119678497,0.314586341381073
1667267000860428300,0.37942822265625,-0.1178935244679451,0.15087927877902985,0.30786702036857605
1667267000862826000,0.381825927734375,-0.11056335270404816,0.13621893525123596,0.2987042963504791
1667267000865223700,0.3842236328125,-0.10140064358711243,0.12522368133068085,0.2883199155330658
1667267000867621400,0.386621337890625,-0.0916270911693573,0.11239589750766754,0.28098973631858826
1667267000870019300,0.389019287109375,-0.08185353130102158,0.10262233763933182,0.27060532569885254
1667267000872417000,0.3914169921875,-0.07207997888326645,0.09345962852239609,0.2602209448814392
1667267000874814700,0.393814697265625,-0.06047387793660164,0.08490777015686035,0.2492256760597229
1667267000877212400,0.39621240234375,-0.045202698558568954,0.07696675509214401,0.2345653474330902
1667267000879610000,0.398610107421875,-0.03176405653357506,0.06719319522380829,0.2223484069108963
1667267000882007800,0.4010078125,-0.01832541823387146,0.05803048983216286,0.208298921585083
1667267000884405800,0.40340576171875,-0.004886778071522713,0.051922015845775604,0.1948602795600891
1667267000886803500,0.405803466796875,0.008551862090826035,0.04581354558467865,0.18142163753509521
1667267000889201200,0.408201171875,0.020157959312200546,0.037261683493852615,0.16737215220928192
1667267000891598800,0.410598876953125,0.03176405653357506,0.02748812735080719,0.15271180868148804
1667267000893996500,0.41299658203125,0.04337015375494957,0.01954711228609085,0.13927318155765533
1667267000896394200,0.415394287109375,0.05375456064939499,0.01038440316915512,0.12705622613430023
1667267000898792200,0.417792236328125,0.06413896381855011,0.0030542362947016954,0.11545012891292572
1667267000901190000,0.42018994140625,0.07330167293548584,0,0.1044548824429512
1667267000903587600,0.422587646484375,0.0781884491443634,-0.0030542362947016954,0.09345962852239609
1667267000905985300,0.4249853515625,0.08490777015686035,-0.006108472589403391,0.08246438205242157
1667267000908383000,0.427383056640625,0.0910162404179573,-0.007330167107284069,0.07207997888326645
1667267000910781000,0.429781005859375,0.09407047927379608,-0.004886778071522713,0.06169557198882103
1667267000913178600,0.4321787109375,0.09651386737823486,-0.0018325417768210173,0.051922015845775604
1667267000915576300,0.434576416015625,0.09834641218185425,-0.0012216945178806782,0.043981000781059265
1667267000917974000,0.43697412109375,0.09956810623407364,0.0018325417768210173,0.03420744836330414
1667267000920371700,0.439371826171875,0.09712471067905426,0.006719320081174374,0.02626643143594265
1667267000922769400,0.441769287109375,0.09590301662683487,0.013438640162348747,0.01832541823387146
1667267000925167400,0.44416748046875,0.09284878522157669,0.017714571207761765,0.012827792204916477
1667267000927565000,0.44656494140625,0.09040539711713791,0.02504473738372326,0.006719320081174374
1667267000929962800,0.448962646484375,0.08674030750989914,0.030542362481355667,0.0006108472589403391
1667267000932360400,0.4513603515625,0.08307522535324097,0.03542914241552353,-0.007330167107284069
1667267000934758100,0.453758056640625,0.07757759839296341,0.04153761267662048,-0.015271181240677834
1667267000937156000,0.456156005859375,0.07330167293548584,0.04825693368911743,-0.020157959312200546
1667267000939553800,0.4585537109375,0.06841489672660828,0.05375456064939499,-0.025655584409832954
1667267000941951500,0.460951416015625,0.06352811306715012,0.061084724962711334,-0.033596597611904144
1667267000944349200,0.46334912109375,0.06047387793660164,0.06902574002742767,-0.04214845970273018
1667267000946747000,0.465746826171875,0.053143709897994995,0.07696675509214401,-0.053143709897994995
1667267000949144600,0.46814453125,0.046424392610788345,0.08551861345767975,-0.06291726976633072
1667267000951542500,0.47054248046875,0.04092676565051079,0.09773556143045425,-0.07391251623630524
1667267000953940200,0.472940185546875,0.031153209507465363,0.11056335270404816,-0.08551861345767975
1667267000956338000,0.475337890625,0.024433890357613564,0.12278030067682266,-0.09590301662683487
1667267000958735600,0.477735595703125,0.01832541823387146,0.1301104724407196,-0.10689827054738998
1667267000961133300,0.48013330078125,0.012216945178806782,0.12522368133068085,-0.1172826737165451
1667267000963531000,0.482531005859375,0.007941014133393764,0.11422843486070633,-0.12278030067682266
1667267000965929000,0.484928955078125,0.0024433890357613564,0.1172826737165451,-0.12644538283348083
1667267000968326700,0.48732666015625,-0.0012216945178806782,0.1325538605451584,-0.1301104724407196
1667267000970724400,0.489724365234375,-0.008551862090826035,0.15332266688346863,-0.130721315741539
1667267000973122000,0.4921220703125,-0.014660334214568138,0.18142163753509521,-0.1313321590423584
1667267000975520000,0.49452001953125,-0.021990500390529633,0.208298921585083,-0.130721315741539
1667267000977917700,0.496917724609375,-0.026877280324697495,0.22662433981895447,-0.1319430023431778
1667267000980315400,0.4993154296875,-0.03176405653357506,0.2376195788383484,-0.13621893525123596
1667267000982713000,0.501713134765625,-0.037261683493852615,0.23884128034114838,-0.13988402485847473
1667267000985110800,0.50411083984375,-0.04214845970273018,0.23212195932865143,-0.1447708010673523
1667267000987508500,0.506508544921875,-0.04337015375494957,0.2211267054080963,-0.14843589067459106
1667267000989906200,0.50890625,-0.045202698558568954,0.2113531529903412,-0.15515519678592682
1667267000992304000,0.51130419921875,-0.04459185153245926,0.20219044387340546,-0.1575985997915268
1667267000994701800,0.513701904296875,-0.042759306728839874,0.19424942135810852,-0.1588202863931656
1667267000997099500,0.516099609375,-0.0397050715982914,0.18997350335121155,-0.15943112969398499
1667267000999497200,0.518497314453125,-0.034818295389413834,0.18875180184841156,-0.16004198789596558
1667267001001895000,0.52089501953125,-0.026877280324697495,0.18081079423427582,-0.15943112969398499
1667267001004292900,0.52329296875,-0.023212196305394173,0.17225892841815948,-0.1575985997915268
1667267001006690600,0.525690673828125,-0.01710372418165207,0.16187451779842377,-0.15515519678592682
1667267001009088300,0.528088134765625,-0.012216945178806782,0.14660334587097168,-0.15210096538066864
1667267001011486000,0.53048583984375,-0.011606098152697086,0.13438639044761658,-0.14782503247261047
1667267001013883600,0.532883544921875,-0.007941014133393764,0.12339114397764206,-0.1441599577665329
1667267001016281600,0.535281494140625,-0.006108472589403391,0.11178504675626755,-0.1429382562637329
1667267001018679300,0.53767919921875,-0.006108472589403391,0.10262233763933182,-0.13805148005485535
1667267001021077000,0.540076904296875,-0.0024433890357613564,0.09345962852239609,-0.13499724864959717
1667267001023474700,0.542474609375,-0.0012216945178806782,0.08674030750989914,-0.1325538605451584
1667267001025872400,0.544872314453125,-0.0018325417768210173,0.0794101431965828,-0.130721315741539
1667267001028270000,0.54727001953125,0.0006108472589403391,0.07391251623630524,-0.1301104724407196
1667267001030668000,0.54966796875,0.0036650835536420345,0.0659715011715889,-0.12888877093791962
1667267001033065700,0.552065673828125,0.0030542362947016954,0.05803048983216286,-0.12705622613430023
1667267001035463400,0.55446337890625,0.006719320081174374,0.053143709897994995,-0.12583453953266144
1667267001037861000,0.556861083984375,0.004886778071522713,0.04581354558467865,-0.12583453953266144
1667267001040258800,0.5592587890625,0.0030542362947016954,0.04153761267662048,-0.130721315741539
1667267001042656800,0.56165673828125,0,0.037261683493852615,-0.1325538605451584
1667267001045054500,0.564054443359375,0,0.03542914241552353,-0.13499724864959717
1667267001047452200,0.5664521484375,-0.0018325417768210173,0.031153209507465363,-0.13988402485847473
1667267001049849900,0.568849853515625,-0.0024433890357613564,0.02993151545524597,-0.1441599577665329
1667267001052247600,0.57124755859375,-0.0030542362947016954,0.033596597611904144,-0.15149012207984924
1667267001054645200,0.573645263671875,-0.004275931045413017,0.03787253051996231,-0.1575985997915268
1667267001057043200,0.576043212890625,-0.005497625097632408,0.0397050715982914,-0.1692046970129013
1667267001059441000,0.57844091796875,-0.004886778071522713,0.04581354558467865,-0.18142163753509521
1667267001061838600,0.580838623046875,-0.007330167107284069,0.04947862774133682,-0.19424942135810852
1667267001064236300,0.583236328125,-0.009773556143045425,0.051922015845775604,-0.20646637678146362
1667267001066634000,0.585634033203125,-0.011606098152697086,0.055587101727724075,-0.22051586210727692
1667267001069032000,0.588031982421875,-0.015271181240677834,0.05497625470161438,-0.237008735537529
1667267001071429600,0.5904296875,-0.01710372418165207,0.054365407675504684,-0.2522799074649811
1667267001073827300,0.592827392578125,-0.01832541823387146,0.05131116881966591,-0.26816195249557495
1667267001076225000,0.59522509765625,-0.02076880633831024,0.05008947476744652,-0.2852656841278076
1667267001078622700,0.597622802734375,-0.021379653364419937,0.04703523963689804,-0.2987042963504791
1667267001081020400,0.6000205078125,-0.02076880633831024,0.045202698558568954,-0.3151971995830536
1667267001083418400,0.60241845703125,-0.018936265259981155,0.045202698558568954,-0.3298575282096863
1667267001085816000,0.604816162109375,-0.02076880633831024,0.04703523963689804,-0.3439069986343384
1667267001088213800,0.6072138671875,-0.01954711228609085,0.04825693368911743,-0.36162158846855164
1667267001090611500,0.609611572265625,-0.018936265259981155,0.046424392610788345,-0.37322768568992615
1667267001093009200,0.612009033203125,-0.02076880633831024,0.04459185153245926,-0.38666632771492004
1667267001095406800,0.61440673828125,-0.022601349279284477,0.04214845970273018,-0.3970507085323334
1667267001097804800,0.6168046875,-0.024433890357613564,0.04092676565051079,-0.4092676639556885
1667267001100202500,0.619202392578125,-0.02748812735080719,0.03787253051996231,-0.416597843170166
1667267001102600200,0.62160009765625,-0.02993151545524597,0.03298575058579445,-0.42453885078430176
1667267001104998000,0.623997802734375,-0.03420744836330414,0.02870982140302658,-0.4318690001964569
1667267001107395800,0.626395751953125,-0.0397050715982914,0.021379653364419937,-0.43797749280929565
1667267001109793500,0.62879345703125,-0.04214845970273018,0.01832541823387146,-0.4434750974178314
1667267001112191200,0.631191162109375,-0.047646086663007736,0.009773556143045425,-0.4489727318286896
1667267001114589000,0.6335888671875,-0.05008947476744652,0.0006108472589403391,-0.45141613483428955
1667267001116986600,0.635986572265625,-0.051922015845775604,-0.0036650835536420345,-0.45141613483428955
1667267001119384300,0.63838427734375,-0.05741964280605316,-0.010995250195264816,-0.45324867963790894
1667267001121782300,0.6407822265625,-0.05864133685827255,-0.01588202826678753,-0.45508119463920593
1667267001124180000,0.643179931640625,-0.06291726976633072,-0.023212196305394173,-0.45447036623954773
1667267001126577700,0.64557763671875,-0.06780404597520828,-0.02626643143594265,-0.45202696323394775
1667267001128975400,0.647975341796875,-0.06780404597520828,-0.029320668429136276,-0.4489727318286896
1667267001131373000,0.650373046875,-0.06902574002742767,-0.02993151545524597,-0.446529358625412
1667267001133770800,0.652770751953125,-0.06902574002742767,-0.033596597611904144,-0.4434750974178314
1667267001136168700,0.655168701171875,-0.06902574002742767,-0.03542914241552353,-0.43919917941093445
1667267001138566400,0.65756640625,-0.06841489672660828,-0.037261683493852615,-0.4355340898036957
1667267001140964000,0.659964111328125,-0.06719319522380829,-0.04031591862440109,-0.4324798583984375
1667267001143361800,0.66236181640625,-0.0647498071193695,-0.047646086663007736,-0.4282039403915405
1667267001145759500,0.664759521484375,-0.06291726976633072,-0.05497625470161438,-0.4227063059806824
1667267001148157400,0.667157470703125,-0.06169557198882103,-0.0653606578707695,-0.4178195297718048
1667267001150555100,0.66955517578125,-0.06047387793660164,-0.0781884491443634,-0.41110020875930786
1667267001152952800,0.671952880859375,-0.05986303091049194,-0.0916270911693573,-0.4068242609500885
1667267001155350500,0.6743505859375,-0.05925218388438225,-0.10873081535100937,-0.40010493993759155
1667267001157748200,0.676748291015625,-0.05925218388438225,-0.12339114397764206,-0.3946073353290558
1667267001160146000,0.67914599609375,-0.05864133685827255,-0.13438639044761658,-0.38605546951293945
1667267001162543900,0.6815439453125,-0.05986303091049194,-0.1429382562637329,-0.3799470067024231
1667267001164941600,0.683941650390625,-0.05986303091049194,-0.15026842057704926,-0.37200596928596497
1667267001167339300,0.68633935546875,-0.05925218388438225,-0.14843589067459106,-0.3640649616718292
1667267001169737000,0.688737060546875,-0.06047387793660164,-0.1435490995645523,-0.3542914092540741
1667267001172134700,0.691134765625,-0.06352811306715012,-0.13866232335567474,-0.34757208824157715
1667267001174532600,0.69353271484375,-0.0653606578707695,-0.1313321590423584,-0.3426853120326996
1667267001176930300,0.695930419921875,-0.07024743407964706,-0.12278030067682266,-0.3396310806274414
1667267001179328000,0.698327880859375,-0.07452336698770523,-0.11483928561210632,-0.33474430441856384
1667267001181725700,0.7007255859375,-0.08002099394798279,-0.10384403169155121,-0.33291175961494446
1667267001184123400,0.703123291015625,-0.08796200156211853,-0.09468132257461548,-0.33230090141296387
1667267001186521300,0.705521240234375,-0.09529217332601547,-0.08979454636573792,-0.3280249834060669
1667267001188919000,0.7079189453125,-0.10201149433851242,-0.08612946420907974,-0.3292466700077057
1667267001191316700,0.710316650390625,-0.11117420345544815,-0.08674030750989914,-0.33169007301330566
1667267001193714400,0.71271435546875,-0.1178935244679451,-0.08612946420907974,-0.3310792148113251
1667267001196112100,0.715112060546875,-0.12461283802986145,-0.08674030750989914,-0.33230090141296387
1667267001198509800,0.717509765625,-0.129499614238739,-0.08612946420907974,-0.33474430441856384
1667267001200907800,0.71990771484375,-0.129499614238739,-0.08674030750989914,-0.3384093940258026
1667267001203305500,0.722305419921875,-0.1325538605451584,-0.09040539711713791,-0.3390202224254608
1667267001205703200,0.724703125,-0.1319430023431778,-0.08857285231351852,-0.3390202224254608
1667267001208100900,0.727100830078125,-0.12827792763710022,-0.09040539711713791,-0.3414636254310608
1667267001210498600,0.72949853515625,-0.12766708433628082,-0.08674030750989914,-0.34451785683631897
1667267001212896500,0.731896484375,-0.12278030067682266,-0.08551861345767975,-0.34451785683631897
1667267001215294200,0.734294189453125,-0.1172826737165451,-0.08735115826129913,-0.342074453830719
1667267001217692000,0.73669189453125,-0.11361759155988693,-0.0910162404179573,-0.3439069986343384
1667267001220089600,0.739089599609375,-0.11361759155988693,-0.09284878522157669,-0.3439069986343384
1667267001222487300,0.7414873046875,-0.10811996459960938,-0.09590301662683487,-0.3439069986343384
1667267001224885200,0.74388525390625,-0.10384403169155121,-0.09834641218185425,-0.3432961702346802
1667267001227283000,0.746282958984375,-0.10262233763933182,-0.10323318839073181,-0.3414636254310608
1667267001229680600,0.7486806640625,-0.09956810623407364,-0.10995250940322876,-0.3384093940258026
1667267001232078300,0.751078369140625,-0.09895725548267365,-0.11972606182098389,-0.33596599102020264
1667267001234476000,0.75347607421875,-0.09895725548267365,-0.1313321590423584,-0.33169007301330566
1667267001236873700,0.755873779296875,-0.09834641218185425,-0.1423274129629135,-0.3280249834060669
1667267001239271700,0.758271728515625,-0.09834641218185425,-0.15271180868148804,-0.3255815804004669
1667267001241669400,0.76066943359375,-0.09712471067905426,-0.16798299551010132,-0.31825143098831177
1667267001244067000,0.763067138671875,-0.09712471067905426,-0.1844758689403534,-0.3139754831790924
1667267001246464800,0.76546484375,-0.09590301662683487,-0.1966928243637085,-0.30847787857055664
1667267001248862500,0.767862548828125,-0.09468132257461548,-0.21196399629116058,-0.3029802441596985
1667267001251260400,0.770260498046875,-0.09407047927379608,-0.22601348161697388,-0.29687178134918213
1667267001253658000,0.772658203125,-0.09407047927379608,-0.23945212364196777,-0.2901524603366852
1667267001256055800,0.775055908203125,-0.0910162404179573,-0.25655585527420044,-0.2864873707294464
1667267001258453500,0.77745361328125,-0.08918370306491852,-0.2718270421028137,-0.284654825925827
1667267001260851200,0.779851318359375,-0.08490777015686035,-0.2858765125274658,-0.27915719151496887
1667267001263249000,0.782248779296875,-0.08002099394798279,-0.2987042963504791,-0.2761029601097107
1667267001265646800,0.784646728515625,-0.0794101431965828,-0.31092125177383423,-0.2724378705024719
1667267001268044500,0.78704443359375,-0.07696675509214401,-0.31947311758995056,-0.26938363909721375
1667267001270442200,0.789442138671875,-0.07513421028852463,-0.3280249834060669,-0.26755109429359436
1667267001272840000,0.79183984375,-0.07269082218408585,-0.33474430441856384,-0.2632751762866974
1667267001275237600,0.794237548828125,-0.07207997888326645,-0.3396310806274414,-0.2608317732810974
1667267001277635600,0.796635498046875,-0.07452336698770523,-0.34512871503829956,-0.25655585527420044
1667267001280033300,0.799033203125,-0.0781884491443634,-0.34757208824157715,-0.25289076566696167
1667267001282431000,0.801430908203125,-0.08246438205242157,-0.34818294644355774,-0.2486148327589035
1667267001284828700,0.80382861328125,-0.08674030750989914,-0.34879377484321594,-0.24678228795528412
1667267001287226400,0.806226318359375,-0.08918370306491852,-0.34940463304519653,-0.24556060135364532
1667267001289624300,0.808624267578125,-0.09284878522157669,-0.3524588644504547,-0.24067382514476776
1667267001292022000,0.81102197265625,-0.09407047927379608,-0.3549022674560547,-0.23945212364196777
1667267001294419700,0.813419677734375,-0.09712471067905426,-0.35795649886131287,-0.24128466844558716
1667267001296817400,0.8158173828125,-0.09956810623407364,-0.365286648273468,-0.24006296694278717
1667267001299215000,0.818215087890625,-0.10140064358711243,-0.3689517378807068,-0.23945212364196777
1667267001301612800,0.82061279296875,-0.10262233763933182,-0.3781144618988037,-0.23884128034114838
1667267001304010800,0.8230107421875,-0.10201149433851242,-0.38727715611457825,-0.23945212364196777
1667267001306408400,0.825408447265625,-0.09956810623407364,-0.39643988013267517,-0.23945212364196777
1667267001308806100,0.82780615234375,-0.10017894953489304,-0.4080459773540497,-0.24067382514476776
1667267001311203800,0.830203857421875,-0.09468132257461548,-0.4172086715698242,-0.24311721324920654
1667267001313601500,0.8326015625,-0.0910162404179573,-0.4282039403915405,-0.24433889985084534
1667267001315999500,0.83499951171875,-0.08612946420907974,-0.43614494800567627,-0.24372805655002594
1667267001318397200,0.837397216796875,-0.08307522535324097,-0.4428642690181732,-0.24372805655002594
1667267001320795000,0.839794921875,-0.07574506103992462,-0.4489727318286896,-0.24433889985084534
1667267001323192600,0.842192626953125,-0.06963659077882767,-0.45080527663230896,-0.24494975805282593
1667267001325590300,0.84459033203125,-0.0647498071193695,-0.45447036623954773,-0.2473931461572647
1667267001327988200,0.84698828125,-0.06047387793660164,-0.45080527663230896,-0.24678228795528412
1667267001330386000,0.849385986328125,-0.05619794875383377,-0.4428642690181732,-0.2486148327589035
1667267001332783600,0.85178369140625,-0.0525328628718853,-0.4312581717967987,-0.2492256760597229
1667267001335181300,0.854181396484375,-0.05375456064939499,-0.41354358196258545,-0.25472331047058105
1667267001337579000,0.8565791015625,-0.05497625470161438,-0.3921639323234558,-0.25594499707221985
1667267001339976700,0.858976806640625,-0.05803048983216286,-0.3689517378807068,-0.258999228477478
1667267001342374700,0.861374755859375,-0.06047387793660164,-0.34512871503829956,-0.2626643180847168
1667267001344772400,0.8637724609375,-0.0647498071193695,-0.32252734899520874,-0.26755109429359436
1667267001347170000,0.866170166015625,-0.07207997888326645,-0.2987042963504791,-0.2730487287044525
1667267001349567700,0.868567626953125,-0.07635590434074402,-0.2718270421028137,-0.2761029601097107
1667267001351965400,0.87096533203125,-0.08429691940546036,-0.2480039894580841,-0.28221142292022705
1667267001354363400,0.87336328125,-0.09040539711713791,-0.22723518311977386,-0.2901524603366852
1667267001356761000,0.875760986328125,-0.09651386737823486,-0.20646637678146362,-0.29626092314720154
1667267001359158800,0.87815869140625,-0.10201149433851242,-0.1844758689403534,-0.3035911023616791
1667267001361556500,0.880556396484375,-0.10689827054738998,-0.16492876410484314,-0.30969956517219543
1667267001363954200,0.8829541015625,-0.10995250940322876,-0.14110571146011353,-0.3164188861846924
1667267001366352100,0.88535205078125,-0.11300674080848694,-0.12216944992542267,-0.32313820719718933
1667267001368749800,0.887749755859375,-0.11300674080848694,-0.10078980028629303,-0.3292466700077057
1667267001371147500,0.8901474609375,-0.11606097966432571,-0.08307522535324097,-0.33474430441856384
1667267001373545200,0.892545166015625,-0.11667182296514511,-0.06169557198882103,-0.33718767762184143
1667267001375943000,0.89494287109375,-0.11606097966432571,-0.04337015375494957,-0.3402419090270996
1667267001378340600,0.897340576171875,-0.11483928561210632,-0.026877280324697495,-0.3414636254310608
1667267001380738600,0.899738525390625,-0.11545012891292572,-0.012216945178806782,-0.34451785683631897
1667267001383136300,0.90213623046875,-0.11422843486070633,0.0024433890357613564,-0.34451785683631897
1667267001385534000,0.904533935546875,-0.11178504675626755,0.01588202826678753,-0.3439069986343384
1667267001387931600,0.906931640625,-0.10873081535100937,0.02504473738372326,-0.3414636254310608
1667267001390329300,0.909329345703125,-0.10628741979598999,0.034818295389413834,-0.3402419090270996
1667267001392727300,0.911727294921875,-0.10384403169155121,0.047646086663007736,-0.3365768492221832
1667267001395125000,0.914125,-0.10323318839073181,0.05803048983216286,-0.33413344621658325
1667267001397522700,0.916522705078125,-0.09956810623407364,0.06963659077882767,-0.3280249834060669
1667267001399920400,0.91892041015625,-0.09651386737823486,0.07696675509214401,-0.32313820719718933
1667267001402318000,0.921318115234375,-0.09345962852239609,0.08551861345767975,-0.3170297145843506
1667267001404716000,0.923716064453125,-0.08918370306491852,0.0922379344701767,-0.30786702036857605
1667267001407113700,0.92611376953125,-0.08857285231351852,0.09529217332601547,-0.3011476993560791
1667267001409511400,0.928511474609375,-0.08429691940546036,0.0916270911693573,-0.29320669174194336
1667267001411909000,0.9309091796875,-0.08063183724880219,0.08979454636573792,-0.2852656841278076
1667267001414306800,0.933306884765625,-0.07757759839296341,0.08368607610464096,-0.2730487287044525
1667267001416704800,0.935704833984375,-0.07269082218408585,0.07330167293548584,-0.2638860046863556
1667267001419102500,0.9381025390625,-0.06841489672660828,0.061084724962711334,-0.25472331047058105
1667267001421500200,0.940500244140625,-0.06291726976633072,0.04886778071522713,-0.24494975805282593
1667267001423897900,0.94289794921875,-0.056808795779943466,0.033596597611904144,-0.2345653474330902
1667267001426295600,0.945295654296875,-0.051922015845775604,0.01832541823387146,-0.22967857122421265
1667267001428693200,0.947693359375,-0.045202698558568954,0.0012216945178806782,-0.2211267054080963
1667267001431091200,0.95009130859375,-0.036039989441633224,-0.017714571207761765,-0.21746163070201874
1667267001433489000,0.952489013671875,-0.02870982140302658,-0.0390942245721817,-0.21685077250003815
1667267001435886600,0.954886474609375,-0.020157959312200546,-0.05803048983216286,-0.21257483959197998
1667267001438284300,0.9572841796875,-0.012827792204916477,-0.07330167293548584,-0.2101314514875412
1667267001440682200,0.95968212890625,-0.006108472589403391,-0.09284878522157669,-0.20646637678146362
1667267001443080000,0.962079833984375,0,-0.10873081535100937,-0.20646637678146362
1667267001445477600,0.9644775390625,0.006719320081174374,-0.12216944992542267,-0.20524467527866364
1667267001447875300,0.966875244140625,0.013438640162348747,-0.13560809195041656,-0.20280128717422485
1667267001450273000,0.96927294921875,0.01954711228609085,-0.14782503247261047,-0.20096874237060547
1667267001452670700,0.971670654296875,0.024433890357613564,-0.15943112969398499,-0.19974705576896667
1667267001455068700,0.974068603515625,0.030542362481355667,-0.16859383881092072,-0.1979145109653473
1667267001457466400,0.97646630859375,0.033596597611904144,-0.17836740612983704,-0.1973036676645279
1667267001459864000,0.978864013671875,0.03665083646774292,-0.183865025639534,-0.1954711228609085
1667267001462261800,0.98126171875,0.04031591862440109,-0.19058434665203094,-0.19363857805728912
1667267001464659500,0.983659423828125,0.04031591862440109,-0.1966928243637085,-0.19119518995285034
1667267001467057200,0.98605712890625,0.04031591862440109,-0.20341213047504425,-0.18936264514923096
1667267001469455000,0.988455078125,0.0390942245721817,-0.2101314514875412,-0.18630841374397278
1667267001471852800,0.990852783203125,0.03542914241552353,-0.21929416060447693,-0.18142163753509521
1667267001474250500,0.99325048828125,0.033596597611904144,-0.22906772792339325,-0.17653486132621765
1667267001476648200,0.995648193359375,0.02748812735080719,-0.24128466844558716,-0.17225892841815948
1667267001479046100,0.998046142578125,0.021990500390529633,-0.25350162386894226,-0.16370706260204315
1667267001481443800,1.00044384765625,0.016492875292897224,-0.26632940769195557,-0.15149012207984924
1667267001483841500,1.002841552734375,0.008551862090826035,-0.27976804971694946,-0.13988402485847473
1667267001486239200,1.0052392578125,0,-0.2919849753379822,-0.12766708433628082
1667267001488637000,1.007636962890625,-0.00916270911693573,-0.3042019307613373,-0.11361759155988693
1667267001491034600,1.01003466796875,-0.02076880633831024,-0.31886225938796997,-0.10017894953489304
1667267001493432600,1.0124326171875,-0.031153209507465363,-0.33291175961494446,-0.08612946420907974
1667267001495830300,1.014830322265625,-0.043981000781059265,-0.34573954343795776,-0.07269082218408585
1667267001498228000,1.01722802734375,-0.05619794875383377,-0.36039987206459045,-0.056808795779943466
1667267001500625700,1.019625732421875,-0.06841489672660828,-0.3689517378807068,-0.038483377546072006
1667267001503023400,1.0220234375,-0.08307522535324097,-0.3787252902984619,-0.022601349279284477
1667267001505421300,1.02442138671875,-0.09590301662683487,-0.38788801431655884,-0.0030542362947016954
1667267001507819000,1.026819091796875,-0.11056335270404816,-0.3946073353290558,0.013438640162348747
1667267001510216700,1.029216796875,-0.12278030067682266,-0.3946073353290558,0.03237490355968475
1667267001512614400,1.031614501953125,-0.13621893525123596,-0.3921639323234558,0.047646086663007736
1667267001515012000,1.03401220703125,-0.14660334587097168,-0.38544461131095886,0.06413896381855011
1667267001517410000,1.03641015625,-0.16004198789596558,-0.37139514088630676,0.08124268800020218
1667267001519807700,1.038807861328125,-0.1704263836145401,-0.3530697226524353,0.09590301662683487
1667267001522205400,1.041205322265625,-0.18142163753509521,-0.3310792148113251,0.10750912129878998
1667267001524603100,1.04360302734375,-0.19241689145565033,-0.312142938375473,0.11911521852016449
1667267001527000800,1.046000732421875,-0.20341213047504425,-0.2895416021347046,0.1301104724407196
1667267001529398800,1.048398681640625,-0.21440738439559937,-0.26694026589393616,0.13805148005485535
1667267001531796500,1.05079638671875,-0.22723518311977386,-0.24433889985084534,0.1435490995645523
1667267001534194200,1.053194091796875,-0.24006296694278717,-0.2229592502117157,0.1447708010673523
1667267001536592000,1.055591796875,-0.2516690790653229,-0.19974705576896667,0.14904673397541046
1667267001538989600,1.057989501953125,-0.2620534598827362,-0.17897824943065643,0.14965757727622986
1667267001541387300,1.06038720703125,-0.2730487287044525,-0.1563768982887268,0.14660334587097168
1667267001543785200,1.06278515625,-0.28098973631858826,-0.13560809195041656,0.1441599577665329
1667267001546183000,1.065182861328125,-0.288930743932724,-0.11545012891292572,0.13744063675403595
1667267001548580600,1.06758056640625,-0.29687178134918213,-0.09529217332601547,0.129499614238739
1667267001550978300,1.069978271484375,-0.3029802441596985,-0.0794101431965828,0.12278030067682266
1667267001553376300,1.072376220703125,-0.30969956517219543,-0.06841489672660828,0.11300674080848694
1667267001555774000,1.07477392578125,-0.3133646547794342,-0.05375456064939499,0.09956810623407364
1667267001558171600,1.077171630859375,-0.3139754831790924,-0.03542914241552353,0.08674030750989914
1667267001560569300,1.0795693359375,-0.3115321099758148,-0.021379653364419937,0.07207997888326645
1667267001562967000,1.081967041015625,-0.30908870697021484,-0.007330167107284069,0.05741964280605316
1667267001565364700,1.08436474609375,-0.3054236173629761,0.006719320081174374,0.0390942245721817
1667267001567762700,1.0867626953125,-0.3011476993560791,0.025655584409832954,0.021990500390529633
1667267001570160400,1.089160400390625,-0.29320669174194336,0.04153761267662048,0.0024433890357613564
1667267001572558000,1.09155810546875,-0.284654825925827,0.05741964280605316,-0.016492875292897224
1667267001574955800,1.093955810546875,-0.2761029601097107,0.07269082218408585,-0.03542914241552353
1667267001577353500,1.096353515625,-0.2644968628883362,0.09407047927379608,-0.05497625470161438
1667267001579751400,1.09875146484375,-0.2522799074649811,0.11545012891292572,-0.07269082218408585
1667267001582149000,1.101149169921875,-0.23945212364196777,0.13499724864959717,-0.08979454636573792
1667267001584546800,1.103546875,-0.22601348161697388,0.15454435348510742,-0.10750912129878998
1667267001586944500,1.105944580078125,-0.21318569779396057,0.1692046970129013,-0.12522368133068085
1667267001589342200,1.10834228515625,-0.20157960057258606,0.17958909273147583,-0.1459924876689911
1667267001591740200,1.110740234375,-0.19241689145565033,0.19119518995285034,-0.16370706260204315
1667267001594137900,1.113137939453125,-0.182643324136734,0.20707722008228302,-0.18081079423427582
1667267001596535600,1.11553564453125,-0.17409147322177887,0.23334364593029022,-0.1966928243637085
1667267001598933200,1.117933349609375,-0.16431790590286255,0.2620534598827362,-0.21318569779396057
1667267001601331000,1.1203310546875,-0.15271180868148804,0.2852656841278076,-0.22967857122421265
1667267001603729000,1.12272900390625,-0.1429382562637329,0.3029802441596985,-0.24556060135364532
1667267001606126600,1.125126708984375,-0.1301104724407196,0.312142938375473,-0.25777754187583923
1667267001608524300,1.127524169921875,-0.11606097966432571,0.314586341381073,-0.26938363909721375
1667267001610922000,1.129921875,-0.10323318839073181,0.314586341381073,-0.2754921019077301
1667267001613319700,1.132319580078125,-0.0922379344701767,0.30969956517219543,-0.28037887811660767
1667267001615717400,1.13471728515625,-0.08063183724880219,0.3035911023616791,-0.2870981991291046
1667267001618115300,1.137115234375,-0.07207997888326645,0.2901524603366852,-0.2864873707294464
1667267001620513000,1.139512939453125,-0.062306419014930725,0.2767138183116913,-0.2852656841278076
1667267001622910700,1.14191064453125,-0.05864133685827255,0.25472331047058105,-0.28037887811660767
1667267001625308400,1.144308349609375,-0.05375456064939499,0.22906772792339325,-0.27915719151496887
1667267001627706000,1.1467060546875,-0.04886778071522713,0.20096874237060547,-0.2779355049133301
1667267001630104000,1.14910400390625,-0.04459185153245926,0.1704263836145401,-0.27915719151496887
1667267001632501800,1.151501708984375,-0.0390942245721817,0.13377554714679718,-0.28098973631858826
1667267001634899500,1.1538994140625,-0.033596597611904144,0.09895725548267365,-0.28404396772384644
1667267001637297200,1.156297119140625,-0.02870982140302658,0.05986303091049194,-0.288930743932724
1667267001639695000,1.158695068359375,-0.021990500390529633,0.025655584409832954,-0.29626092314720154
1667267001642092800,1.1610927734375,-0.014660334214568138,-0.012216945178806782,-0.3042019307613373
1667267001644490500,1.163490478515625,-0.006719320081174374,-0.043981000781059265,-0.314586341381073
1667267001646888200,1.16588818359375,0.0018325417768210173,-0.07757759839296341,-0.3274141252040863
1667267001649286000,1.168285888671875,0.010995250195264816,-0.10750912129878998,-0.3390202224254608
1667267001651683600,1.17068359375,0.021990500390529633,-0.13560809195041656,-0.3549022674560547
1667267001654081500,1.17308154296875,0.030542362481355667,-0.16065283119678497,-0.3689517378807068
1667267001656479200,1.175479248046875,0.0390942245721817,-0.18019993603229523,-0.38422292470932007
1667267001658877000,1.177876953125,0.04947862774133682,-0.1973036676645279,-0.39643988013267517
1667267001661274600,1.180274658203125,0.06047387793660164,-0.20646637678146362,-0.4049917459487915
1667267001663672300,1.18267236328125,0.07146912813186646,-0.20707722008228302,-0.41415444016456604
1667267001666070300,1.1850703125,0.08429691940546036,-0.20585553348064423,-0.4172086715698242
1667267001668468000,1.187468017578125,0.09651386737823486,-0.1973036676645279,-0.41415444016456604
1667267001670865700,1.18986572265625,0.10934165865182877,-0.18875180184841156,-0.4092676639556885
1667267001673263400,1.192263427734375,0.12155860662460327,-0.17775654792785645,-0.40010493993759155
1667267001675661300,1.194661376953125,0.13621893525123596,-0.15943112969398499,-0.38605546951293945
1667267001678059000,1.19705908203125,0.15087927877902985,-0.13316470384597778,-0.3665083646774292
1667267001680456700,1.199456787109375,0.16370706260204315,-0.09529217332601547,-0.3432961702346802
1667267001682854400,1.2018544921875,0.17286977171897888,-0.05925218388438225,-0.31825143098831177
1667267001685252000,1.204252197265625,0.17470231652259827,-0.02748812735080719,-0.29748260974884033
1667267001687649800,1.20664990234375,0.1710372269153595,0.008551862090826035,-0.2773246467113495
1667267001690047700,1.2090478515625,0.17286977171897888,0.0397050715982914,-0.258999228477478
1667267001692445400,1.211445556640625,0.18019993603229523,0.07452336698770523,-0.24617144465446472
1667267001694843100,1.213843017578125,0.18875180184841156,0.10873081535100937,-0.23823043704032898
1667267001697240800,1.21624072265625,0.20035789906978607,0.15087927877902985,-0.2339545041322708
1667267001699638500,1.218638427734375,0.21562908589839935,0.19913621246814728,-0.23151111602783203
1667267001702036500,1.221036376953125,0.22784602642059326,0.24494975805282593,-0.23334364593029022
1667267001704434200,1.22343408203125,0.23884128034114838,0.28037887811660767,-0.24433889985084534
1667267001706832000,1.225831787109375,0.2498365342617035,0.312142938375473,-0.2583884000778198
1667267001709229600,1.2282294921875,0.25533416867256165,0.3396310806274414,-0.2730487287044525
1667267001711627300,1.230627197265625,0.2596100866794586,0.35856732726097107,-0.288930743932724
1667267001714025200,1.233025146484375,0.2583884000778198,0.37200596928596497,-0.30603447556495667
1667267001716423000,1.2354228515625,0.25472331047058105,0.38483378291130066,-0.32191649079322815
1667267001718820600,1.237820556640625,0.2510582208633423,0.3903313875198364,-0.33474430441856384
1667267001721218300,1.24021826171875,0.24006296694278717,0.3939964771270752,-0.3500154912471771
1667267001723616000,1.242615966796875,0.22479179501533508,0.38910970091819763,-0.36223241686820984
1667267001726014000,1.245013916015625,0.2089097648859024,0.37689274549484253,-0.37567105889320374
1667267001728411600,1.24741162109375,0.18997350335121155,0.36223241686820984,-0.3897205591201782
1667267001730809300,1.249809326171875,0.17348061501979828,0.3365768492221832,-0.4037700295448303
1667267001733207000,1.25220703125,0.15454435348510742,0.3029802441596985,-0.418430358171463
1667267001735604700,1.254604736328125,0.14049486815929413,0.2608317732810974,-0.4343124032020569
1667267001738002700,1.257002685546875,0.12461283802986145,0.21807247400283813,-0.44958359003067017
1667267001740400400,1.259400390625,0.11361759155988693,0.17225892841815948,-0.46546560525894165
1667267001742798000,1.261798095703125,0.10934165865182877,0.12705622613430023,-0.48073679208755493
1667267001745195800,1.26419580078125,0.1056765764951706,0.08002099394798279,-0.4960079789161682
1667267001747593500,1.266593505859375,0.10811996459960938,0.03542914241552353,-0.5118899941444397
1667267001749991200,1.2689912109375,0.11483928561210632,-0.005497625097632408,-0.5277720093727112
1667267001752389000,1.27138916015625,0.12705622613430023,-0.04214845970273018,-0.5424323678016663
1667267001754786800,1.273786865234375,0.1429382562637329,-0.07635590434074402,-0.5570927262306213
1667267001757184500,1.2761845703125,0.15943112969398499,-0.10873081535100937,-0.5705313682556152
1667267001759582200,1.278582275390625,0.16737215220928192,-0.14965757727622986,-0.5845808386802673
1667267001761980200,1.280980224609375,0.17286977171897888,-0.18630841374397278,-0.5974085927009583
1667267001764377900,1.2833779296875,0.17836740612983704,-0.2229592502117157,-0.610236406326294
1667267001766775600,1.285775634765625,0.18691925704479218,-0.261442631483078,-0.6273401379585266
1667267001769173200,1.28817333984375,0.1960819661617279,-0.2999260127544403,-0.6456655263900757
1667267001771571000,1.290571044921875,0.20585553348064423,-0.33169007301330566,-0.6652126908302307
1667267001773969000,1.292968994140625,0.2217375487089157,-0.3512371778488159,-0.6878139972686768
1667267001776366600,1.29536669921875,0.23334364593029022,-0.36284327507019043,-0.7146912813186646
1667267001778764300,1.297764404296875,0.24556060135364532,-0.3805578351020813,-0.7415685653686523
1667267001781162000,1.300161865234375,0.25411245226860046,-0.40193748474121094,-0.7721109390258789
1667267001783559700,1.3025595703125,0.25716668367385864,-0.42392799258232117,-0.8081509470939636
1667267001785957400,1.304957275390625,0.25655585527420044,-0.4459185004234314,-0.8502993583679199
1667267001788355300,1.307355224609375,0.25350162386894226,-0.47707170248031616,-0.893058717250824
1667267001790753000,1.3097529296875,0.24311721324920654,-0.5106683373451233,-0.939483106136322
1667267001793150700,1.312150634765625,0.22967857122421265,-0.5369347333908081,-0.9926267862319946
1667267001795548400,1.31454833984375,0.2089097648859024,-0.5564818382263184,-1.0439379215240479
1667267001797946000,1.316946044921875,0.18569757044315338,-0.5601469278335571,-1.0952491760253906
1667267001800344000,1.319343994140625,0.1575985997915268,-0.5509842038154602,-1.1490037441253662
1667267001802741800,1.32174169921875,0.12216944992542267,-0.5344913601875305,-1.197871446609497
1667267001805139500,1.324139404296875,0.08368607610464096,-0.5131117105484009,-1.245517611503601
1667267001807537200,1.326537109375,0.04031591862440109,-0.4856235682964325,-1.294385313987732
1667267001809935000,1.32893505859375,-0.009773556143045425,-0.45019441843032837,-1.3378318548202515
1667267001812332800,1.331332763671875,-0.0659715011715889,-0.39949411153793335,-1.3793694972991943
1667267001814730500,1.33373046875,-0.12766708433628082,-0.3439069986343384,-1.4123551845550537
1667267001817128200,1.336128173828125,-0.18997350335121155,-0.29320669174194336,-1.4404542446136475
1667267001819526000,1.33852587890625,-0.25411245226860046,-0.23823043704032898,-1.4642772674560547
1667267001821923600,1.340923583984375,-0.32252734899520874,-0.16492876410484314,-1.4819917678833008
1667267001824321500,1.343321533203125,-0.3915531039237976,-0.09040539711713791,-1.4960412979125977
1667267001826719200,1.34571923828125,-0.46607646346092224,-0.007941014133393764,-1.49848473072052
1667267001829117000,1.348116943359375,-0.5381564497947693,0.0653606578707695,-1.4960412979125977
1667267001831514600,1.3505146484375,-0.6004628539085388,0.130721315741539,-1.4874894618988037
1667267001833912300,1.352912353515625,-0.6554391384124756,0.18875180184841156,-1.469774842262268
1667267001836310300,1.355310302734375,-0.70308518409729,0.24311721324920654,-1.4459518194198608
1667267001838708000,1.3577080078125,-0.7476770281791687,0.29442837834358215,-1.4117443561553955
1667267001841105700,1.360105712890625,-0.7831062078475952,0.33291175961494446,-1.3714284896850586
1667267001843503400,1.36250341796875,-0.8050966858863831,0.36039987206459045,-1.327981948852539
1667267001845901300,1.3649013671875,-0.8228112459182739,0.3671191930770874,-1.2754490375518799
1667267001848299000,1.367299072265625,-0.8350282311439514,0.365286648273468,-1.2216944694519043
1667267001850696700,1.36969677734375,-0.8386932611465454,0.3555130958557129,-1.161220669746399
1667267001853094400,1.372094482421875,-0.8380824327468872,0.33169007301330566,-1.0970816612243652
1667267001855492000,1.3744921875,-0.8295305967330933,0.3023693859577179,-1.0304993391036987
1667267001857890000,1.37689013671875,-0.8160919547080994,0.27121618390083313,-0.9590302109718323
1667267001860287700,1.379287841796875,-0.7953231334686279,0.23823043704032898,-0.8851176500320435
1667267001862685400,1.381685546875,-0.7702783942222595,0.20402298867702484,-0.8130376935005188
1667267001865083100,1.384083251953125,-0.7409577369689941,0.17348061501979828,-0.7427902817726135
1667267001867480800,1.386480712890625,-0.7091936469078064,0.15271180868148804,-0.6743753552436829
1667267001869878500,1.38887841796875,-0.6725428104400635,0.13805148005485535,-0.6053496599197388
1667267001872276500,1.3912763671875,-0.6322268843650818,0.12400199472904205,-0.5418215394020081
1667267001874674200,1.393674072265625,-0.5913001298904419,0.10689827054738998,-0.48012593388557434
1667267001877072000,1.39607177734375,-0.5442649126052856,0.09284878522157669,-0.42514967918395996
1667267001879469600,1.398469482421875,-0.5008947253227234,0.07757759839296341,-0.37567105889320374
1667267001881867300,1.4008671875,-0.45080527663230896,0.05986303091049194,-0.33230090141296387
1667267001884265200,1.40326513671875,-0.40132665634155273,0.043981000781059265,-0.29565006494522095
1667267001886663000,1.405662841796875,-0.34573954343795776,0.030542362481355667,-0.2632751762866974
1667267001889060600,1.408060546875,-0.2870981991291046,0.02076880633831024,-0.23945212364196777
1667267001891458300,1.410458251953125,-0.23212195932865143,0.012216945178806782,-0.22051586210727692
1667267001893856300,1.412856201171875,-0.1716480851173401,0.0012216945178806782,-0.208298921585083
1667267001896254000,1.41525390625,-0.11178504675626755,-0.01038440316915512,-0.20157960057258606
1667267001898651600,1.417651611328125,-0.051922015845775604,-0.023212196305394173,-0.19974705576896667
1667267001901049300,1.42004931640625,0.0036650835536420345,-0.030542362481355667,-0.19974705576896667
1667267001903447000,1.422447021484375,0.05619794875383377,-0.034818295389413834,-0.19974705576896667
1667267001905844700,1.4248447265625,0.1044548824429512,-0.04031591862440109,-0.20524467527866364
1667267001908242700,1.42724267578125,0.1441599577665329,-0.04459185153245926,-0.2107423096895218
1667267001910640400,1.429640380859375,0.17897824943065643,-0.047646086663007736,-0.21562908589839935
1667267001913038000,1.4320380859375,0.20768806338310242,-0.054365407675504684,-0.21746163070201874
1667267001915435800,1.434435791015625,0.22784602642059326,-0.05986303091049194,-0.2217375487089157
1667267001917833500,1.43683349609375,0.24372805655002594,-0.0647498071193695,-0.22723518311977386
1667267001920231400,1.4392314453125,0.25411245226860046,-0.06780404597520828,-0.23212195932865143
1667267001922629000,1.441629150390625,0.2620534598827362,-0.06352811306715012,-0.23945212364196777
1667267001925026800,1.44402685546875,0.2638860046863556,-0.05925218388438225,-0.24678228795528412
1667267001927424500,1.446424560546875,0.265718549489975,-0.056808795779943466,-0.25655585527420044
1667267001929822200,1.448822265625,0.2644968628883362,-0.05008947476744652,-0.2651077210903168
1667267001932220200,1.45122021484375,0.2632751762866974,-0.04886778071522713,-0.2730487287044525
1667267001934617900,1.453617919921875,0.2632751762866974,-0.04153761267662048,-0.28160059452056885
1667267001937015600,1.456015625,0.2620534598827362,-0.04031591862440109,-0.29503923654556274
1667267001939413200,1.458413330078125,0.2626643180847168,-0.03420744836330414,-0.3017585575580597
1667267001941811200,1.460811279296875,0.2632751762866974,-0.023212196305394173,-0.31031039357185364
1667267001944209000,1.463208984375,0.265718549489975,-0.008551862090826035,-0.31886225938796997
1667267001946606600,1.465606689453125,0.26877278089523315,0.00916270911693573,-0.3280249834060669
1667267001949004300,1.46800439453125,0.2724378705024719,0.029320668429136276,-0.33352261781692505
1667267001951402000,1.470402099609375,0.2779355049133301,0.05375456064939499,-0.3396310806274414
1667267001953800000,1.472800048828125,0.28404396772384644,0.07635590434074402,-0.342074453830719
1667267001956197600,1.47519775390625,0.291374146938324,0.10140064358711243,-0.3426853120326996
1667267001958595300,1.47759521484375,0.3017585575580597,0.130721315741539,-0.33718767762184143
1667267001960993000,1.479992919921875,0.31092125177383423,0.16187451779842377,-0.3304683566093445
1667267001963390700,1.482390625,0.32313820719718933,0.1966928243637085,-0.32069480419158936
1667267001965788400,1.484788330078125,0.33474430441856384,0.23090025782585144,-0.30969956517219543
1667267001968186400,1.487186279296875,0.34635040163993835,0.2632751762866974,-0.29748260974884033
1667267001970584000,1.489583984375,0.35795649886131287,0.2895416021347046,-0.28343313932418823
1667267001972981800,1.491981689453125,0.37261682748794556,0.3127537965774536,-0.26999449729919434
1667267001975379500,1.49437939453125,0.3836120665073395,0.3274141252040863,-0.25472331047058105
1667267001977777200,1.496777099609375,0.3939964771270752,0.33535513281822205,-0.23823043704032898
1667267001980175000,1.499175048828125,0.4062134325504303,0.33596599102020264,-0.2223484069108963
1667267001982572800,1.50157275390625,0.4178195297718048,0.33352261781692505,-0.2095206081867218
1667267001984970500,1.503970458984375,0.4294256269931793,0.3304683566093445,-0.19363857805728912
1667267001987368200,1.5063681640625,0.4428642690181732,0.32252734899520874,-0.17958909273147583
1667267001989766100,1.50876611328125,0.45508119463920593,0.31031039357185364,-0.16553960740566254
1667267001992163800,1.511163818359375,0.4709632396697998,0.2999260127544403,-0.14904673397541046
1667267001994561500,1.5135615234375,0.4844018816947937,0.2883199155330658,-0.13560809195041656
1667267001996959200,1.515959228515625,0.5015056133270264,0.27060532569885254,-0.12155860662460327
1667267001999357000,1.51835693359375,0.5192201733589172,0.2504473626613617,-0.10689827054738998
1667267002001755000,1.5207548828125,0.5393781065940857,0.22845686972141266,-0.0910162404179573
1667267002004152600,1.523152587890625,0.5570927262306213,0.20463383197784424,-0.07574506103992462
1667267002006550300,1.52555029296875,0.5741963982582092,0.18081079423427582,-0.05986303091049194
1667267002008948000,1.527947998046875,0.5937435626983643,0.16126367449760437,-0.04153761267662048
1667267002011345700,1.530345703125,0.6132906675338745,0.1459924876689911,-0.021379653364419937
1667267002013743400,1.532743408203125,0.6285618543624878,0.14049486815929413,0.0012216945178806782
1667267002016141300,1.535141357421875,0.648108959197998,0.1447708010673523,0.02626643143594265
1667267002018539000,1.5375390625,0.6633801460266113,0.16187451779842377,0.056808795779943466
1667267002020936700,1.539936767578125,0.6817055344581604,0.19119518995285034,0.08796200156211853
1667267002023334400,1.54233447265625,0.6945333480834961,0.2211267054080963,0.11972606182098389
1667267002025732400,1.544732421875,0.70797199010849,0.25533416867256165,0.15087927877902985
1667267002028130000,1.547130126953125,0.7207997441291809,0.291374146938324,0.17775654792785645
1667267002030527700,1.54952783203125,0.730573296546936,0.3243598937988281,0.20219044387340546
1667267002032925400,1.551925537109375,0.7391251921653748,0.3542914092540741,0.2241809368133545
1667267002035323100,1.5543232421875,0.7470661997795105,0.3787252902984619,0.24128466844558716
1667267002037721000,1.55672119140625,0.7501204609870911,0.39949411153793335,0.2510582208633423
1667267002040118800,1.559118896484375,0.7537854909896851,0.416597843170166,0.2583884000778198
1667267002042516500,1.5615166015625,0.754396378993988,0.4330907166004181,0.25411245226860046
1667267002044914200,1.5639140625,0.7537854909896851,0.4471401870250702,0.24678228795528412
1667267002047312000,1.566311767578125,0.7537854909896851,0.46546560525894165,0.22906772792339325
1667267002049709800,1.568709716796875,0.7513421177864075,0.47890424728393555,0.20707722008228302
1667267002052107500,1.571107421875,0.7501204609870911,0.4960079789161682,0.17409147322177887
1667267002054505200,1.573505126953125,0.7525638341903687,0.5137225389480591,0.13499724864959717
1667267002056903000,1.57590283203125,0.7562289237976074,0.5253286361694336,0.08735115826129913
1667267002059300600,1.578300537109375,0.7623373866081238,0.518609344959259,0.03665083646774292
1667267002061698300,1.5806982421875,0.7769976854324341,0.48928865790367126,-0.01954711228609085
1667267002064096300,1.58309619140625,0.791047215461731,0.4691306948661804,-0.0794101431965828
1667267002066494000,1.585493896484375,0.8075400590896606,0.448361873626709,-0.14660334587097168
1667267002068891600,1.5878916015625,0.8276980519294739,0.42392799258232117,-0.2101314514875412
1667267002071289300,1.590289306640625,0.8429692387580872,0.393385648727417,-0.2767138183116913
1667267002073687300,1.592687255859375,0.856407880783081,0.36223241686820984,-0.34696123003959656
1667267002076085000,1.5950849609375,0.8667922616004944,0.3304683566093445,-0.4086568057537079
1667267002078482700,1.597482666015625,0.8710681796073914,0.29259583353996277,-0.4715740978717804
1667267002080880400,1.59988037109375,0.8710681796073914,0.25350162386894226,-0.5308262705802917
1667267002083278000,1.602278076171875,0.864959716796875,0.21990501880645752,-0.5839699506759644
1667267002085676000,1.604676025390625,0.8582404255867004,0.18875180184841156,-0.6310052275657654
1667267002088073700,1.60707373046875,0.8448017835617065,0.16370706260204315,-0.6719319820404053
1667267002090471400,1.609471435546875,0.8319739699363708,0.1429382562637329,-0.7067502737045288
1667267002092869000,1.611869140625,0.8167027831077576,0.1319430023431778,-0.7379034757614136
1667267002095266800,1.614266845703125,0.7995990514755249,0.11911521852016449,-0.763559103012085
1667267002097664800,1.616664794921875,0.7824953198432922,0.10995250940322876,-0.7855495810508728
1667267002100062500,1.6190625,0.767224133014679,0.1050657257437706,-0.8032641410827637
1667267002102460200,1.621460205078125,0.7501204609870911,0.10628741979598999,-0.8197570443153381
1667267002104857900,1.62385791015625,0.7379034757614136,0.10811996459960938,-0.8393041491508484
1667267002107255600,1.626255615234375,0.731184184551239,0.11056335270404816,-0.8515210747718811
1667267002109653500,1.628653564453125,0.730573296546936,0.11545012891292572,-0.8619054555892944
1667267002112051200,1.63105126953125,0.7391251921653748,0.11606097966432571,-0.8704573512077332
1667267002114449000,1.633448974609375,0.7550072073936462,0.10201149433851242,-0.8777875304222107
1667267002116846600,1.6358466796875,0.7788302302360535,0.07757759839296341,-0.8869501948356628
1667267002119244300,1.638244384765625,0.8112051486968994,0.0390942245721817,-0.897334635257721
1667267002121642200,1.640642333984375,0.8490777015686035,-0.00916270911693573,-0.9095515608787537
1667267002124040000,1.6430400390625,0.8948912620544434,-0.05803048983216286,-0.92054682970047
1667267002126437600,1.645437744140625,0.9431481957435608,-0.10750912129878998,-0.9327637553215027
1667267002128835300,1.64783544921875,0.9914051294326782,-0.15515519678592682,-0.9462023973464966
1667267002131233300,1.6502333984375,1.0408837795257568,-0.20280128717422485,-0.9565867781639099
1667267002133631000,1.652630859375,1.0909732580184937,-0.2498365342617035,-0.9681929349899292
1667267002136028700,1.655028564453125,1.1398409605026245,-0.2980934679508209,-0.9785773158073425
1667267002138426400,1.65742626953125,1.1862653493881226,-0.3414636254310608,-0.9895725846290588
1667267002140824000,1.659823974609375,1.230857253074646,-0.38727715611457825,-0.998735249042511
1667267002143221800,1.6622216796875,1.273005723953247,-0.4330907166004181,-1.009730577468872
1667267002145619700,1.66461962890625,1.3066022396087646,-0.4709632396697998,-1.0188932418823242
1667267002148017400,1.667017333984375,1.3353121280670166,-0.5015056133270264,-1.0298885107040405
1667267002150415000,1.6694150390625,1.3586006164550781,-0.5192201733589172,-1.0378295183181763
1667267002152812800,1.671812744140625,1.3708176612854004,-0.5204418897628784,-1.041494607925415
1667267002155210500,1.67421044921875,1.372650146484375,-0.5112791657447815,-1.0427162647247314
1667267002157608400,1.6766083984375,1.362265706062317,-0.48928865790367126,-1.041494607925415
1667267002160006100,1.679006103515625,1.3433294296264648,-0.4569137394428253,-1.035386085510254
1667267002162403800,1.68140380859375,1.3120999336242676,-0.4300364851951599,-1.0280559062957764
1667267002164801500,1.683801513671875,1.273005723953247,-0.4049917459487915,-1.0207257270812988
1667267002167199500,1.686199462890625,1.2241379022598267,-0.3830012381076813,-1.0158389806747437
1667267002169597200,1.68859716796875,1.1630531549453735,-0.37261682748794556,-1.0109522342681885
1667267002171995000,1.690994873046875,1.096470832824707,-0.3689517378807068,-1.0054545402526855
1667267002174392600,1.693392578125,1.0274450778961182,-0.37200596928596497,-0.9956810474395752
1667267002176790300,1.695790283203125,0.9523108601570129,-0.3823903799057007,-0.9852966070175171
1667267002179188200,1.698188232421875,0.8771766424179077,-0.39888325333595276,-0.9694145917892456
1667267002181586000,1.7005859375,0.8020424246788025,-0.41415444016456604,-0.9547542929649353
1667267002183983600,1.702983642578125,0.7256865501403809,-0.4282039403915405,-0.9382613897323608
1667267002186381300,1.70538134765625,0.6511631608009338,-0.43981003761291504,-0.916270911693573
1667267002188779000,1.707779052734375,0.5790832042694092,-0.4477510452270508,-0.8942803740501404
1667267002191177000,1.710177001953125,0.5106683373451233,-0.45324867963790894,-0.8716790676116943
1667267002193574700,1.71257470703125,0.4446968138217926,-0.45508119463920593,-0.8472451567649841
1667267002195972400,1.714972412109375,0.3817795515060425,-0.4477510452270508,-0.8209787011146545
1667267002198370000,1.7173701171875,0.3255815804004669,-0.4355340898036957,-0.7941014170646667
1667267002200767700,1.719767822265625,0.2761029601097107,-0.416597843170166,-0.7666133046150208
1667267002203165700,1.722165771484375,0.22967857122421265,-0.390942245721817,-0.7342383861541748
1667267002205563400,1.7245634765625,0.18997350335121155,-0.3542914092540741,-0.70308518409729
1667267002207961000,1.726961181640625,0.15332266688346863,-0.3133646547794342,-0.6694886088371277
1667267002210358800,1.72935888671875,0.11972606182098389,-0.26999449729919434,-0.6365028619766235
1667267002212756500,1.731756591796875,0.08857285231351852,-0.2223484069108963,-0.601073682308197
1667267002215154400,1.734154541015625,0.06413896381855011,-0.18081079423427582,-0.5662553906440735
1667267002217552100,1.73655224609375,0.038483377546072006,-0.13988402485847473,-0.53143709897995
1667267002219949800,1.73894970703125,0.015271181240677834,-0.10384403169155121,-0.4947862923145294
1667267002222347500,1.741347412109375,-0.007330167107284069,-0.07269082218408585,-0.4569137394428253
1667267002224745200,1.7437451171875,-0.025655584409832954,-0.04581354558467865,-0.41476529836654663
1667267002227143200,1.74614306640625,-0.04153761267662048,-0.026877280324697495,-0.3683409094810486
1667267002229540900,1.748540771484375,-0.05925218388438225,-0.00916270911693573,-0.32069480419158936
1667267002231938600,1.7509384765625,-0.07207997888326645,0.0018325417768210173,-0.26999449729919434
1667267002234336300,1.753336181640625,-0.08307522535324097,0.010995250195264816,-0.21379654109477997
1667267002236734000,1.75573388671875,-0.0922379344701767,0.012827792204916477,-0.15943112969398499
1667267002239132000,1.7581318359375,-0.09468132257461548,0.01038440316915512,-0.09895725548267365
1667267002241529600,1.760529541015625,-0.09956810623407364,0.00916270911693573,-0.04031591862440109
1667267002243927300,1.76292724609375,-0.10078980028629303,0.006108472589403391,0.02076880633831024
1667267002246325000,1.765324951171875,-0.09651386737823486,0.0006108472589403391,0.08368607610464096
1667267002248722700,1.76772265625,-0.0910162404179573,-0.006108472589403391,0.1441599577665329
1667267002251120600,1.77012060546875,-0.08490777015686035,-0.011606098152697086,0.20585553348064423
1667267002253518300,1.772518310546875,-0.07757759839296341,-0.018936265259981155,0.26816195249557495
1667267002255916000,1.774916015625,-0.06719319522380829,-0.029320668429136276,0.3268032968044281
1667267002258313700,1.777313720703125,-0.05803048983216286,-0.03787253051996231,0.38605546951293945
1667267002260711400,1.77971142578125,-0.04581354558467865,-0.054365407675504684,0.43981003761291504
1667267002263109400,1.782109375,-0.033596597611904144,-0.06780404597520828,0.4953971207141876
1667267002265507000,1.784507080078125,-0.02504473738372326,-0.07574506103992462,0.5473191738128662
1667267002267904800,1.78690478515625,-0.018936265259981155,-0.08674030750989914,0.5980194807052612
1667267002270302500,1.789302490234375,-0.014049487188458443,-0.10201149433851242,0.648108959197998
1667267002272700400,1.791700439453125,-0.013438640162348747,-0.11545012891292572,0.6927008032798767
1667267002275098000,1.79409814453125,-0.017714571207761765,-0.13377554714679718,0.7342383861541748
1667267002277495800,1.796495849609375,-0.021379653364419937,-0.15515519678592682,0.7721109390258789
1667267002279893500,1.7988935546875,-0.029320668429136276,-0.17714570462703705,0.8063184022903442
1667267002282291200,1.801291259765625,-0.03787253051996231,-0.20096874237060547,0.8393041491508484
1667267002284689200,1.803689208984375,-0.04886778071522713,-0.22784602642059326,0.8643488883972168
1667267002287086800,1.8060869140625,-0.06169557198882103,-0.25594499707221985,0.8863393664360046
1667267002289484500,1.808484619140625,-0.07574506103992462,-0.28404396772384644,0.9052756428718567
1667267002291882200,1.81088232421875,-0.08857285231351852,-0.312142938375473,0.92054682970047
1667267002294280000,1.813280029296875,-0.10262233763933182,-0.3365768492221832,0.9327637553215027
1667267002296678000,1.815677978515625,-0.11545012891292572,-0.36162158846855164,0.938872218132019
1667267002299075600,1.81807568359375,-0.12644538283348083,-0.3823903799057007,0.9449806809425354
1667267002301473300,1.820473388671875,-0.13866232335567474,-0.39888325333595276,0.9504783153533936
1667267002303871000,1.82287109375,-0.15149012207984924,-0.41293275356292725,0.9535325765609741
1667267002306268700,1.8252685546875,-0.16065283119678497,-0.4214846193790436,0.9553651213645935
1667267002308666600,1.82766650390625,-0.1692046970129013,-0.42698222398757935,0.9565867781639099
1667267002311064300,1.830064208984375,-0.17592400312423706,-0.4300364851951599,0.9565867781639099
1667267002313462000,1.8324619140625,-0.182643324136734,-0.4294256269931793,0.9578084945678711
1667267002315859700,1.834859619140625,-0.18630841374397278,-0.42514967918395996,0.9602518677711487
1667267002318257400,1.83725732421875,-0.18753011524677277,-0.4220954477787018,0.9620844125747681
1667267002320655400,1.8396552734375,-0.18875180184841156,-0.4202629029750824,0.9645278453826904
1667267002323053000,1.842052978515625,-0.18630841374397278,-0.4159869849681854,0.966971218585968
1667267002325450800,1.84445068359375,-0.18142163753509521,-0.41232189536094666,0.9736905097961426
1667267002327848400,1.846848388671875,-0.17531315982341766,-0.4092676639556885,0.9804098606109619
1667267002330246100,1.84924609375,-0.16798299551010132,-0.40071579813957214,0.9895725846290588
1667267002332644000,1.85164404296875,-0.16187451779842377,-0.3897205591201782,0.9981244206428528
1667267002335041800,1.854041748046875,-0.15393351018428802,-0.37689274549484253,1.0091196298599243
1667267002337439500,1.856439453125,-0.1453816443681717,-0.3567348122596741,1.022558331489563
1667267002339837200,1.858837158203125,-0.14049486815929413,-0.33291175961494446,1.0366077423095703
1667267002342235000,1.86123486328125,-0.13682979345321655,-0.30603447556495667,1.054322361946106
1667267002344632800,1.8636328125,-0.129499614238739,-0.27915719151496887,1.0720369815826416
1667267002347030500,1.866030517578125,-0.12705622613430023,-0.2516690790653229,1.0873081684112549
1667267002349428200,1.86842822265625,-0.12461283802986145,-0.22601348161697388,1.1038010120391846
1667267002351826000,1.870825927734375,-0.12339114397764206,-0.20096874237060547,1.1202938556671143
1667267002354223600,1.8732236328125,-0.12216944992542267,-0.17348061501979828,1.132510781288147
1667267002356621600,1.87562158203125,-0.12216944992542267,-0.15210096538066864,1.1422843933105469
1667267002359019300,1.878019287109375,-0.12461283802986145,-0.129499614238739,1.151447057723999
1667267002361417000,1.8804169921875,-0.12644538283348083,-0.10201149433851242,1.156944751739502
1667267002363814700,1.882814697265625,-0.12888877093791962,-0.07757759839296341,1.1618314981460571
1667267002366212600,1.885212646484375,-0.1313321590423584,-0.05131116881966591,1.1636639833450317
1667267002368610300,1.8876103515625,-0.1319430023431778,-0.02504473738372326,1.1673290729522705
1667267002371008000,1.890008056640625,-0.1325538605451584,0.0018325417768210173,1.165496587753296
1667267002373405700,1.89240576171875,-0.1325538605451584,0.026877280324697495,1.161220669746399
1667267002375803400,1.894803466796875,-0.129499614238739,0.04825693368911743,1.1575555801391602
1667267002378201300,1.897201416015625,-0.12705622613430023,0.07024743407964706,1.151447057723999
1667267002380599000,1.89959912109375,-0.12522368133068085,0.0922379344701767,1.1435060501098633
1667267002382996700,1.901996826171875,-0.11972606182098389,0.11239589750766754,1.1331216096878052
1667267002385394400,1.90439453125,-0.11667182296514511,0.1325538605451584,1.119683027267456
1667267002387792100,1.906792236328125,-0.11422843486070633,0.15210096538066864,1.1080769300460815
1667267002390189800,1.90918994140625,-0.11056335270404816,0.1716480851173401,1.0940274000167847
1667267002392587800,1.911587890625,-0.10995250940322876,0.18753011524677277,1.0763128995895386
1667267002394985500,1.9139853515625,-0.11117420345544815,0.20157960057258606,1.0592091083526611
1667267002397383200,1.916383056640625,-0.10934165865182877,0.21379654109477997,1.0396620035171509
1667267002399780900,1.91878076171875,-0.11239589750766754,0.2241809368133545,1.018282413482666
1667267002402178600,1.921178466796875,-0.11483928561210632,0.23334364593029022,0.9938485026359558
1667267002404576500,1.923576416015625,-0.11911521852016449,0.24128466844558716,0.9663603901863098
1667267002406974200,1.92597412109375,-0.12827792763710022,0.24678228795528412,0.939483106136322
1667267002409372000,1.928371826171875,-0.13621893525123596,0.25472331047058105,0.9150491952896118
1667267002411769600,1.93076953125,-0.14721418917179108,0.2608317732810974,0.8857285380363464
1667267002414167600,1.93316748046875,-0.16004198789596558,0.26755109429359436,0.8600729703903198
1667267002416565200,1.935565185546875,-0.17348061501979828,0.2748812735080719,0.8338065147399902
1667267002418963000,1.937962890625,-0.18753011524677277,0.28160059452056885,0.8069292306900024
1667267002421360600,1.940360595703125,-0.20035789906978607,0.28221142292022705,0.7812736630439758
1667267002423758300,1.94275830078125,-0.21623992919921875,0.28098973631858826,0.7537854909896851
1667267002426156300,1.94515625,-0.23212195932865143,0.28037887811660767,0.7299624681472778
1667267002428554000,1.947553955078125,-0.24678228795528412,0.2773246467113495,0.7061394453048706
1667267002430951700,1.94995166015625,-0.2626643180847168,0.2748812735080719,0.6829272508621216
1667267002433349400,1.952349365234375,-0.27915719151496887,0.2724378705024719,0.6584933400154114
1667267002435747000,1.9547470703125,-0.2919849753379822,0.26877278089523315,0.6377245187759399
1667267002438145000,1.95714501953125,-0.30725616216659546,0.2724378705024719,0.6175665855407715
1667267002440542700,1.959542724609375,-0.32252734899520874,0.2730487287044525,0.5992411375045776
1667267002442940400,1.9619404296875,-0.33474430441856384,0.27915719151496887,0.5821374654769897
1667267002445338000,1.964338134765625,-0.34818294644355774,0.28221142292022705,0.5705313682556152
1667267002447735800,1.96673583984375,-0.35856732726097107,0.2895416021347046,0.5558710098266602
1667267002450133800,1.9691337890625,-0.367730051279068,0.29565006494522095,0.546097457408905
1667267002452531500,1.971531494140625,-0.3793361485004425,0.30725616216659546,0.5393781065940857
1667267002454929200,1.97392919921875,-0.38666632771492004,0.31886225938796997,0.5351021885871887
1667267002457326800,1.976326904296875,-0.393385648727417,0.33169007301330566,0.5332696437835693
1667267002459724800,1.978724853515625,-0.3958290219306946,0.34512871503829956,0.5338805317878723
1667267002462122500,1.98112255859375,-0.39888325333595276,0.3536805510520935,0.5363239049911499
1667267002464520200,1.983520263671875,-0.40132665634155273,0.36284327507019043,0.5387672781944275
1667267002466918000,1.98591796875,-0.39766156673431396,0.3689517378807068,0.5424323678016663
1667267002469315600,1.988315673828125,-0.393385648727417,0.367730051279068,0.5491516590118408
1667267002471713500,1.990713623046875,-0.38666632771492004,0.35978904366493225,0.5558710098266602
1667267002474111200,1.993111328125,-0.3787252902984619,0.3432961702346802,0.5601469278335571
1667267002476509000,1.995509033203125,-0.37139514088630676,0.32252734899520874,0.5674771070480347
1667267002478906600,1.99790673828125,-0.35978904366493225,0.29687178134918213,0.5741963982582092
1667267002481304300,2.00030419921875,-0.34940463304519653,0.26816195249557495,0.5796940326690674
1667267002483702300,2.002702392578125,-0.33596599102020264,0.23273280262947083,0.5864133834838867
1667267002486100000,2.005099853515625,-0.32008397579193115,0.1966928243637085,0.5943543910980225
1667267002488497700,2.00749755859375,-0.3042019307613373,0.1588202863931656,0.6022953987121582
1667267002490895400,2.009895263671875,-0.2901524603366852,0.1172826737165451,0.6096255779266357
1667267002493293000,2.01229296875,-0.2742704153060913,0.07574506103992462,0.6187883019447327
1667267002495691000,2.01469091796875,-0.2608317732810974,0.03298575058579445,0.6273401379585266
1667267002498088700,2.017088623046875,-0.24494975805282593,-0.004275931045413017,0.6346703171730042
1667267002500486400,2.019486328125,-0.23212195932865143,-0.04092676565051079,0.6444438695907593
1667267002502884000,2.021884033203125,-0.22051586210727692,-0.07757759839296341,0.6554391384124756
1667267002505281800,2.02428173828125,-0.20707722008228302,-0.10934165865182877,0.6670452356338501
1667267002507679700,2.0266796875,-0.1960819661617279,-0.13927318155765533,0.6786513328552246
1667267002510077400,2.029077392578125,-0.183865025639534,-0.16370706260204315,0.6890357136726379
1667267002512475100,2.03147509765625,-0.17409147322177887,-0.18875180184841156,0.6994200944900513
1667267002514872800,2.033872802734375,-0.16798299551010132,-0.20768806338310242,0.7116370797157288
1667267002517270800,2.036270751953125,-0.16004198789596558,-0.2211267054080963,0.7250757217407227
1667267002519668500,2.03866845703125,-0.15393351018428802,-0.2363978922367096,0.7391251921653748
1667267002522066200,2.041066162109375,-0.1459924876689911,-0.24678228795528412,0.7501204609870911
1667267002524463900,2.0434638671875,-0.14110571146011353,-0.2510582208633423,0.7611156702041626
1667267002526861600,2.045861572265625,-0.13377554714679718,-0.25350162386894226,0.7721109390258789
1667267002529259300,2.04825927734375,-0.1301104724407196,-0.2516690790653229,0.7788302302360535
1667267002531657200,2.0506572265625,-0.12705622613430023,-0.2492256760597229,0.7849387526512146
1667267002534055000,2.053054931640625,-0.12339114397764206,-0.24617144465446472,0.7892146706581116
1667267002536452600,2.05545263671875,-0.12094775587320328,-0.24189551174640656,0.791047215461731
1667267002538850300,2.057850341796875,-0.12033691257238388,-0.23945212364196777,0.7879929542541504
1667267002541248000,2.060248046875,-0.12216944992542267,-0.23823043704032898,0.7843278646469116
1667267002543646000,2.06264599609375,-0.12339114397764206,-0.24189551174640656,0.7776085734367371
1667267002546043600,2.065043701171875,-0.12400199472904205,-0.24372805655002594,0.7696675658226013
1667267002548441300,2.06744140625,-0.12583453953266144,-0.2522799074649811,0.7617265582084656
1667267002550839000,2.069839111328125,-0.12705622613430023,-0.25777754187583923,0.7519529461860657
1667267002553236700,2.07223681640625,-0.12644538283348083,-0.2608317732810974,0.7415685653686523
1667267002555634700,2.074634765625,-0.12461283802986145,-0.26694026589393616,0.7299624681472778
1667267002558032400,2.077032470703125,-0.12155860662460327,-0.26694026589393616,0.7207997441291809
1667267002560430000,2.07943017578125,-0.11606097966432571,-0.2632751762866974,0.7091936469078064
1667267002562827800,2.081827880859375,-0.11178504675626755,-0.2583884000778198,0.6981984376907349
1667267002565225700,2.084225830078125,-0.1044548824429512,-0.25411245226860046,0.6865923404693604
1667267002567623400,2.08662353515625,-0.09773556143045425,-0.2480039894580841,0.6743753552436829
1667267002570021000,2.089021240234375,-0.08796200156211853,-0.24372805655002594,0.6646018028259277
1667267002572418800,2.091418701171875,-0.0794101431965828,-0.24250635504722595,0.6493306159973145
1667267002574816500,2.09381640625,-0.07024743407964706,-0.24494975805282593,0.6358919739723206
1667267002577214500,2.09621435546875,-0.061084724962711334,-0.2510582208633423,0.6218425035476685
1667267002579612200,2.098612060546875,-0.05131116881966591,-0.25777754187583923,0.6084038615226746
1667267002582009900,2.101009765625,-0.042759306728839874,-0.26755109429359436,0.5967977643013
1667267002584407600,2.103407470703125,-0.03420744836330414,-0.28037887811660767,0.5851916670799255
1667267002586805200,2.10580517578125,-0.02504473738372326,-0.29626092314720154,0.5723638534545898
1667267002589203200,2.108203125,-0.01832541823387146,-0.31031039357185364,0.5656445622444153
1667267002591601000,2.110600830078125,-0.011606098152697086,-0.3304683566093445,0.5583143830299377
1667267002593998600,2.11299853515625,-0.006108472589403391,-0.3518480062484741,0.5509842038154602
1667267002596396300,2.115396240234375,-0.0018325417768210173,-0.37444937229156494,0.546097457408905
1667267002598794000,2.1177939453125,0.0036650835536420345,-0.39888325333595276,0.5418215394020081
1667267002601192000,2.12019189453125,0.004275931045413017,-0.4220954477787018,0.5381564497947693
1667267002603589600,2.122589599609375,0.005497625097632408,-0.44103172421455383,0.5363239049911499
1667267002605987300,2.1249873046875,0.004886778071522713,-0.4587462842464447,0.5326588153839111
1667267002608385000,2.127385009765625,0.0024433890357613564,-0.4703523814678192,0.53143709897995
1667267002610783000,2.129782958984375,0.0024433890357613564,-0.4734066128730774,0.5289937257766724
1667267002613180700,2.1321806640625,0,-0.4727957844734192,0.5283828973770142
1667267002615578400,2.134578369140625,-0.0036650835536420345,-0.4691306948661804,0.53143709897995
1667267002617976000,2.13697607421875,-0.010995250195264816,-0.4575245976448059,0.5351021885871887
1667267002620373800,2.139373779296875,-0.022601349279284477,-0.4306473135948181,0.5454866290092468
1667267002622771700,2.141771728515625,-0.0397050715982914,-0.3958290219306946,0.5589252710342407
1667267002625169400,2.14416943359375,-0.05741964280605316,-0.37261682748794556,0.5686988234519958
1667267002627567000,2.146567138671875,-0.07024743407964706,-0.3640649616718292,0.578472375869751
1667267002629964800,2.14896484375,-0.08063183724880219,-0.3658975064754486,0.5888567566871643
1667267002632362500,2.151362548828125,-0.08612946420907974,-0.3683409094810486,0.5961869359016418
1667267002634760400,2.153760498046875,-0.09284878522157669,-0.3646758198738098,0.6041279435157776
1667267002637158100,2.156158203125,-0.09773556143045425,-0.35978904366493225,0.6151232123374939
1667267002639555800,2.158555908203125,-0.10078980028629303,-0.3512371778488159,0.6261184215545654
1667267002641953500,2.16095361328125,-0.1050657257437706,-0.342074453830719,0.6401679515838623
1667267002644351200,2.163351318359375,-0.10995250940322876,-0.33352261781692505,0.6536065936088562
1667267002646749200,2.165749267578125,-0.1178935244679451,-0.3243598937988281,0.6682668924331665
1667267002649147000,2.16814697265625,-0.12522368133068085,-0.30969956517219543,0.684148907661438
1667267002651544600,2.170544677734375,-0.13682979345321655,-0.2870981991291046,0.7024743556976318
1667267002653942300,2.1729423828125,-0.15393351018428802,-0.25655585527420044,0.7189671993255615
1667267002656340000,2.175340087890625,-0.1692046970129013,-0.23945212364196777,0.7372926473617554
1667267002658738000,2.177738037109375,-0.182643324136734,-0.21990501880645752,0.7519529461860657
1667267002661135600,2.180135498046875,-0.19058434665203094,-0.1960819661617279,0.7660024762153625
1667267002663533300,2.182533203125,-0.19302773475646973,-0.16615045070648193,0.7800519466400146
1667267002665931000,2.184930908203125,-0.19180603325366974,-0.12583453953266144,0.790436327457428
1667267002668329000,2.187328857421875,-0.1850867122411728,-0.08429691940546036,0.8008207678794861
1667267002670726700,2.1897265625,-0.17592400312423706,-0.03176405653357506,0.8075400590896606
1667267002673124400,2.192124267578125,-0.16431790590286255,0.02076880633831024,0.81425940990448
1667267002675522000,2.19452197265625,-0.15149012207984924,0.07391251623630524,0.8209787011146545
1667267002677919700,2.196919677734375,-0.1423274129629135,0.12339114397764206,0.8228112459182739
1667267002680317700,2.199317626953125,-0.129499614238739,0.16309621930122375,0.8209787011146545
1667267002682715400,2.20171533203125,-0.11606097966432571,0.1948602795600891,0.8148702383041382
1667267002685113000,2.204113037109375,-0.10140064358711243,0.21440738439559937,0.8050966858863831
1667267002687510800,2.2065107421875,-0.08918370306491852,0.2339545041322708,0.791047215461731
1667267002689908500,2.208908447265625,-0.0787992998957634,0.25289076566696167,0.7751652002334595
1667267002692306400,2.211306396484375,-0.07024743407964706,0.2724378705024719,0.7507312893867493
1667267002694704000,2.2137041015625,-0.06291726976633072,0.29565006494522095,0.726908266544342
1667267002697101800,2.216101806640625,-0.05864133685827255,0.32008397579193115,0.6969767212867737
1667267002699499500,2.21849951171875,-0.0525328628718853,0.34635040163993835,0.6694886088371277
1667267002701897200,2.220897216796875,-0.05131116881966591,0.3781144618988037,0.6358919739723206
1667267002704295000,2.223294921875,-0.047646086663007736,0.41354358196258545,0.5986303091049194
1667267002706692900,2.22569287109375,-0.04581354558467865,0.4428642690181732,0.5625903010368347
1667267002709090600,2.228090576171875,-0.04092676565051079,0.4752391576766968,0.522885262966156
1667267002711488300,2.23048828125,-0.034818295389413834,0.5051707029342651,0.47768256068229675
1667267002713886200,2.23288623046875,-0.029320668429136276,0.5338805317878723,0.4324798583984375
1667267002716284000,2.235283935546875,-0.021990500390529633,0.5607577562332153,0.38483378291130066
1667267002718681600,2.237681640625,-0.013438640162348747,0.5888567566871643,0.33718767762184143
1667267002721079300,2.240079345703125,-0.006719320081174374,0.6157340407371521,0.288930743932724
1667267002723477000,2.24247705078125,0,0.6383354067802429,0.24372805655002594
1667267002725874700,2.244874755859375,0.007330167107284069,0.6572716236114502,0.20096874237060547
1667267002728272600,2.247272705078125,0.013438640162348747,0.6719319820404053,0.1575985997915268
1667267002730670300,2.24967041015625,0.015271181240677834,0.684148907661438,0.1178935244679451
1667267002733068000,2.252068115234375,0.017714571207761765,0.7000309824943542,0.08185353130102158
1667267002735465700,2.2544658203125,0.01832541823387146,0.7085828185081482,0.05375456064939499
1667267002737863400,2.256863525390625,0.01710372418165207,0.712247908115387,0.024433890357613564
1667267002740261400,2.259261474609375,0.010995250195264816,0.7116370797157288,0.0036650835536420345
1667267002742659000,2.2616591796875,0.005497625097632408,0.7085828185081482,-0.010995250195264816
1667267002745056800,2.264056884765625,-0.004886778071522713,0.70308518409729,-0.025655584409832954
1667267002747454500,2.266454345703125,-0.017714571207761765,0.7018635272979736,-0.03176405653357506
1667267002749852200,2.26885205078125,-0.03298575058579445,0.7006418108940125,-0.03298575058579445
1667267002752250000,2.27125,-0.04825693368911743,0.70797199010849,-0.02504473738372326
1667267002754647800,2.273647705078125,-0.0653606578707695,0.7116370797157288,-0.01588202826678753
1667267002757045500,2.27604541015625,-0.08307522535324097,0.7140804529190063,-0.0012216945178806782
1667267002759443200,2.278443115234375,-0.09773556143045425,0.7140804529190063,0.014660334214568138
1667267002761841200,2.280841064453125,-0.11361759155988693,0.712247908115387,0.034818295389413834
1667267002764238800,2.28323876953125,-0.129499614238739,0.7049177289009094,0.05497625470161438
1667267002766636500,2.285636474609375,-0.14843589067459106,0.6920899152755737,0.07635590434074402
1667267002769034200,2.2880341796875,-0.16859383881092072,0.679872989654541,0.0922379344701767
1667267002771432000,2.290431884765625,-0.18814095854759216,0.6639909744262695,0.11117420345544815
1667267002773830000,2.292829833984375,-0.21318569779396057,0.6432221531867981,0.12644538283348083
1667267002776227600,2.2952275390625,-0.24250635504722595,0.6200099587440491,0.13988402485847473
1667267002778625300,2.297625244140625,-0.2736595869064331,0.5961869359016418,0.15210096538066864
1667267002781023000,2.30002294921875,-0.3023693859577179,0.5741963982582092,0.16248537600040436
1667267002783420700,2.302420654296875,-0.3255815804004669,0.5564818382263184,0.16859383881092072
1667267002785818600,2.304818603515625,-0.34451785683631897,0.5479300022125244,0.17348061501979828
1667267002788216300,2.30721630859375,-0.3567348122596741,0.5442649126052856,0.18019993603229523
1667267002790614000,2.309614013671875,-0.3646758198738098,0.5442649126052856,0.1832541823387146
1667267002793011700,2.31201171875,-0.3665083646774292,0.5522059202194214,0.1850867122411728
1667267002795409400,2.314409423828125,-0.36162158846855164,0.5644228458404541,0.18753011524677277
1667267002797807400,2.316807373046875,-0.34940463304519653,0.5815265774726868,0.18630841374397278
1667267002800205000,2.319205078125,-0.3298575282096863,0.5974085927009583,0.1850867122411728
1667267002802602800,2.321602783203125,-0.30786702036857605,0.6120689511299133,0.1832541823387146
1667267002805000400,2.32400048828125,-0.27915719151496887,0.624896764755249,0.1820324808359146
1667267002807398100,2.326398193359375,-0.2480039894580841,0.6328377723693848,0.17653486132621765
1667267002809796000,2.328796142578125,-0.21440738439559937,0.6340594291687012,0.17348061501979828
1667267002812193800,2.33119384765625,-0.17958909273147583,0.6303943991661072,0.1704263836145401
1667267002814591500,2.333591552734375,-0.14965757727622986,0.6200099587440491,0.16615045070648193
1667267002816989200,2.3359892578125,-0.12339114397764206,0.6029062271118164,0.16553960740566254
1667267002819387100,2.33838720703125,-0.10262233763933182,0.5876350402832031,0.16553960740566254
1667267002821784800,2.340784912109375,-0.10689827054738998,0.5741963982582092,0.17592400312423706
1667267002824182500,2.3431826171875,-0.12705622613430023,0.5723638534545898,0.19058434665203094
1667267002826580200,2.345580322265625,-0.1453816443681717,0.5851916670799255,0.2101314514875412
1667267002828978000,2.34797802734375,-0.16553960740566254,0.605960488319397,0.23028941452503204
1667267002831376000,2.3503759765625,-0.18630841374397278,0.6407787799835205,0.25289076566696167
1667267002833773600,2.352773681640625,-0.2095206081867218,0.6853706240653992,0.27976804971694946
1667267002836171300,2.355171142578125,-0.22967857122421265,0.7415685653686523,0.30725616216659546
1667267002838569000,2.35756884765625,-0.2504473626613617,0.8026533126831055,0.33535513281822205
1667267002840966700,2.359966552734375,-0.26755109429359436,0.8661814332008362,0.3658975064754486
1667267002843364600,2.362364501953125,-0.28037887811660767,0.9333745837211609,0.39643988013267517
1667267002845762300,2.36476220703125,-0.288930743932724,0.9932376146316528,0.42881476879119873
1667267002848160000,2.367159912109375,-0.2901524603366852,1.0549331903457642,0.46363306045532227
1667267002850557700,2.3695576171875,-0.2895416021347046,1.110520362854004,0.497229665517807
1667267002852955400,2.371955322265625,-0.28160059452056885,1.1667182445526123,0.5338805317878723
1667267002855353300,2.374353271484375,-0.27121618390083313,1.220472812652588,0.5723638534545898
1667267002857751000,2.3767509765625,-0.25777754187583923,1.2699514627456665,0.6120689511299133
1667267002860148700,2.379148681640625,-0.24250635504722595,1.3163758516311646,0.6542174220085144
1667267002862546400,2.38154638671875,-0.22479179501533508,1.364098310470581,0.6945333480834961
1667267002864944400,2.3839443359375,-0.20585553348064423,1.4080792665481567,0.735460102558136
1667267002867342000,2.386342041015625,-0.183865025639534,1.450838565826416,0.7757760286331177
1667267002869739800,2.38873974609375,-0.16248537600040436,1.4905437231063843,0.8154810667037964
1667267002872137500,2.391137451171875,-0.13927318155765533,1.530248761177063,0.8539644479751587
1667267002874535200,2.39353515625,-0.11972606182098389,1.5626236200332642,0.8912261724472046
1667267002876933000,2.39593310546875,-0.10201149433851242,1.589500904083252,0.9242119193077087
1667267002879330800,2.398330810546875,-0.08674030750989914,1.612713098526001,0.9559759497642517
1667267002881728500,2.400728515625,-0.07696675509214401,1.6304277181625366,0.9816315174102783
1667267002884126200,2.403126220703125,-0.06780404597520828,1.6395903825759888,1.0048437118530273
1667267002886524000,2.40552392578125,-0.05986303091049194,1.640201210975647,1.0243908166885376
1667267002888921900,2.407921875,-0.055587101727724075,1.6285951137542725,1.0408837795257568
1667267002891319600,2.410319580078125,-0.05375456064939499,1.6035504341125488,1.0512681007385254
1667267002893717200,2.41271728515625,-0.05131116881966591,1.5626236200332642,1.0598199367523193
1667267002896115000,2.415114990234375,-0.04947862774133682,1.5064257383346558,1.0653176307678223
1667267002898512600,2.4175126953125,-0.04581354558467865,1.4367891550064087,1.0702043771743774
1667267002900910600,2.41991064453125,-0.04337015375494957,1.3476054668426514,1.0720369815826416
1667267002903308300,2.422308349609375,-0.04153761267662048,1.2473500967025757,1.0738694667816162
1667267002905706000,2.4247060546875,-0.037261683493852615,1.13800847530365,1.0720369815826416
1667267002908103700,2.427103759765625,-0.03298575058579445,1.0207257270812988,1.0708152055740356
1667267002910501400,2.42950146484375,-0.029320668429136276,0.8979454636573792,1.0659284591674805
1667267002912899300,2.4318994140625,-0.02504473738372326,0.7721109390258789,1.0598199367523193
1667267002915297000,2.434297119140625,-0.020157959312200546,0.6456655263900757,1.0524898767471313
1667267002917694700,2.43669482421875,-0.01710372418165207,0.5234960913658142,1.0451596975326538
1667267002920092400,2.439092529296875,-0.012216945178806782,0.40254834294319153,1.0378295183181763
1667267002922490400,2.441490478515625,-0.006108472589403391,0.2877090573310852,1.0317209959030151
1667267002924888000,2.44388818359375,0.0018325417768210173,0.18019993603229523,1.0256125926971436
1667267002927285800,2.44628564453125,0.01038440316915512,0.07574506103992462,1.0219475030899048
1667267002929683500,2.448683349609375,0.01954711228609085,-0.021379653364419937,1.018282413482666
1667267002932081200,2.4510810546875,0.02993151545524597,-0.11056335270404816,1.01706063747406
1667267002934479000,2.45347900390625,0.04214845970273018,-0.1966928243637085,1.01706063747406
1667267002936876800,2.455876708984375,0.05619794875383377,-0.2736595869064331,1.0219475030899048
1667267002939274500,2.4582744140625,0.07146912813186646,-0.34573954343795776,1.0262234210968018
1667267002941672200,2.460672119140625,0.08918370306491852,-0.41354358196258545,1.0323318243026733
1667267002944070000,2.46306982421875,0.1056765764951706,-0.4734066128730774,1.040272831916809
1667267002946467800,2.4654677734375,0.12339114397764206,-0.5302154421806335,1.0445488691329956
1667267002948865500,2.467865478515625,0.14110571146011353,-0.578472375869751,1.0531007051467896
1667267002951263200,2.47026318359375,0.1575985997915268,-0.6193991303443909,1.0622633695602417
1667267002953661000,2.472660888671875,0.17286977171897888,-0.6578825116157532,1.0726478099822998
1667267002956058600,2.47505859375,0.18753011524677277,-0.6896465420722961,1.081810474395752
1667267002958456600,2.47745654296875,0.20035789906978607,-0.7171346545219421,1.0934165716171265
1667267002960854300,2.479854248046875,0.2101314514875412,-0.7391251921653748,1.1038010120391846
1667267002963252000,2.482251953125,0.21807247400283813,-0.7592831254005432,1.1080769300460815
1667267002965649700,2.484649658203125,0.22540263831615448,-0.7751652002334595,1.1178505420684814
1667267002968047400,2.48704736328125,0.22723518311977386,-0.786160409450531,1.1251806020736694
1667267002970445300,2.4894453125,0.23151111602783203,-0.7928797602653503,1.1270132064819336
1667267002972843000,2.491843017578125,0.23151111602783203,-0.7995990514755249,1.1300674676895142
1667267002975240700,2.49424072265625,0.22845686972141266,-0.8020424246788025,1.1300674676895142
1667267002977638400,2.496638427734375,0.2235700935125351,-0.8020424246788025,1.1276240348815918
1667267002980036400,2.499036376953125,0.21929416060447693,-0.8002098798751831,1.1215155124664307
1667267002982434000,2.50143408203125,0.2113531529903412,-0.7965448498725891,1.111131191253662
1667267002984831700,2.503831787109375,0.20463383197784424,-0.7977665066719055,1.0995250940322876
1667267002987229400,2.5062294921875,0.1954711228609085,-0.7959339618682861,1.0842539072036743
1667267002989627100,2.508627197265625,0.18691925704479218,-0.7959339618682861,1.0616525411605835
1667267002992025000,2.511025146484375,0.17653486132621765,-0.7995990514755249,1.040272831916809
1667267002994422800,2.5134228515625,0.16859383881092072,-0.8032641410827637,1.0158389806747437
1667267002996820500,2.515820556640625,0.1563768982887268,-0.8081509470939636,0.9877400398254395
1667267002999218200,2.51821826171875,0.14782503247261047,-0.8167027831077576,0.9578084945678711
1667267003001616000,2.520615966796875,0.14171656966209412,-0.8276980519294739,0.9266552925109863
1667267003004013800,2.523013916015625,0.13621893525123596,-0.836860716342926,0.8918370008468628
1667267003006411500,2.52541162109375,0.13377554714679718,-0.8478559851646423,0.8551861643791199
1667267003008809200,2.527809326171875,0.12827792763710022,-0.8576295375823975,0.818535327911377
1667267003011207000,2.53020703125,0.12827792763710022,-0.869846522808075,0.7831062078475952
1667267003013604600,2.5326044921875,0.129499614238739,-0.8826742768287659,0.7446228265762329
1667267003016002600,2.53500244140625,0.12766708433628082,-0.897334635257721,0.7067502737045288
1667267003018400300,2.537400146484375,0.1313321590423584,-0.9126058220863342,0.6688777208328247
1667267003020798000,2.5397978515625,0.13682979345321655,-0.9278770089149475,0.6297835111618042
1667267003023195600,2.542195556640625,0.14171656966209412,-0.9419264793395996,0.5882459282875061
1667267003025593600,2.544593505859375,0.14721418917179108,-0.9553651213645935,0.5497625470161438
1667267003027991300,2.5469912109375,0.15454435348510742,-0.9706363081932068,0.5118899941444397
1667267003030389000,2.549388916015625,0.16065283119678497,-0.9840749502182007,0.4746283292770386
1667267003032786700,2.55178662109375,0.16737215220928192,-0.9956810474395752,0.43919917941093445
1667267003035184400,2.554184326171875,0.17409147322177887,-1.009730577468872,0.4037700295448303
1667267003037582300,2.556582275390625,0.18081079423427582,-1.0201148986816406,0.37078428268432617
1667267003039980000,2.55897998046875,0.18875180184841156,-1.0298885107040405,0.3384093940258026
1667267003042377700,2.561377685546875,0.1948602795600891,-1.0378295183181763,0.30664533376693726
1667267003044775400,2.563775390625,0.20219044387340546,-1.0445488691329956,0.2773246467113495
1667267003047173000,2.566173095703125,0.20646637678146362,-1.0494356155395508,0.2516690790653229
1667267003049571000,2.568571044921875,0.2095206081867218,-1.0518789291381836,0.2235700935125351
1667267003051968800,2.57096875,0.21379654109477997,-1.050046443939209,0.20157960057258606
1667267003054366500,2.573366455078125,0.21562908589839935,-1.0506572723388672,0.17897824943065643
1667267003056764200,2.57576416015625,0.21746163070201874,-1.0427162647247314,0.1575985997915268
1667267003059161900,2.578161865234375,0.22051586210727692,-1.0317209959030151,0.13866232335567474
1667267003061559800,2.580559814453125,0.2229592502117157,-1.0213366746902466,0.12339114397764206
1667267003063957500,2.58295751953125,0.22601348161697388,-1.0042328834533691,0.10873081535100937
1667267003066355200,2.585355224609375,0.22723518311977386,-0.9785773158073425,0.09407047927379608
1667267003068753000,2.5877529296875,0.22479179501533508,-0.943759024143219,0.08002099394798279
1667267003071150600,2.590150634765625,0.21807247400283813,-0.8997780084609985,0.06169557198882103
1667267003073548500,2.592548583984375,0.208298921585083,-0.8502993583679199,0.046424392610788345
1667267003075946200,2.5949462890625,0.20035789906978607,-0.7953231334686279,0.026877280324697495
1667267003078344000,2.597343994140625,0.19180603325366974,-0.7385143637657166,0.008551862090826035
1667267003080741600,2.59974169921875,0.182643324136734,-0.6762079000473022,-0.010995250195264816
1667267003083139600,2.6021396484375,0.17409147322177887,-0.6114581227302551,-0.03237490355968475
1667267003085537300,2.604537353515625,0.16737215220928192,-0.5412106513977051,-0.0525328628718853
1667267003087935000,2.60693505859375,0.16126367449760437,-0.469741553068161,-0.07330167293548584
1667267003090332700,2.609332763671875,0.1569877415895462,-0.39949411153793335,-0.09651386737823486
1667267003092730600,2.611730712890625,0.15332266688346863,-0.3274141252040863,-0.11606097966432571
1667267003095128300,2.61412841796875,0.15149012207984924,-0.258999228477478,-0.13866232335567474
1667267003097526000,2.616526123046875,0.15026842057704926,-0.1960819661617279,-0.16187451779842377
1667267003099923700,2.618923828125,0.14843589067459106,-0.13744063675403595,-0.1844758689403534
1667267003102321400,2.6213212890625,0.14904673397541046,-0.07696675509214401,-0.20707722008228302
1667267003104719400,2.62371923828125,0.14965757727622986,-0.02870982140302658,-0.23273280262947083
1667267003107117000,2.626116943359375,0.14843589067459106,0.014660334214568138,-0.25716668367385864
1667267003109514800,2.6285146484375,0.15210096538066864,0.05070032179355621,-0.27915719151496887
1667267003111912400,2.630912353515625,0.15393351018428802,0.07757759839296341,-0.3017585575580597
1667267003114310100,2.63331005859375,0.1557660549879074,0.09590301662683487,-0.32313820719718933
1667267003116707800,2.635707763671875,0.1582094430923462,0.1050657257437706,-0.34512871503829956
1667267003119105800,2.638105712890625,0.16065283119678497,0.1044548824429512,-0.36284327507019043
1667267003121503500,2.64050341796875,0.16370706260204315,0.09590301662683487,-0.3799470067024231
1667267003123901200,2.642901123046875,0.16492876410484314,0.08002099394798279,-0.3958290219306946
1667267003126299000,2.645298828125,0.16492876410484314,0.05375456064939499,-0.4086568057537079
1667267003128696800,2.64769677734375,0.16248537600040436,0.023212196305394173,-0.4227063059806824
1667267003131094500,2.650094482421875,0.1582094430923462,-0.012216945178806782,-0.4300364851951599
1667267003133492200,2.6524921875,0.15393351018428802,-0.053143709897994995,-0.43614494800567627
1667267003135890000,2.654889892578125,0.1459924876689911,-0.09773556143045425,-0.444085955619812
1667267003138287900,2.657287841796875,0.13377554714679718,-0.14782503247261047,-0.4489727318286896
1667267003140685600,2.659685546875,0.11972606182098389,-0.1966928243637085,-0.45385950803756714
1667267003143083300,2.662083251953125,0.10384403169155121,-0.2498365342617035,-0.4556920528411865
1667267003145481000,2.66448095703125,0.08246438205242157,-0.3042019307613373,-0.4587462842464447
1667267003147878700,2.666878662109375,0.06169557198882103,-0.36284327507019043,-0.4593571424484253
1667267003150276600,2.669276611328125,0.036039989441633224,-0.420873761177063,-0.4593571424484253
1667267003152674300,2.67167431640625,0.005497625097632408,-0.4813476502895355,-0.4599680006504059
1667267003155072000,2.674072021484375,-0.023823043331503868,-0.5442649126052856,-0.46241137385368347
1667267003157469700,2.6764697265625,-0.05497625470161438,-0.605960488319397,-0.4605788290500641
1667267003159867400,2.678867431640625,-0.08735115826129913,-0.6676560640335083,-0.4599680006504059
1667267003162265300,2.681265380859375,-0.12155860662460327,-0.7324058413505554,-0.4599680006504059
1667267003164663000,2.6836630859375,-0.15393351018428802,-0.791047215461731,-0.4605788290500641
1667267003167060700,2.686060791015625,-0.18569757044315338,-0.8539644479751587,-0.4593571424484253
1667267003169458400,2.68845849609375,-0.21379654109477997,-0.9181034564971924,-0.4593571424484253
1667267003171856100,2.690856201171875,-0.24250635504722595,-0.9773555994033813,-0.4587462842464447
1667267003174254000,2.693254150390625,-0.26999449729919434,-1.0335536003112793,-0.4581354558467865
1667267003176651800,2.69565185546875,-0.29381752014160156,-1.0915840864181519,-0.45385950803756714
1667267003179049500,2.698049560546875,-0.3158080279827118,-1.1410627365112305,-0.45202696323394775
1667267003181447200,2.700447265625,-0.33413344621658325,-1.1874871253967285,-0.45019441843032837
1667267003183844900,2.702844970703125,-0.34879377484321594,-1.2284138202667236,-0.446529358625412
1667267003186242800,2.705242919921875,-0.36101073026657104,-1.2638429403305054,-0.44103172421455383
1667267003188640500,2.707640625,-0.3695625960826874,-1.2894985675811768,-0.4343124032020569
1667267003191038200,2.7100380859375,-0.3762819170951843,-1.309045672416687,-0.4294256269931793
1667267003193436000,2.712435791015625,-0.3805578351020813,-1.3224843740463257,-0.4220954477787018
1667267003195833900,2.714833740234375,-0.3830012381076813,-1.3298144340515137,-0.41415444016456604
1667267003198231600,2.7172314453125,-0.3805578351020813,-1.3298144340515137,-0.4056025743484497
1667267003200629200,2.719629150390625,-0.3762819170951843,-1.3224843740463257,-0.3970507085323334
1667267003203027000,2.72202685546875,-0.3689517378807068,-1.3059914112091064,-0.38727715611457825
1667267003205424600,2.724424560546875,-0.36101073026657104,-1.2870551347732544,-0.3775036036968231
1667267003207822600,2.726822509765625,-0.34940463304519653,-1.2589561939239502,-0.367730051279068
1667267003210220300,2.72922021484375,-0.33535513281822205,-1.225359559059143,-0.3542914092540741
1667267003212618000,2.731617919921875,-0.31825143098831177,-1.1899304389953613,-0.3439069986343384
1667267003215015700,2.734015625,-0.2999260127544403,-1.1496145725250244,-0.33352261781692505
1667267003217413400,2.736413330078125,-0.27854636311531067,-1.1031901836395264,-0.31947311758995056
1667267003219811300,2.738811279296875,-0.258999228477478,-1.0537115335464478,-0.30969956517219543
1667267003222209000,2.741208984375,-0.23212195932865143,-0.9969027042388916,-0.2987042963504791
1667267003224606700,2.743606689453125,-0.20463383197784424,-0.9358180165290833,-0.288930743932724
1667267003227004400,2.74600439453125,-0.18142163753509521,-0.8686248064041138,-0.28160059452056885
1667267003229402000,2.748402099609375,-0.1575985997915268,-0.7892146706581116,-0.27121618390083313
1667267003231800000,2.750800048828125,-0.1313321590423584,-0.707361102104187,-0.2644968628883362
1667267003234197800,2.75319775390625,-0.10873081535100937,-0.6230642199516296,-0.2596100866794586
1667267003236595500,2.755595458984375,-0.08429691940546036,-0.5357130169868469,-0.2522799074649811
1667267003238993200,2.7579931640625,-0.05864133685827255,-0.45080527663230896,-0.2480039894580841
1667267003241391000,2.76039111328125,-0.03542914241552353,-0.363454133272171,-0.24128466844558716
1667267003243788800,2.762788818359375,-0.007941014133393764,-0.2754921019077301,-0.2357870489358902
1667267003246186500,2.7651865234375,0.016492875292897224,-0.18875180184841156,-0.22967857122421265
1667267003248584200,2.767584228515625,0.04092676565051079,-0.1050657257437706,-0.2241809368133545
1667267003250982000,2.76998193359375,0.06658235192298889,-0.021990500390529633,-0.21929416060447693
1667267003253379800,2.7723798828125,0.08796200156211853,0.05497625470161438,-0.21196399629116058
1667267003255777500,2.774777587890625,0.10995250940322876,0.12644538283348083,-0.20768806338310242
1667267003258175200,2.77717529296875,0.12461283802986145,0.19302773475646973,-0.20280128717422485
1667267003260573000,2.779572998046875,0.13927318155765533,0.2486148327589035,-0.1973036676645279
1667267003262970600,2.781970703125,0.15149012207984924,0.2980934679508209,-0.19241689145565033
1667267003265368600,2.78436865234375,0.16004198789596558,0.3384093940258026,-0.18875180184841156
1667267003267766300,2.786766357421875,0.16737215220928192,0.3671191930770874,-0.18630841374397278
1667267003270164000,2.7891640625,0.16798299551010132,0.38849884271621704,-0.18569757044315338
1667267003272561700,2.791561767578125,0.16859383881092072,0.40071579813957214,-0.1844758689403534
1667267003274959400,2.79395947265625,0.16859383881092072,0.4056025743484497,-0.183865025639534
1667267003277357300,2.796357421875,0.16309621930122375,0.4049917459487915,-0.1832541823387146
1667267003279755000,2.798755126953125,0.1563768982887268,0.395218163728714,-0.18142163753509521
1667267003282152700,2.801152587890625,0.14660334587097168,0.3805578351020813,-0.18142163753509521
1667267003284550400,2.80355029296875,0.13682979345321655,0.3646758198738098,-0.183865025639534
1667267003286948000,2.805947998046875,0.12461283802986145,0.34573954343795776,-0.1844758689403534
1667267003289346000,2.808345947265625,0.11667182296514511,0.3304683566093445,-0.18630841374397278
1667267003291743700,2.81074365234375,0.10140064358711243,0.314586341381073,-0.18753011524677277
1667267003294141400,2.813141357421875,0.08735115826129913,0.2993151545524597,-0.18875180184841156
1667267003296539100,2.8155390625,0.07085828483104706,0.2870981991291046,-0.18997350335121155
1667267003298937000,2.81793701171875,0.05375456064939499,0.27854636311531067,-0.19363857805728912
1667267003301334800,2.820334716796875,0.03787253051996231,0.26816195249557495,-0.1973036676645279
1667267003303732500,2.822732421875,0.023212196305394173,0.2626643180847168,-0.1979145109653473
1667267003306130200,2.825130126953125,0.006719320081174374,0.25777754187583923,-0.19974705576896667
1667267003308527900,2.82752783203125,-0.008551862090826035,0.25350162386894226,-0.20096874237060547
1667267003310925800,2.82992578125,-0.02626643143594265,0.2516690790653229,-0.20280128717422485
1667267003313323500,2.832323486328125,-0.04092676565051079,0.2480039894580841,-0.20280128717422485
1667267003315721200,2.83472119140625,-0.054365407675504684,0.24372805655002594,-0.20463383197784424
1667267003318119000,2.837118896484375,-0.07269082218408585,0.24433889985084534,-0.20280128717422485
1667267003320516600,2.8395166015625,-0.08368607610464096,0.24128466844558716,-0.20402298867702484
1667267003322914600,2.84191455078125,-0.09773556143045425,0.24006296694278717,-0.20219044387340546
1667267003325312300,2.844312255859375,-0.10811996459960938,0.23823043704032898,-0.1973036676645279
1667267003327710000,2.8467099609375,-0.11667182296514511,0.2357870489358902,-0.1948602795600891
1667267003330107600,2.849107666015625,-0.12705622613430023,0.2351761907339096,-0.18875180184841156
1667267003332505300,2.85150537109375,-0.13560809195041656,0.23945212364196777,-0.1832541823387146
1667267003334903300,2.8539033203125,-0.1429382562637329,0.24128466844558716,-0.17653486132621765
1667267003337301000,2.856301025390625,-0.14965757727622986,0.24372805655002594,-0.1710372269153595
1667267003339698700,2.85869873046875,-0.1569877415895462,0.2492256760597229,-0.16187451779842377
1667267003342096400,2.861096435546875,-0.16431790590286255,0.2516690790653229,-0.1563768982887268
1667267003344494000,2.863494140625,-0.1710372269153595,0.25594499707221985,-0.15026842057704926
1667267003346892000,2.86589208984375,-0.17592400312423706,0.2596100866794586,-0.1453816443681717
1667267003349289700,2.868289794921875,-0.1844758689403534,0.2608317732810974,-0.1435490995645523
1667267003351687400,2.8706875,-0.19302773475646973,0.2651077210903168,-0.14049486815929413
1667267003354085000,2.873085205078125,-0.20096874237060547,0.26938363909721375,-0.1423274129629135
1667267003356483000,2.875483154296875,-0.21318569779396057,0.2730487287044525,-0.1441599577665329
1667267003358880800,2.877880859375,-0.2211267054080963,0.2761029601097107,-0.14721418917179108
1667267003361278500,2.880278564453125,-0.22967857122421265,0.27976804971694946,-0.15149012207984924
1667267003363676200,2.88267626953125,-0.23884128034114838,0.28098973631858826,-0.16004198789596558
1667267003366074000,2.88507421875,-0.24678228795528412,0.27976804971694946,-0.16553960740566254
1667267003368471800,2.887471923828125,-0.25289076566696167,0.2742704153060913,-0.17225892841815948
1667267003370869500,2.889869384765625,-0.25716668367385864,0.265718549489975,-0.1820324808359146
1667267003373267200,2.89226708984375,-0.2620534598827362,0.2480039894580841,-0.18875180184841156
1667267003375665000,2.894664794921875,-0.2644968628883362,0.22784602642059326,-0.1966928243637085
1667267003378062600,2.8970625,-0.265718549489975,0.20341213047504425,-0.20280128717422485
1667267003380460500,2.89946044921875,-0.265718549489975,0.1716480851173401,-0.20768806338310242
1667267003382858200,2.901858154296875,-0.26632940769195557,0.129499614238739,-0.21562908589839935
1667267003385256000,2.904255859375,-0.2626643180847168,0.08246438205242157,-0.22051586210727692
1667267003387653600,2.906653564453125,-0.25533416867256165,0.029320668429136276,-0.2217375487089157
1667267003390051300,2.90905126953125,-0.2473931461572647,-0.026877280324697495,-0.2241809368133545
1667267003392449300,2.91144921875,-0.23884128034114838,-0.08735115826129913,-0.22479179501533508
1667267003394847000,2.913846923828125,-0.22662433981895447,-0.14660334587097168,-0.2229592502117157
1667267003397244700,2.91624462890625,-0.21196399629116058,-0.20524467527866364,-0.21990501880645752
1667267003399642400,2.918642333984375,-0.19913621246814728,-0.258999228477478,-0.21746163070201874
1667267003402040300,2.921040283203125,-0.1832541823387146,-0.30786702036857605,-0.21196399629116058
1667267003404438000,2.92343798828125,-0.1698155403137207,-0.3536805510520935,-0.208298921585083
1667267003406835700,2.925835693359375,-0.1557660549879074,-0.395218163728714,-0.20280128717422485
1667267003409233400,2.9282333984375,-0.1429382562637329,-0.4294256269931793,-0.1973036676645279
1667267003411631400,2.93063134765625,-0.130721315741539,-0.4563029110431671,-0.19424942135810852
1667267003414029000,2.933029052734375,-0.12033691257238388,-0.47768256068229675,-0.18936264514923096
1667267003416426800,2.9354267578125,-0.11239589750766754,-0.49417543411254883,-0.18936264514923096
1667267003418824400,2.937824462890625,-0.10262233763933182,-0.5021164417266846,-0.18630841374397278
1667267003421222100,2.94022216796875,-0.09468132257461548,-0.5033381581306458,-0.18691925704479218
1667267003423620000,2.9426201171875,-0.09284878522157669,-0.49417543411254883,-0.19058434665203094
1667267003426017800,2.945017822265625,-0.08429691940546036,-0.4819584786891937,-0.19302773475646973
1667267003428415500,2.94741552734375,-0.08063183724880219,-0.46668729186058044,-0.1973036676645279
1667267003430813200,2.949813232421875,-0.0781884491443634,-0.4428642690181732,-0.20157960057258606
1667267003433211000,2.9522109375,-0.07391251623630524,-0.418430358171463,-0.21196399629116058
1667267003435608800,2.95460888671875,-0.07513421028852463,-0.3903313875198364,-0.21868331730365753
1667267003438006500,2.957006591796875,-0.07085828483104706,-0.36039987206459045,-0.22662433981895447
1667267003440404200,2.959404296875,-0.06902574002742767,-0.3280249834060669,-0.2363978922367096
1667267003442802000,2.961802001953125,-0.0653606578707695,-0.29503923654556274,-0.24556060135364532
1667267003445199600,2.96419970703125,-0.06352811306715012,-0.2608317732810974,-0.25594499707221985
1667267003447597600,2.96659765625,-0.05986303091049194,-0.22845686972141266,-0.26694026589393616
1667267003449995300,2.968995361328125,-0.055587101727724075,-0.1966928243637085,-0.2773246467113495
1667267003452393000,2.97139306640625,-0.05008947476744652,-0.16615045070648193,-0.288930743932724
1667267003454790700,2.973790771484375,-0.043981000781059265,-0.13866232335567474,-0.29687178134918213
1667267003457188400,2.976188232421875,-0.0390942245721817,-0.11056335270404816,-0.30847787857055664
1667267003459586300,2.97858642578125,-0.031153209507465363,-0.08796200156211853,-0.3164188861846924
1667267003461984000,2.98098388671875,-0.023823043331503868,-0.0647498071193695,-0.32374903559684753
1667267003464381700,2.983381591796875,-0.015271181240677834,-0.045202698558568954,-0.33169007301330566
1667267003466779400,2.985779296875,-0.005497625097632408,-0.02748812735080719,-0.33596599102020264
1667267003469177300,2.98817724609375,0.0036650835536420345,-0.010995250195264816,-0.3432961702346802
1667267003471575000,2.990574951171875,0.014049487188458443,0.0012216945178806782,-0.34451785683631897
1667267003473972700,2.99297265625,0.026877280324697495,0.013438640162348747,-0.34512871503829956
1667267003476370400,2.995370361328125,0.0390942245721817,0.020157959312200546,-0.34512871503829956
1667267003478768000,2.99776806640625,0.05070032179355621,0.02870982140302658,-0.3426853120326996
1667267003481166000,3.000166015625,0.062306419014930725,0.0397050715982914,-0.3390202224254608
1667267003483563800,3.002563720703125,0.07452336698770523,0.04886778071522713,-0.33413344621658325
1667267003485961500,3.00496142578125,0.08857285231351852,0.05925218388438225,-0.3261924386024475
1667267003488359200,3.007359130859375,0.09834641218185425,0.07574506103992462,-0.31886225938796997
1667267003490756900,3.0097568359375,0.10689827054738998,0.09284878522157669,-0.30969956517219543
1667267003493154800,3.01215478515625,0.11667182296514511,0.11361759155988693,-0.3042019307613373
1667267003495552500,3.014552490234375,0.12461283802986145,0.13377554714679718,-0.29320669174194336
1667267003497950200,3.0169501953125,0.1313321590423584,0.1569877415895462,-0.28221142292022705
1667267003500348000,3.019347900390625,0.13927318155765533,0.17958909273147583,-0.2724378705024719
1667267003502745600,3.02174560546875,0.1441599577665329,0.1985253542661667,-0.2608317732810974
1667267003505143600,3.0241435546875,0.14904673397541046,0.21807247400283813,-0.2473931461572647
1667267003507541200,3.026541259765625,0.1563768982887268,0.23212195932865143,-0.2339545041322708
1667267003509939000,3.02893896484375,0.16370706260204315,0.2486148327589035,-0.21807247400283813
1667267003512336600,3.031336669921875,0.16798299551010132,0.2608317732810974,-0.20157960057258606
1667267003514734600,3.033734619140625,0.17409147322177887,0.27060532569885254,-0.1844758689403534
1667267003517132300,3.03613232421875,0.17958909273147583,0.27915719151496887,-0.16615045070648193
1667267003519530000,3.038530029296875,0.1832541823387146,0.2852656841278076,-0.14721418917179108
1667267003521927700,3.040927734375,0.18630841374397278,0.2883199155330658,-0.129499614238739
