time,seconds_elapsed,z,y,x
1667266559811033000,0.059033203125,0.26335152983665466,-0.32458895444869995,-0.8224294781684875
1667266559813431000,0.06143115234375,0.24746949970722198,-0.31053948402404785,-0.791887104511261
1667266559815828700,0.063828857421875,0.2334200143814087,-0.294657438993454,-0.7589013576507568
1667266559818226700,0.066226806640625,0.2181488275527954,-0.2781645655632019,-0.7253047823905945
1667266559820624400,0.068624267578125,0.2065427303314209,-0.26045000553131104,-0.690486490726471
1667266559823022000,0.07102197265625,0.19615831971168518,-0.24212458729743958,-0.658111572265625
1667266559825420000,0.073419921875,0.18760646879673004,-0.2244100123643875,-0.6232932806015015
1667266559827817700,0.075817626953125,0.1808871477842331,-0.20730629563331604,-0.5896966457366943
1667266559830215700,0.078215576171875,0.17477867007255554,-0.19142426550388336,-0.556100070476532
1667266559832613400,0.08061328125,0.17233528196811676,-0.17859646677970886,-0.5225034952163696
1667266559835011300,0.08301123046875,0.17233528196811676,-0.16393613815307617,-0.4901285767555237
1667266559837409000,0.085408935546875,0.17294612526893616,-0.1474432498216629,-0.45775365829467773
1667266559839806700,0.087806640625,0.17722205817699432,-0.13766969740390778,-0.42721131443977356
1667266559842204700,0.09020458984375,0.18271969258785248,-0.12606360018253326,-0.3978906273841858
1667266559844602400,0.092602294921875,0.19127154350280762,-0.11873343586921692,-0.3697916567325592
1667266559847000300,0.095000244140625,0.20165595412254333,-0.11567919701337814,-0.3423035442829132
1667266559849398000,0.09739794921875,0.21204034984111786,-0.11384665966033936,-0.3190913498401642
1667266559851796000,0.0997958984375,0.22486814856529236,-0.11384665966033936,-0.29587915539741516
1667266559854193700,0.102193603515625,0.23952847719192505,-0.11751174181699753,-0.27449947595596313
1667266559856591600,0.104591552734375,0.2566322088241577,-0.12300936877727509,-0.2525089979171753
1667266559858989300,0.1069892578125,0.2749576270580292,-0.1346154659986496,-0.23296187818050385
1667266559861387000,0.109386962890625,0.29511559009552,-0.14072394371032715,-0.2134147584438324
1667266559863785000,0.111784912109375,0.3134410083293915,-0.15416257083415985,-0.19692188501358032
1667266559866182700,0.1141826171875,0.33298811316490173,-0.16637952625751495,-0.17981816828250885
1667266559868580600,0.11658056640625,0.3513135313987732,-0.18409408628940582,-0.16393613815307617
1667266559870978300,0.118978271484375,0.36963894963264465,-0.20303036272525787,-0.14988665282726288
1667266559873376300,0.121376220703125,0.38491013646125793,-0.22196662425994873,-0.135226309299469
1667266559875774000,0.12377392578125,0.39895960688591003,-0.2384594976902008,-0.12239851802587509
1667266559878172000,0.126171875,0.4117874205112457,-0.25983914732933044,-0.11323580890893936
1667266559880569600,0.128569580078125,0.42156097292900085,-0.2799971103668213,-0.10468395054340363
1667266559882967300,0.13096728515625,0.4319453537464142,-0.3032093048095703,-0.0942995473742485
1667266559885365200,0.133365234375,0.43866467475891113,-0.32764318585395813,-0.08758022636175156
1667266559887763000,0.135762939453125,0.4435514807701111,-0.3551313281059265,-0.08025006204843521
1667266559890161000,0.138160888671875,0.44721654057502747,-0.3813977539539337,-0.07414158433675766
1667266559892558600,0.14055859375,0.44843825697898865,-0.4094967246055603,-0.06742226332426071
1667266559894956500,0.14295654296875,0.44904908537864685,-0.4327089190483093,-0.06192464008927345
1667266559897354200,0.145354248046875,0.44660571217536926,-0.45294323563575745,-0.053983625024557114
1667266559899752000,0.147751953125,0.44599485397338867,-0.4700469672679901,-0.050929389894008636
1667266559902150000,0.15014990234375,0.4404972195625305,-0.4822639226913452,-0.047264307737350464
1667266559904547600,0.152547607421875,0.43744298815727234,-0.49264830350875854,-0.041766680777072906
1667266559906945500,0.154945556640625,0.4319453537464142,-0.4999784827232361,-0.038101598620414734
1667266559909343200,0.15734326171875,0.4252260625362396,-0.5024218559265137,-0.032603971660137177
1667266559911741200,0.1597412109375,0.4203392565250397,-0.5030327439308167,-0.028938889503479004
1667266559914139000,0.162138916015625,0.4160633385181427,-0.4969242513179779,-0.025273805484175682
1667266559916536800,0.164536865234375,0.40873315930366516,-0.4865398406982422,-0.023441264405846596
1667266559918934500,0.1669345703125,0.4032355546951294,-0.4737120568752289,-0.01916533336043358
1667266559921332500,0.16933251953125,0.39834877848625183,-0.460273414850235,-0.017332790419459343
1667266559923730200,0.171730224609375,0.3928511440753937,-0.4450022280216217,-0.016111096367239952
1667266559926127900,0.1741279296875,0.3891860544681549,-0.4253787696361542,-0.014889402315020561
1667266559928525800,0.17652587890625,0.38429927825927734,-0.4076641798019409,-0.01794363744556904
1667266559930923500,0.178923583984375,0.38002336025238037,-0.3936147093772888,-0.014278554357588291
1667266559933321500,0.181321533203125,0.3751365840435028,-0.37712183594703674,-0.019776180386543274
1667266559935719200,0.18371923828125,0.37269318103790283,-0.36307233572006226,-0.022219568490982056
1667266559938117000,0.1861171875,0.36963894963264465,-0.3465794622898102,-0.02710634656250477
1667266559940514800,0.188514892578125,0.36780640482902527,-0.33558422327041626,-0.03382566571235657
1667266559942912500,0.19091259765625,0.3635304868221283,-0.32642149925231934,-0.04421006888151169
1667266559945310500,0.193310546875,0.3623087704181671,-0.3197021782398224,-0.05276193097233772
1667266559947708200,0.195708251953125,0.3610870838165283,-0.31359371542930603,-0.06314633786678314
1667266559950106000,0.198106201171875,0.35803285241127014,-0.31298285722732544,-0.07658497244119644
1667266559952503800,0.20050390625,0.35803285241127014,-0.3154262602329254,-0.08635853230953217
1667266559954901800,0.20290185546875,0.35620030760765076,-0.3148154020309448,-0.10285140573978424
1667266559957299500,0.205299560546875,0.35558944940567017,-0.3184804916381836,-0.11812258511781693
1667266559959697400,0.207697509765625,0.35497862100601196,-0.32519981265068054,-0.135226309299469
1667266559962095000,0.21009521484375,0.35436776280403137,-0.3343625068664551,-0.15049749612808228
1667266559964493000,0.2124931640625,0.35620030760765076,-0.3453577756881714,-0.17065545916557312
1667266559966890800,0.214890869140625,0.35558944940567017,-0.3581855595111847,-0.19142426550388336
1667266559969288400,0.217288330078125,0.35436776280403137,-0.37467843294143677,-0.2134147584438324
1667266559971686400,0.219686279296875,0.35864371061325073,-0.39178216457366943,-0.2390703409910202
1667266559974084000,0.222083984375,0.36047622561454773,-0.4082750380039215,-0.2622825503349304
1667266559976482000,0.22448193359375,0.3616979420185089,-0.42660045623779297,-0.28793811798095703
1667266559978879700,0.226879638671875,0.3659738600254059,-0.4419479966163635,-0.31115031242370605
1667266559981277400,0.22927734375,0.36963894963264465,-0.45355409383773804,-0.3306974470615387
1667266559983675400,0.23167529296875,0.37208232283592224,-0.46699273586273193,-0.35085538029670715
1667266559986073000,0.234072998046875,0.37086063623428345,-0.47554460167884827,-0.3704025149345398
1667266559988471000,0.236470947265625,0.375747412443161,-0.483485609292984,-0.3844519853591919
1667266559990868700,0.23886865234375,0.3769691288471222,-0.4871506989002228,-0.3972797989845276
1667266559993266700,0.2412666015625,0.3769691288471222,-0.4840964674949646,-0.4101075828075409
1667266559995664400,0.243664306640625,0.3763582706451416,-0.4828747510910034,-0.41743773221969604
1667266559998062300,0.246062255859375,0.3739148676395416,-0.4743228852748871,-0.42721131443977356
1667266560000460000,0.2484599609375,0.36963894963264465,-0.46516019105911255,-0.4363740086555481
1667266560002858000,0.25085791015625,0.3635304868221283,-0.457830011844635,-0.445536732673645
1667266560005255700,0.253255615234375,0.3519243896007538,-0.4468347728252411,-0.449812650680542
1667266560007653400,0.2556533203125,0.34153997898101807,-0.4339306354522705,-0.45897534489631653
1667266560010051300,0.25805126953125,0.32993388175964355,-0.424157053232193,-0.4656946659088135
1667266560012449000,0.260448974609375,0.31588438153266907,-0.4113292694091797,-0.4736357033252716
1667266560014847000,0.262846923828125,0.3006131947040558,-0.40155571699142456,-0.48096585273742676
1667266560017244700,0.26524462890625,0.2859528660774231,-0.39056047797203064,-0.4889068603515625
1667266560019642600,0.267642578125,0.2700708508491516,-0.37895438075065613,-0.500512957572937
1667266560022040300,0.270040283203125,0.2554105222225189,-0.3679591119289398,-0.5108973979949951
1667266560024438000,0.27243798828125,0.23952847719192505,-0.3575747013092041,-0.5212817788124084
1667266560026836000,0.2748359375,0.22425730526447296,-0.3453577756881714,-0.5292227864265442
1667266560029233700,0.277233642578125,0.20898611843585968,-0.3325299620628357,-0.5359421372413635
1667266560031631600,0.279631591796875,0.1937149316072464,-0.3166479468345642,-0.5389963388442993
1667266560034029300,0.282029296875,0.1802763044834137,-0.3032093048095703,-0.5426614284515381
1667266560036427300,0.28442724609375,0.1680593490600586,-0.28671643137931824,-0.5420506000518799
1667266560038825000,0.286824951171875,0.15645325183868408,-0.2659476399421692,-0.5371637940406799
1667266560041223000,0.289222900390625,0.14301460981369019,-0.24517881870269775,-0.5310553312301636
1667266560043620600,0.29162060546875,0.13263021409511566,-0.2256316989660263,-0.5200600624084473
1667266560046018300,0.294018310546875,0.11919157207012177,-0.20425204932689667,-0.5072323083877563
1667266560048416300,0.296416259765625,0.10514208674430847,-0.1853157877922058,-0.4907394051551819
1667266560050814000,0.29881396484375,0.09475768357515335,-0.16576866805553436,-0.4718031585216522
1667266560053212000,0.3012119140625,0.08254073560237885,-0.1468324065208435,-0.4510343372821808
1667266560055609600,0.303609619140625,0.07093463838100433,-0.12545275688171387,-0.42721131443977356
1667266560058007600,0.306007568359375,0.061771929264068604,-0.1077381819486618,-0.40033403038978577
1667266560060405200,0.3084052734375,0.05077667906880379,-0.09124530851840973,-0.373456746339798
1667266560062803200,0.31080322265625,0.04405735805630684,-0.07475243508815765,-0.3459686040878296
1667266560065201000,0.313200927734375,0.03489464893937111,-0.05948125198483467,-0.320313036441803
1667266560067598600,0.3155986328125,0.0293970238417387,-0.048486001789569855,-0.2940466105937958
1667266560069996500,0.31799658203125,0.027564482763409615,-0.038101598620414734,-0.267169326543808
1667266560072394200,0.320394287109375,0.024510245770215988,-0.030160583555698395,-0.2402920424938202
1667266560074792200,0.322792236328125,0.02817532978951931,-0.025884652510285378,-0.2140256017446518
1667266560077190000,0.32518994140625,0.03184041380882263,-0.025884652510285378,-0.19142426550388336
1667266560079587800,0.327587890625,0.037948887795209885,-0.02405211143195629,-0.17004460096359253
1667266560081985500,0.329985595703125,0.04527905210852623,-0.025884652510285378,-0.14988665282726288
1667266560084383200,0.33238330078125,0.05566345527768135,-0.028938889503479004,-0.13095037639141083
1667266560086781200,0.33478125,0.06421531736850739,-0.03321481868624687,-0.11751174181699753
1667266560089179000,0.337178955078125,0.07643226534128189,-0.03321481868624687,-0.09857547283172607
1667266560091576800,0.339576904296875,0.08559497445821762,-0.03687990456819534,-0.08330429345369339
1667266560093974500,0.341974609375,0.09720107167959213,-0.040544986724853516,-0.07230904698371887
1667266560096372500,0.34437255859375,0.10697462409734726,-0.0423775278031826,-0.06192464008927345
1667266560098770200,0.346770263671875,0.1149156391620636,-0.044820915907621384,-0.05276193097233772
1667266560101168000,0.349168212890625,0.12285665422677994,-0.047264307737350464,-0.04787515476346016
1667266560103565800,0.35156591796875,0.1259108930826187,-0.04604261368513107,-0.04115583375096321
1667266560105963800,0.3539638671875,0.1289651244878769,-0.04665346071124077,-0.03565821051597595
1667266560108361500,0.356361572265625,0.13140851259231567,-0.044820915907621384,-0.03687990456819534
1667266560110759200,0.35875927734375,0.1271325796842575,-0.04421006888151169,-0.03626905754208565
1667266560113157000,0.3611572265625,0.12468919903039932,-0.04359922185540199,-0.03687990456819534
1667266560115554800,0.363554931640625,0.12163496017456055,-0.0429883748292923,-0.04115583375096321
1667266560117952800,0.365952880859375,0.1149156391620636,-0.04543176665902138,-0.047264307737350464
1667266560120350500,0.3683505859375,0.11063970625400543,-0.044820915907621384,-0.05154023692011833
1667266560122748400,0.37074853515625,0.1020878478884697,-0.04787515476346016,-0.057648710906505585
1667266560125146000,0.37314599609375,0.09475768357515335,-0.05276193097233772,-0.06192464008927345
1667266560127543800,0.375543701171875,0.08742751181125641,-0.05276193097233772,-0.06620056927204132
1667266560129941800,0.377941650390625,0.08009734749794006,-0.056427016854286194,-0.06742226332426071
1667266560132339500,0.38033935546875,0.07093463838100433,-0.05948125198483467,-0.07108735293149948
1667266560134737400,0.3827373046875,0.06421531736850739,-0.06131379306316376,-0.06986565887928009
1667266560137135000,0.385135009765625,0.056274302303791046,-0.060092099010944366,-0.07047650218009949
1667266560139533000,0.387532958984375,0.05016583204269409,-0.058870404958724976,-0.06681142002344131
1667266560141930800,0.3899306640625,0.043446511030197144,-0.053983625024557114,-0.06314633786678314
1667266560144328700,0.39232861328125,0.0361163429915905,-0.04665346071124077,-0.0552053228020668
1667266560146726400,0.394726318359375,0.03245126083493233,-0.038101598620414734,-0.049707695841789246
1667266560149124000,0.3971240234375,0.02695363573729992,-0.026495499536395073,-0.04115583375096321
1667266560151522000,0.39952197265625,0.023288551717996597,-0.012446013279259205,-0.03321481868624687
1667266560153919700,0.401919677734375,0.019623467698693275,0.0009926267666742206,-0.025884652510285378
1667266560156317700,0.404317626953125,0.018401773646473885,0.01382041908800602,-0.018554486334323883
1667266560158715400,0.40671533203125,0.01901262067258358,0.029091600328683853,-0.010002624243497849
1667266560161113300,0.40911328125,0.02023431472480297,0.04008685052394867,-0.005726693198084831
1667266560163511000,0.411510986328125,0.02023431472480297,0.05230379477143288,-0.0014507622690871358
1667266560165909000,0.413908935546875,0.025121092796325684,0.0620773509144783,0.0009926267666742206
1667266560168306700,0.416306640625,0.027564482763409615,0.07062921673059464,0.0009926267666742206
1667266560170704400,0.418704345703125,0.03489464893937111,0.07918107509613037,0.00038177953683771193
1667266560173102300,0.421102294921875,0.04405735805630684,0.08467870205640793,-0.00022906772210262716
1667266560175500000,0.4235,0.05138752609491348,0.09200886636972427,0.00038177953683771193
1667266560177898000,0.42589794921875,0.061771929264068604,0.09994988143444061,-0.002672456670552492
1667266560180295700,0.428295654296875,0.07276718318462372,0.10850174725055695,-0.006337540224194527
1667266560182693400,0.430693359375,0.08376242965459824,0.11888615041971207,-0.010613471269607544
1667266560185091300,0.43309130859375,0.09842276573181152,0.13232478499412537,-0.013667707331478596
1667266560187489000,0.435489013671875,0.10819631814956665,0.1414874941110611,-0.01916533336043358
1667266560189887000,0.437886962890625,0.11980241537094116,0.153704434633255,-0.02405211143195629
1667266560192284700,0.44028466796875,0.13263021409511566,0.1665322333574295,-0.026495499536395073
1667266560194682600,0.4426826171875,0.14362546801567078,0.18241426348686218,-0.03199312463402748
1667266560197080300,0.445080322265625,0.1552315652370453,0.19768545031547546,-0.03565821051597595
1667266560199478300,0.447478271484375,0.1674485057592392,0.21601086854934692,-0.039323292672634125
1667266560201876000,0.4498759765625,0.1784437596797943,0.232503741979599,-0.041766680777072906
1667266560204274000,0.45227392578125,0.19066070020198822,0.25021830201148987,-0.04665346071124077
1667266560206671600,0.454671630859375,0.19921256601810455,0.26548948884010315,-0.05154023692011833
1667266560209069300,0.4570693359375,0.21081866323947906,0.28014981746673584,-0.05825955793261528
1667266560211467300,0.45946728515625,0.22242476046085358,0.29236677289009094,-0.06131379306316376
1667266560213865000,0.461864990234375,0.23708508908748627,0.30214032530784607,-0.06558972597122192
1667266560216263000,0.464262939453125,0.25296711921691895,0.308859646320343,-0.06742226332426071
1667266560218660600,0.46666064453125,0.26701661944389343,0.3094705045223236,-0.07108735293149948
1667266560221058600,0.46905859375,0.2816769480705261,0.3113030195236206,-0.07414158433675766
1667266560223456300,0.471456298828125,0.2981698215007782,0.3076379597187042,-0.07597412914037704
1667266560225854000,0.47385400390625,0.31527355313301086,0.30275118350982666,-0.07780666649341583
1667266560228252000,0.476251953125,0.32932302355766296,0.29358845949172974,-0.07780666649341583
1667266560230649600,0.478649658203125,0.34581589698791504,0.27953898906707764,-0.07597412914037704
1667266560233047600,0.481047607421875,0.3616979420185089,0.26487863063812256,-0.07414158433675766
1667266560235445200,0.4834453125,0.3769691288471222,0.2453315258026123,-0.07108735293149948
1667266560237843200,0.48584326171875,0.3910185992717743,0.22395187616348267,-0.06558972597122192
1667266560240241000,0.488240966796875,0.405678927898407,0.19890713691711426,-0.06192464008927345
1667266560242638800,0.490638916015625,0.4178958833217621,0.17264071106910706,-0.05825955793261528
1667266560245036500,0.49303662109375,0.431334525346756,0.14270919561386108,-0.04909684881567955
1667266560247434200,0.495434326171875,0.4441623091697693,0.11338852345943451,-0.03993413969874382
1667266560249832200,0.497832275390625,0.4527141749858856,0.08590039610862732,-0.03443651273846626
1667266560252230000,0.50022998046875,0.4661528170108795,0.05841226875782013,-0.024662958458065987
1667266560254627800,0.5026279296875,0.47592636942863464,0.02664821222424507,-0.01794363744556904
1667266560257025500,0.505025634765625,0.4832565486431122,0.00038177953683771193,-0.006337540224194527
1667266560259423500,0.507423583984375,0.4930301010608673,-0.02405211143195629,0.0016034740256145597
1667266560261821200,0.5098212890625,0.49913856387138367,-0.049707695841789246,0.011377030052244663
1667266560264219100,0.51221923828125,0.5064687132835388,-0.07536327838897705,0.02176143415272236
1667266560266616800,0.514616943359375,0.5131880640983582,-0.09368869662284851,0.02970244735479355
1667266560269014500,0.5170146484375,0.516242265701294,-0.11262496560811996,0.03825430944561958
1667266560271412500,0.51941259765625,0.5229616165161133,-0.13156123459339142,0.048638712614774704
1667266560273810200,0.52181005859375,0.526626706123352,-0.14988665282726288,0.053525492548942566
1667266560276208000,0.5242080078125,0.5290700793266296,-0.16332527995109558,0.06390989571809769
1667266560278605800,0.526605712890625,0.530902624130249,-0.17737478017807007,0.07185091078281403
1667266560281003800,0.529003662109375,0.5364002585411072,-0.19631104171276093,0.08284615725278854
1667266560283401500,0.5314013671875,0.5412870049476624,-0.212803915143013,0.09078717231750488
1667266560285799200,0.533799072265625,0.5467846393585205,-0.23357272148132324,0.09994988143444061
1667266560288197000,0.536197021484375,0.5553365349769592,-0.2549523711204529,0.11155597865581512
1667266560290594800,0.5385947265625,0.5638883709907532,-0.2793862521648407,0.12194038182497025
1667266560292992800,0.54099267578125,0.5724402666091919,-0.3013767600059509,0.13476817309856415
1667266560295390500,0.543390380859375,0.581602931022644,-0.32275640964508057,0.14820681512355804
1667266560297788400,0.545788330078125,0.5950415730476379,-0.35024455189704895,0.16042375564575195
1667266560300186000,0.54818603515625,0.6084802150726318,-0.3826194405555725,0.17264071106910706
1667266560302584000,0.550583984375,0.6213080286979675,-0.4101075828075409,0.18669019639492035
1667266560304981800,0.552981689453125,0.6304707527160645,-0.4419479966163635,0.20073968172073364
1667266560307379500,0.55537939453125,0.6408551335334778,-0.4700469672679901,0.21784339845180511
1667266560309777400,0.55777734375,0.6481853127479553,-0.4969242513179779,0.23433628678321838
1667266560312175000,0.560175048828125,0.6549046039581299,-0.5238015055656433,0.25021830201148987
1667266560314573000,0.562572998046875,0.660402238368988,-0.5519005060195923,0.2703762650489807
1667266560316970800,0.564970703125,0.6634564995765686,-0.5818319916725159,0.2868691384792328
1667266560319368700,0.56736865234375,0.664678156375885,-0.615428626537323,0.30702710151672363
1667266560321766400,0.569766357421875,0.6658998727798462,-0.6465818285942078,0.32840675115585327
1667266560324164400,0.572164306640625,0.6628456115722656,-0.6807892918586731,0.3503972589969635
1667266560326562000,0.57456201171875,0.660402238368988,-0.7149966955184937,0.37238776683807373
1667266560328959700,0.576959716796875,0.6536829471588135,-0.7510367035865784,0.39437827467918396
1667266560331357700,0.579357666015625,0.6475744247436523,-0.7815790772438049,0.41942301392555237
1667266560333755400,0.58175537109375,0.6432985067367554,-0.8121214509010315,0.4444677233695984
1667266560336153300,0.5841533203125,0.6378008723258972,-0.8377770185470581,0.4695124626159668
1667266560338551000,0.586551025390625,0.6304707527160645,-0.8622109293937683,0.4921138286590576
1667266560340949000,0.588948974609375,0.6274164915084839,-0.8817580342292786,0.5153260231018066
1667266560343346700,0.5913466796875,0.6219188570976257,-0.8982508778572083,0.5391490459442139
1667266560345744400,0.593744384765625,0.6188646554946899,-0.9116895198822021,0.5617504119873047
1667266560348142300,0.596142333984375,0.61397784948349,-0.9196305274963379,0.5837408900260925
1667266560350540000,0.5985400390625,0.6133670210838318,-0.925739049911499,0.604509711265564
1667266560352938000,0.60093798828125,0.609701931476593,-0.9306257963180542,0.6240568161010742
1667266560355335700,0.603335693359375,0.6066476702690125,-0.9349017143249512,0.6417713761329651
1667266560357733600,0.605733642578125,0.6029825806617737,-0.9324583411216736,0.6625401973724365
1667266560360131300,0.60813134765625,0.6005392074584961,-0.9324583411216736,0.6820873022079468
1667266560362529300,0.610529296875,0.5974849462509155,-0.9275715351104736,0.7004127502441406
1667266560364927000,0.612927001953125,0.5932090282440186,-0.9153546094894409,0.7175164818763733
1667266560367325000,0.615324951171875,0.590765655040741,-0.9000834226608276,0.7321767807006836
1667266560369722600,0.61772265625,0.5895439386367798,-0.8768712282180786,0.7450809478759766
1667266560372120300,0.620120361328125,0.5895439386367798,-0.8548807501792908,0.7560762166976929
1667266560374518300,0.622518310546875,0.5871005654335022,-0.8286142945289612,0.7689039707183838
1667266560376916000,0.624916015625,0.5828246474266052,-0.800515353679657,0.7774558663368225
1667266560379314000,0.62731396484375,0.5791595578193665,-0.7699729800224304,0.7860077023506165
1667266560381711600,0.629711669921875,0.5742727518081665,-0.740652322769165,0.7921161651611328
1667266560384109600,0.632109619140625,0.5687751770019531,-0.7076665759086609,0.7988355159759521
1667266560386507300,0.63450732421875,0.562666654586792,-0.6752916574478149,0.8037222623825073
1667266560388905000,0.636905029296875,0.5528931021690369,-0.6398624777793884,0.8067765235900879
1667266560391303000,0.639302978515625,0.5418978929519653,-0.6074876189231873,0.8092198967933655
1667266560393700600,0.64170068359375,0.5296809077262878,-0.5696150660514832,0.8092198967933655
1667266560396098600,0.6440986328125,0.516242265701294,-0.5305208563804626,0.8061656951904297
1667266560398496300,0.646496337890625,0.5021927952766418,-0.48898324370384216,0.8018897175788879
1667266560400894200,0.648894287109375,0.484478235244751,-0.4431696832180023,0.7988355159759521
1667266560403292000,0.6512919921875,0.46370941400527954,-0.3954472541809082,0.793337881565094
1667266560405689900,0.65368994140625,0.4411080777645111,-0.3453577756881714,0.7835643291473389
1667266560408087600,0.656087646484375,0.4160633385181427,-0.2909923493862152,0.7737907767295837
1667266560410485200,0.6584853515625,0.3891860544681549,-0.23540526628494263,0.7621846795082092
1667266560412883200,0.66088330078125,0.3616979420185089,-0.17920731008052826,0.7487460374832153
1667266560415281000,0.663281005859375,0.3342097997665405,-0.12606360018253326,0.7371399402618408
1667266560417678800,0.665678955078125,0.30488914251327515,-0.06986565887928009,0.7205706834793091
1667266560420076500,0.66807666015625,0.2755684554576874,-0.01794363744556904,0.7052994966506958
1667266560422474500,0.670474609375,0.2456369549036026,0.033978380262851715,0.6888066530227661
1667266560424872200,0.6728720703125,0.21570543944835663,0.0883437842130661,0.6710920929908752
1667266560427270000,0.675269775390625,0.18516308069229126,0.13660071790218353,0.6521558165550232
1667266560429667800,0.677667724609375,0.1552315652370453,0.18241426348686218,0.6307761669158936
1667266560432065500,0.6800654296875,0.1265217363834381,0.22150848805904388,0.6100073456764221
1667266560434463500,0.68246337890625,0.09842276573181152,0.2563267946243286,0.5898494124412537
1667266560436861200,0.684861083984375,0.06910209357738495,0.2874799966812134,0.5703022480010986
1667266560439259100,0.687259033203125,0.04100312292575836,0.3125247359275818,0.5501443147659302
1667266560441656800,0.68965673828125,0.012904148548841476,0.3357369303703308,0.5342622995376587
1667266560444054500,0.692054443359375,-0.013362283818423748,0.3510081171989441,0.5208236575126648
1667266560446452500,0.694452392578125,-0.04085041210055351,0.3613924980163574,0.5079958438873291
1667266560448850200,0.69685009765625,-0.06528430432081223,0.3668901324272156,0.5000548362731934
1667266560451248000,0.699248046875,-0.09093988686800003,0.36811181902885437,0.4963897466659546
1667266560453645800,0.701645751953125,-0.11659546941518784,0.36017081141471863,0.49883314967155457
1667266560456043800,0.704043701171875,-0.14164020121097565,0.3497864007949829,0.5031090974807739
1667266560458441500,0.70644140625,-0.16729579865932465,0.33146098256111145,0.5134934782981873
1667266560460839400,0.70883935546875,-0.19172967970371246,0.308859646320343,0.5244887471199036
1667266560463237000,0.711237060546875,-0.21860696375370026,0.27709558606147766,0.540370762348175
1667266560465635000,0.713635009765625,-0.24548424780368805,0.23861220479011536,0.5611395835876465
1667266560468032800,0.71603271484375,-0.27236151695251465,0.1921878159046173,0.5812975168228149
1667266560470430500,0.718430419921875,-0.29618456959724426,0.1408766508102417,0.6051205396652222
1667266560472828400,0.720828369140625,-0.32069480419158936,0.07795938104391098,0.6283327341079712
1667266560475226000,0.72322607421875,-0.3402419090270996,0.011987877078354359,0.6545991897583008
1667266560477624000,0.7256240234375,-0.35795649886131287,-0.06131379306316376,0.683309018611908
1667266560480021800,0.728021728515625,-0.3762819170951843,-0.13644801080226898,0.7126296758651733
1667266560482419700,0.730419677734375,-0.3903313875198364,-0.21707984805107117,0.7414158582687378
1667266560484817400,0.7328173828125,-0.40010493993759155,-0.3013767600059509,0.7707365155220032
1667266560487215000,0.735215087890625,-0.4062134325504303,-0.3856737017631531,0.8025006055831909
1667266560489613000,0.737613037109375,-0.4086568057537079,-0.4682144224643707,0.8348754644393921
1667266560492010800,0.7400107421875,-0.41110020875930786,-0.5494571328163147,0.867250382900238
1667266560494408700,0.74240869140625,-0.4074351191520691,-0.6288672685623169,0.8977927565574646
1667266560496806400,0.744806396484375,-0.40010493993759155,-0.7027797698974609,0.9240592122077942
1667266560499204400,0.747204345703125,-0.3927747905254364,-0.7730271816253662,0.955212414264679
1667266560501602000,0.74960205078125,-0.3811686933040619,-0.8353336453437805,0.9833113551139832
1667266560504000000,0.752,-0.3683409094810486,-0.8884773254394531,1.0132428407669067
1667266560506397700,0.754397705078125,-0.3542914092540741,-0.9355126023292542,1.043174386024475
1667266560508795600,0.756795654296875,-0.3396310806274414,-0.9721634387969971,1.0712733268737793
1667266560511193300,0.759193359375,-0.3268032968044281,-0.9978190064430237,1.0957072973251343
1667266560513591000,0.761591064453125,-0.3170297145843506,-1.0143119096755981,1.1238062381744385
1667266560515989000,0.763989013671875,-0.30969956517219543,-1.0204203128814697,1.145185947418213
1667266560518386700,0.76638671875,-0.30481278896331787,-1.0149227380752563,1.1665655374526978
1667266560520784600,0.76878466796875,-0.3035911023616791,-1.00392746925354,1.1855018138885498
1667266560523182300,0.771182373046875,-0.3029802441596985,-0.9843803644180298,1.2026054859161377
1667266560525580300,0.773580322265625,-0.30664533376693726,-0.9562813639640808,1.2160441875457764
1667266560527978000,0.77597802734375,-0.3127537965774536,-0.9190196990966797,1.2276502847671509
1667266560530375700,0.778375732421875,-0.32130566239356995,-0.8756495714187622,1.238034725189209
1667266560532773600,0.780773681640625,-0.3280249834060669,-0.8182299137115479,1.246586561203003
1667266560535171300,0.78317138671875,-0.337798535823822,-0.7559235095977783,1.2545275688171387
1667266560537569300,0.7855693359375,-0.34879377484321594,-0.6838434934616089,1.256971001625061
1667266560539967000,0.787967041015625,-0.35795649886131287,-0.6038225293159485,1.260025143623352
1667266560542365000,0.790364990234375,-0.3658975064754486,-0.5244123935699463,1.261246919631958
1667266560544762600,0.7927626953125,-0.37261682748794556,-0.44072631001472473,1.2581926584243774
1667266560547160600,0.79516064453125,-0.3781144618988037,-0.3539096415042877,1.2563600540161133
1667266560549558300,0.797558349609375,-0.3817795515060425,-0.2683910131454468,1.2526949644088745
1667266560551956000,0.7999560546875,-0.3787252902984619,-0.18348324298858643,1.2520841360092163
1667266560554354000,0.80235400390625,-0.37383851408958435,-0.10162971168756485,1.2490298748016357
1667266560556751600,0.804751708984375,-0.3665083646774292,-0.023441264405846596,1.2447539567947388
1667266560559149600,0.807149658203125,-0.35856732726097107,0.049860406666994095,1.2410888671875
1667266560561547300,0.80954736328125,-0.34757208824157715,0.11583191156387329,1.2331478595733643
1667266560563945200,0.8119453125,-0.33413344621658325,0.1689756214618683,1.2313153743743896
1667266560566343000,0.814343017578125,-0.32069480419158936,0.21173493564128876,1.2245960235595703
1667266560568740900,0.816740966796875,-0.30664533376693726,0.24166645109653473,1.219098448753357
1667266560571138600,0.819138671875,-0.2919086217880249,0.2593810260295868,1.2123790979385376
1667266560573536300,0.821536376953125,-0.278469979763031,0.26365694403648376,1.2032164335250854
1667266560575934200,0.823934326171875,-0.2631988227367401,0.2612135708332062,1.1989405155181885
1667266560578332000,0.826331787109375,-0.2522035539150238,0.2459423840045929,1.1909993886947632
1667266560580729900,0.828729736328125,-0.24120831489562988,0.22761696577072144,1.1836693286895752
1667266560583127600,0.83112744140625,-0.22838051617145538,0.2044047713279724,1.177560806274414
1667266560585525500,0.833525390625,-0.22105035185813904,0.17752748727798462,1.1757283210754395
1667266560587923200,0.835923095703125,-0.2112767994403839,0.15065020322799683,1.1745065450668335
1667266560590321000,0.83832080078125,-0.20333577692508698,0.12071868777275085,1.1745065450668335
1667266560592718800,0.84071875,-0.19783815741539001,0.09261971712112427,1.1781716346740723
1667266560595116500,0.843116455078125,-0.19172967970371246,0.06818582862615585,1.1842801570892334
1667266560597514500,0.845514404296875,-0.1856212168931961,0.04680617153644562,1.1897777318954468
1667266560599912200,0.847912109375,-0.18195612728595734,0.027259059250354767,1.1971079111099243
1667266560602310100,0.85031005859375,-0.18012358248233795,0.010766183026134968,1.2032164335250854
1667266560604707800,0.852707763671875,-0.18073442578315735,-0.00022906772210262716,1.2074923515319824
1667266560607105800,0.855105712890625,-0.18501035869121552,-0.008780929259955883,1.2087140083312988
1667266560609503500,0.85750341796875,-0.18867544829845428,-0.012446013279259205,1.2111574411392212
1667266560611901400,0.8599013671875,-0.19417306780815125,-0.011835165321826935,1.210546612739563
1667266560614299100,0.862299072265625,-0.20272493362426758,-0.007559234742075205,1.2056597471237183
1667266560616696800,0.86469677734375,-0.2112767994403839,0.0022143214009702206,1.2001621723175049
1667266560619094800,0.8670947265625,-0.21982865035533905,0.019928891211748123,1.1940536499023438
1667266560621492500,0.869492431640625,-0.22349373996257782,0.040697697550058365,1.186112642288208
1667266560623890400,0.871890380859375,-0.227769672870636,0.06940752267837524,1.1781716346740723
1667266560626288000,0.8742880859375,-0.23204560577869415,0.1005607321858406,1.1720632314682007
1667266560628685800,0.876685791015625,-0.22838051617145538,0.13598987460136414,1.1647330522537231
1667266560631083800,0.879083740234375,-0.22166119515895844,0.17569494247436523,1.1604571342468262
1667266560633481500,0.8814814453125,-0.20944425463676453,0.2190650999546051,1.1561810970306396
1667266560635879400,0.88387939453125,-0.19783815741539001,0.2569376230239868,1.1555702686309814
1667266560638277000,0.886277099609375,-0.18256697058677673,0.30336201190948486,1.1567920446395874
1667266560640675000,0.888675048828125,-0.16485241055488586,0.34673216938972473,1.1549594402313232
1667266560643072800,0.89107275390625,-0.1483595222234726,0.3931565582752228,1.1555702686309814
1667266560645470700,0.893470703125,-0.13186664879322052,0.4432460367679596,1.1598461866378784
1667266560647868400,0.895868408203125,-0.11659546941518784,0.493946373462677,1.1616787910461426
1667266560650266400,0.898266357421875,-0.10193513333797455,0.5458683967590332,1.1622896194458008
1667266560652664000,0.9006640625,-0.09216158092021942,0.5941253304481506,1.1641221046447754
1667266560655062000,0.90306201171875,-0.08299887180328369,0.6429930925369263,1.162900447845459
1667266560657459700,0.905459716796875,-0.07811209559440613,0.6863632798194885,1.1580137014389038
1667266560659857400,0.907857421875,-0.07566870748996735,0.7199598550796509,1.1525160074234009
1667266560662255400,0.91025537109375,-0.07261446863412857,0.7456154227256775,1.148240089416504
1667266560664653000,0.912653076171875,-0.07383616268634796,0.7688276171684265,1.1348015069961548
1667266560667051000,0.915051025390625,-0.07811209559440613,0.7859313488006592,1.1195303201675415
1667266560669448700,0.91744873046875,-0.08299887180328369,0.8030350804328918,1.0969289541244507
1667266560671846400,0.919846435546875,-0.08910734206438065,0.817084550857544,1.0676082372665405
1667266560674244400,0.922244384765625,-0.09704835712909698,0.8250255584716797,1.032789945602417
1667266560676642000,0.92464208984375,-0.10498937219381332,0.8311340808868408,0.9955283403396606
1667266560679040000,0.9270400390625,-0.11598462611436844,0.8299123644828796,0.9533798694610596
1667266560681437700,0.929437744140625,-0.12697987258434296,0.8213604688644409,0.9069554805755615
1667266560683835600,0.931835693359375,-0.14225105941295624,0.8073109984397888,0.8629744648933411
1667266560686233300,0.9342333984375,-0.15446799993515015,0.784709632396698,0.8141067028045654
1667266560688631300,0.93663134765625,-0.16607409715652466,0.7651625275611877,0.7664605975151062
1667266560691029000,0.939029052734375,-0.17951273918151855,0.7413395047187805,0.7187381386756897
1667266560693427000,0.941427001953125,-0.19356222450733185,0.7169055938720703,0.6680378317832947
1667266560695824600,0.94382470703125,-0.20577916502952576,0.6900283098220825,0.623445987701416
1667266560698222300,0.946222412109375,-0.22105035185813904,0.6619293689727783,0.5776324272155762
1667266560700620300,0.948620361328125,-0.23326729238033295,0.63199782371521,0.5348731279373169
1667266560703018000,0.95101806640625,-0.24487338960170746,0.6020663380622864,0.4957789182662964
1667266560705416000,0.953416015625,-0.25770118832588196,0.5703022480010986,0.45912808179855347
1667266560707813600,0.955813720703125,-0.2656421959400177,0.5434249639511108,0.42430979013442993
1667266560710211600,0.958211669921875,-0.2754157483577728,0.5153260231018066,0.3913240134716034
1667266560712609300,0.960609375,-0.2815242409706116,0.48783788084983826,0.362003356218338
1667266560715007000,0.963007080078125,-0.28580015897750854,0.4652365446090698,0.3394020199775696
1667266560717405000,0.965405029296875,-0.2919086217880249,0.44813281297683716,0.31924405694007874
1667266560719802600,0.967802734375,-0.29862794280052185,0.43835926055908203,0.30336201190948486
1667266560722200600,0.97020068359375,-0.3023693859577179,0.4316399395465851,0.29175591468811035
1667266560724598300,0.972598388671875,-0.3029802441596985,0.4285857081413269,0.2850365936756134
1667266560726996200,0.974996337890625,-0.3011476993560791,0.4291965663433075,0.28076067566871643
1667266560729394000,0.977393798828125,-0.29862794280052185,0.4291965663433075,0.28137150406837463
1667266560731792000,0.9797919921875,-0.29984965920448303,0.4322507977485657,0.285647451877594
1667266560734189600,0.982189453125,-0.29862794280052185,0.4438568949699402,0.29297763109207153
1667266560736587500,0.98458740234375,-0.2919086217880249,0.4585172235965729,0.3003077805042267
1667266560738985200,0.986985107421875,-0.28580015897750854,0.47806432843208313,0.3100813329219818
1667266560741383000,0.9893828125,-0.278469979763031,0.5031090974807739,0.3259633779525757
1667266560743780900,0.99178076171875,-0.2644205093383789,0.5293754935264587,0.34184539318084717
1667266560746178600,0.994178466796875,-0.24853847920894623,0.5562527775764465,0.35589489340782166
1667266560748576500,0.996576416015625,-0.22899135947227478,0.5849626064300537,0.3754419982433319
1667266560750974200,0.99897412109375,-0.20211409032344818,0.6148941516876221,0.3931565582752228
1667266560753372200,1.0013720703125,-0.16729579865932465,0.6472690105438232,0.4127036929130554
1667266560755769900,1.003769775390625,-0.12636902928352356,0.6772005558013916,0.4285857081413269
1667266560758167600,1.00616748046875,-0.07994463294744492,0.706521213054657,0.4463002681732178
1667266560760565500,1.0085654296875,-0.02802261710166931,0.734620213508606,0.46279314160346985
1667266560762963200,1.010963134765625,0.028786176815629005,0.7541673183441162,0.47684264183044434
1667266560765361200,1.013361083984375,0.0892600566148758,0.7700493335723877,0.4908921420574188
1667266560767758800,1.0157587890625,0.14851224422454834,0.780433714389801,0.5037199258804321
1667266560770156800,1.01815673828125,0.21265120804309845,0.7914289832115173,0.5208236575126648
1667266560772554500,1.020554443359375,0.2743467688560486,0.8024242520332336,0.5409815907478333
1667266560774952400,1.022952392578125,0.3366532027721405,0.8158628940582275,0.5586961507797241
1667266560777350100,1.02535009765625,0.39651623368263245,0.8305231928825378,0.5800758004188538
1667266560779748000,1.027748046875,0.45210331678390503,0.8464052081108093,0.6038988828659058
1667266560782145800,1.030145751953125,0.503414511680603,0.8671740293502808,0.6295544505119324
1667266560784543500,1.03254345703125,0.5516714453697205,0.8964946866035461,0.6600968241691589
1667266560786941400,1.03494140625,0.5932090282440186,0.9209285974502563,0.6912500262260437
1667266560789339100,1.037339111328125,0.6237514019012451,0.938032329082489,0.7169055938720703
1667266560791737000,1.039737060546875,0.6469635963439941,0.9496384263038635,0.7450809478759766
1667266560794134800,1.042134765625,0.6579588651657104,0.9508601427078247,0.765238881111145
1667266560796532700,1.04453271484375,0.6610130667686462,0.9404757022857666,0.7817317843437195
1667266560798930400,1.046930419921875,0.6524612307548523,0.9184852242469788,0.7939487099647522
1667266560801328000,1.049328125,0.637190043926239,0.8879428505897522,0.7988355159759521
1667266560803726000,1.05172607421875,0.6133670210838318,0.8464052081108093,0.797613799571991
1667266560806123800,1.054123779296875,0.5840463638305664,0.8012025356292725,0.7963921427726746
1667266560808521700,1.056521728515625,0.5528931021690369,0.752945601940155,0.788451075553894
1667266560810919400,1.05891943359375,0.5144097208976746,0.710797131061554,0.7780666947364807
1667266560813317400,1.0613173828125,0.47714805603027344,0.6729246377944946,0.7670714259147644
