time,seconds_elapsed,z,y,x
1667267073284582400,0.08558251953125,0.06116108223795891,0.08162446320056915,0.0626882016658783
1667267073286980000,0.08797998046875,0.06055023521184921,0.09506310522556305,0.03886515647172928
1667267073289378000,0.0903779296875,0.05993938818573952,0.10483665764331818,0.018096350133419037
1667267073291775700,0.092775634765625,0.05810684710741043,0.1152210608124733,-0.0051158457063138485
1667267073294173400,0.09517333984375,0.05688514932990074,0.12071868777275085,-0.0295497365295887
1667267073296571100,0.097571044921875,0.053830914199352264,0.12316207587718964,-0.048486001789569855
1667267073298968800,0.09996875,0.05199837312102318,0.12438376992940903,-0.06558972597122192
1667267073301366800,0.10236669921875,0.048333290964365005,0.11949699372053146,-0.07841751724481583
1667267073303764500,0.104764404296875,0.04405735805630684,0.1152210608124733,-0.0942995473742485
1667267073306162200,0.107162109375,0.04161396995186806,0.10544750839471817,-0.1077381819486618
1667267073308560000,0.109559814453125,0.036727190017700195,0.09384141117334366,-0.11690089106559753
1667267073310957600,0.11195751953125,0.03733803704380989,0.08040276914834976,-0.12239851802587509
1667267073313355500,0.11435546875,0.03367295488715172,0.06696412712335587,-0.12789614498615265
1667267073315753200,0.116753173828125,0.031229566782712936,0.051082100719213486,-0.12972868978977203
1667267073318151000,0.11915087890625,0.030007870867848396,0.03764346241950989,-0.12911784648895264
1667267073320548600,0.121548583984375,0.030007870867848396,0.02298312820494175,-0.12545275688171387
1667267073322946300,0.1239462890625,0.028786176815629005,0.010155336000025272,-0.11934428662061691
1667267073325344300,0.12634423828125,0.027564482763409615,-0.00022906772210262716,-0.11323580890893936
1667267073327742000,0.128741943359375,0.025731941685080528,-0.0051158457063138485,-0.10285140573978424
1667267073330139600,0.1311396484375,0.025121092796325684,-0.006337540224194527,-0.09185615926980972
1667267073332537300,0.133537353515625,0.02145601063966751,-0.010002624243497849,-0.07963921129703522
1667267073334935300,0.135935302734375,0.02145601063966751,-0.0130568603053689,-0.06620056927204132
1667267073337333000,0.1383330078125,0.01901262067258358,-0.01794363744556904,-0.05276193097233772
1667267073339730700,0.140730712890625,0.017180079594254494,-0.024662958458065987,-0.039323292672634125
1667267073342128400,0.14312841796875,0.014736690558493137,-0.03443651273846626,-0.02710634656250477
1667267073344526000,0.145526123046875,0.0165692325681448,-0.039323292672634125,-0.016721943393349648
1667267073346924000,0.147924072265625,0.01779092662036419,-0.04421006888151169,-0.006337540224194527
1667267073349321700,0.15032177734375,0.02145601063966751,-0.05031854286789894,0.0028251686599105597
1667267073351719400,0.152719482421875,0.023288551717996597,-0.0552053228020668,0.010766183026134968
1667267073354117000,0.1551171875,0.02695363573729992,-0.05703786388039589,0.018707197159528732
1667267073356514800,0.157514892578125,0.03306210786104202,-0.0552053228020668,0.026037365198135376
1667267073358912800,0.159912841796875,0.036727190017700195,-0.05337277799844742,0.03092414326965809
1667267073361310500,0.162310546875,0.043446511030197144,-0.04604261368513107,0.0364217683672905
1667267073363708200,0.164708251953125,0.048333290964365005,-0.040544986724853516,0.03886515647172928
1667267073366105900,0.16710595703125,0.05016583204269409,-0.032603971660137177,0.04130854457616806
1667267073368503600,0.169503662109375,0.053830914199352264,-0.022219568490982056,0.041919391602277756
1667267073370901500,0.171901611328125,0.05688514932990074,-0.009391776286065578,0.04558447748422623
1667267073373299200,0.17429931640625,0.05932854115962982,0.00038177953683771193,0.04558447748422623
1667267073375697000,0.17669677734375,0.06055023521184921,0.008322793990373611,0.04619532451033592
1667267073378094600,0.179094482421875,0.062993623316288,0.01748550310730934,0.04253023862838745
1667267073380492300,0.1814921875,0.06543701142072678,0.02176143415272236,0.041919391602277756
1667267073382890200,0.18389013671875,0.07032378762960434,0.023593975231051445,0.04008685052394867
1667267073385288000,0.186287841796875,0.07643226534128189,0.019318044185638428,0.033978380262851715
1667267073387685600,0.188685546875,0.08254073560237885,0.015042114071547985,0.03092414326965809
1667267073390083300,0.191083251953125,0.08559497445821762,0.008322793990373611,0.02542651630938053
1667267073392481300,0.193481201171875,0.08987089991569519,0.004657710436731577,0.02053973823785782
1667267073394879000,0.19587890625,0.09475768357515335,-0.0008399150101467967,0.01626380905508995
1667267073397276700,0.198276611328125,0.09659022092819214,-0.004504998680204153,0.01382041908800602
1667267073399674400,0.20067431640625,0.10025530308485031,-0.004504998680204153,0.011377030052244663
1667267073402072000,0.203072021484375,0.10025530308485031,-0.006948387715965509,0.0064902519807219505
1667267073404470000,0.205469970703125,0.09964445978403091,-0.007559234742075205,0.004046862944960594
1667267073406867700,0.20786767578125,0.09903360903263092,-0.008170082233846188,0.0009926267666742206
1667267073409265400,0.210265380859375,0.09720107167959213,-0.008780929259955883,0.0022143214009702206
1667267073411663000,0.2126630859375,0.09475768357515335,-0.006948387715965509,0.00038177953683771193
1667267073414060800,0.215060791015625,0.09414683282375336,-0.007559234742075205,-0.0014507622690871358
1667267073416458800,0.217458740234375,0.09353598952293396,-0.008780929259955883,-0.004504998680204153
1667267073418856400,0.2198564453125,0.09109259396791458,-0.008780929259955883,-0.0051158457063138485
1667267073421254100,0.222254150390625,0.09109259396791458,-0.011835165321826935,-0.0051158457063138485
1667267073423651800,0.22465185546875,0.09231429547071457,-0.01794363744556904,-0.0051158457063138485
1667267073426049500,0.227049560546875,0.09170344471931458,-0.02710634656250477,-0.006337540224194527
1667267073428447500,0.229447509765625,0.09109259396791458,-0.03565821051597595,-0.005726693198084831
1667267073430845200,0.23184521484375,0.08987089991569519,-0.0423775278031826,-0.0038941511884331703
1667267073433243000,0.234242919921875,0.08987089991569519,-0.05031854286789894,0.0016034740256145597
1667267073435640600,0.236640625,0.08987089991569519,-0.050929389894008636,0.008322793990373611
1667267073438038500,0.23903857421875,0.09048175066709518,-0.049707695841789246,0.013209572061896324
1667267073440436200,0.241436279296875,0.08559497445821762,-0.04665346071124077,0.01748550310730934
1667267073442834000,0.243833984375,0.08315158635377884,-0.040544986724853516,0.024815669283270836
1667267073445231600,0.246231689453125,0.07704310864210129,-0.03443651273846626,0.030313294380903244
1667267073447629600,0.248629638671875,0.06910209357738495,-0.03077143058180809,0.033978380262851715
1667267073450027300,0.25102734375,0.06421531736850739,-0.027717193588614464,0.039476003497838974
1667267073452425000,0.253425048828125,0.057496000081300735,-0.02160872146487236,0.04497363045811653
1667267073454822700,0.25582275390625,0.052609220147132874,-0.016721943393349648,0.0492495596408844
1667267073457220400,0.258220458984375,0.045889899134635925,-0.0130568603053689,0.05047125369310379
1667267073459618300,0.260618408203125,0.04283566400408745,-0.006948387715965509,0.05413633957505226
1667267073462016000,0.26301611328125,0.04283566400408745,0.0034360159188508987,0.05230379477143288
1667267073464413700,0.26541357421875,0.043446511030197144,0.015652960166335106,0.0492495596408844
1667267073466811400,0.267811279296875,0.04527905210852623,0.02664821222424507,0.04619532451033592
1667267073469209000,0.270208984375,0.05016583204269409,0.04130854457616806,0.04130854457616806
1667267073471607000,0.27260693359375,0.055052608251571655,0.05474718660116196,0.03458922728896141
1667267073474004700,0.275004638671875,0.06116108223795891,0.06879667192697525,0.029091600328683853
1667267073476402400,0.27740234375,0.06665870547294617,0.08162446320056915,0.022372281178832054
1667267073478800100,0.279800048828125,0.07093463838100433,0.09384141117334366,0.011987877078354359
1667267073481197800,0.28219775390625,0.07765395939350128,0.11094513535499573,0.0016034740256145597
1667267073483595800,0.284595703125,0.08192989230155945,0.12377292662858963,-0.008780929259955883
1667267073485993500,0.286993408203125,0.08559497445821762,0.13721156120300293,-0.019776180386543274
1667267073488391200,0.28939111328125,0.0886492058634758,0.14942851662635803,-0.0295497365295887
1667267073490788900,0.291788818359375,0.08987089991569519,0.16286714375019073,-0.041766680777072906
1667267073493186600,0.2941865234375,0.0892600566148758,0.17630578577518463,-0.05337277799844742
1667267073495584500,0.29658447265625,0.08987089991569519,0.19035527110099792,-0.06497887521982193
1667267073497982200,0.298982177734375,0.09170344471931458,0.20012883841991425,-0.07475243508815765
1667267073500380000,0.3013798828125,0.09170344471931458,0.21112407743930817,-0.08513683825731277
1667267073502777600,0.303777587890625,0.09292513877153397,0.21601086854934692,-0.09368869662284851
1667267073505175600,0.306175537109375,0.09475768357515335,0.22150848805904388,-0.10529479384422302
1667267073507573200,0.3085732421875,0.09720107167959213,0.22517357766628265,-0.11201411485671997
1667267073509971000,0.310970947265625,0.1008661538362503,0.22211933135986328,-0.1217876747250557
1667267073512368600,0.31336865234375,0.10453123599290848,0.21723255515098572,-0.13095037639141083
1667267073514766300,0.315766357421875,0.11186140775680542,0.21234577894210815,-0.14072394371032715
1667267073517164300,0.318164306640625,0.1143047958612442,0.2056264579296112,-0.15171918272972107
1667267073519562000,0.32056201171875,0.11735902726650238,0.19951798021793365,-0.15782766044139862
1667267073521959700,0.322959716796875,0.12163496017456055,0.19890713691711426,-0.16637952625751495
1667267073524357400,0.325357421875,0.12468919903039932,0.19768545031547546,-0.1724879890680313
1667267073526755000,0.327755126953125,0.1265217363834381,0.19890713691711426,-0.18103985488414764
1667267073529153000,0.330153076171875,0.1271325796842575,0.2044047713279724,-0.18287239968776703
1667267073531550700,0.33255078125,0.1265217363834381,0.21051323413848877,-0.1871483325958252
1667267073533948400,0.334948486328125,0.12346750497817993,0.21601086854934692,-0.18898087739944458
1667267073536346000,0.33734619140625,0.12285665422677994,0.22395187616348267,-0.19325679540634155
1667267073538743800,0.339743896484375,0.12224581092596054,0.231282040476799,-0.19325679540634155
1667267073541141800,0.342141845703125,0.12102411687374115,0.2434989959001541,-0.19386765360832214
1667267073543539500,0.34453955078125,0.11796987801790237,0.2587701678276062,-0.19142426550388336
1667267073545937200,0.346937255859375,0.11674818396568298,0.2746522128582001,-0.1877591758966446
1667267073548334800,0.3493349609375,0.11552648991346359,0.2874799966812134,-0.18287239968776703
1667267073550732800,0.35173291015625,0.11735902726650238,0.2984752357006073,-0.17554223537445068
1667267073553130500,0.354130615234375,0.11919157207012177,0.30641624331474304,-0.16760121285915375
1667267073555528200,0.356528076171875,0.12285665422677994,0.3137464225292206,-0.1590493619441986
1667267073557926000,0.35892578125,0.1283542811870575,0.31557896733283997,-0.14988665282726288
1667267073560323800,0.36132373046875,0.13568444550037384,0.31618982553482056,-0.14011308550834656
1667267073562721500,0.363721435546875,0.1405712217092514,0.3149681091308594,-0.12728530168533325
1667267073565119200,0.366119140625,0.14912308752536774,0.3137464225292206,-0.11567919701337814
1667267073567517000,0.368516845703125,0.15584240853786469,0.3119138777256012,-0.10346225649118423
1667267073569914600,0.37091455078125,0.16378341615200043,0.308859646320343,-0.09063446521759033
1667267073572312600,0.3733125,0.16928105056285858,0.3015294671058655,-0.08025006204843521
1667267073574710300,0.375710205078125,0.17600037157535553,0.29236677289009094,-0.06742226332426071
1667267073577108000,0.37810791015625,0.18516308069229126,0.27953898906707764,-0.05459447205066681
1667267073579505700,0.380505615234375,0.19127154350280762,0.26487863063812256,-0.04115583375096321
1667267073581903400,0.3829033203125,0.19921256601810455,0.2453315258026123,-0.026495499536395073
1667267073584301300,0.38530126953125,0.2071535736322403,0.22639526426792145,-0.01122431829571724
1667267073586699000,0.387698974609375,0.21570543944835663,0.2044047713279724,0.0064902519807219505
1667267073589096700,0.3900966796875,0.22364644706249237,0.18241426348686218,0.02298312820494175
1667267073591494400,0.392494384765625,0.23036576807498932,0.16042375564575195,0.041919391602277756
1667267073593892000,0.39489208984375,0.23647424578666687,0.13721156120300293,0.06085565686225891
1667267073596290000,0.3972900390625,0.2444152534008026,0.11705360561609268,0.07979192584753036
1667267073598687700,0.399687744140625,0.24808034300804138,0.09750649333000183,0.09872818738222122
1667267073601085400,0.40208544921875,0.25357797741889954,0.07734853774309158,0.11766445636749268
1667267073603483100,0.404483154296875,0.2572430372238159,0.05963396281003952,0.13354648649692535
1667267073605880800,0.406880859375,0.2596864402294159,0.04680617153644562,0.14698512852191925
1667267073608278800,0.40927880859375,0.26335152983665466,0.032756682485342026,0.15981291234493256
1667267073610676500,0.411676513671875,0.26457321643829346,0.019318044185638428,0.1689756214618683
1667267073613074200,0.41407421875,0.26518407464027405,0.007711946498602629,0.17569494247436523
1667267073615471900,0.416471923828125,0.26335152983665466,-0.008170082233846188,0.179360032081604
1667267073617869800,0.418869873046875,0.26396235823631287,-0.023441264405846596,0.1787491738796234
1667267073620267500,0.421267578125,0.2602972984313965,-0.039323292672634125,0.17813833057880402
1667267073622665200,0.423665283203125,0.2578538954257965,-0.05825955793261528,0.17202985286712646
1667267073625063000,0.42606298828125,0.25479966402053833,-0.08086090534925461,0.1653105467557907
1667267073627460600,0.428460693359375,0.25052374601364136,-0.10285140573978424,0.15798036754131317
1667267073629858600,0.430858642578125,0.2468586415052414,-0.12972868978977203,0.14942851662635803
1667267073632256300,0.43325634765625,0.24075017869472504,-0.15355172753334045,0.1414874941110611
1667267073634654000,0.435654052734375,0.23708508908748627,-0.1730988472700119,0.13293562829494476
1667267073637051600,0.4380517578125,0.2321983128786087,-0.19203510880470276,0.126216322183609
1667267073639449300,0.440449462890625,0.22486814856529236,-0.20303036272525787,0.11766445636749268
1667267073641847300,0.442847412109375,0.2205922156572342,-0.2140256017446518,0.10789089649915695
1667267073644245000,0.445244873046875,0.21387289464473724,-0.22318831086158752,0.10178242623806
1667267073646642700,0.447642578125,0.20959696173667908,-0.22990763187408447,0.09750649333000183
1667267073649040400,0.450040283203125,0.2053210288286209,-0.23540526628494263,0.09078717231750488
1667267073651438000,0.45243798828125,0.19738002121448517,-0.24212458729743958,0.08651123940944672
1667267073653836000,0.4548359375,0.19066070020198822,-0.24762220680713654,0.08406785130500793
1667267073656233700,0.457233642578125,0.18455222249031067,-0.2531198263168335,0.08284615725278854
1667267073658631400,0.45963134765625,0.1796654462814331,-0.25861746072769165,0.07979192584753036
1667267073661029000,0.462029052734375,0.17355698347091675,-0.25739577412605286,0.07734853774309158
1667267073663426800,0.4644267578125,0.1680593490600586,-0.2561740577220917,0.07795938104391098
1667267073665824800,0.46682470703125,0.16134002804756165,-0.2518981397151947,0.08040276914834976
1667267073668222500,0.469222412109375,0.1533990204334259,-0.24823305010795593,0.08284615725278854
1667267073670620200,0.4716201171875,0.14851224422454834,-0.2390703409910202,0.08712209016084671
1667267073673017900,0.474017822265625,0.141182079911232,-0.2256316989660263,0.09384141117334366
1667267073675415800,0.476415771484375,0.13507360219955444,-0.2134147584438324,0.09994988143444061
1667267073677813500,0.4788134765625,0.1295759677886963,-0.19631104171276093,0.10911259055137634
1667267073680211200,0.481211181640625,0.12530004978179932,-0.17981816828250885,0.12071868777275085
1667267073682609000,0.48360888671875,0.12041326612234116,-0.16454698145389557,0.13171394169330597
1667267073685006800,0.4860068359375,0.11796987801790237,-0.15171918272972107,0.14332003891468048
1667267073687404500,0.488404541015625,0.11858072131872177,-0.14133478701114655,0.15614783763885498
1667267073689802200,0.49080224609375,0.11674818396568298,-0.1333937644958496,0.1671430766582489
1667267073692200000,0.493199951171875,0.11858072131872177,-0.12789614498615265,0.1787491738796234
1667267073694597600,0.49559765625,0.12163496017456055,-0.12484190613031387,0.19035527110099792
1667267073696995600,0.49799560546875,0.12468919903039932,-0.12239851802587509,0.19829629361629486
1667267073699393300,0.500393310546875,0.13018682599067688,-0.12484190613031387,0.2056264579296112
1667267073701791000,0.502791015625,0.13751699030399323,-0.12606360018253326,0.21112407743930817
1667267073704188700,0.505188720703125,0.14484715461730957,-0.13095037639141083,0.21723255515098572
1667267073706586400,0.50758642578125,0.15034478902816772,-0.13644801080226898,0.2190650999546051
1667267073708984300,0.509984375,0.15767495334148407,-0.14438901841640472,0.2202867865562439
1667267073711382000,0.512382080078125,0.16378341615200043,-0.15294088423252106,0.21784339845180511
1667267073713779700,0.51477978515625,0.17050273716449738,-0.1590493619441986,0.21601086854934692
1667267073716177400,0.517177490234375,0.17538951337337494,-0.17004460096359253,0.21112407743930817
1667267073718575000,0.5195751953125,0.1821088343858719,-0.18103985488414764,0.2056264579296112
1667267073720973000,0.52197314453125,0.18943901360034943,-0.18959172070026398,0.19524206221103668
1667267073723370800,0.524370849609375,0.193104088306427,-0.19386765360832214,0.18546849489212036
1667267073725768400,0.5267685546875,0.20043425261974335,-0.19692188501358032,0.17752748727798462
1667267073728166100,0.529166259765625,0.2059318870306015,-0.1987544298171997,0.1671430766582489
1667267073730564000,0.531564208984375,0.21509459614753723,-0.1981435865163803,0.1555369794368744
1667267073732961800,0.5339619140625,0.22303560376167297,-0.19631104171276093,0.14576342701911926
1667267073735359500,0.536359375,0.2315874695777893,-0.19264595210552216,0.13476817309856415
1667267073737757200,0.538757080078125,0.24380441009998322,-0.18959172070026398,0.12560546398162842
1667267073740155100,0.541155029296875,0.25296711921691895,-0.1859266310930252,0.11583191156387329
1667267073742552800,0.543552734375,0.26212984323501587,-0.1877591758966446,0.10789089649915695
1667267073744950500,0.545950439453125,0.2731250822544098,-0.18898087739944458,0.09811734408140182
1667267073747348200,0.54834814453125,0.2835094928741455,-0.19020256400108337,0.08956547826528549
1667267073749746000,0.550745849609375,0.2957264184951782,-0.18959172070026398,0.07979192584753036
1667267073752144000,0.553143798828125,0.3079433739185333,-0.1853157877922058,0.07124006003141403
1667267073754541600,0.55554150390625,0.31710609793663025,-0.17798562347888947,0.059023115783929825
1667267073756939300,0.557939208984375,0.32810133695602417,-0.16882291436195374,0.05169294774532318
1667267073759337000,0.5603369140625,0.3390965759754181,-0.15721681714057922,0.040697697550058365
1667267073761734700,0.562734619140625,0.348259299993515,-0.1456107199192047,0.027259059250354767
1667267073764132600,0.565132568359375,0.35742199420928955,-0.1346154659986496,0.014431266114115715
1667267073766530300,0.5675302734375,0.3647521734237671,-0.12545275688171387,-0.0008399150101467967
1667267073768928000,0.569927978515625,0.37147149443626404,-0.11873343586921692,-0.014278554357588291
1667267073771325700,0.57232568359375,0.378190815448761,-0.11140327155590057,-0.031382277607917786
1667267073773723400,0.574723388671875,0.3867426812648773,-0.10529479384422302,-0.047264307737350464
1667267073776121300,0.577121337890625,0.3910185992717743,-0.09857547283172607,-0.06620056927204132
1667267073778519000,0.57951904296875,0.39529454708099365,-0.09124530851840973,-0.0814717561006546
1667267073780916700,0.581916748046875,0.39834877848625183,-0.08025006204843521,-0.09918632358312607
1667267073783314400,0.584314453125,0.39712706208229065,-0.07414158433675766,-0.11506835371255875
1667267073785712000,0.586712158203125,0.39468368887901306,-0.06681142002344131,-0.13217207789421082
1667267073788110000,0.589110107421875,0.3879643678665161,-0.057648710906505585,-0.1480541080236435
1667267073790507800,0.5915078125,0.38429927825927734,-0.04787515476346016,-0.16332527995109558
1667267073792905500,0.593905517578125,0.3775799572467804,-0.03443651273846626,-0.17920731008052826
1667267073795303200,0.59630322265625,0.36902809143066406,-0.022219568490982056,-0.19508934020996094
1667267073797701000,0.598701171875,0.36047622561454773,-0.010002624243497849,-0.20730629563331604
1667267073800098800,0.601098876953125,0.3519243896007538,0.004046862944960594,-0.22074492275714874
1667267073802496500,0.60349658203125,0.34215080738067627,0.02176143415272236,-0.23540526628494263
1667267073804894200,0.605894287109375,0.33298811316490173,0.03703261539340019,-0.24640052020549774
1667267073807292200,0.608292236328125,0.3238253891468048,0.05657972767949104,-0.25861746072769165
1667267073809689900,0.61068994140625,0.3128301501274109,0.0755159929394722,-0.2683910131454468
1667267073812087600,0.613087646484375,0.30305659770965576,0.09139802306890488,-0.2781645655632019
1667267073814485200,0.6154853515625,0.2890070974826813,0.10911259055137634,-0.28366219997406006
1667267073816883000,0.617883056640625,0.2749576270580292,0.12560546398162842,-0.2891598343849182
1667267073819281000,0.620281005859375,0.2609081268310547,0.13904410600662231,-0.2922140657901764
1667267073821678600,0.6226787109375,0.24258272349834442,0.1530935913324356,-0.2940466105937958
1667267073824076300,0.625076171875,0.22547899186611176,0.1665322333574295,-0.2928248941898346
1667267073826474000,0.627473876953125,0.2059318870306015,0.179360032081604,-0.2916032075881958
1667267073828871700,0.62987158203125,0.18577392399311066,0.19829629361629486,-0.2934357523918152
1667267073831269600,0.63226953125,0.1662268042564392,0.21478916704654694,-0.290381520986557
1667267073833667300,0.634667236328125,0.14423631131649017,0.231282040476799,-0.2897706627845764
1667267073836065000,0.63706494140625,0.12530004978179932,0.2447206825017929,-0.28732728958129883
1667267073838462700,0.639462646484375,0.10575293004512787,0.2569376230239868,-0.28549474477767944
1667267073840860400,0.6418603515625,0.08742751181125641,0.26426780223846436,-0.28305134177207947
1667267073843258400,0.64425830078125,0.07093463838100433,0.26548948884010315,-0.2793862521648407
1667267073845656000,0.646656005859375,0.05566345527768135,0.26243525743484497,-0.27388864755630493
1667267073848053800,0.6490537109375,0.04222481697797775,0.25510507822036743,-0.27083441615104675
1667267073850451500,0.651451416015625,0.028786176815629005,0.2453315258026123,-0.2653367817401886
1667267073852849400,0.653849365234375,0.019623467698693275,0.23433628678321838,-0.26106083393096924
1667267073855247000,0.6562470703125,0.0067956759594380856,0.2190650999546051,-0.2561740577220917
1667267073857644800,0.658644775390625,-0.0017561858985573053,0.19829629361629486,-0.2525089979171753
1667267073860042500,0.66104248046875,-0.009697199799120426,0.17325155436992645,-0.24945475161075592
1667267073862440400,0.6634404296875,-0.0164165198802948,0.14270919561386108,-0.24456797540187836
1667267073864838100,0.665838134765625,-0.019470756873488426,0.11155597865581512,-0.2390703409910202
1667267073867235800,0.66823583984375,-0.020692450925707817,0.07246175408363342,-0.23540526628494263
1667267073869633500,0.670633544921875,-0.020692450925707817,0.029091600328683853,-0.23112933337688446
1667267073872031200,0.67303125,-0.018249060958623886,-0.016111096367239952,-0.22868594527244568
1667267073874429200,0.67542919921875,-0.015805672854185104,-0.0686439573764801,-0.2268534004688263
1667267073876827000,0.677826904296875,-0.008475505746901035,-0.12300936877727509,-0.22318831086158752
1667267073879224600,0.680224609375,-0.0005344913806766272,-0.17859646677970886,-0.22013407945632935
1667267073881622300,0.682622314453125,0.01046075951308012,-0.23296187818050385,-0.21463645994663239
1667267073884020000,0.68502001953125,0.020845163613557816,-0.28549474477767944,-0.20913882553577423
1667267073886418000,0.68741796875,0.03184041380882263,-0.3331408202648163,-0.20180866122245789
1667267073888815600,0.689815673828125,0.040392275899648666,-0.37895438075065613,-0.18959172070026398
1667267073891213300,0.69221337890625,0.049554985016584396,-0.4217136800289154,-0.17798562347888947
1667267073893611000,0.694611083984375,0.057496000081300735,-0.46210595965385437,-0.16393613815307617
1667267073896008700,0.6970087890625,0.062993623316288,-0.4981459379196167,-0.1492757946252823
1667267073898406700,0.69940673828125,0.06726955622434616,-0.531742513179779,-0.1346154659986496
1667267073900804400,0.701804443359375,0.07154548168182373,-0.5628957748413086,-0.11995512992143631
1667267073903202000,0.7042021484375,0.0752105712890625,-0.592216432094574,-0.10407309979200363
1667267073905599700,0.706599853515625,0.08009734749794006,-0.6129852533340454,-0.09124530851840973
1667267073907997700,0.708997802734375,0.08131904155015945,-0.6306998133659363,-0.07597412914037704
1667267073910395400,0.7113955078125,0.08620581775903702,-0.638640820980072,-0.06558972597122192
1667267073912793000,0.71379296875,0.0892600566148758,-0.6441384553909302,-0.057648710906505585
1667267073915190800,0.716190673828125,0.09292513877153397,-0.638029932975769,-0.05215108394622803
1667267073917588700,0.718588623046875,0.09475768357515335,-0.6264238357543945,-0.05031854286789894
1667267073919986400,0.720986328125,0.09720107167959213,-0.6062659025192261,-0.05031854286789894
1667267073922384100,0.723384033203125,0.09964445978403091,-0.5848862528800964,-0.05459447205066681
1667267073924781800,0.72578173828125,0.09842276573181152,-0.5549547076225281,-0.06253548711538315
1667267073927179500,0.728179443359375,0.09964445978403091,-0.5207473039627075,-0.07108735293149948
1667267073929577500,0.730577392578125,0.10025530308485031,-0.4840964674949646,-0.08635853230953217
1667267073931975200,0.73297509765625,0.09781191498041153,-0.4443913698196411,-0.10224056243896484
1667267073934372900,0.735372802734375,0.09414683282375336,-0.40399911999702454,-0.12239851802587509
1667267073936770600,0.7377705078125,0.09414683282375336,-0.36429402232170105,-0.1456107199192047
1667267073939168300,0.740168212890625,0.09109259396791458,-0.3313082754611969,-0.16943375766277313
1667267073941566200,0.742566162109375,0.08681666851043701,-0.29893338680267334,-0.19570018351078033
1667267073943964000,0.7449638671875,0.08376242965459824,-0.27144524455070496,-0.22379916906356812
1667267073946361600,0.747361572265625,0.08437328040599823,-0.2543415129184723,-0.2506764531135559
1667267073948759300,0.74975927734375,0.08620581775903702,-0.2396811991930008,-0.2775537371635437
1667267073951157200,0.7521572265625,0.08559497445821762,-0.23235101997852325,-0.3068743944168091
1667267073953555000,0.754554931640625,0.09048175066709518,-0.22257746756076813,-0.3331408202648163
1667267073955952600,0.75695263671875,0.09597937762737274,-0.2140256017446518,-0.3569638729095459
1667267073958350300,0.759350341796875,0.09903360903263092,-0.1999761164188385,-0.3801760673522949
1667267073960748000,0.761748046875,0.10392039269208908,-0.1871483325958252,-0.40033403038978577
1667267073963146000,0.76414599609375,0.10269869863986969,-0.17187714576721191,-0.41682690382003784
1667267073965543700,0.766543701171875,0.10330954194068909,-0.15721681714057922,-0.42965468764305115
1667267073967941400,0.76894140625,0.1014770045876503,-0.14255647361278534,-0.44064992666244507
1667267073970339000,0.771339111328125,0.09353598952293396,-0.12972868978977203,-0.4504235088825226
1667267073972736800,0.77373681640625,0.08437328040599823,-0.11873343586921692,-0.45531028509140015
1667267073975134700,0.776134765625,0.07398887723684311,-0.10468395054340363,-0.4601970613002777
1667267073977532400,0.778532470703125,0.05993938818573952,-0.09063446521759033,-0.4638621509075165
1667267073979930000,0.78093017578125,0.04283566400408745,-0.07475243508815765,-0.46691638231277466
1667267073982327800,0.783327880859375,0.022677704691886902,-0.06070294603705406,-0.4718031585216522
1667267073984725800,0.785725830078125,0.00129805039614439,-0.04421006888151169,-0.4779116213321686
1667267073987123500,0.78812353515625,-0.02435753494501114,-0.03077143058180809,-0.4858526289463043
1667267073989521200,0.790521240234375,-0.052456509321928024,-0.017332790419459343,-0.49501535296440125
1667267073991918800,0.7929189453125,-0.07750124484300613,-0.008780929259955883,-0.5066214203834534
1667267073994316800,0.79531689453125,-0.10682191699743271,-0.002672456670552492,-0.5200600624084473
1667267073996714500,0.797714599609375,-0.1330883502960205,-0.002672456670552492,-0.5389963388442993
1667267073999112200,0.8001123046875,-0.1624090075492859,-0.004504998680204153,-0.5591543316841125
1667267074001510000,0.802510009765625,-0.1856212168931961,-0.011835165321826935,-0.5872532725334167
1667267074003907600,0.804907470703125,-0.20639002323150635,-0.024662958458065987,-0.6177956461906433
1667267074006305500,0.807305419921875,-0.2247154414653778,-0.03687990456819534,-0.6520031094551086
1667267074008703200,0.809703125,-0.2387649267911911,-0.048486001789569855,-0.6929298639297485
1667267074011101000,0.812100830078125,-0.24853847920894623,-0.06131379306316376,-0.7326349020004272
1667267074013498600,0.81449853515625,-0.2540360987186432,-0.07230904698371887,-0.7760050892829895
1667267074015896600,0.816896484375,-0.2558686435222626,-0.07963921129703522,-0.819375216960907
1667267074018294300,0.819294189453125,-0.2540360987186432,-0.08574768155813217,-0.8645779490470886
1667267074020692000,0.82169189453125,-0.24914932250976562,-0.08941277116537094,-0.9067264199256897
1667267074023089700,0.824089599609375,-0.24243000149726868,-0.08880192041397095,-0.9482640027999878
1667267074025487400,0.8264873046875,-0.23632153868675232,-0.08941277116537094,-0.99163419008255
1667267074027885300,0.82888525390625,-0.227769672870636,-0.09002361446619034,-1.0319501161575317
1667267074030283000,0.831282958984375,-0.21860696375370026,-0.09307785332202911,-1.0667684078216553
1667267074032680700,0.8336806640625,-0.20822255313396454,-0.10162971168756485,-1.1003649234771729
1667267074035078400,0.836078369140625,-0.19600561261177063,-0.11751174181699753,-1.1309072971343994
1667267074037476000,0.83847607421875,-0.18134528398513794,-0.14316733181476593,-1.1559520959854126
1667267074039874000,0.8408740234375,-0.16790664196014404,-0.17615307867527008,-1.1809967756271362
1667267074042271700,0.843271728515625,-0.15263545513153076,-0.21830153465270996,-1.2011548280715942
1667267074044669400,0.84566943359375,-0.1343100368976593,-0.264725923538208,-1.2194801568984985
1667267074047067100,0.848067138671875,-0.11720632016658783,-0.320313036441803,-1.2341405153274536
1667267074049465000,0.850465087890625,-0.10071343928575516,-0.37467843294143677,-1.2433032989501953
1667267074051862800,0.85286279296875,-0.08605311065912247,-0.4352286756038666,-1.2506333589553833
1667267074054260500,0.855260498046875,-0.07017108052968979,-0.49264830350875854,-1.2536876201629639
1667267074056658200,0.857658203125,-0.05978667363524437,-0.5488462448120117,-1.2561310529708862
1667267074059056000,0.86005615234375,-0.05123481526970863,-0.6026008129119873,-1.2518551349639893
1667267074061453800,0.862453857421875,-0.045737188309431076,-0.6508577466011047,-1.2481900453567505
1667267074063851500,0.8648515625,-0.0426829531788826,-0.6954495906829834,-1.2402490377426147
1667267074066249200,0.867249267578125,-0.043293800204992294,-0.7394306063652039,-1.232308030128479
1667267074068647000,0.86964697265625,-0.04940227046608925,-0.777303159236908,-1.2207019329071045
1667267074071044900,0.872044921875,-0.05795413255691528,-0.8084563612937927,-1.20909583568573
1667267074073442600,0.874442626953125,-0.0683385357260704,-0.8328902125358582,-1.1999330520629883
1667267074075840300,0.87684033203125,-0.0817771777510643,-0.8481613993644714,-1.1877161264419556
1667267074078238000,0.879238037109375,-0.0958266630768776,-0.8536590337753296,-1.1742775440216064
1667267074080636000,0.881635986328125,-0.11170869320631027,-0.8499939441680908,-1.162671446800232
1667267074083033600,0.88403369140625,-0.12575818598270416,-0.8383878469467163,-1.152897834777832
1667267074085431300,0.886431396484375,-0.14164020121097565,-0.8139539957046509,-1.1419025659561157
1667267074087829000,0.8888291015625,-0.15446799993515015,-0.7779139876365662,-1.1388483047485352
1667267074090226700,0.891226806640625,-0.16729579865932465,-0.7339329719543457,-1.1327399015426636
1667267074092624600,0.893624755859375,-0.18195612728595734,-0.6789567470550537,-1.1290748119354248
1667267074095022300,0.896022216796875,-0.19356222450733185,-0.6178719997406006,-1.1272422075271606
1667267074097420000,0.898419921875,-0.21005509793758392,-0.5561764240264893,-1.1266313791275024
1667267074099817700,0.900817626953125,-0.22838051617145538,-0.4969242513179779,-1.1247988939285278
1667267074102215400,0.90321533203125,-0.2503710091114044,-0.4456130862236023,-1.1241880655288696
1667267074104613400,0.90561328125,-0.27236151695251465,-0.396668940782547,-1.1247988939285278
1667267074107011000,0.908010986328125,-0.29862794280052185,-0.3539096415042877,-1.125409722328186
1667267074109408800,0.91040869140625,-0.3280249834060669,-0.3184804916381836,-1.1266313791275024
1667267074111806500,0.912806396484375,-0.3561239540576935,-0.290381520986557,-1.1278531551361084
1667267074114204400,0.915204345703125,-0.38605546951293945,-0.2635042369365692,-1.1241880655288696
1667267074116602000,0.91760205078125,-0.4178195297718048,-0.24273543059825897,-1.1205229759216309
1667267074118999800,0.919999755859375,-0.44958359003067017,-0.21646900475025177,-1.1144144535064697
1667267074121397500,0.9223974609375,-0.4819584786891937,-0.1859266310930252,-1.1046409606933594
1667267074123795500,0.92479541015625,-0.5118899941444397,-0.15599511563777924,-1.0905914306640625
1667267074126193200,0.927193115234375,-0.5448757410049438,-0.11690089106559753,-1.074709415435791
1667267074128590800,0.9295908203125,-0.5741963982582092,-0.07597412914037704,-1.0551623106002808
1667267074130988500,0.931988525390625,-0.6022953987121582,-0.03443651273846626,-1.028285026550293
1667267074133386500,0.934386474609375,-0.6279509663581848,0.007711946498602629,-1.0020185708999634
1667267074135784200,0.9367841796875,-0.652384877204895,0.048638712614774704,-0.9672002792358398
1667267074138182000,0.939181884765625,-0.6731536984443665,0.09017632901668549,-0.9299386143684387
1667267074140579600,0.94157958984375,-0.6927008032798767,0.12988139688968658,-0.8865684270858765
1667267074142977300,0.943977294921875,-0.707361102104187,0.17264071106910706,-0.8364789485931396
1667267074145375200,0.946375244140625,-0.7220214605331421,0.21601086854934692,-0.7857786417007446
1667267074147773000,0.94877294921875,-0.730573296546936,0.2691545784473419,-0.7277481555938721
1667267074150170600,0.951170654296875,-0.7391251921653748,0.3253525197505951,-0.6733827590942383
1667267074152568300,0.953568359375,-0.7495095729827881,0.38521555066108704,-0.6171848177909851
1667267074154966000,0.955966064453125,-0.7501204609870911,0.4463002681732178,-0.5597651600837708
1667267074157364000,0.958364013671875,-0.754396378993988,0.5086066722869873,-0.5060105919837952
1667267074159761700,0.96076171875,-0.7550072073936462,0.5672480463981628,-0.45286688208580017
1667267074162159400,0.963159423828125,-0.7507312893867493,0.6216134428977966,-0.4088858962059021
1667267074164557000,0.96555712890625,-0.7470661997795105,0.6753680109977722,-0.3685699701309204
1667267074166955000,0.967955078125,-0.739736020565033,0.724846601486206,-0.33497336506843567
1667267074169352700,0.970352783203125,-0.730573296546936,0.7749360799789429,-0.3044309914112091
1667267074171750400,0.97275048828125,-0.7171346545219421,0.8225821852684021,-0.2775537371635437
1667267074174148000,0.975148193359375,-0.6945333480834961,0.8738933801651001,-0.2531198263168335
1667267074176545800,0.9775458984375,-0.6633801460266113,0.9294804334640503,-0.23174017667770386
1667267074178943700,0.97994384765625,-0.6279509663581848,0.9917868971824646,-0.211582213640213
1667267074181341400,0.982341552734375,-0.5864133834838867,1.0565366744995117,-0.19264595210552216
1667267074183739100,0.9847392578125,-0.5424323678016663,1.1249516010284424,-0.17737478017807007
1667267074186136800,0.98713671875,-0.4978405237197876,1.1915339231491089,-0.16943375766277313
1667267074188534800,0.98953466796875,-0.4489727318286896,1.2477319240570068,-0.16332527995109558
1667267074190932500,0.991932373046875,-0.40254834294319153,1.2917128801345825,-0.15782766044139862
1667267074193330200,0.994330078125,-0.3518480062484741,1.3228660821914673,-0.15355172753334045
1667267074195728000,0.996727783203125,-0.3017585575580597,1.340580701828003,-0.14988665282726288
1667267074198125600,0.99912548828125,-0.24853847920894623,1.3442457914352417,-0.1486649513244629
1667267074200523500,1.0015234375,-0.19783815741539001,1.3332505226135254,-0.1486649513244629
1667267074202921200,1.003921142578125,-0.14469444751739502,1.3088165521621704,-0.14988665282726288
1667267074205319000,1.00631884765625,-0.09338327497243881,1.2794959545135498,-0.15110833942890167
1667267074207716600,1.008716552734375,-0.04146125912666321,1.2391799688339233,-0.15233004093170166
1667267074210114600,1.011114501953125,0.00862821750342846,1.192144751548767,-0.15233004093170166
1667267074212512300,1.01351220703125,0.06116108223795891,1.1426661014556885,-0.15294088423252106
1667267074214910000,1.015909912109375,0.11247225105762482,1.08646821975708,-0.15355172753334045
1667267074217307600,1.0183076171875,0.16134002804756165,1.034546136856079,-0.15294088423252106
1667267074219705600,1.02070556640625,0.20898611843585968,0.9820133447647095,-0.15233004093170166
1667267074222103300,1.023103271484375,0.25418880581855774,0.938032329082489,-0.1468324065208435
1667267074224501000,1.0255009765625,0.29389387369155884,0.9019923210144043,-0.14438901841640472
1667267074226898700,1.027898681640625,0.3274904787540436,0.8720608353614807,-0.1358371526002884
1667267074229296400,1.03029638671875,0.352535218000412,0.8476269245147705,-0.12728530168533325
1667267074231694300,1.0326943359375,0.3763582706451416,0.817084550857544,-0.11567919701337814
1667267074234092000,1.035092041015625,0.39590537548065186,0.7828771471977234,-0.1083490327000618
1667267074236489700,1.03748974609375,0.4136199355125427,0.7419503331184387,-0.10285140573978424
1667267074238887400,1.039887451171875,0.4325562119483948,0.6949151158332825,-0.10101886838674545
1667267074241285400,1.042285400390625,0.4514924883842468,0.6454364657402039,-0.10101886838674545
1667267074243683000,1.04468310546875,0.4692070484161377,0.6014555096626282,-0.10712733864784241
1667267074246080800,1.047080810546875,0.48997586965560913,0.5605286955833435,-0.11445750296115875
1667267074248478500,1.049478515625,0.5095229744911194,0.5250995755195618,-0.12545275688171387
1667267074250876200,1.051876220703125,0.5296809077262878,0.493946373462677,-0.14072394371032715
1667267074253274000,1.054274169921875,0.5492280125617981,0.46401485800743103,-0.15782766044139862
1667267074255671800,1.056671875,0.5675534605979919,0.4414134919643402,-0.17920731008052826
1667267074258069500,1.059069580078125,0.581602931022644,0.42125552892684937,-0.20608459413051605
1667267074260467200,1.06146728515625,0.5925981998443604,0.40598437190055847,-0.23112933337688446
1667267074262865200,1.063865234375,0.6011500358581543,0.391934871673584,-0.26106083393096924
1667267074265262800,1.066262939453125,0.6060368418693542,0.3778853714466095,-0.2891598343849182
1667267074267660500,1.06866064453125,0.6066476702690125,0.3613924980163574,-0.3160370886325836
1667267074270058200,1.071058349609375,0.6011500358581543,0.3479538559913635,-0.3465794622898102
1667267074272456000,1.0734560546875,0.5925981998443604,0.33023929595947266,-0.37406760454177856
1667267074274854000,1.07585400390625,0.5803812742233276,0.31924405694007874,-0.40033403038978577
1667267074277251600,1.07825146484375,0.5651100873947144,0.30702710151672363,-0.4235462248325348
1667267074279649300,1.080649169921875,0.5455629825592041,0.2996969223022461,-0.44492587447166443
1667267074282047000,1.083046875,0.5241833329200745,0.29175591468811035,-0.4644729793071747
1667267074284445000,1.08544482421875,0.5003602504730225,0.2819823622703552,-0.48157671093940735
1667267074286842600,1.087842529296875,0.47348299622535706,0.2734304964542389,-0.49318280816078186
1667267074289240300,1.090240234375,0.44782739877700806,0.26304611563682556,-0.5029563903808594
1667267074291638000,1.092637939453125,0.4191175699234009,0.2465532273054123,-0.5102865099906921
1667267074294036000,1.095035888671875,0.3904077410697937,0.23067119717597961,-0.5133407711982727
1667267074296433700,1.09743359375,0.3653630316257477,0.21540001034736633,-0.5090648531913757
1667267074298831400,1.099831298828125,0.3354314863681793,0.19829629361629486,-0.505399763584137
1667267074301229000,1.10222900390625,0.30733251571655273,0.17813833057880402,-0.4980695843696594
1667267074303627000,1.104626953125,0.27923354506492615,0.15798036754131317,-0.48218756914138794
1667267074306024700,1.107024658203125,0.24808034300804138,0.13721156120300293,-0.4632512927055359
1667267074308422400,1.10942236328125,0.2212030589580536,0.11705360561609268,-0.43881741166114807
1667267074310820000,1.111820068359375,0.1949366331100464,0.09139802306890488,-0.4119401276111603
1667267074313217800,1.1142177734375,0.17111359536647797,0.06329904496669769,-0.37956520915031433
1667267074315615700,1.11661572265625,0.15095563232898712,0.032756682485342026,-0.3453577756881714
1667267074318013400,1.119013427734375,0.13018682599067688,-0.0032833039294928312,-0.3050418496131897
1667267074320411100,1.1214111328125,0.1143047958612442,-0.047264307737350464,-0.25861746072769165
1667267074322808800,1.123808837890625,0.10392039269208908,-0.09796462953090668,-0.20730629563331604
1667267074325206800,1.126206787109375,0.09231429547071457,-0.15355172753334045,-0.15171918272972107
1667267074327604500,1.1286044921875,0.08559497445821762,-0.20791713893413544,-0.0942995473742485
1667267074330002200,1.131002197265625,0.08009734749794006,-0.26045000553131104,-0.030160583555698395
1667267074332399900,1.13339990234375,0.07948649674654007,-0.3074852526187897,0.03703261539340019
1667267074334797600,1.135797607421875,0.08009734749794006,-0.35268792510032654,0.10422581434249878
1667267074337195500,1.138195556640625,0.08192989230155945,-0.38872793316841125,0.17630578577518463
1667267074339593200,1.14059326171875,0.08620581775903702,-0.419881135225296,0.25143998861312866
1667267074341991000,1.142990966796875,0.09536852687597275,-0.4462239146232605,0.3216874301433563
1667267074344388600,1.145388671875,0.1008661538362503,-0.4706578254699707,0.3925457298755646
1667267074346786600,1.14778662109375,0.11247225105762482,-0.49020493030548096,0.46034976840019226
1667267074349184300,1.150184326171875,0.12163496017456055,-0.5115845799446106,0.5275429487228394
1667267074351582000,1.15258203125,0.1289651244878769,-0.5274665951728821,0.5916818976402283
1667267074353979600,1.154979736328125,0.13751699030399323,-0.5445703268051147,0.6527666449546814
1667267074356377300,1.15737744140625,0.14301460981369019,-0.555565595626831,0.7089645862579346
1667267074358775300,1.159775390625,0.14545799791812897,-0.564117431640625,0.760962963104248
1667267074361173000,1.162173095703125,0.14667969942092896,-0.5696150660514832,0.8073873519897461
1667267074363570700,1.16457080078125,0.14667969942092896,-0.569004237651825,0.8507575392723083
1667267074365968400,1.166968505859375,0.14362546801567078,-0.569004237651825,0.8874083757400513
1667267074368366300,1.169366455078125,0.13812783360481262,-0.564728319644928,0.9142856597900391
1667267074370764000,1.171763916015625,0.13140851259231567,-0.5580089688301086,0.9381086826324463
1667267074373161700,1.17416162109375,0.12530004978179932,-0.5470137000083923,0.9533798694610596
1667267074375559400,1.176559326171875,0.11552648991346359,-0.531742513179779,0.9625425934791565
1667267074377957400,1.178957275390625,0.10514208674430847,-0.5170822143554688,0.9643751382827759
1667267074380355000,1.18135498046875,0.09597937762737274,-0.5036435723304749,0.954601526260376
1667267074382752800,1.183752685546875,0.08559497445821762,-0.487761527299881,0.9417737722396851
1667267074385150500,1.186150390625,0.07643226534128189,-0.4712686538696289,0.9234483242034912
1667267074387548400,1.18854833984375,0.06726955622434616,-0.4584408700466156,0.899625301361084
1667267074389946000,1.190946044921875,0.05932854115962982,-0.4450022280216217,0.8709154725074768
1667267074392343800,1.19334375,0.0489441379904747,-0.43645036220550537,0.8385405540466309
1667267074394741500,1.195741455078125,0.040392275899648666,-0.42843300104141235,0.8049439787864685
1667267074397139200,1.19813916015625,0.031229566782712936,-0.424157053232193,0.7670714259147644
1667267074399537200,1.200537109375,0.024510245770215988,-0.422324538230896,0.729733407497406
1667267074401934800,1.202934814453125,0.017180079594254494,-0.4186594486236572,0.6900283098220825
1667267074404332500,1.20533251953125,0.011071606539189816,-0.41560521721839905,0.6484907269477844
1667267074406730200,1.207730224609375,0.004352286923676729,-0.41682690382003784,0.6106181740760803
1667267074409128200,1.210128173828125,-0.0005344913806766272,-0.41438350081443787,0.5703022480010986
1667267074411526000,1.21252587890625,-0.00908635277301073,-0.4119401276111603,0.5348731279373169
1667267074413923600,1.214923583984375,-0.01885990984737873,-0.4107184112071991,0.49944397807121277
1667267074416321300,1.2173212890625,-0.02557922899723053,-0.4088858962059021,0.4664582312107086
1667267074418719000,1.219718994140625,-0.03596363216638565,-0.4070533514022827,0.43652671575546265
1667267074421117000,1.222116943359375,-0.04512634128332138,-0.40583163499832153,0.40964943170547485
1667267074423514600,1.2245146484375,-0.05428905040025711,-0.4064424932003021,0.38277217745780945
1667267074425912300,1.226912353515625,-0.06650599837303162,-0.40460994839668274,0.35894912481307983
1667267074428310000,1.22931005859375,-0.0811663269996643,-0.40338826179504395,0.33329352736473083
1667267074430708000,1.2317080078125,-0.09216158092021942,-0.40155571699142456,0.308859646320343
1667267074433105700,1.234105712890625,-0.10621106624603271,-0.3997231721878052,0.2887016832828522
1667267074435503400,1.23650341796875,-0.11964970827102661,-0.3960580825805664,0.26548948884010315
1667267074437901000,1.238901123046875,-0.13186664879322052,-0.39239302277565,0.24227729439735413
1667267074440298800,1.241298828125,-0.14286190271377563,-0.3844519853591919,0.2190650999546051
1667267074442696700,1.24369677734375,-0.15385715663433075,-0.37406760454177856,0.19524206221103668
1667267074445094400,1.246094482421875,-0.16485241055488586,-0.36429402232170105,0.17325155436992645
1667267074447492000,1.2484921875,-0.17157171666622162,-0.35146623849868774,0.153704434633255
1667267074449889800,1.250889892578125,-0.18073442578315735,-0.33619505167007446,0.13354648649692535
1667267074452287700,1.253287841796875,-0.18439951539039612,-0.3190913498401642,0.1146102175116539
1667267074454685400,1.255685546875,-0.19050799310207367,-0.3044309914112091,0.09567394852638245
1667267074457083100,1.258083251953125,-0.19356222450733185,-0.28549474477767944,0.07734853774309158
1667267074459480800,1.260480712890625,-0.19783815741539001,-0.2683910131454468,0.060244809836149216
1667267074461878800,1.262878662109375,-0.2015032321214676,-0.2543415129184723,0.04619532451033592
1667267074464276500,1.2652763671875,-0.20455747842788696,-0.237237811088562,0.030313294380903244
1667267074466674200,1.267674072265625,-0.20516832172870636,-0.22318831086158752,0.018096350133419037
1667267074469072000,1.27007177734375,-0.20455747842788696,-0.21036052703857422,0.004046862944960594
1667267074471469800,1.2724697265625,-0.20577916502952576,-0.1993652731180191,-0.006948387715965509
1667267074473867500,1.274867431640625,-0.20211409032344818,-0.19386765360832214,-0.019776180386543274
1667267074476265200,1.27726513671875,-0.2008923888206482,-0.19081340730190277,-0.03199312463402748
1667267074478663000,1.279662841796875,-0.19783815741539001,-0.18959172070026398,-0.041766680777072906
1667267074481060600,1.282060546875,-0.19356222450733185,-0.1871483325958252,-0.05276193097233772
1667267074483458600,1.28445849609375,-0.19172967970371246,-0.1877591758966446,-0.06314633786678314
1667267074485856300,1.286856201171875,-0.18867544829845428,-0.18898087739944458,-0.07108735293149948
1667267074488254000,1.28925390625,-0.1862320601940155,-0.1877591758966446,-0.0814717561006546
1667267074490651600,1.291651611328125,-0.18317782878875732,-0.1871483325958252,-0.08758022636175156
1667267074493049600,1.294049560546875,-0.18073442578315735,-0.18409408628940582,-0.0955212414264679
1667267074495447300,1.296447265625,-0.17951273918151855,-0.17981816828250885,-0.10101886838674545
1667267074497845000,1.298844970703125,-0.17706935107707977,-0.17126630246639252,-0.10651648789644241
1667267074500242700,1.30124267578125,-0.1740151196718216,-0.159660205245018,-0.10895988345146179
1667267074502640400,1.303640380859375,-0.1721825748682022,-0.14438901841640472,-0.10957072675228119
1667267074505038300,1.306038330078125,-0.1727934181690216,-0.12545275688171387,-0.10957072675228119
1667267074507436000,1.30843603515625,-0.17157171666622162,-0.1083490327000618,-0.10957072675228119
1667267074509833700,1.310833740234375,-0.17035003006458282,-0.08513683825731277,-0.10651648789644241
1667267074512231400,1.3132314453125,-0.17096087336540222,-0.06314633786678314,-0.10285140573978424
1667267074514629400,1.31562939453125,-0.16973918676376343,-0.03871244564652443,-0.09918632358312607
1667267074517027000,1.318027099609375,-0.17157171666622162,-0.01122431829571724,-0.09124530851840973
1667267074519424800,1.3204248046875,-0.1727934181690216,0.011987877078354359,-0.08635853230953217
1667267074521822500,1.322822509765625,-0.17096087336540222,0.039476003497838974,-0.08025006204843521
1667267074524220200,1.32522021484375,-0.1721825748682022,0.06085565686225891,-0.07353074103593826
1667267074526618000,1.3276181640625,-0.1727934181690216,0.08101361989974976,-0.06558972597122192
1667267074529015800,1.330015869140625,-0.17157171666622162,0.09750649333000183,-0.0558161698281765
1667267074531413500,1.33241357421875,-0.174625962972641,0.10911259055137634,-0.044820915907621384
1667267074533811200,1.334811279296875,-0.17584764957427979,0.10605835169553757,-0.032603971660137177
1667267074536209200,1.337209228515625,-0.17829103767871857,0.10178242623806,-0.019776180386543274
1667267074538606800,1.33960693359375,-0.18073442578315735,0.08406785130500793,-0.006337540224194527
1667267074541004500,1.342004638671875,-0.18256697058677673,0.05841226875782013,0.008933641016483307
1667267074543402200,1.34440234375,-0.1862320601940155,0.028480753302574158,0.026037365198135376
1667267074545800200,1.34680029296875,-0.18867544829845428,-0.010002624243497849,0.043141089379787445
1667267074548198000,1.349197998046875,-0.18501035869121552,-0.04909684881567955,0.06146650388836861
1667267074550595600,1.351595703125,-0.18501035869121552,-0.09246700257062912,0.08162446320056915
1667267074552993300,1.3539931640625,-0.18501035869121552,-0.1333937644958496,0.1005607321858406
1667267074555391200,1.35639111328125,-0.18195612728595734,-0.1730988472700119,0.12071868777275085
1667267074557789000,1.358788818359375,-0.18195612728595734,-0.20669543743133545,0.1414874941110611
1667267074560186600,1.3611865234375,-0.17768019437789917,-0.2396811991930008,0.16347800195217133
1667267074562584300,1.363584228515625,-0.174625962972641,-0.2622825503349304,0.18607935309410095
1667267074564982300,1.365982177734375,-0.17035003006458282,-0.28305134177207947,0.2074590027332306
1667267074567380000,1.3683798828125,-0.16546325385570526,-0.29832252860069275,0.23006035387516022
1667267074569777700,1.370777587890625,-0.1617981642484665,-0.3062635362148285,0.25388339161872864
1667267074572175400,1.37317529296875,-0.15752223134040833,-0.3080960810184479,0.27831727266311646
1667267074574573000,1.375572998046875,-0.15324631333351135,-0.3080960810184479,0.2996969223022461
1667267074576971000,1.377970947265625,-0.1483595222234726,-0.29954421520233154,0.3235199749469757
1667267074579368700,1.38036865234375,-0.14164020121097565,-0.28793811798095703,0.34123456478118896
1667267074581766400,1.382766357421875,-0.13675342500209808,-0.26961269974708557,0.35833826661109924
1667267074584164000,1.3851640625,-0.13186664879322052,-0.24823305010795593,0.3760528564453125
1667267074586562000,1.38756201171875,-0.12636902928352356,-0.2268534004688263,0.3907131850719452
1667267074588959700,1.389959716796875,-0.12270393967628479,-0.20241950452327728,0.4023192822933197
1667267074591357400,1.392357421875,-0.11720632016658783,-0.17554223537445068,0.41148197650909424
1667267074593755100,1.394755126953125,-0.11476293206214905,-0.14499986171722412,0.42125552892684937
1667267074596152800,1.39715283203125,-0.11048699915409088,-0.11629004776477814,0.42492061853408813
1667267074598550800,1.39955078125,-0.10560022294521332,-0.08513683825731277,0.4291965663433075
1667267074600948500,1.401948486328125,-0.10010259598493576,-0.0558161698281765,0.4322507977485657
1667267074603346200,1.40434619140625,-0.09643751382827759,-0.027717193588614464,0.4316399395465851
1667267074605743900,1.406743896484375,-0.09277242422103882,-0.0032833039294928312,0.4304182529449463
1667267074608141800,1.409141845703125,-0.08727480471134186,0.02053973823785782,0.4285857081413269
1667267074610539500,1.41153955078125,-0.07994463294744492,0.04008685052394867,0.42492061853408813
1667267074612937200,1.413937255859375,-0.07444700598716736,0.060244809836149216,0.42186638712882996
1667267074615335000,1.4163349609375,-0.06711684167385101,0.07673768699169159,0.41942301392555237
1667267074617732600,1.418732666015625,-0.06223006546497345,0.09017632901668549,0.42064470052719116
1667267074620130600,1.421130615234375,-0.05795413255691528,0.10117157548666,0.42003384232521057
1667267074622528300,1.4235283203125,-0.05123481526970863,0.11094513535499573,0.42003384232521057
1667267074624926000,1.425926025390625,-0.04512634128332138,0.12071868777275085,0.42125552892684937
1667267074627323600,1.42832373046875,-0.03840702027082443,0.12988139688968658,0.42308807373046875
1667267074629721600,1.4307216796875,-0.031076854094862938,0.1396549493074417,0.4285857081413269
1667267074632119300,1.433119384765625,-0.0231358390301466,0.14759597182273865,0.43469417095184326
1667267074634517000,1.43551708984375,-0.014583977870643139,0.15859122574329376,0.4426352083683014
1667267074636914700,1.437914794921875,-0.005421269219368696,0.16469968855381012,0.4530195891857147
1667267074639312600,1.440312744140625,0.0067956759594380856,0.1665322333574295,0.4664582312107086
1667267074641710300,1.44271044921875,0.01901262067258358,0.17080816626548767,0.4823402762413025
1667267074644108000,1.44510791015625,0.03306210786104202,0.17264071106910706,0.5000548362731934
1667267074646505700,1.447505615234375,0.045889899134635925,0.17080816626548767,0.5177693963050842
1667267074648903700,1.449903564453125,0.061771929264068604,0.16469968855381012,0.5391490459442139
1667267074651301400,1.45230126953125,0.07765395939350128,0.15614783763885498,0.5605286955833435
1667267074653699000,1.454698974609375,0.09597937762737274,0.1408766508102417,0.5806866884231567
1667267074656096800,1.4570966796875,0.1143047958612442,0.12499462068080902,0.6051205396652222
1667267074658494700,1.45949462890625,0.13201937079429626,0.10544750839471817,0.6295544505119324
1667267074660892400,1.461892333984375,0.15217731893062592,0.08590039610862732,0.655820906162262
1667267074663290000,1.4642900390625,0.17355698347091675,0.06696412712335587,0.6814764738082886
1667267074665687800,1.466687744140625,0.1949366331100464,0.048638712614774704,0.7071320414543152
1667267074668085500,1.46908544921875,0.21692712604999542,0.02970244735479355,0.7365291118621826
1667267074670483500,1.4714833984375,0.23952847719192505,0.014431266114115715,0.7634063363075256
1667267074672881200,1.473881103515625,0.2602972984313965,0.0009926267666742206,0.7908945083618164
1667267074675278800,1.47627880859375,0.28106608986854553,-0.008780929259955883,0.8171609044075012
1667267074677676500,1.478676513671875,0.30183491110801697,-0.014278554357588291,0.8452599048614502
1667267074680074500,1.481074462890625,0.3201603293418884,-0.020997874438762665,0.8745805621147156
1667267074682472200,1.48347216796875,0.3372640311717987,-0.025884652510285378,0.903901219367981
1667267074684870000,1.485869873046875,0.3507026731967926,-0.0295497365295887,0.9326110482215881
1667267074687267600,1.488267578125,0.3647521734237671,-0.03077143058180809,0.9594883322715759
1667267074689665300,1.490665283203125,0.38002336025238037,-0.03077143058180809,0.9906415343284607
1667267074692063200,1.493063232421875,0.3922402858734131,-0.026495499536395073,1.0169079303741455
1667267074694461000,1.4954609375,0.40140300989151,-0.019776180386543274,1.043174386024475
1667267074696858600,1.497858642578125,0.41117656230926514,-0.007559234742075205,1.0669974088668823
1667267074699256300,1.50025634765625,0.42156097292900085,0.008322793990373611,1.0957072973251343
1667267074701654300,1.502654296875,0.428891122341156,0.026037365198135376,1.1195303201675415
1667267074704052000,1.505052001953125,0.4398863911628723,0.048638712614774704,1.1427425146102905
1667267074706449700,1.50744970703125,0.44843825697898865,0.0749051421880722,1.1641221046447754
1667267074708847400,1.509847412109375,0.46126604080200195,0.1152210608124733,1.1842801570892334
1667267074711245300,1.512245361328125,0.4698179066181183,0.1665322333574295,1.2019946575164795
1667267074713643000,1.51464306640625,0.4826456904411316,0.21601086854934692,1.213600754737854
1667267074716040700,1.517040771484375,0.4973060190677643,0.25327253341674805,1.2258176803588867
1667267074718438400,1.5194384765625,0.5089121460914612,0.2752630412578583,1.2362021207809448
1667267074720836000,1.521836181640625,0.5223507881164551,0.2868691384792328,1.2410888671875
1667267074723234000,1.524234130859375,0.5327351689338684,0.29114508628845215,1.2435322999954224
1667267074725631700,1.5266318359375,0.5461738109588623,0.28931254148483276,1.2392563819885254
1667267074728029400,1.529029541015625,0.559001624584198,0.28137150406837463,1.232537031173706
1667267074730427100,1.53142724609375,0.5736619234085083,0.2679328918457031,1.223374366760254
1667267074732825000,1.5338251953125,0.5895439386367798,0.2459423840045929,1.209324836730957
1667267074735222800,1.536222900390625,0.605426013469696,0.2196759432554245,1.1940536499023438
1667267074737620500,1.538620361328125,0.6206972002983093,0.18852274119853973,1.1726740598678589
1667267074740018200,1.54101806640625,0.6365792155265808,0.15675868093967438,1.1488510370254517
1667267074742416100,1.543416015625,0.6524612307548523,0.11644276231527328,1.1262496709823608
1667267074744813800,1.545813720703125,0.6665107011795044,0.07734853774309158,1.0963181257247925
1667267074747211500,1.54821142578125,0.6781167984008789,0.03703261539340019,1.0633323192596436
1667267074749609200,1.550609130859375,0.6891120672225952,0.0022143214009702206,1.0272923707962036
1667267074752007200,1.553007080078125,0.7001073360443115,-0.02832804247736931,0.9869764447212219
1667267074754404900,1.55540478515625,0.7098808884620667,-0.05459447205066681,0.9436063170433044
1667267074756802600,1.557802490234375,0.7153785228729248,-0.07475243508815765,0.8977927565574646
1667267074759200300,1.5602001953125,0.7196544408798218,-0.09307785332202911,0.8464815616607666
1667267074761598000,1.562597900390625,0.7251520752906799,-0.10529479384422302,0.7970029711723328
1667267074763996000,1.564995849609375,0.7269846200942993,-0.11690089106559753,0.7389724850654602
1667267074766393600,1.5673935546875,0.7257629036903381,-0.12728530168533325,0.6772005558013916
1667267074768791300,1.569791259765625,0.7294279932975769,-0.13705885410308838,0.6136724352836609
1667267074771189000,1.57218896484375,0.7300388216972351,-0.14499986171722412,0.5464792251586914
1667267074773587000,1.5745869140625,0.7288171648979187,-0.15538427233695984,0.47623178362846375
1667267074775984600,1.576984619140625,0.7275954484939575,-0.16699036955833435,0.4035409688949585
1667267074778382300,1.57938232421875,0.7257629036903381,-0.18103985488414764,0.32962843775749207
1667267074780780000,1.581780029296875,0.7251520752906799,-0.19753272831439972,0.25327253341674805
1667267074783177700,1.584177734375,0.7227086424827576,-0.2134147584438324,0.17752748727798462
1667267074785575700,1.58657568359375,0.7227086424827576,-0.23662695288658142,0.09872818738222122
1667267074787973400,1.588973388671875,0.7184327244758606,-0.26106083393096924,0.019928891211748123
1667267074790371000,1.59137109375,0.7153785228729248,-0.2928248941898346,-0.0552053228020668
1667267074792768800,1.593768798828125,0.7111025452613831,-0.3306974470615387,-0.12911784648895264
1667267074795166700,1.596166748046875,0.7037724256515503,-0.373456746339798,-0.20180866122245789
1667267074797564400,1.598564453125,0.6964422464370728,-0.419881135225296,-0.27144524455070496
1667267074799962000,1.600962158203125,0.6909446120262146,-0.4724903404712677,-0.33680590987205505
1667267074802359800,1.60335986328125,0.6811710596084595,-0.5238015055656433,-0.3978906273841858
1667267074804757500,1.605757568359375,0.6738408803939819,-0.5757235288619995,-0.45469942688941956
1667267074807155500,1.608155517578125,0.6658998727798462,-0.6215370893478394,-0.5084539651870728
1667267074809553200,1.61055322265625,0.6555154919624329,-0.6624638438224792,-0.5524349808692932
1667267074811950800,1.612950927734375,0.6475744247436523,-0.7009472250938416,-0.5939726233482361
1667267074814348500,1.6153486328125,0.6365792155265808,-0.7266027927398682,-0.6269583702087402
1667267074816746500,1.61774658203125,0.6261947751045227,-0.7455390691757202,-0.6556681990623474
1667267074819144200,1.620144287109375,0.6151995658874512,-0.7553126215934753,-0.677047848701477
1667267074821542000,1.6225419921875,0.6011500358581543,-0.7565343379974365,-0.6929298639297485
1667267074823939600,1.624939697265625,0.5871005654335022,-0.7412631511688232,-0.7008708715438843
1667267074826337500,1.627337646484375,0.5724402666091919,-0.7156075835227966,-0.7057576775550842
1667267074828735200,1.6297353515625,0.5559473633766174,-0.6789567470550537,-0.7051467895507812
1667267074831133000,1.6321328125,0.540065348148346,-0.6355865597724915,-0.6978166103363037
1667267074833530600,1.634530517578125,0.516242265701294,-0.5885513424873352,-0.6837671399116516
1667267074835928600,1.636928466796875,0.4960843324661255,-0.536629319190979,-0.6654417514801025
1667267074838326300,1.639326171875,0.4722612798213959,-0.47982051968574524,-0.6440621018409729
1667267074840724000,1.641723876953125,0.44782739877700806,-0.4204919934272766,-0.6141305565834045
1667267074843121700,1.64412158203125,0.4203392565250397,-0.36123979091644287,-0.5823665261268616
1667267074845519600,1.64651953125,0.3891860544681549,-0.3025984466075897,-0.5469373464584351
1667267074847917300,1.648917236328125,0.35925453901290894,-0.24273543059825897,-0.5066214203834534
1667267074850315000,1.65131494140625,0.3256579339504242,-0.18409408628940582,-0.4644729793071747
1667267074852712700,1.653712646484375,0.29328304529190063,-0.12484190613031387,-0.422324538230896
1667267074855110400,1.6561103515625,0.2602972984313965,-0.06620056927204132,-0.37773266434669495
1667267074857508400,1.65850830078125,0.22975492477416992,-0.006948387715965509,-0.3343625068664551
1667267074859906000,1.660906005859375,0.19799086451530457,0.05047125369310379,-0.28671643137931824
1667267074862303700,1.6633037109375,0.1674485057592392,0.10789089649915695,-0.24151372909545898
1667267074864701400,1.665701416015625,0.13873867690563202,0.1683647781610489,-0.1981435865163803
1667267074867099400,1.668099365234375,0.11186140775680542,0.22822780907154083,-0.15477342903614044
1667267074869497000,1.6704970703125,0.08681666851043701,0.2880908250808716,-0.10895988345146179
1667267074871894800,1.672894775390625,0.06421531736850739,0.34245625138282776,-0.06681142002344131
1667267074874292500,1.67529248046875,0.04772244393825531,0.39376741647720337,-0.025273805484175682
1667267074876690200,1.677690185546875,0.034283801913261414,0.4395809471607208,0.011987877078354359
1667267074879088000,1.680088134765625,0.024510245770215988,0.47806432843208313,0.048638712614774704
1667267074881485800,1.68248583984375,0.0165692325681448,0.5122717618942261,0.08284615725278854
1667267074883883500,1.684883544921875,0.011071606539189816,0.5409815907478333,0.11338852345943451
1667267074886281200,1.68728125,0.0067956759594380856,0.567858874797821,0.14515258371829987
1667267074888679200,1.68967919921875,0.004352286923676729,0.5874059796333313,0.17325155436992645
1667267074891076900,1.692076904296875,0.0031305921729654074,0.6032879948616028,0.19951798021793365
1667267074893474600,1.694474609375,-0.0005344913806766272,0.6148941516876221,0.22578442096710205
1667267074895872300,1.696872314453125,-0.004199574701488018,0.6240568161010742,0.25082916021347046
1667267074898270000,1.69927001953125,-0.00786465872079134,0.6313869953155518,0.27648472785949707
1667267074900668000,1.70166796875,-0.014583977870643139,0.6368846297264099,0.3003077805042267
1667267074903065600,1.704065673828125,-0.0231358390301466,0.6393280029296875,0.3241308331489563
1667267074905463300,1.70646337890625,-0.034131091088056564,0.6393280029296875,0.34551048278808594
1667267074907861000,1.708861083984375,-0.04512634128332138,0.6344412565231323,0.3656684458255768
1667267074910259000,1.711259033203125,-0.0561215914785862,0.6265002489089966,0.38216131925582886
1667267074912656600,1.71365673828125,-0.0695602297782898,0.6075639724731445,0.39804333448410034
1667267074915054300,1.716054443359375,-0.0823880210518837,0.5831300616264343,0.4065952003002167
1667267074917452000,1.7184521484375,-0.09216158092021942,0.5519768595695496,0.4139253795146942
1667267074919850000,1.72085009765625,-0.10376767814159393,0.517158567905426,0.42003384232521057
1667267074922247700,1.72324755859375,-0.11231953650712967,0.47684264183044434,0.42064470052719116
1667267074924645400,1.725645263671875,-0.120871402323246,0.43347248435020447,0.42186638712882996
1667267074927043000,1.72804296875,-0.12575818598270416,0.39621078968048096,0.4188121557235718
1667267074929441000,1.73044091796875,-0.13247749209403992,0.35833826661109924,0.4157579243183136
1667267074931838700,1.732838623046875,-0.13797512650489807,0.31924405694007874,0.40964943170547485
1667267074934236400,1.735236328125,-0.14102935791015625,0.2844257652759552,0.3998758792877197
1667267074936634000,1.737634033203125,-0.14469444751739502,0.24960745871067047,0.3901023268699646
1667267074939032000,1.740031982421875,-0.1471378356218338,0.21723255515098572,0.3760528564453125
1667267074941429800,1.7424296875,-0.14897038042545319,0.18241426348686218,0.3638359010219574
1667267074943827500,1.744827392578125,-0.14958122372627258,0.14637427031993866,0.34612134099006653
1667267074946225200,1.74722509765625,-0.15080291032791138,0.1139993667602539,0.33268269896507263
1667267074948622800,1.749622802734375,-0.15141376852989197,0.07979192584753036,0.3149681091308594
1667267074951020800,1.752020751953125,-0.15080291032791138,0.04802786558866501,0.2996969223022461
1667267074953418500,1.75441845703125,-0.15019206702709198,0.018707197159528732,0.2819823622703552
1667267074955816200,1.756816162109375,-0.15019206702709198,-0.008170082233846188,0.26426780223846436
1667267074958214000,1.7592138671875,-0.15080291032791138,-0.03077143058180809,0.2471640706062317
1667267074960611800,1.76161181640625,-0.15080291032791138,-0.047264307737350464,0.22883865237236023
1667267074963009500,1.764009521484375,-0.15324631333351135,-0.06070294603705406,0.21051323413848877
1667267074965407200,1.7664072265625,-0.15630054473876953,-0.0680331140756607,0.19035527110099792
1667267074967805000,1.768804931640625,-0.1593547761440277,-0.0692548081278801,0.17019732296466827
1667267074970202600,1.77120263671875,-0.16301986575126648,-0.07047650218009949,0.1543152928352356
1667267074972600600,1.7736005859375,-0.16790664196014404,-0.0686439573764801,0.13537901639938354
1667267074974998300,1.775998291015625,-0.1727934181690216,-0.06497887521982193,0.11949699372053146
1667267074977396000,1.77839599609375,-0.1727934181690216,-0.06375718116760254,0.10483665764331818
1667267074979793700,1.780793701171875,-0.1740151196718216,-0.05825955793261528,0.09139802306890488
1667267074982191600,1.783191650390625,-0.174625962972641,-0.05337277799844742,0.07734853774309158
1667267074984589300,1.78558935546875,-0.17035003006458282,-0.0429883748292923,0.06329904496669769
1667267074986987000,1.787987060546875,-0.16607409715652466,-0.03565821051597595,0.0492495596408844
1667267074989384700,1.790384765625,-0.1617981642484665,-0.026495499536395073,0.03703261539340019
1667267074991782400,1.792782470703125,-0.15324631333351135,-0.016111096367239952,0.02420482225716114
1667267074994180400,1.795180419921875,-0.14225105941295624,-0.0051158457063138485,0.011377030052244663
1667267074996578000,1.797578125,-0.13003410398960114,0.005879404954612255,-0.002061609411612153
1667267074998975700,1.799975830078125,-0.11781716346740723,0.013209572061896324,-0.0130568603053689
1667267075001373400,1.80237353515625,-0.10376767814159393,0.022372281178832054,-0.024662958458065987
1667267075003771400,1.804771484375,-0.09032903611660004,0.030313294380903244,-0.03443651273846626
1667267075006169000,1.807169189453125,-0.07383616268634796,0.03825430944561958,-0.041766680777072906
1667267075008566800,1.80956689453125,-0.06223006546497345,0.040697697550058365,-0.05031854286789894
1667267075010964500,1.811964599609375,-0.04818057641386986,0.04375193640589714,-0.05459447205066681
1667267075013362400,1.814362548828125,-0.034131091088056564,0.040697697550058365,-0.06070294603705406
1667267075015760100,1.816760009765625,-0.022524992004036903,0.0358109213411808,-0.06192464008927345
1667267075018157800,1.81915771484375,-0.011529741808772087,0.027869906276464462,-0.06253548711538315
1667267075020555500,1.821555419921875,-0.0011453386396169662,0.018096350133419037,-0.06497887521982193
1667267075022953500,1.823953369140625,0.00862821750342846,0.010155336000025272,-0.06375718116760254
1667267075025351200,1.82635107421875,0.018401773646473885,0.0028251686599105597,-0.06253548711538315
1667267075027748900,1.828748779296875,0.026342788711190224,-0.006337540224194527,-0.05825955793261528
1667267075030146600,1.831146484375,0.035505495965480804,-0.013667707331478596,-0.0552053228020668
1667267075032544500,1.83354443359375,0.04405735805630684,-0.025273805484175682,-0.05276193097233772
1667267075034942200,1.835942138671875,0.05444176122546196,-0.03321481868624687,-0.04604261368513107
1667267075037340000,1.83833984375,0.06604786217212677,-0.03626905754208565,-0.038101598620414734
1667267075039737600,1.840737548828125,0.07337802648544312,-0.0429883748292923,-0.03077143058180809
1667267075042135300,1.84313525390625,0.08315158635377884,-0.04604261368513107,-0.019776180386543274
1667267075044533200,1.845533203125,0.09414683282375336,-0.047264307737350464,-0.010613471269607544
1667267075046931000,1.847930908203125,0.10269869863986969,-0.04665346071124077,0.0028251686599105597
1667267075049328600,1.85032861328125,0.11308310180902481,-0.044820915907621384,0.015042114071547985
1667267075051726300,1.852726318359375,0.12346750497817993,-0.03993413969874382,0.02664821222424507
1667267075054124300,1.855124267578125,0.13385190069675446,-0.03321481868624687,0.039476003497838974
1667267075056522000,1.85752197265625,0.14545799791812897,-0.025884652510285378,0.051082100719213486
1667267075058919700,1.859919677734375,0.15645325183868408,-0.017332790419459343,0.06146650388836861
1667267075061317400,1.8623173828125,0.1680593490600586,-0.006948387715965509,0.07429429888725281
1667267075063715000,1.864715087890625,0.1790546029806137,0.004046862944960594,0.08406785130500793
1667267075066113000,1.867113037109375,0.1918824017047882,0.013209572061896324,0.09506310522556305
1667267075068510700,1.8695107421875,0.2047101855278015,0.021150587126612663,0.10483665764331818
1667267075070908400,1.871908447265625,0.2199813723564148,0.028480753302574158,0.11216682940721512
1667267075073306000,1.87430615234375,0.2340308576822281,0.03458922728896141,0.11888615041971207
1667267075075704000,1.8767041015625,0.24746949970722198,0.04253023862838745,0.1268271654844284
1667267075078101800,1.879101806640625,0.2584647536277771,0.0492495596408844,0.13232478499412537
1667267075080499500,1.88149951171875,0.2700708508491516,0.057801421731710434,0.13537901639938354
1667267075082897200,1.883897216796875,0.28045526146888733,0.06879667192697525,0.13843326270580292
1667267075085294800,1.886294921875,0.28839626908302307,0.07795938104391098,0.1402658075094223
1667267075087692800,1.88869287109375,0.2957264184951782,0.08651123940944672,0.1408766508102417
1667267075090090500,1.891090576171875,0.2981698215007782,0.09872818738222122,0.1396549493074417
1667267075092488200,1.89348828125,0.3000023663043976,0.11216682940721512,0.13843326270580292
1667267075094886000,1.895885986328125,0.3006131947040558,0.126216322183609,0.1408766508102417
1667267075097283800,1.898283935546875,0.299391508102417,0.1414874941110611,0.1414874941110611
1667267075099681500,1.900681640625,0.2963372766971588,0.154926136136055,0.14332003891468048
1667267075102079200,1.903079345703125,0.29145050048828125,0.17019732296466827,0.14820681512355804
1667267075104477000,1.905476806640625,0.29022881388664246,0.18302510678768158,0.15126104652881622
1667267075106875000,1.907875,0.2841203212738037,0.19768545031547546,0.15798036754131317
1667267075109272600,1.9102724609375,0.27740100026130676,0.20868068933486938,0.16347800195217133
1667267075111670300,1.912670166015625,0.271903395652771,0.2190650999546051,0.17325155436992645
1667267075114068000,1.91506787109375,0.26396235823631287,0.22273017466068268,0.1805817186832428
1667267075116466000,1.9174658203125,0.2566322088241577,0.22761696577072144,0.18791188299655914
1667267075118863600,1.919863525390625,0.24808034300804138,0.22700610756874084,0.19585290551185608
1667267075121261300,1.92226123046875,0.24075017869472504,0.22395187616348267,0.20379391312599182
1667267075123659000,1.924658935546875,0.2321983128786087,0.2208976447582245,0.20929154753684998
1667267075126056700,1.927056640625,0.2205922156572342,0.21601086854934692,0.21540001034736633
1667267075128454700,1.92945458984375,0.21204034984111786,0.21234577894210815,0.2184542566537857
1667267075130852400,1.931852294921875,0.20287764072418213,0.2068481594324112,0.22456271946430206
1667267075133250000,1.93425,0.193104088306427,0.20012883841991425,0.22578442096710205
1667267075135647700,1.936647705078125,0.18394137918949127,0.19524206221103668,0.22944949567317963
1667267075138045700,1.939045654296875,0.17233528196811676,0.19035527110099792,0.22944949567317963
1667267075140443400,1.941443359375,0.16256172955036163,0.18913358449935913,0.22883865237236023
1667267075142841000,1.943841064453125,0.1533990204334259,0.18546849489212036,0.23067119717597961
1667267075145238800,1.94623876953125,0.139960378408432,0.18546849489212036,0.22822780907154083
1667267075147636500,1.948636474609375,0.12530004978179932,0.18241426348686218,0.22700610756874084
1667267075150034400,1.951034423828125,0.11247225105762482,0.1787491738796234,0.2202867865562439
1667267075152432000,1.95343212890625,0.1008661538362503,0.17691664397716522,0.21478916704654694
1667267075154829800,1.955829833984375,0.08681666851043701,0.17691664397716522,0.20929154753684998
1667267075157227500,1.9582275390625,0.0745997205376625,0.17508409917354584,0.20135052502155304
1667267075159625500,1.96062548828125,0.06055023521184921,0.17447324097156525,0.1940203607082367
1667267075162023200,1.963023193359375,0.048333290964365005,0.17386239767074585,0.18485765159130096
1667267075164420900,1.9654208984375,0.03733803704380989,0.17630578577518463,0.17447324097156525
1667267075166818600,1.967818603515625,0.022677704691886902,0.17386239767074585,0.16347800195217133
1667267075169216300,1.97021630859375,0.00862821750342846,0.17386239767074585,0.153704434633255
1667267075171614200,1.9726142578125,-0.006032116711139679,0.17813833057880402,0.13904410600662231
1667267075174012000,1.975011962890625,-0.02008160389959812,0.18363595008850098,0.12499462068080902
1667267075176409600,1.97740966796875,-0.031076854094862938,0.1921878159046173,0.1146102175116539
1667267075178807300,1.979807373046875,-0.0426829531788826,0.20135052502155304,0.1023932695388794
1667267075181205200,1.982205322265625,-0.052456509321928024,0.21051323413848877,0.09139802306890488
1667267075183603000,1.98460302734375,-0.06100837141275406,0.2202867865562439,0.08406785130500793
1667267075186000600,1.987000732421875,-0.07139277458190918,0.23006035387516022,0.07368344813585281
1667267075188398300,1.9893984375,-0.07872293889522552,0.23983390629291534,0.06574243307113647
1667267075190796300,1.99179638671875,-0.08299887180328369,0.24899661540985107,0.0626882016658783
1667267075193194000,1.994194091796875,-0.08666395395994186,0.2593810260295868,0.059023115783929825
1667267075195591700,1.996591796875,-0.08971819281578064,0.26854372024536133,0.057801421731710434
1667267075197989400,1.9989892578125,-0.09155073016881943,0.27648472785949707,0.05841226875782013
1667267075200387300,2.00138720703125,-0.09093988686800003,0.283204048871994,0.06146650388836861
1667267075202785000,2.003784912109375,-0.09216158092021942,0.2862583100795746,0.06329904496669769
1667267075205182700,2.0061826171875,-0.09277242422103882,0.28931254148483276,0.06574243307113647
1667267075207580400,2.008580322265625,-0.09277242422103882,0.29053422808647156,0.06818582862615585
1667267075209978000,2.01097802734375,-0.09338327497243881,0.28992336988449097,0.07246175408363342
1667267075212376000,2.0133759765625,-0.09399411827325821,0.28992336988449097,0.0755159929394722
1667267075214773800,2.015773681640625,-0.09338327497243881,0.29236677289009094,0.08467870205640793
1667267075217171500,2.01817138671875,-0.09216158092021942,0.3082487881183624,0.11766445636749268
1667267075219569200,2.020569091796875,-0.09277242422103882,0.33207184076309204,0.17447324097156525
1667267075221967000,2.022967041015625,-0.09704835712909698,0.3534514904022217,0.23983390629291534
1667267075224364800,2.02536474609375,-0.10498937219381332,0.3632250428199768,0.3015294671058655
1667267075226762500,2.027762451171875,-0.10926530510187149,0.3607816696166992,0.3534514904022217
1667267075229160200,2.03016015625,-0.11903885751962662,0.3479538559913635,0.3992650508880615
1667267075231558000,2.032557861328125,-0.12453648447990417,0.3222982883453369,0.43652671575546265
1667267075233955800,2.034955810546875,-0.13247749209403992,0.2868691384792328,0.4695124626159668
1667267075236353500,2.037353515625,-0.13797512650489807,0.23555797338485718,0.493946373462677
1667267075238751200,2.039751220703125,-0.14225105941295624,0.1799708753824234,0.5086066722869873
1667267075241149000,2.04214892578125,-0.14408360421657562,0.12010784447193146,0.5165477395057678
1667267075243547000,2.044546875,-0.14102935791015625,0.05657972767949104,0.5110501050949097
1667267075245944600,2.046944580078125,-0.1361425817012787,-0.0038941511884331703,0.502498209476471
1667267075248342300,2.04934228515625,-0.12942326068878174,-0.058870404958724976,0.48967042565345764
1667267075250740000,2.051739990234375,-0.12026055157184601,-0.10468395054340363,0.4701233208179474
1667267075253137700,2.0541376953125,-0.11537377536296844,-0.1468324065208435,0.4463002681732178
1667267075255535600,2.05653564453125,-0.1074327602982521,-0.17981816828250885,0.4169796109199524
1667267075257933300,2.058933349609375,-0.09949174523353577,-0.20241950452327728,0.38277217745780945
1667267075260331000,2.0613310546875,-0.09338327497243881,-0.21891239285469055,0.34367793798446655
1667267075262728700,2.063728759765625,-0.09155073016881943,-0.22868594527244568,0.3003077805042267
1667267075265126700,2.066126708984375,-0.08727480471134186,-0.22868594527244568,0.2563267946243286
1667267075267524400,2.0685244140625,-0.08605311065912247,-0.22379916906356812,0.2050156146287918
1667267075269922000,2.070922119140625,-0.08422056585550308,-0.21707984805107117,0.153704434633255
1667267075272319700,2.07331982421875,-0.08299887180328369,-0.20791713893413544,0.09811734408140182
1667267075274717700,2.0757177734375,-0.0823880210518837,-0.19508934020996094,0.04253023862838745
1667267075277115400,2.078115478515625,-0.08360971510410309,-0.17859646677970886,-0.0130568603053689
1667267075279513000,2.08051318359375,-0.08299887180328369,-0.15660595893859863,-0.06375718116760254
1667267075281910800,2.082910888671875,-0.0811663269996643,-0.1340046226978302,-0.11506835371255875
1667267075284308700,2.085308837890625,-0.07627955079078674,-0.10346225649118423,-0.16393613815307617
1667267075286706400,2.08770654296875,-0.07139277458190918,-0.07047650218009949,-0.20547375082969666
1667267075289104100,2.090104248046875,-0.06589514762163162,-0.03199312463402748,-0.24517881870269775
