time,seconds_elapsed,z,y,x
1667267073299499000,0.1004990234375,8.482256889343262,0.8428717851638794,-0.643968403339386
1667267073301896700,0.102896728515625,8.501399993896484,0.8452646136283875,-0.6248258352279663
1667267073304294400,0.10529443359375,8.549256324768066,0.8620143532752991,-0.6367899179458618
1667267073306692000,0.107692138671875,8.609076499938965,0.890728235244751,-0.643968403339386
1667267073309089800,0.11008984375,8.67607593536377,0.9218349456787109,-0.6511468887329102
1667267073311487700,0.11248779296875,8.776873588562012,0.9601200819015503,-0.6870391964912415
1667267073313885400,0.114885498046875,8.879764556884766,0.9672985672950745,-0.6966105103492737
1667267073316283100,0.117283203125,8.975478172302246,0.9888339638710022,-0.7109674215316772
1667267073318680800,0.119680908203125,9.107083320617676,1.017547845840454,-0.6942176818847656
1667267073321078800,0.122078857421875,9.219545364379883,1.0199406147003174,-0.675075113773346
1667267073323476500,0.1244765625,9.36341381072998,1.036690354347229,-0.6272186636924744
1667267073325874200,0.126874267578125,9.509376525878906,1.0582258701324463,-0.5841478109359741
1667267073328272000,0.12927197265625,9.645767211914062,1.0701899528503418,-0.5195416212081909
1667267073330669600,0.131669677734375,9.772586822509766,1.0630114078521729,-0.4692923426628113
1667267073333067500,0.134067626953125,9.870991706848145,1.0821540355682373,-0.4286143481731415
1667267073335465200,0.13646533203125,9.952347755432129,1.0893324613571167,-0.385543555021286
1667267073337863000,0.13886279296875,10.0073823928833,1.0965110063552856,-0.4094717800617218
1667267073340260600,0.141260498046875,10.05284595489502,1.0893324613571167,-0.44297128915786743
1667267073342658300,0.143658203125,10.091131210327148,1.1012966632843018,-0.4812564551830292
1667267073345056300,0.14605615234375,10.107880592346191,1.0917253494262695,-0.5554339289665222
1667267073347454000,0.148453857421875,10.110274314880371,1.0893324613571167,-0.612861692905426
1667267073349851600,0.1508515625,10.105487823486328,1.0701899528503418,-0.6726822853088379
1667267073352249300,0.153249267578125,10.074381828308105,1.0582258701324463,-0.7301099896430969
1667267073354647000,0.15564697265625,10.064809799194336,1.0558329820632935,-0.7588238716125488
1667267073357045000,0.158044921875,10.050453186035156,1.0414760112762451,-0.7588238716125488
1667267073359442700,0.160442626953125,10.04566764831543,1.036690354347229,-0.768395185470581
1667267073361840400,0.16284033203125,10.048060417175293,1.0319048166275024,-0.7636095285415649
1667267073364238000,0.165238037109375,10.028918266296387,1.0223335027694702,-0.768395185470581
1667267073366635800,0.1676357421875,10.033703804016113,1.0247262716293335,-0.7301099896430969
1667267073369033700,0.17003369140625,10.043274879455566,1.0295119285583496,-0.7109674215316772
1667267073371431400,0.172431396484375,10.043274879455566,1.0247262716293335,-0.6870391964912415
1667267073373829000,0.1748291015625,10.002596855163574,0.9984052777290344,-0.6583253145217896
1667267073376226800,0.177226806640625,9.949954986572266,1.0223335027694702,-0.6655037999153137
1667267073378624800,0.179624755859375,9.892526626586914,1.012762188911438,-0.6966105103492737
1667267073381022500,0.1820224609375,9.8207426071167,1.0031908750534058,-0.7468597888946533
1667267073383420200,0.184420166015625,9.763015747070312,1.0031908750534058,-0.8114659786224365
1667267073385817900,0.18681787109375,9.693623542785645,1.0055837631225586,-0.8715856671333313
1667267073388215800,0.1892158203125,9.638588905334473,1.0103694200515747,-0.893121063709259
1667267073390613500,0.191613525390625,9.602696418762207,1.0199406147003174,-0.924227774143219
1667267073393011200,0.19401123046875,9.564411163330078,1.0247262716293335,-0.9337990283966064
1667267073395409000,0.196408935546875,9.552447319030762,1.0390832424163818,-0.9074779748916626
1667267073397806600,0.198806640625,9.557232856750488,1.0510473251342773,-0.8859425783157349
1667267073400204500,0.20120458984375,9.547661781311035,1.072582721710205,-0.8668000102043152
1667267073402602200,0.203602294921875,9.576375007629395,1.0893324613571167,-0.8330013751983643
1667267073405000000,0.206,9.559625625610352,1.1060823202133179,-0.7851449251174927
1667267073407397600,0.208397705078125,9.571589469909668,1.1060823202133179,-0.7540382146835327
1667267073409795300,0.21079541015625,9.552447319030762,1.0941181182861328,-0.7420741319656372
1667267073412193300,0.213193359375,9.542876243591309,1.0821540355682373,-0.7444669604301453
1667267073414591000,0.215591064453125,9.509376525878906,1.0630114078521729,-0.7301099896430969
1667267073416988700,0.21798876953125,9.468698501586914,1.0558329820632935,-0.7468597888946533
1667267073419386400,0.220386474609375,9.437591552734375,1.0582258701324463,-0.7731808423995972
1667267073421784000,0.2227841796875,9.425627708435059,1.048654556274414,-0.797109067440033
1667267073424182000,0.22518212890625,9.439984321594238,1.072582721710205,-0.8162516355514526
1667267073426579700,0.227579833984375,9.475876808166504,1.0821540355682373,-0.8377870321273804
1667267073428977400,0.229977294921875,9.521340370178223,1.103689432144165,-0.8452646136283875
1667267073431375000,0.232375,9.576375007629395,1.1060823202133179,-0.8162516355514526
1667267073433773000,0.23477294921875,9.63619613647461,1.103689432144165,-0.8186444640159607
1667267073436170800,0.237170654296875,9.707980155944824,1.0845468044281006,-0.8114659786224365
1667267073438568400,0.239568359375,9.755837440490723,1.067797064781189,-0.7923234105110168
1667267073440966100,0.241966064453125,9.784550666809082,1.0606186389923096,-0.7516453862190247
1667267073443363800,0.24436376953125,9.823135375976562,1.0247262716293335,-0.7205387353897095
1667267073445761800,0.24676171875,9.832706451416016,1.012762188911438,-0.6678966283798218
1667267073448159500,0.249159423828125,9.827920913696289,0.9960124492645264,-0.6056832075119019
1667267073450557200,0.25155712890625,9.823135375976562,0.981655478477478,-0.5697908997535706
1667267073452955000,0.253954833984375,9.801301002502441,0.9457631707191467,-0.5482555031776428
1667267073455352600,0.2563525390625,9.779765129089355,0.9194421172142029,-0.5673980712890625
1667267073457750500,0.25875048828125,9.770194053649902,0.890728235244751,-0.6152545213699341
1667267073460148200,0.261148193359375,9.76062297821045,0.8668000102043152,-0.6391827464103699
1667267073462546000,0.2635458984375,9.772586822509766,0.8306085467338562,-0.6846463680267334
1667267073464943600,0.265943603515625,9.767801284790039,0.797109067440033,-0.7229315638542175
1667267073467341300,0.26834130859375,9.765408515930176,0.7755736112594604,-0.7468597888946533
1667267073469739300,0.2707392578125,9.739087104797363,0.7205387353897095,-0.7516453862190247
1667267073472137000,0.273136962890625,9.684052467346191,0.6798607110977173,-0.766002357006073
1667267073474534700,0.27553466796875,9.624231338500977,0.6535396575927734,-0.7588238716125488
1667267073476932400,0.277932373046875,9.564411163330078,0.6391827464103699,-0.7277171611785889
1667267073479330000,0.280330078125,9.52612590789795,0.6200401782989502,-0.7396813035011292
1667267073481728000,0.28272802734375,9.459127426147461,0.6152545213699341,-0.7037889361381531
1667267073484125700,0.285125732421875,9.420842170715332,0.6296114325523376,-0.6631109714508057
1667267073486523400,0.2875234375,9.36341381072998,0.6152545213699341,-0.6415755748748779
1667267073488921000,0.289921142578125,9.317950248718262,0.6080760359764099,-0.6367899179458618
1667267073491319000,0.292319091796875,9.298808097839355,0.6367899179458618,-0.5937191247940063
1667267073493716700,0.294716796875,9.28445053100586,0.6607181429862976,-0.5673980712890625
1667267073496114400,0.297114501953125,9.265308380126953,0.6607181429862976,-0.5315057039260864
1667267073498512100,0.29951220703125,9.255437850952148,0.6798607110977173,-0.49322056770324707
1667267073500909800,0.301909912109375,9.245866775512695,0.6678966283798218,-0.4860421121120453
1667267073503307800,0.304307861328125,9.221938133239746,0.6774678826332092,-0.4668995141983032
1667267073505705500,0.30670556640625,9.214759826660156,0.6918248534202576,-0.48843491077423096
1667267073508103200,0.309103271484375,9.219545364379883,0.701396107673645,-0.521934449672699
1667267073510500900,0.3115009765625,9.236295700073242,0.7109674215316772,-0.5410770177841187
1667267073512898600,0.313898681640625,9.245866775512695,0.7085745930671692,-0.579362154006958
1667267073515296500,0.316296630859375,9.27009391784668,0.7229315638542175,-0.612861692905426
1667267073517694200,0.318694091796875,9.308379173278809,0.7396813035011292,-0.6559324860572815
1667267073520092000,0.321091796875,9.337093353271484,0.7372884750366211,-0.6415755748748779
1667267073522489600,0.323489501953125,9.392127990722656,0.7109674215316772,-0.6272186636924744
1667267073524887600,0.325887451171875,9.423234939575195,0.6966105103492737,-0.6056832075119019
1667267073527285200,0.32828515625,9.463912963867188,0.6583253145217896,-0.5578267574310303
1667267073529683000,0.330682861328125,9.48066234588623,0.6511468887329102,-0.5195416212081909
1667267073532080600,0.33308056640625,9.502198219299316,0.6152545213699341,-0.49322056770324707
1667267073534478300,0.335478271484375,9.538089752197266,0.5937191247940063,-0.4668995141983032
1667267073536876300,0.337876220703125,9.585947036743164,0.5721837282180786,-0.4621138870716095
1667267073539274000,0.34027392578125,9.669695854187012,0.5602195858955383,-0.4501497745513916
1667267073541671700,0.342671630859375,9.803693771362305,0.5554339289665222,-0.4453641176223755
1667267073544069400,0.3450693359375,9.916455268859863,0.5697908997535706,-0.4286143481731415
1667267073546467300,0.34746728515625,10.03848934173584,0.5721837282180786,-0.43100717663764954
1667267073548865000,0.349864990234375,10.143773078918457,0.5745765566825867,-0.46450668573379517
1667267073551262700,0.3522626953125,10.225129127502441,0.579362154006958,-0.524327278137207
1667267073553660400,0.354660400390625,10.272985458374023,0.5961119532585144,-0.6343970894813538
1667267073556058000,0.35705810546875,10.304092407226562,0.5961119532585144,-0.7301099896430969
1667267073558456000,0.3594560546875,10.320842742919922,0.6056832075119019,-0.8258228898048401
1667267073560853800,0.361853759765625,10.342377662658691,0.6152545213699341,-0.8859425783157349
1667267073563251500,0.36425146484375,10.344770431518555,0.6343970894813538,-0.9385846853256226
1667267073565649200,0.366649169921875,10.344770431518555,0.6583253145217896,-0.9601200819015503
1667267073568046800,0.369046875,10.313663482666016,0.6726822853088379,-0.9577272534370422
1667267073570444800,0.37144482421875,10.27059268951416,0.6990033388137817,-0.9505487680435181
1667267073572842500,0.373842529296875,10.227521896362305,0.732502818107605,-0.9529415965080261
1667267073575240200,0.376240234375,10.186843872070312,0.7540382146835327,-0.9625129103660583
1667267073577638000,0.378637939453125,10.158130645751953,0.7779664397239685,-0.9912267923355103
1667267073580035600,0.38103564453125,10.129416465759277,0.7995018362998962,-1.0223335027694702
1667267073582433500,0.38343359375,10.143773078918457,0.8377870321273804,-1.0342975854873657
1667267073584831200,0.385831298828125,10.15573787689209,0.8644071817398071,-1.0247262716293335
1667267073587229000,0.38822900390625,10.15573787689209,0.8955138921737671,-1.043868899345398
1667267073589626600,0.390626708984375,10.16291618347168,0.9433703422546387,-1.0342975854873657
1667267073592024300,0.3930244140625,10.17009449005127,0.9625129103660583,-1.0055837631225586
1667267073594422300,0.39542236328125,10.17727279663086,0.9553344249725342,-1.012762188911438
1667267073596820000,0.397820068359375,10.17727279663086,0.9960124492645264,-0.9936196208000183
1667267073599217700,0.4002177734375,10.148558616638184,1.0414760112762451,-0.9649057388305664
1667267073601615400,0.402615478515625,10.115059852600098,1.0630114078521729,-0.9433703422546387
1667267073604013300,0.405013427734375,10.06002426147461,1.1132607460021973,-0.9290133714675903
1667267073606411000,0.407410888671875,9.976275444030762,1.1300104856491089,-0.9122636318206787
1667267073608808700,0.40980859375,9.892526626586914,1.1324033737182617,-0.9002995491027832
1667267073611206400,0.412206298828125,9.779765129089355,1.1539387702941895,-0.8787640929222107
1667267073613604000,0.41460400390625,9.662516593933105,1.1778669357299805,-0.8739784955978394
1667267073616002000,0.417001953125,9.538089752197266,1.1850453615188599,-0.8500502705574036
1667267073618399700,0.419399658203125,9.430413246154785,1.2041879892349243,-0.7995018362998962
1667267073620797400,0.42179736328125,9.339486122131348,1.2185449600219727,-0.7540382146835327
1667267073623195100,0.424195068359375,9.265308380126953,1.2783654928207397,-0.7516453862190247
1667267073625592800,0.4265927734375,9.229117393493652,1.2975081205368042,-0.7420741319656372
1667267073627990800,0.42899072265625,9.219545364379883,1.3334003686904907,-0.732502818107605
1667267073630388500,0.431388427734375,9.212367057800293,1.3836497068405151,-0.7157530784606934
1667267073632786200,0.4337861328125,9.219545364379883,1.4246268272399902,-0.701396107673645
1667267073635183900,0.436183837890625,9.255437850952148,1.4413765668869019,-0.6990033388137817
1667267073637581800,0.438581787109375,9.301200866699219,1.4413765668869019,-0.6894320249557495
1667267073639979500,0.4409794921875,9.346664428710938,1.4413765668869019,-0.6822535395622253
1667267073642377200,0.443377197265625,9.384949684143066,1.415055513381958,-0.6702894568443298
1667267073644775000,0.44577490234375,9.428020477294922,1.40279221534729,-0.6367899179458618
1667267073647172600,0.448172607421875,9.485447883605957,1.3645070791244507,-0.5961119532585144
1667267073649570600,0.450570556640625,9.557232856750488,1.3525429964065552,-0.5913262963294983
1667267073651968300,0.45296826171875,9.61944580078125,1.3453645706176758,-0.5769693851470947
1667267073654366000,0.455365966796875,9.700801849365234,1.3405789136886597,-0.5817549824714661
1667267073656763600,0.457763671875,9.777372360229492,1.3405789136886597,-0.5841478109359741
1667267073659161600,0.46016162109375,9.859027862548828,1.3381860256195068,-0.5745765566825867
1667267073661559300,0.462559326171875,9.945169448852539,1.319043517112732,-0.5769693851470947
1667267073663957000,0.46495703125,10.04566764831543,1.2951152324676514,-0.5817549824714661
1667267073666354700,0.467354736328125,10.148558616638184,1.287936806678772,-0.5673980712890625
1667267073668752400,0.46975244140625,10.246665000915527,1.2640085220336914,-0.5554339289665222
1667267073671150300,0.472150390625,10.349555969238281,1.2472587823867798,-0.5099703073501587
1667267073673548000,0.474548095703125,10.443175315856934,1.2424731254577637,-0.48843491077423096
1667267073675945700,0.47694580078125,10.512567520141602,1.2329018115997314,-0.4286143481731415
1667267073678343400,0.479343505859375,10.534102439880371,1.2281162738800049,-0.4214358925819397
1667267073680741000,0.4817412109375,10.543673515319824,1.2376874685287476,-0.41904306411743164
1667267073683139000,0.48413916015625,10.555638313293457,1.2329018115997314,-0.44297128915786743
1667267073685536800,0.486536865234375,10.512567520141602,1.280758261680603,-0.4573282301425934
1667267073687934500,0.4889345703125,10.445568084716797,1.2903295755386353,-0.49322056770324707
1667267073690332200,0.491332275390625,10.356734275817871,1.316650629043579,-0.5410770177841187
1667267073692729900,0.493729736328125,10.292128562927246,1.319043517112732,-0.612861692905426
1667267073695127800,0.4961279296875,10.167701721191406,1.3525429964065552,-0.6655037999153137
1667267073697525500,0.498525390625,10.074381828308105,1.3621143102645874,-0.7205387353897095
1667267073699923200,0.500923095703125,9.961918830871582,1.3908281326293945,-0.7372884750366211
1667267073702321000,0.50332080078125,9.813264846801758,1.4174482822418213,-0.7612167000770569
1667267073704718600,0.505718505859375,9.712766647338867,1.4318052530288696,-0.766002357006073
1667267073707116500,0.508116455078125,9.602696418762207,1.4413765668869019,-0.7564310431480408
1667267073709514200,0.51051416015625,9.490233421325684,1.434198021888733,-0.7468597888946533
1667267073711912000,0.512911865234375,9.404091835021973,1.4437693357467651,-0.7396813035011292
1667267073714309600,0.5153095703125,9.286844253540039,1.4485549926757812,-0.734895646572113
1667267073716707600,0.51770751953125,9.193224906921387,1.446162223815918,-0.7133602499961853
1667267073719105300,0.520105224609375,9.104690551757812,1.410269856452942,-0.7061817646026611
1667267073721503000,0.5225029296875,9.025727272033691,1.3956137895584106,-0.7085745930671692
1667267073723900700,0.524900634765625,8.96829891204834,1.3836497068405151,-0.7109674215316772
1667267073726298600,0.527298583984375,8.915657043457031,1.3549357652664185,-0.7468597888946533
1667267073728696300,0.5296962890625,8.882157325744629,1.3046865463256836,-0.7540382146835327
1667267073731094000,0.532093994140625,8.891729354858398,1.2496516704559326,-0.7779664397239685
1667267073733491700,0.53449169921875,8.898907661437988,1.225723385810852,-0.8090731501579285
1667267073735889400,0.536889404296875,8.879764556884766,1.220937728881836,-0.8138588070869446
1667267073738287400,0.539287353515625,8.865407943725586,1.1850453615188599,-0.797109067440033
1667267073740685000,0.54168505859375,8.858229637145996,1.1802598237991333,-0.8042874932289124
1667267073743082800,0.544082763671875,8.841479301452637,1.158724308013916,-0.8090731501579285
1667267073745480400,0.54648046875,8.831908226013184,1.1515458822250366,-0.8162516355514526
1667267073747878100,0.548878173828125,8.846264839172363,1.1324033737182617,-0.8452646136283875
1667267073750276000,0.551276123046875,8.8438720703125,1.1228320598602295,-0.8524430394172668
1667267073752673800,0.553673828125,8.877371788024902,1.1180464029312134,-0.8452646136283875
1667267073755071500,0.556071533203125,8.886942863464355,1.1252248287200928,-0.8668000102043152
1667267073757469200,0.55846923828125,8.889336585998535,1.1108678579330444,-0.859621524810791
1667267073759867000,0.560866943359375,8.858229637145996,1.074975609779358,-0.859621524810791
1667267073762264800,0.563264892578125,8.824729919433594,1.0534402132034302,-0.8811569213867188
1667267073764662500,0.56566259765625,8.784051895141602,1.0462616682052612,-0.8811569213867188
1667267073767060200,0.568060302734375,8.760123252868652,1.0342975854873657,-0.893121063709259
1667267073769458000,0.5704580078125,8.74337387084961,1.0199406147003174,-0.8955138921737671
1667267073771856000,0.57285595703125,8.73619556427002,1.036690354347229,-0.8883354067802429
1667267073774253600,0.575253662109375,8.740981101989746,1.067797064781189,-0.8691928386688232
1667267073776651300,0.5776513671875,8.764909744262695,1.074975609779358,-0.857228696346283
1667267073779049000,0.580049072265625,8.800801277160645,1.098903775215149,-0.8306085467338562
1667267073781446700,0.58244677734375,8.851051330566406,1.1539387702941895,-0.766002357006073
1667267073783844600,0.5848447265625,8.901300430297852,1.1922239065170288,-0.7109674215316772
1667267073786242300,0.5872421875,8.93240737915039,1.197009563446045,-0.6535396575927734
1667267073788640000,0.589639892578125,8.95394229888916,1.2185449600219727,-0.610468864440918
1667267073791037700,0.59203759765625,8.9850492477417,1.2305090427398682,-0.579362154006958
1667267073793435600,0.594435546875,9.018548965454102,1.2137593030929565,-0.5554339289665222
1667267073795833300,0.596833251953125,9.037691116333008,1.2233306169509888,-0.5362913608551025
1667267073798231000,0.59923095703125,9.042476654052734,1.2329018115997314,-0.5267201066017151
1667267073800628700,0.601628662109375,9.07119083404541,1.252044439315796,-0.521934449672699
1667267073803026400,0.6040263671875,9.123832702636719,1.2352946996688843,-0.490827739238739
1667267073805424400,0.60642431640625,9.181260108947754,1.252044439315796,-0.4812564551830292
1667267073807822000,0.608822021484375,9.22433090209961,1.2735798358917236,-0.4334000051021576
1667267073810219800,0.6112197265625,9.272486686706543,1.2783654928207397,-0.368793785572052
1667267073812617500,0.613617431640625,9.315557479858398,1.3070793151855469,-0.3041875660419464
1667267073815015200,0.61601513671875,9.353842735290527,1.316650629043579,-0.24646073579788208
1667267073817413000,0.6184130859375,9.4088773727417,1.319043517112732,-0.17946170270442963
1667267073819810800,0.620810791015625,9.447162628173828,1.323829174041748,-0.08853443711996078
1667267073822208500,0.62320849609375,9.50459098815918,1.3286148309707642,-0.02153540402650833
1667267073824606200,0.625606201171875,9.550054550170898,1.342971682548523,0.059820566326379776
1667267073827004000,0.62800390625,9.564411163330078,1.3286148309707642,0.10767702013254166
1667267073829401900,0.63040185546875,9.569196701049805,1.3286148309707642,0.1579262912273407
1667267073831799600,0.632799560546875,9.559625625610352,1.3094722032546997,0.17946170270442963
1667267073834197200,0.635197265625,9.528518676757812,1.2855439186096191,0.18424734473228455
1667267073836595000,0.637594970703125,9.449555397033691,1.2472587823867798,0.17228323221206665
1667267073838993000,0.639992919921875,9.4088773727417,1.1994023323059082,0.14356936514377594
1667267073841390600,0.642390625,9.339486122131348,1.134796142578125,0.10767702013254166
1667267073843788300,0.644788330078125,9.282057762145996,1.0845468044281006,0.09571290761232376
1667267073846186000,0.64718603515625,9.20997428894043,1.017547845840454,0.0526420995593071
1667267073848584000,0.649583984375,9.128618240356445,0.9433703422546387,-0.02632104977965355
1667267073850981600,0.651981689453125,9.040083885192871,0.8883354067802429,-0.10049854964017868
1667267073853379300,0.65437939453125,8.96829891204834,0.8258228898048401,-0.17946170270442963
1667267073855777000,0.656777099609375,8.906085968017578,0.768395185470581,-0.23688943684101105
1667267073858174700,0.6591748046875,8.82951545715332,0.6966105103492737,-0.3089732229709625
1667267073860572700,0.66157275390625,8.74337387084961,0.6248258352279663,-0.3975076675415039
1667267073862970400,0.663970458984375,8.678468704223633,0.5602195858955383,-0.48364928364753723
1667267073865368000,0.6663681640625,8.640183448791504,0.5051847100257874,-0.5697908997535706
1667267073867765800,0.668765869140625,8.577970504760742,0.4405784606933594,-0.6631109714508057
1667267073870163500,0.67116357421875,8.554041862487793,0.40229329466819763,-0.7420741319656372
1667267073872561400,0.6735615234375,8.556434631347656,0.3640081584453583,-0.8524430394172668
1667267073874959000,0.675958984375,8.601898193359375,0.2994019389152527,-0.9768698215484619
1667267073877356800,0.678356689453125,8.654540061950684,0.2727817893028259,-1.1060823202133179
1667267073879754500,0.68075439453125,8.781659126281738,0.2727817893028259,-1.220937728881836
1667267073882152200,0.683152099609375,8.934800148010254,0.2799602448940277,-1.319043517112732
1667267073884550100,0.685550048828125,9.128618240356445,0.28504499793052673,-1.4054841995239258
1667267073886947800,0.68794775390625,9.315557479858398,0.30658039450645447,-1.4653047323226929
1667267073889345500,0.690345458984375,9.497411727905273,0.3089732229709625,-1.4820544719696045
1667267073891743200,0.6927431640625,9.662516593933105,0.30658039450645447,-1.470090389251709
1667267073894141200,0.69514111328125,9.782157897949219,0.30179476737976074,-1.4557334184646606
1667267073896539000,0.697538818359375,9.89013385772705,0.27038896083831787,-1.4246268272399902
1667267073898936600,0.6999365234375,9.983454704284668,0.23449662327766418,-1.3716856241226196
1667267073901334300,0.702334228515625,10.069596290588379,0.20099709928035736,-1.3262219429016113
1667267073903732200,0.704732177734375,10.17009449005127,0.17228323221206665,-1.2831511497497559
1667267073906130000,0.7071298828125,10.229914665222168,0.13639089465141296,-1.2376874685287476
1667267073908527600,0.709527587890625,10.29452133178711,0.10049854964017868,-1.1682956218719482
1667267073910925300,0.71192529296875,10.304092407226562,0.06699903309345245,-1.1012966632843018
1667267073913323000,0.714322998046875,10.306485176086426,0.07178468257188797,-1.0295119285583496
1667267073915721000,0.716720947265625,10.284950256347656,0.06939185410737991,-0.9433703422546387
1667267073918118700,0.71911865234375,10.25623607635498,0.07178468257188797,-0.8668000102043152
1667267073920516400,0.721516357421875,10.208379745483398,0.08614161610603333,-0.7516453862190247
1667267073922914000,0.7239140625,10.189236640930176,0.09092725813388824,-0.6511468887329102
1667267073925311700,0.726311767578125,10.134202003479004,0.10289137065410614,-0.5602195858955383
1667267073927709700,0.728709716796875,10.088738441467285,0.08374879509210587,-0.4381856322288513
1667267073930107400,0.731107421875,10.057631492614746,0.07896314561367035,-0.34247273206710815
1667267073932505000,0.733505126953125,10.019346237182617,0.09810572862625122,-0.26081767678260803
1667267073934902800,0.73590283203125,9.969097137451172,0.13160525262355804,-0.17946170270442963
1667267073937300700,0.73830078125,9.930811882019043,0.12442677468061447,-0.1052841991186142
1667267073939698400,0.740698486328125,9.923633575439453,0.13878370821475983,-0.0526420995593071
1667267073942096100,0.74309619140625,9.911669731140137,0.13878370821475983,-0.0526420995593071
1667267073944493800,0.745493896484375,9.923633575439453,0.12921242415905,-0.06699903309345245
1667267073946891500,0.7478916015625,9.949954986572266,0.11724831163883209,-0.11246266216039658
1667267073949289500,0.75028955078125,9.988240242004395,0.11724831163883209,-0.1459621787071228
1667267073951687200,0.752687255859375,10.04566764831543,0.09571290761232376,-0.2225325107574463
1667267073954084900,0.7550849609375,10.122238159179688,0.10767702013254166,-0.28983065485954285
1667267073956482600,0.757482666015625,10.217950820922852,0.11724831163883209,-0.3209373354911804
1667267073958880300,0.75988037109375,10.313663482666016,0.13160525262355804,-0.33050861954689026
1667267073961278200,0.7622783203125,10.400104522705078,0.16271193325519562,-0.32572299242019653
1667267073963676000,0.764676025390625,10.476675033569336,0.20099709928035736,-0.2560320198535919
1667267073966073600,0.767073486328125,10.553245544433594,0.23688943684101105,-0.1866401731967926
1667267073968471300,0.76947119140625,10.598709106445312,0.27756741642951965,-0.09571290761232376
1667267073970869200,0.771869140625,10.658529281616211,0.3161516785621643,0.014356935396790504
1667267073973267000,0.774266845703125,10.720743179321289,0.37836506962776184,0.14835500717163086
1667267073975664600,0.77666455078125,10.763813972473145,0.4740779995918274,0.27756741642951965
1667267073978062300,0.779062255859375,10.799705505371094,0.5721837282180786,0.39511483907699585
1667267073980460300,0.781460205078125,10.826026916503906,0.6583253145217896,0.4980062246322632
1667267073982858000,0.78385791015625,10.82841968536377,0.7396813035011292,0.5721837282180786
1667267073985255700,0.786255615234375,10.845169067382812,0.7779664397239685,0.6152545213699341
1667267073987653400,0.7886533203125,10.845169067382812,0.8476574420928955,0.6559324860572815
1667267073990051000,0.791051025390625,10.859526634216309,0.857228696346283,0.643968403339386
1667267073992449000,0.793448974609375,10.840383529663086,0.8401798605918884,0.6056832075119019
1667267073994846700,0.7958466796875,10.804491996765137,0.7995018362998962,0.5338985323905945
1667267073997244400,0.798244384765625,10.754241943359375,0.7301099896430969,0.45972105860710144
1667267073999642000,0.80064208984375,10.706385612487793,0.6415755748748779,0.3448655605316162
1667267074002039800,0.803039794921875,10.598709106445312,0.521934449672699,0.24406790733337402
1667267074004437800,0.805437744140625,10.488638877868652,0.3735794425010681,0.11006984114646912
1667267074006835500,0.80783544921875,10.409675598144531,0.22492532432079315,-0.007178467698395252
1667267074009233200,0.810233154296875,10.339984893798828,0.07178468257188797,-0.15074782073497772
1667267074011630800,0.812630859375,10.3016996383667,-0.064606212079525,-0.275174617767334
1667267074014028800,0.81502880859375,10.27777099609375,-0.16271193325519562,-0.40229329466819763
1667267074016426500,0.817426513671875,10.26341438293457,-0.2946162819862366,-0.490827739238739
1667267074018824200,0.81982421875,10.275378227233887,-0.39032918214797974,-0.5769693851470947
1667267074021222000,0.822221923828125,10.332806587219238,-0.4668995141983032,-0.6343970894813538
1667267074023619600,0.82461962890625,10.412068367004395,-0.524327278137207,-0.7181459069252014
1667267074026017500,0.827017578125,10.502995491027832,-0.5745765566825867,-0.7755736112594604
1667267074028415200,0.829415283203125,10.620244026184082,-0.6056832075119019,-0.8691928386688232
1667267074030813000,0.83181298828125,10.713563919067383,-0.6726822853088379,-0.9601200819015503
1667267074033210600,0.834210693359375,10.770992279052734,-0.734895646572113,-1.0534402132034302
1667267074035608600,0.836608642578125,10.82841968536377,-0.8162516355514526,-1.1371889114379883
1667267074038006300,0.83900634765625,10.878668785095215,-0.8883354067802429,-1.2544373273849487
1667267074040404000,0.841404052734375,10.902597427368164,-0.9290133714675903,-1.3549357652664185
1667267074042801700,0.8438017578125,10.916954040527344,-0.9744769930839539,-1.434198021888733
1667267074045199600,0.84619970703125,10.943573951721191,-1.0007981061935425,-1.5035899877548218
1667267074047597300,0.848597412109375,10.955538749694824,-0.9936196208000183,-1.5251253843307495
1667267074049995000,0.8509951171875,10.977073669433594,-0.9768698215484619,-1.5179468393325806
1667267074052392700,0.853392822265625,11.046465873718262,-0.9290133714675903,-1.4676976203918457
1667267074054790400,0.855790283203125,11.142178535461426,-0.8835497498512268,-1.3621143102645874
1667267074057188400,0.858188232421875,11.283354759216309,-0.8210372924804688,-1.2496516704559326
1667267074059586000,0.8605859375,11.429317474365234,-0.7540382146835327,-1.0773683786392212
1667267074061983700,0.862983642578125,11.537293434143066,-0.6487540602684021,-0.8787640929222107
1667267074064381400,0.86538134765625,11.685648918151855,-0.5362913608551025,-0.6511468887329102
1667267074066779100,0.867779052734375,11.824432373046875,-0.44297128915786743,-0.39511483907699585
1667267074069177000,0.870177001953125,11.996715545654297,-0.34725838899612427,-0.14356936514377594
1667267074071574800,0.87257470703125,12.18365478515625,-0.23210379481315613,0.11485548317432404
1667267074073972500,0.874972412109375,12.372687339782715,-0.11964113265275955,0.3209373354911804
1667267074076370200,0.8773701171875,12.576077461242676,-0.007178467698395252,0.5482555031776428
1667267074078768000,0.87976806640625,12.755838394165039,0.07417750358581543,0.7540382146835327
1667267074081165800,0.882165771484375,12.93529987335205,0.14835500717163086,0.924227774143219
1667267074083563500,0.8845634765625,13.117155075073242,0.20578274130821228,1.0654042959213257
1667267074085961200,0.886961181640625,13.320843696594238,0.24167509377002716,1.1754741668701172
1667267074088359000,0.88935888671875,13.552947044372559,0.28504499793052673,1.2616157531738281
1667267074090756900,0.8917568359375,13.77817153930664,0.3233301639556885,1.350150227546692
1667267074093154600,0.894154541015625,13.995918273925781,0.37836506962776184,1.4222339391708374
1667267074095552300,0.89655224609375,14.194522857666016,0.43579283356666565,1.5203397274017334
1667267074097950000,0.898949951171875,14.35035514831543,0.5099703073501587,1.5777673721313477
1667267074100348000,0.901347900390625,14.496317863464355,0.5865406394004822,1.6184453964233398
1667267074102745600,0.90374560546875,14.630315780639648,0.6655037999153137,1.6447664499282837
1667267074105143300,0.906143310546875,14.747564315795898,0.7037889361381531,1.6160526275634766
1667267074107541000,0.908541015625,14.831313133239746,0.7540382146835327,1.5945172309875488
1667267074109939000,0.91093896484375,14.903396606445312,0.7588238716125488,1.5442678928375244
1667267074112336600,0.913336669921875,15.015859603881836,0.7396813035011292,1.5035899877548218
1667267074114734300,0.915734375,15.11875057220459,0.7181459069252014,1.4318052530288696
1667267074117132000,0.918132080078125,15.216856956481934,0.6391827464103699,1.3310075998306274
1667267074119529700,0.92052978515625,15.33649730682373,0.5362913608551025,1.2544373273849487
1667267074121927700,0.922927734375,15.480365753173828,0.38793638348579407,1.170688509941101
1667267074124325400,0.925325439453125,15.63829231262207,0.19621145725250244,1.1084750890731812
1667267074126723000,0.92772314453125,15.79382610321045,0.004785645287483931,1.0103694200515747
1667267074129120800,0.930120849609375,15.956538200378418,-0.16031911969184875,0.9266205430030823
1667267074131518700,0.932518798828125,16.131513595581055,-0.31375887989997864,0.8162516355514526
1667267074133916400,0.93491650390625,16.318153381347656,-0.4549354016780853,0.7085745930671692
1667267074136314000,0.937314208984375,16.50240135192871,-0.610468864440918,0.6176473498344421
1667267074138711800,0.9397119140625,16.703697204589844,-0.7420741319656372,0.5410770177841187
1667267074141109500,0.942109619140625,16.8999080657959,-0.8715856671333313,0.5171487927436829
1667267074143507500,0.944507568359375,17.060226440429688,-1.0079765319824219,0.5003990530967712
1667267074145905200,0.9469052734375,17.184953689575195,-1.1108678579330444,0.5386841893196106
1667267074148302800,0.949302734375,17.273487091064453,-1.2161520719528198,0.610468864440918
1667267074150700500,0.951700439453125,17.326129913330078,-1.3214362859725952,0.6726822853088379
1667267074153098500,0.954098388671875,17.306987762451172,-1.4365909099578857,0.7731808423995972
1667267074155496200,0.95649609375,17.239988327026367,-1.5442678928375244,0.8620143532752991
1667267074157894000,0.958893798828125,17.096118927001953,-1.6208382844924927,0.9768698215484619
1667267074160291600,0.96129150390625,16.904693603515625,-1.678265929222107,1.072582721710205
1667267074162689300,0.963689208984375,16.689340591430664,-1.7117655277252197,1.158724308013916
1667267074165087200,0.966087158203125,16.4760799407959,-1.709372639656067,1.2305090427398682
1667267074167485000,0.96848486328125,16.289440155029297,-1.7045869827270508,1.3022937774658203
1667267074169882600,0.970882568359375,16.15065574645996,-1.6974085569381714,1.347757339477539
1667267074172280300,0.9732802734375,16.04776382446289,-1.6998014450073242,1.3286148309707642
1667267074174678000,0.975677978515625,15.995121955871582,-1.6878372430801392,1.256830096244812
1667267074177076000,0.978075927734375,16.0070858001709,-1.6926229000091553,1.1778669357299805
1667267074179473700,0.9804736328125,16.01905059814453,-1.651944875717163,1.0390832424163818
1667267074181871400,0.982871337890625,16.03101348876953,-1.6639090776443481,0.9337990283966064
1667267074184269000,0.98526904296875,15.997514724731445,-1.6639090776443481,0.8401798605918884
1667267074186667000,0.9876669921875,15.930216789245605,-1.6471593379974365,0.734895646572113
1667267074189064700,0.990064697265625,15.868002891540527,-1.6423736810684204,0.6487540602684021
1667267074191462400,0.99246240234375,15.815361022949219,-1.6447664499282837,0.5482555031776428
1667267074193860000,0.994860107421875,15.753148078918457,-1.6304094791412354,0.4621138870716095
1667267074196258000,0.997258056640625,15.657435417175293,-1.6471593379974365,0.3616153299808502
1667267074198655700,0.99965576171875,15.55215072631836,-1.6399807929992676,0.22971096634864807
1667267074201053400,1.002053466796875,15.489937782287598,-1.5873386859893799,0.10049854964017868
1667267074203451100,1.004451171875,15.410675048828125,-1.5753746032714844,-0.05024927482008934
1667267074205849000,1.00684912109375,15.341282844543457,-1.5586248636245728,-0.23449662327766418
1667267074208246800,1.009246826171875,15.264713287353516,-1.5394822359085083,-0.41904306411743164
1667267074210644500,1.01164453125,15.209677696228027,-1.5394822359085083,-0.5865406394004822
1667267074213042200,1.014042236328125,15.121143341064453,-1.5466607809066772,-0.6894320249557495
1667267074215440000,1.01643994140625,15.070894241333008,-1.532303810119629,-0.768395185470581
1667267074217837800,1.018837890625,15.035001754760742,-1.4868401288986206,-0.8401798605918884
1667267074220235500,1.021235595703125,15.025430679321289,-1.446162223815918,-0.8979067206382751
1667267074222633200,1.02363330078125,15.070894241333008,-1.3956137895584106,-0.9170492887496948
1667267074225031000,1.026031005859375,15.137893676757812,-1.3405789136886597,-0.8787640929222107
1667267074227428900,1.028428955078125,15.166606903076172,-1.2711870670318604,-0.7827520966529846
1667267074229826600,1.03082666015625,15.142679214477539,-1.2089736461639404,-0.6774678826332092
1667267074232224300,1.033224365234375,15.058930397033691,-1.1611171960830688,-0.5650052428245544
1667267074234622000,1.0356220703125,14.98714542388916,-1.098903775215149,-0.4621138870716095
1667267074237019600,1.03801953125,14.857633590698242,-1.0773683786392212,-0.3975076675415039
1667267074239417600,1.04041748046875,14.749957084655762,-1.0103694200515747,-0.41904306411743164
1667267074241815300,1.042815185546875,14.66381549835205,-0.9481559991836548,-0.4692923426628113
1667267074244213000,1.045212890625,14.532210350036621,-0.9266205430030823,-0.5482555031776428
1667267074246610700,1.047610595703125,14.395819664001465,-0.8859425783157349,-0.6343970894813538
1667267074249008400,1.05000830078125,14.228022575378418,-0.8377870321273804,-0.7396813035011292
1667267074251406300,1.05240625,14.05095386505127,-0.8210372924804688,-0.8162516355514526
1667267074253804000,1.054803955078125,13.852349281311035,-0.8114659786224365,-0.893121063709259
1667267074256201700,1.05720166015625,13.636695861816406,-0.7923234105110168,-0.9672985672950745
1667267074258599400,1.059599365234375,13.426127433776855,-0.7731808423995972,-1.0055837631225586
1667267074260997400,1.061997314453125,13.249058723449707,-0.7851449251174927,-1.0271191596984863
1667267074263395000,1.06439501953125,13.088440895080566,-0.7612167000770569,-1.0462616682052612
1667267074265792800,1.066792724609375,12.930514335632324,-0.7827520966529846,-1.017547845840454
1667267074268190500,1.0691904296875,12.772587776184082,-0.8114659786224365,-0.9840483069419861
1667267074270588400,1.07158837890625,12.648160934448242,-0.8210372924804688,-0.924227774143219
1667267074272986000,1.073986083984375,12.54018497467041,-0.8258228898048401,-0.8668000102043152
1667267074275383800,1.0763837890625,12.468400955200195,-0.8500502705574036,-0.8330013751983643
1667267074277781500,1.078781494140625,12.43250846862793,-0.8763712644577026,-0.8114659786224365
1667267074280179500,1.081179443359375,12.3942232131958,-0.9050851464271545,-0.7947162389755249
1667267074282577200,1.0835771484375,12.353545188903809,-0.9146564602851868,-0.7827520966529846
1667267074284974800,1.085974853515625,12.334402084350586,-0.9170492887496948,-0.7779664397239685
1667267074287372500,1.08837255859375,12.288938522338867,-0.9266205430030823,-0.7516453862190247
1667267074289770200,1.090770263671875,12.260225296020508,-0.9529415965080261,-0.7779664397239685
1667267074292168200,1.093168212890625,12.229118347167969,-0.9744769930839539,-0.8066803216934204
1667267074294566000,1.09556591796875,12.231511116027832,-1.0031908750534058,-0.8114659786224365
1667267074296963600,1.097963623046875,12.229118347167969,-1.0630114078521729,-0.8377870321273804
1667267074299361300,1.100361328125,12.28415298461914,-1.1204391717910767,-0.8500502705574036
1667267074301759200,1.10275927734375,12.360723495483398,-1.1611171960830688,-0.857228696346283
