time,seconds_elapsed,z,y,x
1667825555496295200,0.023295166015625,0.07370910793542862,0.05731917545199394,0.38633084297180176
1667825555506303200,0.03330322265625,0.0985923558473587,0.07407685369253159,0.2667927145957947
1667825555516310300,0.043310302734375,0.13801322877407074,0.040342122316360474,0.09331723302602768
1667825555526318300,0.053318359375,0.18364275991916656,-0.02519587241113186,-0.09646787494421005
1667825555536326100,0.063326171875,0.2331501692533493,-0.13460972905158997,-0.27276232838630676
1667825555546333400,0.07333349609375,0.2749490439891815,-0.2564493417739868,-0.4154052138328552
1667825555556341200,0.08334130859375,0.30526405572891235,-0.3471560776233673,-0.5026317834854126
1667825555566348300,0.093348388671875,0.32927405834198,-0.41225624084472656,-0.5246728658676147
1667825555576356000,0.103356201171875,0.34657877683639526,-0.4675896465778351,-0.476570725440979
1667825555586364200,0.1133642578125,0.3572596311569214,-0.510970413684845,-0.3827020227909088
1667825555596371200,0.12337109375,0.3582541346549988,-0.5183966159820557,-0.2981971204280853
1667825555606379300,0.133379150390625,0.36862102150917053,-0.48625174164772034,-0.21941521763801575
1667825555616386000,0.143385986328125,0.37265413999557495,-0.4446031451225281,-0.13760200142860413
1667825555626394400,0.153394287109375,0.37669363617897034,-0.47447556257247925,-0.06804849952459335
1667825555636402200,0.163402099609375,0.38243961334228516,-0.6192324161529541,-0.03887714073061943
1667825555646409200,0.1734091796875,0.3611372709274292,-0.8517873883247375,-0.05830490216612816
1667825555656417000,0.1834169921875,0.2958039939403534,-1.0576709508895874,-0.10182585567235947
1667825555666425300,0.19342529296875,0.20627626776695251,-1.2076985836029053,-0.1359630525112152
1667825555676432100,0.20343212890625,0.11367494612932205,-1.278425931930542,-0.15215936303138733
1667825555686440200,0.213440185546875,0.005921585019677877,-1.3272931575775146,-0.15791313350200653
1667825555696448300,0.2234482421875,-0.15202288329601288,-1.3327159881591797,-0.18259166181087494
1667825555706455300,0.233455322265625,-0.34714123606681824,-1.3238247632980347,-0.23721575736999512
1667825555716463400,0.24346337890625,-0.4871371388435364,-1.2644506692886353,-0.3059442341327667
1667825555726470100,0.25347021484375,-0.46008607745170593,-1.1483322381973267,-0.4294978678226471
1667825555736478200,0.263478271484375,-0.32826778292655945,-1.0050733089447021,-0.5881807208061218
1667825555746486300,0.273486328125,-0.24795697629451752,-0.7567354440689087,-0.7286800146102905
1667825555756493300,0.283493408203125,-0.3169454336166382,-0.3257264196872711,-0.8657151460647583
1667825555766501000,0.293501220703125,-0.33812689781188965,-0.0917445495724678,-0.9565931558609009
1667825555776508400,0.30350830078125,-0.27960896492004395,-0.0896947830915451,-0.9843641519546509
1667825555786516200,0.31351611328125,-0.15360628068447113,-0.046847451478242874,-0.8833488821983337
1667825555796523800,0.323523681640625,0.027482135221362114,0.04509800672531128,-0.6500428318977356
1667825555806530800,0.33353076171875,0.19613853096961975,0.2160031795501709,-0.283049076795578
1667825555816539000,0.343538818359375,0.32438597083091736,0.4202171266078949,0.1617582142353058
1667825555826546700,0.353546630859375,0.523478090763092,0.5111616849899292,0.6022030115127563
1667825555836553700,0.3635537109375,0.7691470980644226,0.35183393955230713,0.986311137676239
1667825555846561800,0.373561767578125,0.9808462858200073,-0.0027672850992530584,1.3487499952316284
1667825555856568800,0.38356884765625,1.1032432317733765,-0.6368132829666138,1.6501901149749756
1667825555866576600,0.39357666015625,1.1555263996124268,-1.0620378255844116,1.8452050685882568
1667825555876584700,0.403584716796875,1.1553007364273071,-0.6943023204803467,1.7218371629714966
1667825555886591700,0.413591796875,1.060133695602417,0.1491117626428604,1.4064466953277588
1667825555896599800,0.423599853515625,0.8212279677391052,0.6263534426689148,1.2142553329467773
1667825555906607900,0.43360791015625,0.4872196316719055,0.8832691311836243,1.1538561582565308
1667825555916614700,0.44361474609375,0.1101628988981247,1.375022053718567,1.0851397514343262
1667825555926623000,0.453623046875,-0.24750016629695892,2.280608654022217,1.0109614133834839
1667825555936629800,0.463629638671875,-0.49869504570961,2.783513069152832,1.0912412405014038
1667825555946637800,0.473637939453125,-0.5967462658882141,2.702345848083496,1.1596295833587646
1667825555956645600,0.483645751953125,-0.4983522891998291,2.4530129432678223,1.0761786699295044
1667825555966653000,0.49365283203125,-0.26560133695602417,2.2499637603759766,0.9189236164093018
1667825555976660700,0.50366064453125,-0.05646349862217903,2.121375322341919,0.7131170630455017
1667825555986668800,0.513668701171875,0.08513490855693817,2.0732343196868896,0.4316212236881256
1667825555996675800,0.52367578125,0.15343353152275085,1.9948419332504272,0.06046786904335022
1667825556006684000,0.533683837890625,0.13211199641227722,1.833905816078186,-0.29994651675224304
1667825556016690700,0.543690673828125,0.06035818159580231,1.6425188779830933,-0.5436044335365295
1667825556026698800,0.55369873046875,-0.015181584283709526,1.4737740755081177,-0.6747899055480957
1667825556036706600,0.56370654296875,-0.0399661622941494,1.2437822818756104,-0.7124961018562317
1667825556046713900,0.5737138671875,-0.03586063161492348,0.8609285950660706,-0.7153467535972595
1667825556056721700,0.5837216796875,-0.03911479935050011,0.5791903734207153,-0.627465009689331
1667825556066729700,0.593729736328125,-0.0497266985476017,0.3089953660964966,-0.498772531747818
1667825556076736800,0.60373681640625,-0.044621847569942474,0.074614018201828,-0.3982781171798706
1667825556086744800,0.613744873046875,-0.040474243462085724,-0.11710241436958313,-0.3148444592952728
1667825556096751600,0.623751708984375,-0.06809749454259872,-0.20821258425712585,-0.22609853744506836
1667825556106759700,0.633759765625,-0.12318258732557297,-0.1922602504491806,-0.1545359343290329
1667825556116768000,0.64376806640625,-0.16941200196743011,-0.12760473787784576,-0.10266995429992676
1667825556126774800,0.65377490234375,-0.1760624498128891,-0.04670056700706482,-0.10197487473487854
1667825556136782800,0.663782958984375,-0.14484301209449768,0.06175462529063225,-0.1498078852891922
1667825556146790700,0.673790771484375,-0.08925830572843552,0.20426462590694427,-0.2138337343931198
1667825556156798000,0.6837978515625,-0.020164422690868378,0.3724341094493866,-0.27850475907325745
1667825556166805800,0.6938056640625,0.054600365459918976,0.49904000759124756,-0.31319642066955566
1667825556176812800,0.703812744140625,0.11758934706449509,0.6352812051773071,-0.3065577447414398
1667825556186820900,0.71382080078125,0.14019957184791565,0.7613539695739746,-0.23828467726707458
1667825556196829000,0.723828857421875,0.14216986298561096,0.8313496112823486,-0.1051834225654602
1667825556206835700,0.733835693359375,0.14535287022590637,0.8294339776039124,0.05930565297603607
1667825556216843800,0.74384375,0.16180665791034698,0.7861676812171936,0.23968231678009033
1667825556226851600,0.7538515625,0.19965417683124542,0.7377676367759705,0.4003537595272064
1667825556236859000,0.76385888671875,0.25121480226516724,0.6679176688194275,0.5111147165298462
1667825556246866700,0.77386669921875,0.3075012266635895,0.5878542065620422,0.5599427223205566
1667825556256873700,0.783873779296875,0.3541969656944275,0.485575795173645,0.5373638272285461
1667825556266881800,0.7938818359375,0.3830176889896393,0.36049512028694153,0.467079222202301
1667825556276889900,0.803889892578125,0.4134529232978821,0.21311147511005402,0.3625033497810364
1667825556286896600,0.813896728515625,0.4572078585624695,0.07308352738618851,0.23814119398593903
1667825556296904700,0.82390478515625,0.5034609436988831,-0.06377891451120377,0.13104315102100372
1667825556306913000,0.8339130859375,0.5363315343856812,-0.19005268812179565,0.05488791689276695
1667825556316919800,0.843919921875,0.5415903329849243,-0.26166659593582153,0.0063085188157856464
1667825556326928000,0.853927978515625,0.5258848667144775,-0.29647359251976013,-0.010598825290799141
1667825556336935000,0.863934814453125,0.4720812439918518,-0.3676358461380005,0.005866591352969408
1667825556346943000,0.87394287109375,0.38500067591667175,-0.47495245933532715,0.062097638845443726
1667825556356950800,0.88395068359375,0.2697259187698364,-0.5547971129417419,0.16331693530082703
1667825556366957600,0.89395751953125,0.16686773300170898,-0.5496606826782227,0.28256505727767944
1667825556376966000,0.9039658203125,0.11649041622877121,-0.44547832012176514,0.38535991311073303
1667825556386972700,0.91397265625,0.1389070451259613,-0.2662092447280884,0.44931545853614807
1667825556396980700,0.923980712890625,0.23915432393550873,-0.016193699091672897,0.44068053364753723
1667825556406988800,0.93398876953125,0.39099496603012085,0.261720210313797,0.3493921756744385
1667825556416995800,0.943995849609375,0.550618588924408,0.4771569073200226,0.18794657289981842
1667825556427004000,0.95400390625,0.6670472025871277,0.5701414346694946,-0.004642321262508631
1667825556437011700,0.96401171875,0.713634192943573,0.5498261451721191,-0.17834214866161346
1667825556447018800,0.974018798828125,0.6908620595932007,0.38874346017837524,-0.31628164649009705
1667825556457026800,0.98402685546875,0.58711838722229,0.13534779846668243,-0.3983094394207001
1667825556467033900,0.994033935546875,0.42635244131088257,-0.07375083118677139,-0.4330950975418091
1667825556477041700,1.004041748046875,0.27533411979675293,-0.19086837768554688,-0.4365919828414917
1667825556487049700,1.0140498046875,0.15475738048553467,-0.2717429995536804,-0.43531739711761475
1667825556497056800,1.024056884765625,0.09171100705862045,-0.418148010969162,-0.4305243194103241
1667825556507064800,1.03406494140625,0.07096924632787704,-0.578316330909729,-0.40818411111831665
1667825556517072600,1.04407275390625,0.09304916858673096,-0.6793738603591919,-0.35172906517982483
1667825556527080000,1.054079833984375,0.12132714688777924,-0.6974985003471375,-0.2343214750289917
1667825556537087700,1.064087646484375,0.13705705106258392,-0.6786518692970276,-0.03630683571100235
1667825556547094800,1.0740947265625,0.14411737024784088,-0.6214244961738586,0.20061489939689636
1667825556557102600,1.0841025390625,0.1696304976940155,-0.5355362296104431,0.4398827850818634
1667825556567110700,1.094110595703125,0.21956397593021393,-0.4812975227832794,0.652151882648468
1667825556577117700,1.10411767578125,0.3009818196296692,-0.4495803415775299,0.7962292432785034
1667825556587125800,1.114125732421875,0.39760103821754456,-0.4388704299926758,0.8472272157669067
1667825556597133800,1.1241337890625,0.5002802610397339,-0.43825146555900574,0.7375970482826233
1667825556607140900,1.134140869140625,0.5779145956039429,-0.4919370412826538,0.5159895420074463
1667825556617149000,1.14414892578125,0.6111344695091248,-0.6345387697219849,0.22859787940979004
1667825556627155700,1.15415576171875,0.5952388644218445,-0.7706297636032104,-0.07687283307313919
1667825556637163800,1.164163818359375,0.5364492535591125,-0.8164168000221252,-0.3584175109863281
1667825556647171800,1.174171875,0.4095586836338043,-0.8570148348808289,-0.5825821161270142
1667825556657179000,1.184178955078125,0.21047738194465637,-0.9282259941101074,-0.7274757027626038
1667825556667186700,1.194186767578125,-0.007442437577992678,-1.0385874509811401,-0.8009235858917236
1667825556677194800,1.20419482421875,-0.19616860151290894,-1.1474062204360962,-0.8160160183906555
1667825556687201800,1.214201904296875,-0.29522648453712463,-1.1723169088363647,-0.8195534944534302
1667825556697209900,1.2242099609375,-0.277011513710022,-1.1110785007476807,-0.8427954912185669
1667825556707216600,1.234216552734375,-0.1650381237268448,-0.9200966358184814,-0.8969923853874207
1667825556717225000,1.244224853515625,0.013719867914915085,-0.6695735454559326,-0.9980877041816711
1667825556727232800,1.254232666015625,0.18829220533370972,-0.43587183952331543,-1.1358466148376465
1667825556737239800,1.26423974609375,0.29579436779022217,-0.2976916432380676,-1.281617283821106
1667825556747247600,1.27424755859375,0.28102952241897583,-0.2627272605895996,-1.3967177867889404
1667825556757255000,1.2842548828125,0.12584218382835388,-0.3085094392299652,-1.4544026851654053
1667825556767262700,1.2942626953125,-0.12407391518354416,-0.39948248863220215,-1.4369168281555176
1667825556777270800,1.304270751953125,-0.3995788097381592,-0.4824941158294678,-1.335510015487671
1667825556787277800,1.31427783203125,-0.5938037037849426,-0.5032907724380493,-1.1765975952148438
1667825556797286000,1.324285888671875,-0.645297110080719,-0.4496334493160248,-0.991163969039917
1667825556807293700,1.334293701171875,-0.5908793807029724,-0.3389495611190796,-0.7797838449478149
1667825556817300700,1.34430078125,-0.4869772791862488,-0.2117633819580078,-0.563880980014801
1667825556827308500,1.35430859375,-0.3991518020629883,-0.07085101306438446,-0.37052905559539795
1667825556837315800,1.36431591796875,-0.37269023060798645,0.04994070529937744,-0.21757365763187408
1667825556847323600,1.37432373046875,-0.4152089059352875,0.11298145353794098,-0.08153486996889114
1667825556857331700,1.384331787109375,-0.5111362338066101,0.10898036509752274,0.05574779957532883
1667825556867338800,1.3943388671875,-0.6278300881385803,0.034114375710487366,0.18718039989471436
1667825556877346800,1.404346923828125,-0.7334860563278198,-0.05301787704229355,0.29472872614860535
1667825556887355000,1.41435498046875,-0.8168770670890808,-0.10693889856338501,0.34908437728881836
1667825556897361700,1.424361572265625,-0.8638274669647217,-0.08246254175901413,0.3462184965610504
1667825556907369700,1.43436962890625,-0.8540251851081848,-0.03526706248521805,0.3155284821987152
1667825556917376800,1.444376708984375,-0.8038011193275452,-0.04571143165230751,0.2709372639656067
1667825556927384800,1.454384765625,-0.7288571000099182,-0.11223053932189941,0.21832145750522614
1667825556937392600,1.464392578125,-0.6618926525115967,-0.19885078072547913,0.16538214683532715
1667825556947400000,1.47439990234375,-0.6106947064399719,-0.25948959589004517,0.1202961653470993
1667825556957407700,1.48440771484375,-0.5718268752098083,-0.31244999170303345,0.09598637372255325
1667825556967415800,1.494415771484375,-0.55317223072052,-0.35840630531311035,0.09582258760929108
1667825556977422600,1.504422607421875,-0.5690447092056274,-0.41178950667381287,0.11637691408395767
1667825556987431000,1.514430908203125,-0.6115010976791382,-0.5143496990203857,0.12391551584005356
1667825556997437700,1.524437744140625,-0.6673629283905029,-0.6371090412139893,0.12070811539888382
1667825557007445800,1.53444580078125,-0.7150497436523438,-0.7063975930213928,0.09396997839212418
1667825557017453600,1.54445361328125,-0.7231543064117432,-0.710036039352417,0.04735928773880005
1667825557027460900,1.5544609375,-0.6696884036064148,-0.7019277811050415,0.00392339751124382
1667825557037468700,1.56446875,-0.579063892364502,-0.7033745050430298,-0.007425136398524046
1667825557047476700,1.574476806640625,-0.5017821192741394,-0.7318767309188843,0.01900514028966427
1667825557057483800,1.58448388671875,-0.4731476306915283,-0.7337724566459656,0.09052544087171555
1667825557067491800,1.594491943359375,-0.48263806104660034,-0.7223347425460815,0.20962652564048767
1667825557077498600,1.60449853515625,-0.511659562587738,-0.7052831649780273,0.37192097306251526
1667825557087506700,1.614506591796875,-0.5509936213493347,-0.6718559861183167,0.5660427808761597
1667825557097514800,1.6245146484375,-0.5846399664878845,-0.6705501675605774,0.7628095746040344
1667825557107521800,1.634521728515625,-0.5994375348091125,-0.6903448700904846,0.9024950861930847
1667825557117529600,1.644529541015625,-0.6051735281944275,-0.6829249858856201,0.932868242263794
1667825557127537700,1.65453759765625,-0.6078808903694153,-0.6594252586364746,0.8563843965530396
1667825557137544700,1.664544677734375,-0.6189993023872375,-0.6611893177032471,0.6774721741676331
1667825557147552800,1.674552734375,-0.6200371384620667,-0.6635198593139648,0.43413466215133667
1667825557157559600,1.6845595703125,-0.5805982947349548,-0.5889377593994141,0.13920584321022034
1667825557167567600,1.694567626953125,-0.4839295446872711,-0.34609687328338623,-0.17564532160758972
1667825557177576000,1.704575927734375,-0.3351173400878906,-0.07332924008369446,-0.4312411844730377
1667825557187582700,1.714582763671875,-0.22946521639823914,0.04260135442018509,-0.5827569365501404
1667825557197590800,1.7245908203125,-0.20313209295272827,0.07735751569271088,-0.6061568856239319
1667825557207598600,1.7345986328125,-0.24795548617839813,0.04481448605656624,-0.5084753632545471
1667825557217606000,1.74460595703125,-0.34907224774360657,-0.09819291532039642,-0.2749616205692291
1667825557227613700,1.75461376953125,-0.49113592505455017,-0.3667548596858978,0.052402667701244354
1667825557237620700,1.764620849609375,-0.6200146675109863,-0.599166750907898,0.390737920999527
1667825557247628800,1.77462890625,-0.6863124370574951,-0.6202654242515564,0.6605219841003418
1667825557257636900,1.784636962890625,-0.674435555934906,-0.4577193856239319,0.8023579120635986
1667825557267643600,1.7946435546875,-0.5868961215019226,-0.18029333651065826,0.8154449462890625
1667825557277651700,1.804651611328125,-0.4507274031639099,0.08045424520969391,0.7368481159210205
1667825557287659500,1.814659423828125,-0.29787421226501465,0.24639181792736053,0.5875198841094971
1667825557297666800,1.824666748046875,-0.13215182721614838,0.32587647438049316,0.36766529083251953
1667825557307674600,1.834674560546875,0.04455850273370743,0.3325200080871582,0.09839920699596405
1667825557317681700,1.844681640625,0.22529557347297668,0.2675575017929077,-0.19156190752983093
1667825557327689700,1.854689697265625,0.3911721706390381,0.18814976513385773,-0.4750479459762573
1667825557337697800,1.86469775390625,0.5049147605895996,0.08322781324386597,-0.7024029493331909
1667825557347704600,1.87470458984375,0.5538047552108765,-0.024123139679431915,-0.8565469980239868
1667825557357712600,1.884712646484375,0.5517627000808716,-0.1021483764052391,-0.9276682138442993
1667825557367721000,1.894720947265625,0.5105199217796326,-0.16577716171741486,-0.9063669443130493
1667825557377727700,1.904727783203125,0.44323983788490295,-0.19396355748176575,-0.8217922449111938
1667825557387735800,1.91473583984375,0.3595619797706604,-0.20837445557117462,-0.6924321055412292
1667825557397742800,1.924742919921875,0.25978919863700867,-0.2358059287071228,-0.5257082581520081
1667825557407751000,1.9347509765625,0.13068872690200806,-0.3070417642593384,-0.35205093026161194
1667825557417758700,1.9447587890625,-0.0036615899298340082,-0.3944491744041443,-0.18266738951206207
1667825557427765800,1.954765869140625,-0.1015697717666626,-0.4642104208469391,-0.018604155629873276
1667825557437773800,1.96477392578125,-0.130563884973526,-0.5258013010025024,0.12707102298736572
1667825557447782000,1.974781982421875,-0.11438463628292084,-0.5201146602630615,0.22879977524280548
1667825557457788700,1.98478857421875,-0.11082962900400162,-0.44669094681739807,0.2663523554801941
1667825557467796700,1.994796630859375,-0.09918416291475296,-0.425178200006485,0.22569440305233002
1667825557477803800,2.0048037109375,-0.0701020285487175,-0.520514965057373,0.11217653751373291
1667825557487811800,2.014811767578125,-0.06369712948799133,-0.6917359828948975,-0.024626590311527252
1667825557497819600,2.024819580078125,-0.08069619536399841,-0.7221068739891052,-0.13424475491046906
1667825557507826700,2.03482666015625,-0.08455485105514526,-0.6049922108650208,-0.1639632284641266
1667825557517834800,2.044834716796875,-0.05947446450591087,-0.40790337324142456,-0.10223203152418137
1667825557527842800,2.0548427734375,-0.023877324536442757,-0.12328816205263138,0.03091244027018547
1667825557537849600,2.064849609375,0.018469449132680893,0.19922813773155212,0.19602423906326294
1667825557547857700,2.074857666015625,0.06701541692018509,0.4831184446811676,0.3624720871448517
1667825557557864700,2.08486474609375,0.1345914602279663,0.7214452028274536,0.48566144704818726
1667825557567872800,2.094872802734375,0.2162082940340042,0.9261218905448914,0.5820614695549011
1667825557577880800,2.104880859375,0.2911719083786011,1.076019048690796,0.6525734663009644
1667825557587887900,2.114887939453125,0.33395078778266907,1.1519391536712646,0.7045295834541321
1667825557597895700,2.124895751953125,0.35809212923049927,1.1815181970596313,0.7222479581832886
1667825557607903700,2.13490380859375,0.36055076122283936,1.151645541191101,0.7111047506332397
1667825557617910500,2.14491064453125,0.3541211485862732,1.0524872541427612,0.6979603171348572
1667825557627918800,2.1549189453125,0.3441305458545685,0.8979654908180237,0.6878176927566528
1667825557637925600,2.164925537109375,0.3623255789279938,0.696713924407959,0.6638570427894592
1667825557647933700,2.17493359375,0.4518581032752991,0.4657459557056427,0.6081538200378418
1667825557657941800,2.184941650390625,0.6117441058158875,0.23513224720954895,0.49245685338974
1667825557667948800,2.19494873046875,0.8022688031196594,0.02169826440513134,0.33297187089920044
1667825557677956900,2.204956787109375,0.9634513854980469,-0.11517015844583511,0.15906642377376556
1667825557687964700,2.214964599609375,1.0532809495925903,-0.16023217141628265,-0.013759143650531769
1667825557697971700,2.2249716796875,1.0759468078613281,-0.12333773076534271,-0.17306765913963318
1667825557707979800,2.234979736328125,1.0328198671340942,-0.025211963802576065,-0.28231292963027954
1667825557717986800,2.24498681640625,0.9386120438575745,0.11137212067842484,-0.3180849850177765
1667825557727994600,2.25499462890625,0.805651843547821,0.2569247782230377,-0.28661492466926575
1667825557738002700,2.265002685546875,0.6495829820632935,0.35162413120269775,-0.1910635083913803
1667825557748009700,2.275009765625,0.48459187150001526,0.3376060426235199,-0.049823563545942307
1667825557758017800,2.285017822265625,0.35166406631469727,0.24907493591308594,0.10353974997997284
1667825557768025600,2.295025634765625,0.3012203276157379,0.1332245022058487,0.20877721905708313
1667825557778033000,2.305032958984375,0.33548757433891296,-0.009738652966916561,0.23437893390655518
1667825557788040700,2.315040771484375,0.41003504395484924,-0.19484378397464752,0.19326984882354736
1667825557798048500,2.325048583984375,0.45876485109329224,-0.41196879744529724,0.10131486505270004
1667825557808056600,2.335056640625,0.43601638078689575,-0.5950608849525452,-0.04642878845334053
1667825557818064400,2.345064453125,0.35728126764297485,-0.6613675355911255,-0.23776045441627502
1667825557828071700,2.35507177734375,0.2551088333129883,-0.5939450860023499,-0.44787508249282837
1667825557838079500,2.36507958984375,0.14306287467479706,-0.4605264663696289,-0.6528208255767822
1667825557848087600,2.375087646484375,0.018059151247143745,-0.2798272669315338,-0.8225632309913635
1667825557858094300,2.38509423828125,-0.10552467405796051,-0.08688759803771973,-0.9613469839096069
1667825557868102700,2.3951025390625,-0.22044992446899414,0.0892472192645073,-1.0453544855117798
1667825557878109400,2.405109375,-0.3229205012321472,0.2224198281764984,-1.0463300943374634
1667825557888117500,2.415117431640625,-0.40891051292419434,0.2837657332420349,-0.9585036039352417
1667825557898125600,2.42512548828125,-0.4621214270591736,0.26604172587394714,-0.7960759997367859
1667825557908132600,2.435132568359375,-0.48813971877098083,0.21154892444610596,-0.588197648525238
1667825557918140700,2.445140625,-0.4905608296394348,0.17057813704013824,-0.3468700647354126
1667825557928148500,2.4551484375,-0.46107935905456543,0.1203189492225647,-0.0907440260052681
1667825557938155800,2.46515576171875,-0.40902671217918396,0.05669959634542465,0.12108563631772995
1667825557948163600,2.47516357421875,-0.3592226803302765,0.03606675565242767,0.26970812678337097
1667825557958170400,2.48517041015625,-0.32033681869506836,0.026458512991666794,0.3571633994579315
1667825557968178400,2.495178466796875,-0.3023298382759094,0.021837929263710976,0.3908909857273102
1667825557978186500,2.5051865234375,-0.30469605326652527,0.012308160774409771,0.3835841119289398
1667825557988193500,2.515193603515625,-0.31089481711387634,-0.017848942428827286,0.3382227420806885
1667825557998201600,2.52520166015625,-0.30078238248825073,-0.09058842808008194,0.26126527786254883
1667825558008209400,2.53520947265625,-0.28697097301483154,-0.1976158171892166,0.1648852378129959
1667825558018216700,2.545216796875,-0.2553038001060486,-0.30180972814559937,0.06909768283367157
1667825558028224500,2.555224609375,-0.21203754842281342,-0.3965546190738678,0.009691877290606499
1667825558038232600,2.565232666015625,-0.1659255474805832,-0.47343379259109497,-0.008160192519426346
1667825558048239400,2.5752392578125,-0.12847033143043518,-0.5022481679916382,0.01841016486287117
1667825558058247700,2.58524755859375,-0.10898230224847794,-0.4886951446533203,0.08855542540550232
1667825558068254500,2.59525439453125,-0.11410994827747345,-0.47861799597740173,0.1962169110774994
1667825558078262500,2.605262451171875,-0.13338689506053925,-0.44381436705589294,0.309564471244812
1667825558088270300,2.615270263671875,-0.16265982389450073,-0.37911099195480347,0.39924055337905884
1667825558098277600,2.625277587890625,-0.19314102828502655,-0.32140135765075684,0.45555630326271057
1667825558108285400,2.635285400390625,-0.2160189151763916,-0.29682835936546326,0.48275303840637207
1667825558118293500,2.64529345703125,-0.2328428328037262,-0.30651313066482544,0.4831477105617523
1667825558128300500,2.655300537109375,-0.24079982936382294,-0.3534819781780243,0.4568106234073639
1667825558138308600,2.66530859375,-0.2503122091293335,-0.416599303483963,0.421273410320282
1667825558148315400,2.6753154296875,-0.2801095247268677,-0.4821583330631256,0.3839750289916992
1667825558158323500,2.685323486328125,-0.3240770995616913,-0.5085726976394653,0.358384370803833
1667825558168331500,2.69533154296875,-0.37348246574401855,-0.5273857712745667,0.3571353256702423
1667825558178338600,2.705338623046875,-0.4224880039691925,-0.5068874359130859,0.37577182054519653
1667825558188346600,2.7153466796875,-0.47041186690330505,-0.43444037437438965,0.3924996554851532
1667825558198354400,2.7253544921875,-0.49625974893569946,-0.3109271824359894,0.40515005588531494
1667825558208361700,2.73536181640625,-0.4985348880290985,-0.17649002373218536,0.4093000292778015
1667825558218369500,2.74536962890625,-0.47229641675949097,-0.0925692766904831,0.41450849175453186
1667825558228376600,2.75537646484375,-0.43750834465026855,-0.06215943396091461,0.42576807737350464
1667825558238384400,2.76538427734375,-0.39801469445228577,-0.07215701043605804,0.43419817090034485
1667825558248392700,2.775392822265625,-0.3580917716026306,-0.11147379130125046,0.43861740827560425
1667825558258399500,2.7853994140625,-0.3409293293952942,-0.16103734076023102,0.43971794843673706
1667825558268407600,2.795407470703125,-0.34204521775245667,-0.17404821515083313,0.408863365650177
1667825558278415400,2.805415283203125,-0.33689478039741516,-0.1418037861585617,0.3372940123081207
1667825558288422700,2.815422607421875,-0.31491944193840027,-0.0447656512260437,0.21445733308792114
1667825558298430500,2.825430419921875,-0.28003937005996704,0.07084941864013672,0.06279382854700089
1667825558308438500,2.8354384765625,-0.2307346761226654,0.14813435077667236,-0.0876995399594307
1667825558318445600,2.845445556640625,-0.15588180720806122,0.1816687434911728,-0.2229827344417572
1667825558328453600,2.85545361328125,-0.03902868553996086,0.18071773648262024,-0.33138352632522583
1667825558338460400,2.86546044921875,0.09859780222177505,0.1524033397436142,-0.40535762906074524
1667825558348468500,2.875468505859375,0.2221492975950241,0.1141052320599556,-0.4551613926887512
1667825558358476500,2.8854765625,0.32057374715805054,0.07720153778791428,-0.4899010956287384
1667825558368483600,2.895483642578125,0.3811689019203186,0.040664833039045334,-0.5065266489982605
1667825558378491600,2.90549169921875,0.41596803069114685,0.04236121475696564,-0.5312972068786621
1667825558388499500,2.91549951171875,0.42276492714881897,0.09148907661437988,-0.5683473348617554
1667825558398506800,2.9255068359375,0.4037167727947235,0.1521209180355072,-0.6057794094085693
1667825558408514600,2.9355146484375,0.36961817741394043,0.20217423141002655,-0.629490852355957
1667825558418521600,2.945521484375,0.31566324830055237,0.21451951563358307,-0.6171192526817322
1667825558428529400,2.955529296875,0.2636549174785614,0.20026281476020813,-0.5537823438644409
1667825558438537500,2.965537353515625,0.2348395735025406,0.17051571607589722,-0.4544147849082947
1667825558448544500,2.97554443359375,0.23825214803218842,0.15729205310344696,-0.33839577436447144
1667825558458552600,2.985552490234375,0.2887258231639862,0.13112199306488037,-0.21731294691562653
1667825558468560400,2.995560302734375,0.3616271913051605,0.08307643979787827,-0.10486816614866257
1667825558478567700,3.005567626953125,0.419500470161438,0.04033900797367096,-0.01551576517522335
1667825558488575500,3.015575439453125,0.42081448435783386,0.026696965098381042,0.04900597035884857
1667825558498582500,3.02558251953125,0.36115139722824097,0.022303137928247452,0.09255657345056534
1667825558508590300,3.03559033203125,0.25023767352104187,0.017943544313311577,0.12927918136119843
1667825558518598700,3.0455986328125,0.1303122490644455,0.022513393312692642,0.16219136118888855
1667825558528605400,3.05560546875,0.02889269031584263,0.054726991802453995,0.19205045700073242
1667825558538613500,3.065613525390625,-0.03598810359835625,0.09960183501243591,0.24486050009727478
1667825558548621300,3.075621337890625,-0.04941602796316147,0.17167308926582336,0.30498483777046204
1667825558558628600,3.085628662109375,-0.02009938284754753,0.215068981051445,0.3791417181491852
1667825558568636400,3.095636474609375,0.049314845353364944,0.2556653916835785,0.44731438159942627
1667825558578643500,3.1056435546875,0.1311253309249878,0.2932814061641693,0.5036830306053162
1667825558588651500,3.115651611328125,0.22294074296951294,0.343855082988739,0.5568311810493469
1667825558598659600,3.12565966796875,0.33112066984176636,0.36823201179504395,0.6232054829597473
1667825558608666400,3.135666259765625,0.45168572664260864,0.36138927936553955,0.6731085777282715
1667825558618674400,3.14567431640625,0.5716519355773926,0.34488919377326965,0.6790090799331665
1667825558628682500,3.1556826171875,0.671663224697113,0.29818642139434814,0.645784318447113
1667825558638689500,3.165689453125,0.737600564956665,0.24118390679359436,0.5574241280555725
1667825558648697600,3.175697509765625,0.7737796306610107,0.1885681003332138,0.44777458906173706
1667825558658705400,3.185705322265625,0.7682621479034424,0.14950066804885864,0.337745726108551
1667825558668712700,3.195712646484375,0.7145648002624512,0.11821171641349792,0.24608319997787476
1667825558678720500,3.205720458984375,0.633441150188446,0.11863412708044052,0.17751434445381165
1667825558688727600,3.2157275390625,0.5705942511558533,0.1551031917333603,0.1449713259935379
1667825558698735400,3.2257353515625,0.5198730230331421,0.17496807873249054,0.15192265808582306
1667825558708743700,3.23574365234375,0.4787205159664154,0.18424145877361298,0.18967854976654053
1667825558718750500,3.24575048828125,0.42723482847213745,0.16611871123313904,0.27122968435287476
1667825558728758500,3.255758544921875,0.3515118360519409,0.05302811414003372,0.39769041538238525
1667825558738766300,3.265766357421875,0.2320098578929901,-0.12269829958677292,0.5319912433624268
1667825558748773600,3.275773681640625,0.0708947405219078,-0.2756151258945465,0.6173980236053467
1667825558758781400,3.285781494140625,-0.06697483360767365,-0.3468465507030487,0.6092699766159058
1667825558768788500,3.29578857421875,-0.15112486481666565,-0.3270763158798218,0.493954062461853
1667825558778796500,3.305796630859375,-0.17884288728237152,-0.2537722587585449,0.29448163509368896
1667825558788804600,3.3158046875,-0.16907627880573273,-0.19226199388504028,0.05980946496129036
1667825558798810600,3.325810546875,-0.11373145133256912,-0.12454774230718613,-0.17552317678928375
1667825558808818700,3.335818603515625,-0.01905660703778267,-0.03653134033083916,-0.4062029719352722
1667825558818826800,3.34582666015625,0.06194080412387848,0.033264100551605225,-0.6142644882202148
1667825558828833500,3.35583349609375,0.09437145292758942,0.06132875755429268,-0.7885702252388
1667825558838841600,3.365841552734375,0.07933157682418823,0.08969785273075104,-0.9181280136108398
1667825558848849700,3.375849609375,0.02330000326037407,0.13396652042865753,-1.009730339050293
1667825558858856700,3.385856689453125,-0.05156628042459488,0.18295073509216309,-1.0513873100280762
1667825558868864800,3.39586474609375,-0.14650771021842957,0.23863796889781952,-1.040787696838379
1667825558878871600,3.40587158203125,-0.2703721821308136,0.2777356505393982,-0.9840103387832642
1667825558888879900,3.4158798828125,-0.4080698490142822,0.2753254771232605,-0.8753620982170105
1667825558898887700,3.4258876953125,-0.536706805229187,0.2420535534620285,-0.7290948629379272
1667825558908894500,3.43589453125,-0.6306143999099731,0.16654334962368011,-0.5511823892593384
1667825558918902500,3.445902587890625,-0.6816675662994385,0.023372052237391472,-0.35471227765083313
1667825558928910800,3.455910888671875,-0.7072789072990417,-0.1626979559659958,-0.15593686699867249
1667825558938917600,3.465917724609375,-0.6911697387695312,-0.3308684229850769,0.0027232682332396507
1667825558948925700,3.47592578125,-0.634102463722229,-0.45911186933517456,0.10502514243125916
1667825558958932700,3.4859326171875,-0.5526546835899353,-0.5343950390815735,0.1445002555847168
1667825558968940800,3.49594091796875,-0.46222996711730957,-0.5391724705696106,0.13759414851665497
1667825558978948600,3.505948486328125,-0.3682076632976532,-0.48015862703323364,0.09557156264781952
1667825558988955600,3.51595556640625,-0.28324827551841736,-0.4220852255821228,0.030205070972442627
1667825558998963700,3.525963623046875,-0.215645894408226,-0.3735128939151764,-0.0321693941950798
1667825559008971800,3.5359716796875,-0.17494027316570282,-0.342164009809494,-0.08268263190984726
1667825559018978600,3.545978515625,-0.14246533811092377,-0.31566092371940613,-0.11973416060209274
1667825559028986600,3.555986572265625,-0.10174854099750519,-0.28093835711479187,-0.15907783806324005
1667825559038994400,3.565994384765625,-0.04030049592256546,-0.2285429835319519,-0.203383669257164
1667825559049001700,3.576001708984375,0.02251708321273327,-0.19484174251556396,-0.24723660945892334
1667825559059009500,3.586009521484375,0.08283714950084686,-0.18607701361179352,-0.27338191866874695
1667825559069016600,3.5960166015625,0.11580362170934677,-0.191609725356102,-0.27864912152290344
1667825559079024600,3.606024658203125,0.1233879029750824,-0.18198436498641968,-0.24635840952396393
1667825559089032700,3.61603271484375,0.09028960764408112,-0.1531604379415512,-0.19828994572162628
1667825559099039500,3.62603955078125,0.021208571270108223,-0.10676698386669159,-0.12383560836315155
1667825559109047600,3.636047607421875,-0.07019191980361938,-0.09099361300468445,-0.0507318414747715
1667825559119056000,3.646055908203125,-0.1780981868505478,-0.103635273873806,0.018906500190496445
1667825559129062700,3.656062744140625,-0.2989753484725952,-0.11604587733745575,0.0851033627986908
1667825559139070700,3.66607080078125,-0.4188059866428375,-0.12030122429132462,0.15164262056350708
1667825559149077800,3.676077880859375,-0.5293740034103394,-0.08243480324745178,0.20635193586349487
1667825559159085800,3.6860859375,-0.6306532025337219,-0.03542020171880722,0.26581311225891113
1667825559169093600,3.69609375,-0.7233546376228333,0.008438066579401493,0.32640641927719116
1667825559179100700,3.7061005859375,-0.779441237449646,0.07777530699968338,0.3734684884548187
1667825559189108700,3.716108642578125,-0.7747029066085815,0.1518428772687912,0.3929961323738098
1667825559199116800,3.72611669921875,-0.7155687212944031,0.16737794876098633,0.4071827232837677
1667825559209123600,3.73612353515625,-0.6360824108123779,0.10905923694372177,0.42777135968208313
1667825559219131600,3.746131591796875,-0.5634698867797852,0.01648123376071453,0.44418197870254517
1667825559229139500,3.756139404296875,-0.5043714046478271,-0.09165429323911667,0.45140019059181213
1667825559239146800,3.766146728515625,-0.48435497283935547,-0.2020382285118103,0.4478018581867218
1667825559249154600,3.776154541015625,-0.5152503252029419,-0.2899515926837921,0.44736430048942566
1667825559259161600,3.78616162109375,-0.5882502794265747,-0.3301997482776642,0.44395169615745544
1667825559269169700,3.796169677734375,-0.671397864818573,-0.2814716398715973,0.4376258850097656
1667825559279177700,3.806177734375,-0.7128070592880249,-0.12134354561567307,0.399120956659317
1667825559289184500,3.8161845703125,-0.6722737550735474,0.12214341014623642,0.32758206129074097
1667825559299192600,3.826192626953125,-0.5495111346244812,0.3668501675128937,0.2368624359369278
1667825559309200600,3.83620068359375,-0.3745845556259155,0.5463453531265259,0.1453884392976761
1667825559319207700,3.846207763671875,-0.1697501540184021,0.6064094305038452,0.08284394443035126
1667825559329215700,3.8562158203125,0.020549489185214043,0.5463107228279114,0.019282283261418343
1667825559339222800,3.866222900390625,0.17009460926055908,0.42032021284103394,-0.0724145770072937
1667825559349230800,3.87623095703125,0.2717282772064209,0.24261415004730225,-0.18903733789920807
1667825559359238700,3.88623876953125,0.3278750479221344,0.08581855893135071,-0.3054705560207367
1667825559369245700,3.89624560546875,0.3820682466030121,0.019640866667032242,-0.43084287643432617
1667825559379253500,3.90625341796875,0.449165016412735,0.0412326455116272,-0.5396347641944885
1667825559389261800,3.91626171875,0.5299940705299377,0.10405581444501877,-0.62111496925354
1667825559399268600,3.9262685546875,0.6024333834648132,0.17088858783245087,-0.6542324423789978
1667825559409276700,3.936276611328125,0.6591214537620544,0.21113321185112,-0.6318387389183044
1667825559419284500,3.946284423828125,0.6857209801673889,0.20238181948661804,-0.5666751265525818
1667825559429291800,3.956291748046875,0.6862093806266785,0.1472301483154297,-0.4827117919921875
1667825559439299600,3.966299560546875,0.6785391569137573,0.07353230565786362,-0.38394829630851746
1667825559449307600,3.9763076171875,0.6790201663970947,-0.011587649583816528,-0.2781800627708435
1667825559459314700,3.986314697265625,0.6801618933677673,-0.08666696399450302,-0.17828872799873352
1667825559469322800,3.99632275390625,0.6751748919487,-0.12559199333190918,-0.076748788356781
1667825559479329500,4.00632958984375,0.6451430916786194,-0.16697216033935547,0.02561190165579319
1667825559489337600,4.016337646484375,0.5968618392944336,-0.19776363670825958,0.13173328340053558
1667825559499345700,4.026345703125,0.534874439239502,-0.19197960197925568,0.23612838983535767
1667825559509352700,4.036352783203125,0.4679819941520691,-0.16768650710582733,0.3022240400314331
1667825559519360500,4.046360595703125,0.4004397988319397,-0.10495056957006454,0.32926294207572937
1667825559529368600,4.05636865234375,0.34097063541412354,-0.008528955280780792,0.3133462965488434
1667825559539375600,4.066375732421875,0.30311211943626404,0.09957669675350189,0.2633543312549591
1667825559549383700,4.0763837890625,0.2815953493118286,0.20864832401275635,0.21095237135887146
1667825559559390500,4.086390380859375,0.2718738317489624,0.28853651881217957,0.1718648225069046
1667825559569398500,4.0963984375,0.26494669914245605,0.34221118688583374,0.17396312952041626
1667825559579406800,4.10640673828125,0.2566600739955902,0.37761515378952026,0.225702702999115
1667825559589413600,4.11641357421875,0.24868282675743103,0.3851260840892792,0.326652467250824
1667825559599421700,4.126421630859375,0.24189214408397675,0.3677107095718384,0.46207746863365173
1667825559609429500,4.136429443359375,0.2565951943397522,0.3345429003238678,0.6034297943115234
1667825559619436800,4.146436767578125,0.3126364052295685,0.32648766040802,0.7011981010437012
1667825559629444600,4.156444580078125,0.40869688987731934,0.3079187870025635,0.7324960827827454
1667825559639451600,4.16645166015625,0.5288403630256653,0.27117258310317993,0.6913938522338867
1667825559649459700,4.176459716796875,0.6482272148132324,0.25060606002807617,0.5760635137557983
1667825559659467800,4.1864677734375,0.7498668432235718,0.2593839764595032,0.3998599648475647
1667825559669474600,4.196474609375,0.803192138671875,0.28955864906311035,0.18902626633644104
1667825559679482600,4.206482666015625,0.7899104356765747,0.32066866755485535,-0.019888561218976974
1667825559689490400,4.216490478515625,0.7147672176361084,0.3217211365699768,-0.2031974047422409
1667825559699497700,4.226497802734375,0.5901939868927002,0.2537260055541992,-0.31882742047309875
1667825559709505500,4.236505615234375,0.4204910099506378,0.12592677772045135,-0.3341914713382721
1667825559719513600,4.246513671875,0.23425701260566711,-0.04451999068260193,-0.25991442799568176
1667825559729520600,4.256520751953125,0.059009015560150146,-0.1529679000377655,-0.14890559017658234
1667825559739528700,4.26652880859375,-0.07574494928121567,-0.16036880016326904,-0.07263284176588058
1667825559749535500,4.276535400390625,-0.17819224298000336,-0.10402269661426544,-0.05636812373995781
1667825559759543600,4.28654345703125,-0.2587595582008362,-0.012047434225678444,-0.09420269727706909
1667825559769552000,4.2965517578125,-0.304498553276062,0.11767727136611938,-0.19378282129764557
1667825559779558700,4.30655859375,-0.315019816160202,0.2645944058895111,-0.35277649760246277
1667825559789566700,4.316566650390625,-0.31276121735572815,0.40214696526527405,-0.5768154859542847
1667825559799575000,4.326574951171875,-0.314378023147583,0.516846776008606,-0.8139058947563171
1667825559809582300,4.336582275390625,-0.3366928994655609,0.6042527556419373,-1.0231269598007202
1667825559819590100,4.346590087890625,-0.3805560767650604,0.6682016253471375,-1.1572242975234985
1667825559829598200,4.35659814453125,-0.4429510235786438,0.7043724060058594,-1.19925057888031
1667825559839605000,4.36660498046875,-0.496159166097641,0.6764549016952515,-1.1450709104537964
1667825559849613300,4.37661328125,-0.5229505896568298,0.5824497938156128,-1.0131964683532715
1667825559859620000,4.3866201171875,-0.49999693036079407,0.40855157375335693,-0.8307276368141174
1667825559869628200,4.396628173828125,-0.43441712856292725,0.17317740619182587,-0.6228863000869751
1667825559879636000,4.406635986328125,-0.3264443278312683,-0.08349858969449997,-0.41873475909233093
1667825559889643300,4.416643310546875,-0.19623786211013794,-0.3271333575248718,-0.24753957986831665
1667825559899651000,4.426651123046875,-0.07441165298223495,-0.5348525643348694,-0.12101148813962936
1667825559909659100,4.4366591796875,-0.0069079832173883915,-0.6869334578514099,-0.04075073450803757
1667825559919666200,4.446666259765625,-0.009273105300962925,-0.7856722474098206,-0.0008799340575933456
1667825559929674200,4.45667431640625,-0.06819155067205429,-0.8262931704521179,0.030821004882454872
1667825559939682000,4.46668212890625,-0.1635376513004303,-0.7846250534057617,0.05723990499973297
1667825559949689000,4.476689208984375,-0.2744908034801483,-0.6597837805747986,0.09567997604608536
1667825559959697000,4.48669677734375,-0.3862597346305847,-0.47779232263565063,0.14556267857551575
1667825559969704200,4.4967041015625,-0.4704558551311493,-0.275170236825943,0.19275708496570587
1667825559979712000,4.5067119140625,-0.5081997513771057,-0.08650585263967514,0.2246108502149582
1667825559989720000,4.516719970703125,-0.4819828271865845,0.020428316667675972,0.2436724305152893
1667825559999727000,4.52672705078125,-0.41862937808036804,0.032547466456890106,0.2459985464811325
1667825560009735200,4.536735107421875,-0.3384072482585907,-0.04139333590865135,0.23184065520763397
1667825560019743200,4.5467431640625,-0.2714266777038574,-0.16383883357048035,0.2019973248243332
1667825560029750000,4.55675,-0.24033640325069427,-0.2652837038040161,0.15991804003715515
1667825560039758000,4.566758056640625,-0.24197885394096375,-0.316805362701416,0.11618500202894211
1667825560049765000,4.57676513671875,-0.2573724389076233,-0.30039364099502563,0.08869372308254242
1667825560059773200,4.586773193359375,-0.27813687920570374,-0.25427207350730896,0.0763043686747551
1667825560069781000,4.596781005859375,-0.29460880160331726,-0.22607558965682983,0.0913269892334938
1667825560079788300,4.606788330078125,-0.2958819568157196,-0.19210800528526306,0.13066807389259338
1667825560089796000,4.616796142578125,-0.2684788107872009,-0.16107206046581268,0.18099889159202576
1667825560099804200,4.62680419921875,-0.229612797498703,-0.1647280603647232,0.22662341594696045
1667825560109811000,4.63681103515625,-0.20452074706554413,-0.20320861041545868,0.2555812895298004
1667825560119819300,4.6468193359375,-0.20429076254367828,-0.2784886956214905,0.2707178592681885
1667825560129826000,4.656825927734375,-0.2330867201089859,-0.4009714722633362,0.2802826166152954
1667825560139834000,4.666834228515625,-0.29581788182258606,-0.5267250537872314,0.29473888874053955
1667825560149842000,4.676842041015625,-0.37553882598876953,-0.6219666004180908,0.3167765438556671
1667825560159849200,4.68684912109375,-0.44724953174591064,-0.6693525910377502,0.3500547707080841
1667825560169857000,4.69685693359375,-0.4845992922782898,-0.6447526812553406,0.3767196536064148
1667825560179865000,4.706864990234375,-0.47437554597854614,-0.558198869228363,0.3890070915222168
1667825560189872000,4.7168720703125,-0.4266873896121979,-0.3971519470214844,0.38006392121315
1667825560199880200,4.726880126953125,-0.362491637468338,-0.17371541261672974,0.33800435066223145
1667825560209888300,4.73688818359375,-0.3056917190551758,0.031331755220890045,0.2760155498981476
1667825560219895000,4.74689501953125,-0.27494725584983826,0.12268725037574768,0.2261371612548828
1667825560229903000,4.756903076171875,-0.2636208236217499,0.08849892020225525,0.21267648041248322
1667825560239910100,4.76691015625,-0.26418381929397583,-0.04760890081524849,0.2632408142089844
1667825560249918200,4.776918212890625,-0.2857825756072998,-0.24581332504749298,0.35819101333618164
1667825560259926000,4.786926025390625,-0.33744052052497864,-0.4641873836517334,0.48631343245506287
1667825560269933300,4.796933349609375,-0.405033677816391,-0.6393828988075256,0.6156258583068848
1667825560279941000,4.806941162109375,-0.47639158368110657,-0.6943346858024597,0.7106718420982361
1667825560289949200,4.81694921875,-0.5194583535194397,-0.6515603065490723,0.7356003522872925
1667825560299956000,4.8269560546875,-0.5082622170448303,-0.5592506527900696,0.6874111294746399
1667825560309964300,4.83696435546875,-0.43356403708457947,-0.43883663415908813,0.5627298951148987
1667825560319972000,4.84697216796875,-0.29935386776924133,-0.27712348103523254,0.38931965827941895
1667825560329979100,4.856979248046875,-0.11462424695491791,-0.09618834406137466,0.20852909982204437
1667825560339987000,4.866987060546875,0.11691108345985413,0.1064084991812706,0.01761007308959961
1667825560349994200,4.876994140625,0.35004207491874695,0.2917517423629761,-0.17624355852603912
1667825560360002000,4.887001953125,0.5425591468811035,0.4284311830997467,-0.37356165051460266
1667825560370010000,4.897010009765625,0.6833210587501526,0.5402847528457642,-0.582933247089386
1667825560380017200,4.90701708984375,0.7809083461761475,0.6524558067321777,-0.799159824848175
1667825560390025200,4.917025146484375,0.8278188705444336,0.7131028771400452,-0.9768861532211304
1667825560400033000,4.927032958984375,0.8229947686195374,0.7102313041687012,-1.0929151773452759
1667825560410040000,4.9370400390625,0.752275288105011,0.6529016494750977,-1.1132712364196777
1667825560420048000,4.9470478515625,0.6284637451171875,0.5503672957420349,-1.0432921648025513
1667825560430055200,4.95705517578125,0.4829137623310089,0.4373733699321747,-0.8790416717529297
1667825560440063000,4.96706298828125,0.36261484026908875,0.3420560956001282,-0.6557456851005554
1667825560450071000,4.977071044921875,0.320645809173584,0.300224244594574,-0.4176258444786072
1667825560460078000,4.987078125,0.3549708425998688,0.29000863432884216,-0.20312507450580597
1667825560470086100,4.997086181640625,0.42913857102394104,0.3323736786842346,-0.043612103909254074
1667825560480094200,5.00709423828125,0.5189493894577026,0.4340095818042755,0.028654661029577255
1667825560490101000,5.01710107421875,0.5880683064460754,0.5716963410377502,0.03218521550297737
1667825560500109300,5.027109375,0.6203000545501709,0.6753366589546204,-0.028411783277988434
1667825560510117000,5.0371171875,0.6021892428398132,0.6993219256401062,-0.12971630692481995
1667825560520124200,5.047124267578125,0.5327256321907043,0.6382269859313965,-0.23431289196014404
1667825560530132000,5.057132080078125,0.4415869116783142,0.5222218036651611,-0.30207115411758423
1667825560540139300,5.06713916015625,0.3593046963214874,0.38343149423599243,-0.31175944209098816
1667825560550147000,5.07714697265625,0.3127624988555908,0.2532481849193573,-0.2669573426246643
1667825560560155100,5.087155029296875,0.3020338714122772,0.1575108915567398,-0.18779587745666504
1667825560570162200,5.097162109375,0.3191888928413391,0.13345295190811157,-0.06832035630941391
1667825560580170200,5.107170166015625,0.3526264727115631,0.1607930064201355,0.08712173998355865
1667825560590178000,5.117177978515625,0.39065536856651306,0.1958916038274765,0.27502480149269104
1667825560600185000,5.12718505859375,0.43580755591392517,0.23798583447933197,0.46255579590797424
1667825560610193000,5.13719287109375,0.47959020733833313,0.27466660737991333,0.6087947487831116
1667825560620200200,5.1472001953125,0.5261635184288025,0.29024797677993774,0.6771907210350037
1667825560630208000,5.1572080078125,0.5762993693351746,0.2857658565044403,0.6621997952461243
1667825560640216000,5.167216064453125,0.6216972470283508,0.2538321018218994,0.580910325050354
1667825560650223000,5.17722314453125,0.6594454050064087,0.20886117219924927,0.45585042238235474
1667825560660231200,5.187231201171875,0.6983012557029724,0.15425291657447815,0.31268802285194397
1667825560670239200,5.1972392578125,0.7280107140541077,0.08562403917312622,0.18964865803718567
1667825560680246000,5.20724609375,0.7408464550971985,0.04035094380378723,0.11520743370056152
1667825560690254300,5.21725439453125,0.7245281934738159,0.015412041917443275,0.09361398965120316
1667825560700262100,5.22726220703125,0.6672738194465637,-0.07053752988576889,0.1349770426750183
1667825560710269200,5.237269287109375,0.5633007884025574,-0.21277643740177155,0.2219574898481369
1667825560720277000,5.247277099609375,0.42163634300231934,-0.3622097074985504,0.3072873651981354
1667825560730284300,5.2572841796875,0.314807653427124,-0.4672783315181732,0.34756049513816833
1667825560740292000,5.2672919921875,0.2556312680244446,-0.5365877747535706,0.2943134009838104
1667825560750300200,5.277300048828125,0.23659180104732513,-0.5634806752204895,0.13185100257396698
1667825560760307200,5.28730712890625,0.22940917313098907,-0.5371119379997253,-0.10702548921108246
1667825560770315300,5.297315185546875,0.23652885854244232,-0.39985421299934387,-0.3803318738937378
1667825560780323000,5.307322998046875,0.25862574577331543,-0.11035549640655518,-0.6548854112625122
1667825560790330000,5.317330078125,0.2593541145324707,0.2319326102733612,-0.8693071603775024
1667825560800337700,5.327337646484375,0.1898466795682907,0.48245492577552795,-0.9610484838485718
1667825560810346000,5.337345947265625,0.04383354261517525,0.6452091932296753,-0.9393178820610046
1667825560820352800,5.347352783203125,-0.139103963971138,0.7506805062294006,-0.8291046023368835
1667825560830360800,5.35736083984375,-0.3268376588821411,0.7649068832397461,-0.6680009365081787
1667825560840367900,5.367367919921875,-0.5041593313217163,0.6854151487350464,-0.4759625494480133
1667825560850376000,5.3773759765625,-0.6422439813613892,0.5480977892875671,-0.28461018204689026
1667825560860383700,5.3873837890625,-0.6962353587150574,0.3881607949733734,-0.1289568692445755
1667825560870390800,5.397390869140625,-0.6576547026634216,0.20840302109718323,-0.03049154207110405
1667825560880398800,5.40739892578125,-0.5536279082298279,0.027823692187666893,0.032920170575380325
1667825560890407000,5.417406982421875,-0.42670750617980957,-0.14155735075473785,0.06685230135917664
1667825560900413700,5.42741357421875,-0.3217824399471283,-0.2800206243991852,0.1012185737490654
1667825560910421800,5.437421875,-0.27155494689941406,-0.41553425788879395,0.13478265702724457
1667825560920428800,5.4474287109375,-0.2761355936527252,-0.5107083320617676,0.17039085924625397
1667825560930436900,5.457436767578125,-0.32565921545028687,-0.5465707182884216,0.20661704242229462
1667825560940444700,5.467444580078125,-0.4000023603439331,-0.5086934566497803,0.24096426367759705
1667825560950452000,5.477451904296875,-0.4825736880302429,-0.4147088825702667,0.28267335891723633
1667825560960459800,5.487459716796875,-0.5445031523704529,-0.29985925555229187,0.32829928398132324
1667825560970467800,5.4974677734375,-0.557268500328064,-0.20951390266418457,0.37926873564720154
1667825560980474600,5.507474609375,-0.5307518243789673,-0.1945365071296692,0.4302695095539093
1667825560990482700,5.517482666015625,-0.48999059200286865,-0.23252329230308533,0.4657191038131714
1667825561000489700,5.52748974609375,-0.44178977608680725,-0.27952438592910767,0.44312506914138794
1667825561010497800,5.537497802734375,-0.38605114817619324,-0.32050299644470215,0.37610766291618347
1667825561020505600,5.547505615234375,-0.32304826378822327,-0.37035757303237915,0.2775682210922241
1667825561030513000,5.557512939453125,-0.2802368700504303,-0.38974323868751526,0.17906002700328827
1667825561040520700,5.567520751953125,-0.2620130777359009,-0.36852240562438965,0.11207343637943268
1667825561050528800,5.57752880859375,-0.2685815095901489,-0.33876797556877136,0.09480710327625275
1667825561060535600,5.58753564453125,-0.2947966158390045,-0.3316679894924164,0.12861710786819458
1667825561070544000,5.5975439453125,-0.3428213894367218,-0.3408803939819336,0.1979256123304367
1667825561080552000,5.607552001953125,-0.38168978691101074,-0.3269367218017578,0.2893623411655426
1667825561090558700,5.617558837890625,-0.4067687690258026,-0.30292537808418274,0.38788172602653503
1667825561100566800,5.62756689453125,-0.41444459557533264,-0.2963055670261383,0.47605565190315247
1667825561110573800,5.63757373046875,-0.40005820989608765,-0.27931860089302063,0.5453374981880188
1667825561120582000,5.647581787109375,-0.36704832315444946,-0.24447911977767944,0.5729171633720398
1667825561130589700,5.657589599609375,-0.3248012661933899,-0.17728810012340546,0.5338632464408875
1667825561140597000,5.667596923828125,-0.26936525106430054,-0.09618561714887619,0.43196946382522583
1667825561150604800,5.677604736328125,-0.22278575599193573,-0.06139567494392395,0.3002912998199463
1667825561160612900,5.68761279296875,-0.1775544136762619,-0.053090810775756836,0.1561441272497177
1667825561170619600,5.69761962890625,-0.12347865104675293,-0.02536330744624138,0.018890410661697388
1667825561180627700,5.707627685546875,-0.08189903944730759,-0.015882175415754318,-0.06635965406894684
1667825561190634800,5.717634765625,-0.05923100933432579,-0.05327002704143524,-0.07607460021972656
1667825561200642800,5.727642822265625,-0.0710970088839531,-0.14875754714012146,-0.01533595286309719
1667825561210650600,5.737650634765625,-0.13962386548519135,-0.33296650648117065,0.10659634321928024
1667825561220658000,5.747657958984375,-0.2678234577178955,-0.5646994113922119,0.26934000849723816
1667825561230665700,5.757665771484375,-0.41752880811691284,-0.7123048901557922,0.3999318480491638
1667825561240673800,5.767673828125,-0.5197997689247131,-0.6758936643600464,0.45861315727233887
1667825561250680600,5.7776806640625,-0.538425624370575,-0.5183023810386658,0.4446360766887665
1667825561260689000,5.78768896484375,-0.47859907150268555,-0.29691797494888306,0.36716172099113464
1667825561270697000,5.797697021484375,-0.3632924556732178,-0.08779004961252213,0.24722787737846375
1667825561280703700,5.807703857421875,-0.23672178387641907,0.0651266872882843,0.11786645650863647
1667825561290711800,5.8177119140625,-0.12418299168348312,0.14087390899658203,0.005824871361255646
1667825561300718800,5.82771875,-0.028603192418813705,0.12103839218616486,-0.08522406220436096
1667825561310727000,5.837726806640625,0.048964034765958786,0.012915117666125298,-0.16785848140716553
1667825561320734700,5.847734619140625,0.1123628169298172,-0.13247264921665192,-0.25039058923721313
1667825561330741800,5.85774169921875,0.18834680318832397,-0.24854491651058197,-0.3463836908340454
1667825561340749800,5.867749755859375,0.3059961795806885,-0.2736831605434418,-0.4692036807537079
1667825561350758000,5.8777578125,0.46378928422927856,-0.18163898587226868,-0.6379815340042114
1667825561360764700,5.8877646484375,0.645435094833374,0.005401519127190113,-0.8109424114227295
1667825561370772700,5.897772705078125,0.8228399753570557,0.23933517932891846,-0.9692151546478271
1667825561380779800,5.90777978515625,0.9512360692024231,0.45085033774375916,-1.083033800125122
1667825561390787800,5.917787841796875,1.0263398885726929,0.587701141834259,-1.1407396793365479
1667825561400795600,5.927795654296875,1.0702356100082397,0.6668424010276794,-1.1322225332260132
1667825561410803000,5.937802978515625,1.1001436710357666,0.6831941604614258,-1.0612047910690308
1667825561420810800,5.947810791015625,1.1118296384811401,0.6654852628707886,-0.9226546287536621
1667825561430818800,5.95781884765625,1.0860300064086914,0.6142876148223877,-0.7207995057106018
1667825561440825600,5.96782568359375,1.0266045331954956,0.5342194437980652,-0.492498517036438
1667825561450834000,5.977833984375,0.9246482849121094,0.44115182757377625,-0.266583114862442
1667825561460842000,5.987842041015625,0.7860055565834045,0.35388946533203125,-0.0798189714550972
1667825561470848800,5.997848876953125,0.626222550868988,0.2910875976085663,0.04467448964715004
1667825561480856800,6.00785693359375,0.46467116475105286,0.24534867703914642,0.1162862479686737
1667825561490863900,6.01786376953125,0.33207452297210693,0.2059759646654129,0.1484399288892746
1667825561500872000,6.027871826171875,0.23518690466880798,0.1663096398115158,0.15561097860336304
1667825561510879700,6.037879638671875,0.16713036596775055,0.14446906745433807,0.15630391240119934
1667825561520886800,6.04788671875,0.12745417654514313,0.15358853340148926,0.1748332381248474
1667825561530894800,6.057894775390625,0.11539378762245178,0.17338407039642334,0.2195357233285904
1667825561540903000,6.06790283203125,0.12245122343301773,0.22153915464878082,0.2863178551197052
1667825561550909700,6.07790966796875,0.15202002227306366,0.2976027727127075,0.3568466007709503
1667825561560917800,6.087917724609375,0.19353051483631134,0.3796696662902832,0.4220832884311676
1667825561570924800,6.0979248046875,0.2435753047466278,0.4485880136489868,0.47196030616760254
1667825561580932900,6.107932861328125,0.3135563135147095,0.5068944692611694,0.5098042488098145
1667825561590940700,6.117940673828125,0.4143977165222168,0.5181154012680054,0.5430535078048706
1667825561600948000,6.127947998046875,0.5306757688522339,0.48922473192214966,0.5421949625015259
1667825561610955800,6.137955810546875,0.6414555311203003,0.4482392370700836,0.5082063674926758
1667825561620963800,6.1479638671875,0.7327808141708374,0.39436444640159607,0.4458189308643341
1667825561630970600,6.157970703125,0.8085395097732544,0.3354758322238922,0.36890870332717896
1667825561640978700,6.167978759765625,0.850682258605957,0.28402453660964966,0.2857058346271515
1667825561650985700,6.17798583984375,0.8553206920623779,0.2369297444820404,0.2179718017578125
1667825561660993800,6.187993896484375,0.8209776282310486,0.17572233080863953,0.19542133808135986
1667825561671001600,6.198001708984375,0.7216185331344604,0.08171993494033813,0.19768263399600983
1667825561681009000,6.2080087890625,0.5569868087768555,-0.05745851248502731,0.20151203870773315
1667825561691016700,6.2180166015625,0.33875542879104614,-0.20695239305496216,0.1935417354106903
1667825561701024800,6.228024658203125,0.11674389988183975,-0.3424396514892578,0.1609671264886856
1667825561711031600,6.238031494140625,-0.06780437380075455,-0.435749888420105,0.08617358654737473
1667825561721040000,6.248039794921875,-0.19124236702919006,-0.48540788888931274,-0.0303264819085598
1667825561731048000,6.2580478515625,-0.27553674578666687,-0.5129271745681763,-0.17425435781478882
1667825561741054700,6.2680546875,-0.33566293120384216,-0.5307778120040894,-0.32540130615234375
1667825561751062800,6.278062744140625,-0.3641315996646881,-0.4724445044994354,-0.48309051990509033
1667825561761069800,6.28806982421875,-0.37193456292152405,-0.2932572364807129,-0.6549347639083862
1667825561771078000,6.298077880859375,-0.3582427203655243,-0.028722520917654037,-0.8314788937568665
1667825561781085700,6.308085693359375,-0.33047014474868774,0.250533789396286,-0.9885675311088562
1667825561791093000,6.318093017578125,-0.3140067458152771,0.4781954288482666,-1.0941078662872314
1667825561801100300,6.328100341796875,-0.33407843112945557,0.6427531242370605,-1.1126362085342407
1667825561811108400,6.3381083984375,-0.386906236410141,0.7095968723297119,-1.0317707061767578
1667825561821115100,6.348115234375,-0.4513693153858185,0.6606035828590393,-0.866743266582489
1667825561831123500,6.35812353515625,-0.537590503692627,0.5057194828987122,-0.647746741771698
1667825561841130200,6.368130126953125,-0.6208596229553223,0.23559483885765076,-0.3871249556541443
1667825561851138300,6.37813818359375,-0.6713558435440063,-0.11923674494028091,-0.11363376677036285
1667825561861146000,6.38814599609375,-0.6741020679473877,-0.4922439754009247,0.11946592479944229
1667825561871153400,6.3981533203125,-0.6345397233963013,-0.7959753274917603,0.2716490924358368
1667825561881161200,6.4081611328125,-0.5794665813446045,-0.9880849719047546,0.3125152587890625
1667825561891169300,6.418169189453125,-0.53461092710495,-1.064117670059204,0.28158077597618103
1667825561901176300,6.42817626953125,-0.507132351398468,-1.0650622844696045,0.2052987813949585
1667825561911184400,6.438184326171875,-0.5078074336051941,-1.0117311477661133,0.13269515335559845
1667825561921191200,6.448191162109375,-0.5311250686645508,-0.91932213306427,0.07637015730142593
1667825561931199200,6.45819921875,-0.5651475191116333,-0.8058648109436035,0.04142788425087929
1667825561941207300,6.468207275390625,-0.602596640586853,-0.6806459426879883,0.026584917679429054
1667825561951214300,6.47821435546875,-0.646452784538269,-0.5725146532058716,0.03193334862589836
1667825561961222100,6.48822216796875,-0.697404682636261,-0.48937562108039856,0.04641829803586006
1667825561971230200,6.498230224609375,-0.7487261891365051,-0.41691261529922485,0.05986406281590462
1667825561981237200,6.5082373046875,-0.7730608582496643,-0.30643048882484436,0.06448159366846085
1667825561991245300,6.518245361328125,-0.7516798973083496,-0.16978473961353302,0.03844067081809044
1667825562001253400,6.52825341796875,-0.687599241733551,-0.03603503853082657,-0.013621168211102486
1667825562011260200,6.53826025390625,-0.6073166728019714,0.06834542751312256,-0.06710969656705856
1667825562021268500,6.5482685546875,-0.5420876145362854,0.10372929275035858,-0.09764479100704193
1667825562031275300,6.558275146484375,-0.5002390146255493,0.050431180745363235,-0.09084068238735199
1667825562041283300,6.568283447265625,-0.5008780360221863,-0.04729286581277847,-0.06379777193069458
1667825562051291100,6.578291015625,-0.558957040309906,-0.1485012322664261,-0.008390707895159721
1667825562061298400,6.58829833984375,-0.6581020355224609,-0.24996207654476166,0.07881461828947067
1667825562071306200,6.59830615234375,-0.7653038501739502,-0.3391955494880676,0.17487138509750366
1667825562081314300,6.608314208984375,-0.8503555059432983,-0.38562455773353577,0.27998030185699463
1667825562091321300,6.6183212890625,-0.9153757691383362,-0.3537665009498596,0.38724735379219055
1667825562101329400,6.628329345703125,-0.9462138414382935,-0.24495337903499603,0.4890008270740509
1667825562111336200,6.638336181640625,-0.9451065063476562,-0.06798739731311798,0.5755740404129028
1667825562121344300,6.64834423828125,-0.9083635807037354,0.09833601862192154,0.6190937161445618
1667825562131352000,6.65835205078125,-0.8597148656845093,0.18907205760478973,0.6381643414497375
1667825562141359400,6.668359375,-0.8204740881919861,0.21977362036705017,0.6676906943321228
1667825562151367200,6.6783671875,-0.7956917881965637,0.18882210552692413,0.7149332761764526
1667825562161375200,6.688375244140625,-0.7861270904541016,0.11677694320678711,0.7574108242988586
1667825562171382300,6.69838232421875,-0.8026520013809204,0.012538159266114235,0.7760599255561829
1667825562181390300,6.708390380859375,-0.8057087063789368,-0.03461148962378502,0.7359809875488281
1667825562191398400,6.7183984375,-0.7379589676856995,0.04162788763642311,0.6135776042938232
1667825562201405200,6.7284052734375,-0.541900634765625,0.257431298494339,0.4060327708721161
1667825562211413500,6.73841357421875,-0.20750057697296143,0.5511009693145752,0.11662280559539795
1667825562221420300,6.748420166015625,0.19143947958946228,0.8169918060302734,-0.21296823024749756
1667825562231428400,6.758428466796875,0.5256763100624084,0.9974105954170227,-0.5048448443412781
1667825562241436200,6.768436279296875,0.7459090948104858,1.100452184677124,-0.7096917629241943
1667825562251443500,6.778443359375,0.8596519231796265,1.1547889709472656,-0.8061061501502991
1667825562261451300,6.788451171875,0.8653988838195801,1.1429672241210938,-0.8088015913963318
1667825562271458300,6.798458251953125,0.7541911602020264,1.1132277250289917,-0.7456420660018921
1667825562281466400,6.80846630859375,0.5456824898719788,1.11551833152771,-0.6579777598381042
1667825562291474400,6.818474365234375,0.2827696204185486,1.1690673828125,-0.5620541572570801
1667825562301481200,6.828481201171875,0.03763105347752571,1.2498714923858643,-0.4648991525173187
1667825562311489300,6.8384892578125,-0.11694573611021042,1.3939013481140137,-0.3710397481918335
1667825562321497000,6.8484970703125,-0.14730478823184967,1.5880323648452759,-0.2566479444503784
1667825562331504400,6.85850439453125,-0.056964240968227386,1.771966576576233,-0.09029489755630493
1667825562341512200,6.86851220703125,0.106441430747509,1.8597967624664307,0.09770473092794418
1667825562351520300,6.878520263671875,0.2838910222053528,1.841593861579895,0.2459450662136078
1667825562361527300,6.88852734375,0.4152233600616455,1.7202767133712769,0.3018396496772766
1667825562371535400,6.898535400390625,0.4732927978038788,1.525017499923706,0.2680653929710388
1667825562381542100,6.908542236328125,0.4597478210926056,1.3020731210708618,0.15735124051570892
1667825562391550200,6.91855029296875,0.3901980221271515,1.0791447162628174,0.005852524656802416
1667825562401558300,6.928558349609375,0.233046293258667,0.8735562562942505,-0.11270666122436523
1667825562411565300,6.9385654296875,-0.000011721625924110413,0.760405957698822,-0.1730688065290451
1667825562421573400,6.948573486328125,-0.27742892503738403,0.7470515966415405,-0.17314061522483826
1667825562431581200,6.958581298828125,-0.5087127089500427,0.7249338030815125,-0.07932011783123016
1667825562441588200,6.968588134765625,-0.6348294615745544,0.6496312618255615,0.09484238922595978
1667825562451596300,6.97859619140625,-0.6622827053070068,0.574062705039978,0.29184600710868835
1667825562461603000,6.98860302734375,-0.5756974816322327,0.4404219686985016,0.4616461396217346
1667825562471611100,6.998611083984375,-0.40006333589553833,0.23627014458179474,0.5746155977249146
1667825562481619500,7.008619384765625,-0.1810188591480255,0.07785388082265854,0.6074023246765137
1667825562491626200,7.018626220703125,0.028730638325214386,0.0029777761083096266,0.5650032162666321
1667825562501634300,7.02863427734375,0.1787748783826828,-0.04195306450128555,0.5012552738189697
1667825562511642000,7.03864208984375,0.22528831660747528,-0.11253535747528076,0.42735812067985535
1667825562521649400,7.0486494140625,0.16652771830558777,-0.17439031600952148,0.3537939190864563
1667825562531657200,7.0586572265625,0.02729153260588646,-0.19135518372058868,0.2747124135494232
1667825562541664300,7.068664306640625,-0.11690161377191544,-0.14781546592712402,0.1918470561504364
1667825562551672300,7.07867236328125,-0.17877750098705292,-0.07255827635526657,0.10106973350048065
1667825562561680400,7.088680419921875,-0.11368738859891891,0.0378451868891716,0.012407666072249413
1667825562571687200,7.098687255859375,0.05441319942474365,0.18313926458358765,-0.06412758678197861
1667825562581695200,7.1086953125,0.2703346908092499,0.29949018359184265,-0.1311989724636078
1667825562591703300,7.118703369140625,0.4313185214996338,0.3576083481311798,-0.16589835286140442
1667825562601710300,7.12871044921875,0.4735376238822937,0.3764573037624359,-0.1626822054386139
1667825562611718100,7.13871826171875,0.3797546923160553,0.3205234706401825,-0.11352983117103577
1667825562621725400,7.148725341796875,0.16386714577674866,0.21443112194538116,-0.017562828958034515
1667825562631733200,7.158733154296875,-0.10587485879659653,0.08469601720571518,0.10619373619556427
1667825562641741300,7.1687412109375,-0.3726503252983093,-0.09565867483615875,0.22255855798721313
1667825562651748000,7.178748046875,-0.584952175617218,-0.32144469022750854,0.2962985634803772
1667825562661756200,7.188756103515625,-0.7201665639877319,-0.5356963872909546,0.2978522479534149
1667825562671764500,7.198764404296875,-0.7924405336380005,-0.6661324501037598,0.2116534262895584
1667825562681771300,7.208771240234375,-0.7745943069458008,-0.6269782781600952,0.03603224828839302
1667825562691779300,7.218779296875,-0.6582730412483215,-0.42326831817626953,-0.219298854470253
1667825562701787100,7.228787109375,-0.44650956988334656,-0.11122965812683105,-0.5198168754577637
1667825562711794400,7.23879443359375,-0.20379148423671722,0.2361176460981369,-0.7986594438552856
1667825562721802200,7.24880224609375,0.013226846233010292,0.49285751581192017,-0.9944474101066589
1667825562731809300,7.258809326171875,0.15226168930530548,0.6424579620361328,-1.0898000001907349
1667825562741817300,7.2688173828125,0.23622967302799225,0.6838642954826355,-1.0963408946990967
1667825562751825400,7.278825439453125,0.2748500406742096,0.6445959806442261,-1.027355432510376
1667825562761832200,7.288832275390625,0.26430773735046387,0.5458500981330872,-0.898249626159668
1667825562771840300,7.29884033203125,0.20636162161827087,0.37647974491119385,-0.710787296295166
1667825562781848300,7.308848388671875,0.13772740960121155,0.14902542531490326,-0.4939022660255432
1667825562791855400,7.31885546875,0.08844081312417984,-0.11583580076694489,-0.28077825903892517
1667825562801863400,7.328863525390625,0.05320580303668976,-0.3420077860355377,-0.0948551669716835
1667825562811870500,7.338870361328125,0.034288305789232254,-0.47669607400894165,0.04001609608530998
1667825562821878500,7.34887841796875,0.047358036041259766,-0.5633822679519653,0.11361228674650192
1667825562831886600,7.358886474609375,0.07686053216457367,-0.6008678078651428,0.12893211841583252
1667825562841893400,7.368893310546875,0.12181279063224792,-0.6290684938430786,0.08503539115190506
1667825562851901400,7.3789013671875,0.17209194600582123,-0.6259752511978149,-0.004162927623838186
1667825562861909500,7.388909423828125,0.21517041325569153,-0.6092583537101746,-0.1292942762374878
1667825562871916500,7.39891650390625,0.2518298923969269,-0.5845457911491394,-0.27094224095344543
1667825562881924400,7.40892431640625,0.2926848530769348,-0.5687008500099182,-0.4001714885234833
1667825562891931600,7.418931640625,0.3320740759372711,-0.5830387473106384,-0.4943280816078186
1667825562901939500,7.428939453125,0.35885506868362427,-0.5809618234634399,-0.5438517332077026
1667825562911947500,7.438947509765625,0.34300047159194946,-0.5595726370811462,-0.5497123003005981
1667825562921954300,7.448954345703125,0.26776590943336487,-0.5002980828285217,-0.494373083114624
1667825562931962400,7.45896240234375,0.15229631960391998,-0.40574657917022705,-0.39107680320739746
1667825562941970700,7.468970703125,0.03740695118904114,-0.2914873957633972,-0.26115894317626953
1667825562951977500,7.4789775390625,-0.04784829169511795,-0.17469662427902222,-0.1139598935842514
1667825562961985500,7.488985595703125,-0.07828101515769958,-0.11944342404603958,0.0344834141433239
1667825562971992600,7.49899267578125,-0.059443410485982895,-0.13233526051044464,0.17389750480651855
1667825562982000600,7.509000732421875,-0.003032817505300045,-0.19115331768989563,0.27992209792137146
1667825562992008400,7.519008544921875,0.0667571872472763,-0.25630834698677063,0.3290366232395172
1667825563002015500,7.529015380859375,0.12362609058618546,-0.3322101831436157,0.33665335178375244
1667825563012023600,7.5390234375,0.13669343292713165,-0.4249933958053589,0.32232555747032166
1667825563022031600,7.549031494140625,0.102574422955513,-0.5023677945137024,0.29490911960601807
1667825563032038400,7.559038330078125,0.01754208654165268,-0.4892623722553253,0.246945321559906
1667825563042046500,7.56904638671875,-0.0986676812171936,-0.3411092460155487,0.18355043232440948
1667825563052054500,7.579054443359375,-0.21957172453403473,-0.07200562208890915,0.12118718028068542
1667825563062061600,7.5890615234375,-0.3027198314666748,0.23456767201423645,0.09012133628129959
1667825563072069400,7.5990693359375,-0.29897940158843994,0.49155205488204956,0.08903876692056656
1667825563082076700,7.60907666015625,-0.2131299078464508,0.6665997505187988,0.11162267625331879
1667825563092084500,7.61908447265625,-0.08120916038751602,0.7399935722351074,0.1574476957321167
1667825563102092500,7.629092529296875,0.04615360125899315,0.683829665184021,0.2365041971206665
1667825563112099300,7.639099365234375,0.14497578144073486,0.442381888628006,0.3636224865913391
1667825563122107400,7.649107421875,0.1777268797159195,0.03598793223500252,0.5012463331222534
1667825563132114400,7.659114501953125,0.12236640602350235,-0.4054533839225769,0.6149103045463562
1667825563142122500,7.66912255859375,0.005534505471587181,-0.6915810108184814,0.6576508283615112
1667825563152130600,7.679130615234375,-0.12945473194122314,-0.7483982443809509,0.5939996838569641
1667825563162137600,7.6891376953125,-0.24027270078659058,-0.6511558294296265,0.46194010972976685
1667825563172145700,7.699145751953125,-0.3134526312351227,-0.48368319869041443,0.319740891456604
1667825563182153500,7.709153564453125,-0.31866881251335144,-0.2933987081050873,0.20743297040462494
1667825563192160500,7.719160400390625,-0.24336126446723938,-0.07643577456474304,0.13019144535064697
1667825563202168600,7.72916845703125,-0.0811704471707344,0.1385987550020218,0.06571167707443237
1667825563212175600,7.739175537109375,0.14890244603157043,0.2841418385505676,-0.0008250060491263866
1667825563222183400,7.749183349609375,0.399997740983963,0.3584904372692108,-0.09539370238780975
1667825563232191500,7.75919140625,0.6348485946655273,0.3767232298851013,-0.2516844868659973
1667825563242198500,7.769198486328125,0.8126353025436401,0.3577418327331543,-0.4598594605922699
1667825563252206600,7.77920654296875,0.9045984745025635,0.29449254274368286,-0.6741640567779541
1667825563262214400,7.78921435546875,0.8993337750434875,0.1987646222114563,-0.8722699284553528
1667825563272221400,7.799221435546875,0.8101413249969482,0.10015362501144409,-1.0178369283676147
1667825563282229500,7.8092294921875,0.6635372638702393,-0.0012059868313372135,-1.0732355117797852
1667825563292237600,7.819237548828125,0.510377824306488,-0.08968259394168854,-1.0359275341033936
1667825563302244400,7.829244384765625,0.39250922203063965,-0.14874392747879028,-0.9146323800086975
1667825563312252400,7.83925244140625,0.3355308771133423,-0.17200343310832977,-0.7434191107749939
1667825563322259500,7.849259521484375,0.3459680676460266,-0.1583670824766159,-0.5572094917297363
1667825563332267500,7.859267578125,0.42071422934532166,-0.13540397584438324,-0.3688417375087738
1667825563342275300,7.869275390625,0.5267417430877686,-0.12042877823114395,-0.2055402547121048
1667825563352282600,7.87928271484375,0.6134244203567505,-0.11653044074773788,-0.07002370804548264
1667825563362290400,7.88929052734375,0.635035514831543,-0.1335824728012085,0.018905362114310265
1667825563372298500,7.899298583984375,0.5833896398544312,-0.12738555669784546,0.06570988148450851
1667825563382305300,7.90930517578125,0.4788210988044739,-0.08271288871765137,0.06743492931127548
1667825563392313600,7.919313720703125,0.3558432459831238,-0.0037586898542940617,0.0416046641767025
1667825563402320400,7.9293203125,0.24759525060653687,0.10923771560192108,0.005793142598122358
1667825563412328400,7.939328369140625,0.16838964819908142,0.22891777753829956,-0.023032113909721375
1667825563422336500,7.94933642578125,0.13905876874923706,0.328913152217865,-0.036554254591464996
1667825563432343600,7.959343505859375,0.1494048833847046,0.3781323730945587,-0.018136363476514816
1667825563442351600,7.9693515625,0.18377791345119476,0.3698978126049042,0.0613996647298336
1667825563452359400,7.979359375,0.23432311415672302,0.27861425280570984,0.18779514729976654
1667825563462366500,7.989366455078125,0.28790777921676636,0.15585869550704956,0.3294747471809387
1667825563472374500,7.99937451171875,0.3237400949001312,0.010294034145772457,0.4574388563632965
1667825563482381600,8.009381591796876,0.3587152361869812,-0.13085678219795227,0.5212931036949158
1667825563492389400,8.019389404296875,0.39986321330070496,-0.2433665543794632,0.5176584124565125
1667825563502397400,8.0293974609375,0.43814489245414734,-0.30474379658699036,0.45703497529029846
1667825563512404500,8.039404541015625,0.486662894487381,-0.3037243187427521,0.3683277368545532
1667825563522412500,8.04941259765625,0.5505357980728149,-0.2163366824388504,0.27290183305740356
1667825563532420400,8.05942041015625,0.6261602640151978,-0.05979926511645317,0.18515893816947937
1667825563542427600,8.069427734375,0.7002111673355103,0.14309123158454895,0.10847394168376923
1667825563552435500,8.079435546875,0.7933863997459412,0.3330550193786621,0.050149913877248764
1667825563562442500,8.0894423828125,0.8771012425422668,0.49583700299263,-0.004638162441551685
1667825563572450300,8.0994501953125,0.9251486659049988,0.6250362396240234,-0.0562070831656456
1667825563582458600,8.109458740234375,0.9071115851402283,0.6814175248146057,-0.07328136265277863
1667825563592465400,8.11946533203125,0.8042293787002563,0.5882377624511719,-0.03546234592795372
1667825563602473500,8.129473388671874,0.6070283651351929,0.3642309606075287,0.042209044098854065
1667825563612481500,8.1394814453125,0.33758971095085144,0.08654717355966568,0.12661951780319214
1667825563622488600,8.149488525390625,0.02215038426220417,-0.1733461618423462,0.1858597695827484
1667825563632496600,8.15949658203125,-0.27592578530311584,-0.34412533044815063,0.18906381726264954
1667825563642503400,8.16950341796875,-0.5093148946762085,-0.4436539113521576,0.13683685660362244
1667825563652511500,8.179511474609376,-0.6537083387374878,-0.513152003288269,0.04462437331676483
1667825563662519600,8.18951953125,-0.717003583908081,-0.5355046391487122,-0.07568810135126114
1667825563672526600,8.199526611328125,-0.7144312858581543,-0.4553520083427429,-0.2210644781589508
1667825563682534400,8.209534423828124,-0.6496147513389587,-0.24826347827911377,-0.3931429982185364
1667825563692542500,8.21954248046875,-0.538116991519928,0.004893688019365072,-0.5773516893386841
1667825563702549500,8.229549560546875,-0.40519464015960693,0.2956831753253937,-0.753329336643219
1667825563712557600,8.2395576171875,-0.27477166056632996,0.5924144983291626,-0.9038906097412109
1667825563722564400,8.249564453125,-0.1653270721435547,0.8070213794708252,-1.011273980140686
1667825563732572700,8.25957275390625,-0.06064886972308159,0.8911306262016296,-1.0739187002182007
1667825563742580500,8.26958056640625,0.01895964704453945,0.8478386998176575,-1.0632411241531372
1667825563752587500,8.27958740234375,0.08253995329141617,0.6776850819587708,-0.9671465158462524
1667825563762595300,8.28959521484375,0.13028916716575623,0.4015645682811737,-0.8108006715774536
1667825563772603400,8.299603271484376,0.1419524848461151,0.051202304661273956,-0.6000657677650452
1667825563782610400,8.3096103515625,0.10286682844161987,-0.29086628556251526,-0.36259499192237854
1667825563792618500,8.319618408203125,0.022302214056253433,-0.5997596979141235,-0.14606590569019318
1667825563802626800,8.329626708984375,-0.07260069996118546,-0.7936193346977234,0.02571593038737774
1667825563812633900,8.3396337890625,-0.15997236967086792,-0.8441759943962097,0.13692739605903625
1667825563822642000,8.349641845703125,-0.2313384711742401,-0.796113908290863,0.19854427874088287
1667825563832648700,8.359648681640625,-0.29510068893432617,-0.7084218859672546,0.23610655963420868
1667825563842656800,8.36965673828125,-0.34643691778182983,-0.6210688948631287,0.2436041235923767
1667825563852664800,8.379664794921876,-0.3796311020851135,-0.5184237360954285,0.2254360467195511
1667825563862672000,8.389671875,-0.3800252377986908,-0.44198402762413025,0.19048342108726501
1667825563872680000,8.399679931640625,-0.3374631106853485,-0.4044153392314911,0.15676194429397583
1667825563882687700,8.409687744140625,-0.2732783257961273,-0.40707361698150635,0.1271567940711975
1667825563892695000,8.419695068359376,-0.21079710125923157,-0.40868350863456726,0.10404588282108307
1667825563902702800,8.429702880859375,-0.1820363998413086,-0.3773481845855713,0.07730530947446823
1667825563912710000,8.4397099609375,-0.20062792301177979,-0.3044694662094116,0.04614153504371643
1667825563922717700,8.4497177734375,-0.2542426586151123,-0.19288356602191925,0.0046236696653068066
1667825563932726000,8.45972607421875,-0.32748281955718994,-0.06545715779066086,-0.026462877169251442
1667825563942732800,8.46973291015625,-0.386636346578598,0.027814239263534546,-0.03018205426633358
1667825563952740900,8.479740966796875,-0.4064926207065582,0.07562091201543808,0.0005124751478433609
1667825563962748700,8.489748779296875,-0.3760020136833191,0.07147190719842911,0.04905721917748451
1667825563972756000,8.499755859375,-0.30587273836135864,0.04436332359910011,0.1006903201341629
1667825563982763800,8.509763671875,-0.22175726294517517,0.023050174117088318,0.14903409779071808
1667825563992770800,8.519770751953125,-0.15163862705230713,-0.012354687787592411,0.20393170416355133
1667825564002779000,8.52977880859375,-0.1210344061255455,-0.08671455085277557,0.25680017471313477
1667825564012787000,8.539786865234374,-0.13804587721824646,-0.20716001093387604,0.3108317255973816
1667825564022793700,8.549793701171875,-0.19749340415000916,-0.3102955222129822,0.35223960876464844
1667825564032801800,8.5598017578125,-0.2873644530773163,-0.3170682191848755,0.35931962728500366
1667825564042809900,8.569809814453125,-0.3765488266944885,-0.25271809101104736,0.3447100818157196
1667825564052817000,8.57981689453125,-0.4156400263309479,-0.16781039535999298,0.29701924324035645
1667825564062825000,8.589824951171876,-0.3787572383880615,-0.05466093495488167,0.2051246464252472
1667825564072831700,8.599831787109375,-0.2432691752910614,0.1212853342294693,0.05558202043175697
1667825564082840000,8.609840087890625,-0.021441012620925903,0.3315269947052002,-0.12832020223140717
1667825564092847900,8.619847900390624,0.26192599534988403,0.5164864659309387,-0.29787302017211914
1667825564102855000,8.62985498046875,0.5490262508392334,0.620665431022644,-0.42830535769462585
1667825564112862700,8.63986279296875,0.74392169713974,0.5388206243515015,-0.5042632222175598
1667825564122871000,8.64987109375,0.8100523948669434,0.3266602158546448,-0.535346508026123
1667825564132877800,8.6598779296875,0.7428552508354187,0.0738961398601532,-0.5474258065223694
1667825564142886000,8.669885986328126,0.5738523006439209,-0.12558892369270325,-0.5707080960273743
1667825564152893000,8.679892822265625,0.2880416214466095,-0.17754453420639038,-0.6192651987075806
1667825564162901000,8.68990087890625,-0.036005280911922455,-0.07246296107769012,-0.6694294214248657
1667825564172908800,8.69990869140625,-0.29861319065093994,0.1377009153366089,-0.7064114212989807
1667825564182915800,8.709915771484376,-0.4317757487297058,0.33394819498062134,-0.7238864302635193
1667825564192924000,8.719923828125,-0.4180634021759033,0.46121400594711304,-0.7029220461845398
1667825564202932000,8.729931884765625,-0.30530035495758057,0.49997180700302124,-0.6141543388366699
1667825564212938800,8.739938720703124,-0.16118845343589783,0.4670301079750061,-0.45980390906333923
1667825564222946800,8.74994677734375,-0.03585571050643921,0.469875693321228,-0.2535073757171631
1667825564232953900,8.759953857421875,0.05816905200481415,0.538770854473114,-0.04086007922887802
1667825564242962000,8.7699619140625,0.14649386703968048,0.6280948519706726,0.1207120418548584
1667825564252970000,8.779969970703124,0.24796484410762787,0.7462872862815857,0.1957620531320572
1667825564262976800,8.789976806640626,0.3605547249317169,0.8494864702224731,0.18815861642360687
1667825564272985000,8.799985107421875,0.45804956555366516,0.9344999194145203,0.12385764718055725
1667825564282993000,8.809992919921875,0.49957147240638733,1.0153560638427734,0.039411213248968124
1667825564293000000,8.82,0.47019892930984497,1.1084308624267578,0.0008499706164002419
1667825564303007700,8.8300078125,0.373542845249176,1.1909644603729248,0.019832147285342216
1667825564313015000,8.84001513671875,0.2396678775548935,1.200439691543579,0.10320080816745758
1667825564323022800,8.85002294921875,0.10545194894075394,1.1219216585159302,0.21796980500221252
1667825564333031000,8.860031005859375,0.009743265807628632,1.0090644359588623,0.3261047899723053
1667825564343038000,8.870037841796876,-0.007038169540464878,0.9080211520195007,0.3948916792869568
1667825564353046000,8.8800458984375,0.058835387229919434,0.825516402721405,0.4116118252277374
1667825564363053800,8.8900537109375,0.1830601692199707,0.7556391954421997,0.3729443848133087
1667825564373060900,8.900060791015624,0.3440186679363251,0.7057642936706543,0.3060958683490753
1667825564383068700,8.910068603515626,0.5154048204421997,0.6708828806877136,0.25029897689819336
1667825564393076000,8.920075927734375,0.6647530198097229,0.6001192331314087,0.22509373724460602
1667825564403083800,8.930083740234375,0.7715548276901245,0.48542100191116333,0.2090684026479721
1667825564413091800,8.940091796875,0.8169606924057007,0.3705833852291107,0.19288836419582367
1667825564423099000,8.950098876953126,0.8084847331047058,0.349958598613739,0.16426262259483337
1667825564433107000,8.96010693359375,0.758410632610321,0.43587854504585266,0.12442920356988907
1667825564443114800,8.97011474609375,0.6754314303398132,0.5567725300788879,0.08348880708217621
1667825564453121800,8.980121826171874,0.5834234952926636,0.6509720087051392,0.05985245108604431
1667825564463129900,8.9901298828125,0.49782612919807434,0.7134901285171509,0.05913229286670685
1667825564473137000,9.000136962890625,0.4358477294445038,0.7451311349868774,0.09619656950235367
1667825564483144700,9.010144775390625,0.4172532558441162,0.7344749569892883,0.16357743740081787
1667825564493152800,9.02015283203125,0.42671599984169006,0.6726470589637756,0.25177091360092163
1667825564503159800,9.030159912109376,0.46160513162612915,0.5613943934440613,0.34649571776390076
1667825564513168000,9.04016796875,0.5108879804611206,0.4129316508769989,0.4295903444290161
1667825564523176000,9.050176025390625,0.5425727367401123,0.26080450415611267,0.5008568167686462
1667825564533183000,9.060182861328125,0.5584126710891724,0.10559495538473129,0.5479747653007507
1667825564543191000,9.07019091796875,0.5438977479934692,-0.04944184795022011,0.5761001706123352
1667825564553197800,9.08019775390625,0.50662761926651,-0.17825256288051605,0.5887259244918823
1667825564563206000,9.090205810546875,0.4615296423435211,-0.2554858922958374,0.5703166723251343
1667825564573213700,9.100213623046875,0.43284979462623596,-0.27850785851478577,0.5251893997192383
1667825564583221000,9.110220947265624,0.43086764216423035,-0.2482144832611084,0.43352222442626953
1667825564593228800,9.120228759765626,0.47008001804351807,-0.19620509445667267,0.30851343274116516
1667825564603236900,9.13023681640625,0.538374662399292,-0.12488650530576706,0.15512877702713013
1667825564613244000,9.140243896484375,0.621531069278717,-0.035624533891677856,-0.0014634872786700726
1667825564623252000,9.150251953125,0.7134420871734619,0.08482427150011063,-0.1430438756942749
1667825564633258800,9.1602587890625,0.8050979971885681,0.20299032330513,-0.26635703444480896
1667825564643266800,9.170266845703125,0.8902688026428223,0.24416658282279968,-0.3477461040019989
1667825564653275000,9.18027490234375,0.9504261612892151,0.18849080801010132,-0.37575963139533997
1667825564663282000,9.190281982421874,0.9727931618690491,0.11338386684656143,-0.37189626693725586
1667825564673289700,9.200289794921876,0.9372245669364929,0.06800786405801773,-0.3638756275177002
1667825564683297000,9.210297119140625,0.8475381135940552,0.04977984353899956,-0.3468799889087677
1667825564693304800,9.220304931640625,0.7001638412475586,0.031590986996889114,-0.3085525929927826
1667825564703313000,9.23031298828125,0.49958881735801697,0.0001171845942735672,-0.25123825669288635
1667825564713319700,9.240319580078125,0.2719394266605377,-0.015779489651322365,-0.18899483978748322
1667825564723328000,9.250327880859375,0.04968830570578575,0.032142482697963715,-0.14317020773887634
1667825564733336000,9.260336181640625,-0.11015382409095764,0.17919719219207764,-0.12072748690843582
1667825564743342800,9.2703427734375,-0.17752742767333984,0.44072359800338745,-0.13899937272071838
1667825564753351000,9.280350830078126,-0.1473841667175293,0.7429556846618652,-0.16549834609031677
1667825564763358700,9.290358642578125,-0.056241314858198166,1.00382661819458,-0.18422947824001312
1667825564773366000,9.300365966796875,0.0467042401432991,1.1766966581344604,-0.1714865118265152
1667825564783373800,9.310373779296874,0.11870943754911423,1.2010915279388428,-0.12425728142261505
1667825564793380900,9.320380859375,0.13031868636608124,1.0848863124847412,-0.05748038738965988
1667825564803389000,9.330388916015625,0.07135200500488281,0.8737480044364929,0.010097483173012733
1667825564813397000,9.34039697265625,-0.034776829183101654,0.6265062093734741,0.06280411034822464
1667825564823403800,9.35040380859375,-0.16011804342269897,0.3706224858760834,0.10409462451934814
1667825564833411800,9.360411865234376,-0.2755913734436035,0.09638189524412155,0.1456010490655899
1667825564843419000,9.3704189453125,-0.35885319113731384,-0.1836315095424652,0.18833740055561066
1667825564853427000,9.380427001953125,-0.4001215398311615,-0.41392090916633606,0.23478452861309052
1667825564863434800,9.390434814453124,-0.3900887966156006,-0.5811967849731445,0.2693379819393158
1667825564873442000,9.400442138671876,-0.34443023800849915,-0.7000994682312012,0.28818249702453613
1667825564883449900,9.410449951171875,-0.2782960534095764,-0.7249957323074341,0.27527764439582825
1667825564893458000,9.4204580078125,-0.20351554453372955,-0.6368933320045471,0.2301730215549469
1667825564903464700,9.430464599609374,-0.1440226137638092,-0.4898567795753479,0.1776055246591568
1667825564913472800,9.44047265625,-0.12625348567962646,-0.3889884948730469,0.1579306274652481
1667825564923480800,9.450480712890625,-0.17201077938079834,-0.39695629477500916,0.20074409246444702
1667825564933487900,9.46048779296875,-0.2636605203151703,-0.5046087503433228,0.32067209482192993
1667825564943495700,9.47049560546875,-0.3870266377925873,-0.6974695920944214,0.5014643669128418
1667825564953503000,9.4805029296875,-0.5060520768165588,-0.9151763319969177,0.6740049719810486
1667825564963510800,9.4905107421875,-0.5945037007331848,-1.0777748823165894,0.8111671209335327
1667825564973518800,9.500518798828125,-0.6416967511177063,-1.1231863498687744,0.8565319776535034
1667825564983525600,9.510525634765624,-0.6504714488983154,-1.0334670543670654,0.8112860321998596
1667825564993534000,9.520533935546876,-0.6249775290489197,-0.8239690065383911,0.7174820899963379
1667825565003540700,9.530540771484375,-0.5688253045082092,-0.5766456723213196,0.6226638555526733
1667825565013548800,9.540548828125,-0.4925881028175354,-0.3640543222427368,0.5589639544487
1667825565023556900,9.550556884765625,-0.4285438358783722,-0.23717233538627625,0.5312168598175049
1667825565033564000,9.56056396484375,-0.3776140809059143,-0.24312716722488403,0.5290938019752502
1667825565043572000,9.570572021484375,-0.3436773419380188,-0.4102173149585724,0.5162615180015564
1667825565053579800,9.580579833984375,-0.3242727518081665,-0.689432680606842,0.4528604745864868
1667825565063587000,9.590587158203125,-0.3393905460834503,-0.9563426375389099,0.31815850734710693
1667825565073595000,9.600594970703124,-0.3832525610923767,-1.0919294357299805,0.12863625586032867
1667825565083602000,9.610601806640625,-0.45063549280166626,-1.067123293876648,-0.08842524886131287
1667825565093609700,9.620609619140625,-0.5330350399017334,-0.8466243147850037,-0.30601829290390015
1667825565103617800,9.63061767578125,-0.6014910340309143,-0.44008898735046387,-0.5012325644493103
1667825565113624800,9.640624755859376,-0.5990068316459656,0.06594118475914001,-0.6318129897117615
1667825565123633000,9.6506328125,-0.4895811080932617,0.49391740560531616,-0.6755601763725281
1667825565133640700,9.660640625,-0.28625035285949707,0.6448462009429932,-0.6142880320549011
1667825565143648000,9.67064794921875,-0.07735101878643036,0.3833058476448059,-0.43414896726608276
1667825565153655800,9.68065576171875,0.032549381256103516,-0.22177071869373322,-0.16007322072982788
1667825565163662800,9.690662841796875,-0.006512994412332773,-0.8657815456390381,0.1380670815706253
1667825565173670700,9.700670654296875,-0.16221016645431519,-1.2875397205352783,0.3670786917209625
1667825565183679000,9.710678955078125,-0.34364601969718933,-1.429511547088623,0.5047603845596313
1667825565193685800,9.720685791015624,-0.45700961351394653,-1.3175559043884277,0.5491779446601868
1667825565203693800,9.73069384765625,-0.4555005133152008,-1.0010920763015747,0.48322778940200806
1667825565213702000,9.740701904296875,-0.34388023614883423,-0.5936734676361084,0.3381419777870178
1667825565223709000,9.750708984375,-0.17383696138858795,-0.09487584978342056,0.12233671545982361
1667825565233717000,9.760717041015624,-0.018387453630566597,0.5163829922676086,-0.12163147330284119
1667825565243723800,9.770723876953125,0.06929059326648712,1.0758748054504395,-0.3348962366580963
1667825565253731800,9.78073193359375,0.06925543397665024,1.3473378419876099,-0.4607095420360565
1667825565263740000,9.790739990234375,0.008520739153027534,1.3890472650527954,-0.49904999136924744
1667825565273747000,9.800746826171874,-0.06949363648891449,1.3086943626403809,-0.4817229211330414
1667825565283754800,9.810754638671876,-0.12981025874614716,1.1221249103546143,-0.4389760196208954
1667825565293762800,9.8207626953125,-0.1604323536157608,0.8311506509780884,-0.38386163115501404
1667825565303769900,9.830769775390625,-0.1687266081571579,0.5086005926132202,-0.33037132024765015
1667825565313778000,9.84077783203125,-0.1660197675228119,0.26365208625793457,-0.30018091201782227
1667825565323784700,9.85078466796875,-0.14849957823753357,0.08069876581430435,-0.2545672059059143
1667825565333793000,9.86079296875,-0.10996763408184052,-0.1017429456114769,-0.16552361845970154
1667825565343800800,9.87080078125,-0.07289783656597137,-0.26741933822631836,-0.020145349204540253
1667825565353808000,9.880807861328124,-0.08283702284097672,-0.40065836906433105,0.1745929718017578
1667825565363815700,9.890815673828126,-0.16256031394004822,-0.4422277510166168,0.37151068449020386
1667825565373824000,9.900823974609375,-0.2984771430492401,-0.36391592025756836,0.5248736143112183
1667825565383830800,9.910830810546875,-0.45918235182762146,-0.22228895127773285,0.6172329187393188
1667825565393838800,9.9208388671875,-0.6113519668579102,-0.1937209516763687,0.674523115158081
1667825565403846000,9.930845947265626,-0.7421954870223999,-0.3625466823577881,0.7107500433921814
1667825565413854000,9.94085400390625,-0.861347496509552,-0.6237335801124573,0.6986313462257385
1667825565423862000,9.950862060546875,-0.9619866013526917,-0.7337027788162231,0.5680419206619263
1667825565433868800,9.960868896484374,-1.0542176961898804,-0.5389804244041443,0.2769474685192108
1667825565443876900,9.970876953125,-1.0915353298187256,-0.3843846321105957,0.0005228137597441673
1667825565453885000,9.980885009765625,-1.06306791305542,-0.4748927056789398,-0.1691216081380844
1667825565463892000,9.99089208984375,-0.977707028388977,-0.6680166721343994,-0.21490751206874847
1667825565473899800,10.000899658203124,-0.8824638724327087,-0.7833698987960815,-0.1571318358182907
1667825565483907000,10.010906982421876,-0.8085454106330872,-0.783380389213562,-0.04592529684305191
1667825565493915000,10.020914794921875,-0.7702115774154663,-0.7096015214920044,0.08327050507068634
1667825565503923000,10.0309228515625,-0.7556291818618774,-0.5780325531959534,0.20377761125564575
1667825565513929700,10.0409296875,-0.7341779470443726,-0.5071098804473877,0.28880250453948975
1667825565523938000,10.05093798828125,-0.6717249751091003,-0.46592384576797485,0.35502681136131287
1667825565533945900,10.06094580078125,-0.5738369822502136,-0.4867955446243286,0.43892303109169006
1667825565543953000,10.070952880859375,-0.4534585177898407,-0.5630571246147156,0.5275977849960327
1667825565553960700,10.080960693359375,-0.34052878618240356,-0.6771818399429321,0.594662606716156
1667825565563968000,10.090968017578126,-0.26423007249832153,-0.7833069562911987,0.6381915211677551
1667825565573975800,10.100975830078125,-0.22381873428821564,-0.929964542388916,0.6422610878944397
1667825565583983900,10.11098388671875,-0.20773397386074066,-1.121962547302246,0.5901999473571777
1667825565593991000,10.120990966796874,-0.20819176733493805,-1.24354088306427,0.4690719246864319
1667825565603999000,10.1309990234375,-0.20787756145000458,-1.2789889574050903,0.3117695450782776
1667825565614006800,10.1410068359375,-0.19611811637878418,-1.271762490272522,0.1505897045135498
1667825565624013800,10.151013916015625,-0.1869383305311203,-1.1351112127304077,-0.026243869215250015
1667825565634021600,10.161021728515625,-0.1926252543926239,-0.8277324438095093,-0.20851248502731323
1667825565644029000,10.17102880859375,-0.22110767662525177,-0.556187629699707,-0.31488680839538574
1667825565654036700,10.18103662109375,-0.2810269296169281,-0.48606204986572266,-0.2980945110321045
1667825565664044800,10.191044921875,-0.3725654184818268,-0.5733740925788879,-0.19565936923027039
1667825565674051800,10.2010517578125,-0.47197216749191284,-0.6703517436981201,-0.09899408370256424
1667825565684060000,10.211059814453124,-0.5399782061576843,-0.709293007850647,-0.05737077444791794
1667825565694068000,10.22106787109375,-0.5410162806510925,-0.6813034415245056,-0.0776107907295227
1667825565704074800,10.23107470703125,-0.5000576376914978,-0.5801712870597839,-0.13408568501472473
1667825565714083000,10.2410830078125,-0.46026283502578735,-0.426503449678421,-0.19858504831790924
1667825565724089900,10.25108984375,-0.45464178919792175,-0.25916817784309387,-0.2723761796951294
1667825565734098000,10.261097900390626,-0.4683496057987213,-0.04028375819325447,-0.38544121384620667
1667825565744105700,10.271105712890625,-0.4954110383987427,0.2281966358423233,-0.5630856156349182
1667825565754113000,10.281113037109375,-0.5226631760597229,0.5030010342597961,-0.7921243906021118
1667825565764120800,10.291120849609374,-0.5682068467140198,0.7258797287940979,-1.0210509300231934
1667825565774129000,10.30112890625,-0.6608973145484924,0.8464043140411377,-1.184794545173645
1667825565784136000,10.311135986328125,-0.8128340244293213,0.863398551940918,-1.2427144050598145
1667825565794144000,10.32114404296875,-1.006582498550415,0.767906129360199,-1.1576261520385742
1667825565804155000,10.33115478515625,-1.192121982574463,0.5931826233863831,-0.9203990697860718
1667825565814163000,10.341162841796875,-1.2652121782302856,0.37561407685279846,-0.5880101919174194
1667825565824170800,10.351170654296874,-1.2229979038238525,0.20240211486816406,-0.23281703889369965
1667825565834178000,10.361177978515625,-1.1423240900039673,0.11084690690040588,0.07753575593233109
1667825565844185900,10.371185791015625,-1.064540982246399,0.010495455004274845,0.32484114170074463
1667825565854194000,10.38119384765625,-0.9930045008659363,-0.14973442256450653,0.4646802544593811
1667825565864200700,10.39120068359375,-0.9177016019821167,-0.37662163376808167,0.49947893619537354
1667825565874209000,10.401208984375,-0.8477600812911987,-0.6421693563461304,0.47432300448417664
1667825565884215800,10.4112158203125,-0.8078727126121521,-0.9002997279167175,0.373209148645401
1667825565894224000,10.421223876953125,-0.8112391829490662,-1.1322104930877686,0.2255041003227234
1667825565904231700,10.431231689453124,-0.8749797344207764,-1.3383694887161255,0.06042344123125076
1667825565914239000,10.441239013671876,-1.0039994716644287,-1.4650845527648926,-0.10345310717821121
1667825565924246800,10.451246826171875,-1.1714866161346436,-1.468407392501831,-0.2115263044834137
1667825565934254800,10.4612548828125,-1.3449609279632568,-1.342437982559204,-0.26223552227020264
1667825565944262000,10.471261962890624,-1.4874721765518188,-1.1561965942382812,-0.24026787281036377
1667825565954270000,10.48127001953125,-1.5789467096328735,-0.9543671011924744,-0.17804311215877533
1667825565964276700,10.49127685546875,-1.6331508159637451,-0.7279345393180847,-0.0899849459528923
1667825565974284800,10.501284912109375,-1.6566123962402344,-0.5339916944503784,0.0074808914214372635
1667825565984292900,10.51129296875,-1.664482593536377,-0.4063590168952942,0.09175368398427963
1667825565994300000,10.5212998046875,-1.6662434339523315,-0.39212122559547424,0.15079064667224884
1667825566004307700,10.5313076171875,-1.6784034967422485,-0.7010557651519775,0.08323401212692261
1667825566014315800,10.541315673828125,-1.6861802339553833,-0.9981696605682373,-0.011950554326176643
1667825566024322800,10.55132275390625,-1.7387478351593018,-1.068910002708435,-0.020818814635276794
1667825566034331000,10.561330810546876,-1.7502191066741943,-1.1839700937271118,-0.06771788001060486
1667825566044339000,10.5713388671875,-1.7746012210845947,-1.3002185821533203,-0.11627300828695297
1667825566054345700,10.581345703125,-1.8423454761505127,-1.413731336593628,-0.12420044094324112
1667825566064354000,10.59135400390625,-1.9277684688568115,-1.5037325620651245,-0.14282190799713135
1667825566074360800,10.60136083984375,-1.9941918849945068,-1.3483052253723145,-0.23063725233078003
1667825566084369000,10.611368896484375,-1.9887208938598633,-0.8599159121513367,-0.3938573896884918
1667825566094376700,10.621376708984375,-1.8963651657104492,-0.2646333873271942,-0.5691253542900085
1667825566104384000,10.631384033203124,-1.7646980285644531,0.17600484192371368,-0.6687204241752625
1667825566114391800,10.641391845703126,-1.6855465173721313,0.3708755373954773,-0.6575284600257874
1667825566124399900,10.65139990234375,-1.7230232954025269,0.2941476106643677,-0.5388490557670593
1667825566134407000,10.661406982421875,-1.8380218744277954,-0.050252918154001236,-0.31853240728378296
1667825566144415000,10.6714150390625,-1.968885064125061,-0.5973166823387146,-0.035406697541475296
1667825566154421800,10.681421875,-2.098865509033203,-1.1270742416381836,0.2274337112903595
1667825566164429800,10.691429931640625,-2.189232587814331,-1.4860577583312988,0.3971345126628876
1667825566174438000,10.70143798828125,-2.220150947570801,-1.6418390274047852,0.4418441951274872
1667825566184445000,10.71144482421875,-2.2077746391296387,-1.561378836631775,0.35833922028541565
1667825566194452700,10.72145263671875,-2.1711246967315674,-1.2993621826171875,0.2025837004184723
1667825566204460800,10.731460693359375,-2.113205671310425,-1.03839111328125,0.05640147626399994
1667825566214467800,10.7414677734375,-2.0663602352142334,-0.8930202722549438,-0.0574161671102047
1667825566224476000,10.751475830078125,-2.0190908908843994,-0.8190136551856995,-0.1459265500307083
1667825566234482700,10.761482666015626,-1.9620658159255981,-0.7515187859535217,-0.2276158183813095
1667825566244490800,10.77149072265625,-1.8901013135910034,-0.6703415513038635,-0.30651071667671204
1667825566254499000,10.7814990234375,-1.8034316301345825,-0.5913066864013672,-0.35141587257385254
1667825566264505900,10.791505859375,-1.7313860654830933,-0.527966320514679,-0.34812209010124207
1667825566274514000,10.801513916015624,-1.6956064701080322,-0.47292542457580566,-0.30212903022766113
1667825566284521700,10.811521728515626,-1.7117359638214111,-0.4687788188457489,-0.2258363515138626
1667825566294529000,10.821529052734375,-1.7729002237319946,-0.543753445148468,-0.12746158242225647
1667825566304536800,10.831536865234375,-1.842061996459961,-0.6917995810508728,-0.01465761661529541
1667825566314545000,10.841544921875,-1.8722409009933472,-0.860496461391449,0.09430402517318726
1667825566324552000,10.851552001953126,-1.836625337600708,-1.0328291654586792,0.16673187911510468
1667825566334560000,10.86156005859375,-1.7612972259521484,-1.186384916305542,0.19850791990756989
1667825566344566800,10.87156689453125,-1.675769567489624,-1.3083364963531494,0.19052371382713318
1667825566354574800,10.881574951171874,-1.6019587516784668,-1.398926019668579,0.1492985188961029
1667825566364582700,10.891582763671876,-1.5205378532409668,-1.3853780031204224,0.12623995542526245
1667825566374590000,10.90158984375,-1.4327006340026855,-1.0987142324447632,0.035934027284383774
1667825566384597800,10.91159765625,-1.413278579711914,-0.7531582713127136,-0.07279691100120544
1667825566394604800,10.921604736328124,-1.4553176164627075,-0.46288245916366577,-0.18582358956336975
1667825566404612900,10.93161279296875,-1.5032156705856323,-0.32236215472221375,-0.29763540625572205
1667825566414621000,10.941620849609375,-1.5339211225509644,-0.27816808223724365,-0.3799571692943573
1667825566424627700,10.951627685546875,-1.531235694885254,-0.2660152316093445,-0.4229298532009125
1667825566434635800,10.9616357421875,-1.505751371383667,-0.29752814769744873,-0.42595013976097107
1667825566444644000,10.97164404296875,-1.4699656963348389,-0.36262452602386475,-0.38063034415245056
1667825566454651000,10.98165087890625,-1.4370262622833252,-0.41383522748947144,-0.312716007232666
