time,seconds_elapsed,z,y,x
1667266056335166000,0.092166015625,8.570791244506836,1.5897315740585327,1.6710875034332275
1667266056337563600,0.094563720703125,8.580363273620605,1.6208382844924927,1.6926229000091553
1667266056339961600,0.096961669921875,8.613862037658691,1.6758731603622437,1.7261223793029785
1667266056342359300,0.099359375,8.678468704223633,1.7309080362319946,1.721336841583252
1667266056344757200,0.10175732421875,8.738588333129883,1.7715860605239868,1.7333009243011475
1667266056347155000,0.104155029296875,8.793622970581055,1.8529419898986816,1.7715860605239868
1667266056349553000,0.106552978515625,8.839086532592773,1.9151554107666016,1.812264084815979
1667266056351950600,0.10895068359375,8.896514892578125,1.9462621212005615,1.8457635641098022
1667266056354348500,0.1113486328125,9.011369705200195,1.953440546989441,1.86729896068573
1667266056356746200,0.113746337890625,9.09272575378418,1.9872392416000366,1.896012783050537
1667266056359144200,0.116144287109375,9.142974853515625,2.0135602951049805,1.9366908073425293
1667266056361542000,0.1185419921875,9.20997428894043,2.0207388401031494,1.9728822708129883
1667266056363939800,0.12093994140625,9.282057762145996,2.0398812294006348,1.9920248985290527
1667266056366337500,0.123337646484375,9.3490571975708,2.042274236679077,2.008774518966675
1667266056368735200,0.1257353515625,9.428020477294922,2.032702922821045,2.049452543258667
1667266056371133200,0.12813330078125,9.497411727905273,2.0231316089630127,2.0685951709747314
1667266056373531000,0.13053076171875,9.530911445617676,2.001596212387085,2.097309112548828
1667266056375928800,0.1329287109375,9.585947036743164,1.994417667388916,2.1068804264068604
1667266056378326500,0.135326416015625,9.614660263061523,1.9657038450241089,2.111665964126587
1667266056380724500,0.137724365234375,9.662516593933105,1.934298038482666,2.090130567550659
1667266056383122200,0.1401220703125,9.700801849365234,1.896012783050537,2.0829520225524902
1667266056385520000,0.14252001953125,9.72233772277832,1.8529419898986816,2.0446670055389404
1667266056387917800,0.144917724609375,9.75105094909668,1.8026927709579468,2.0303099155426025
1667266056390315800,0.147315673828125,9.765408515930176,1.7356936931610107,1.9657038450241089
1667266056392713500,0.14971337890625,9.794121742248535,1.6974085569381714,1.896012783050537
1667266056395111400,0.152111328125,9.808479309082031,1.6710875034332275,1.8266209363937378
1667266056397509000,0.154509033203125,9.823135375976562,1.6256239414215088,1.7404793500900269
1667266056399907000,0.156906982421875,9.837491989135742,1.592124342918396,1.695015788078308
1667266056402304800,0.1593046875,9.842277526855469,1.5586248636245728,1.651944875717163
1667266056404702700,0.16170263671875,9.823135375976562,1.5179468393325806,1.6088740825653076
1667266056407100400,0.164100341796875,9.801301002502441,1.505982756614685,1.5801602602005005
1667266056409498400,0.166498291015625,9.765408515930176,1.4629119634628296,1.5514464378356934
1667266056411896000,0.16889599609375,9.739087104797363,1.450947880744934,1.5203397274017334
1667266056414294000,0.1712939453125,9.712766647338867,1.4365909099578857,1.4988043308258057
1667266056416691700,0.173691650390625,9.669695854187012,1.4126626253128052,1.474876046180725
1667266056419089700,0.176089599609375,9.648159980773926,1.3956137895584106,1.4629119634628296
1667266056421487400,0.1784873046875,9.609874725341797,1.3932210206985474,1.4485549926757812
1667266056423885300,0.18088525390625,9.576375007629395,1.3884353637695312,1.4557334184646606
1667266056426283000,0.183282958984375,9.550054550170898,1.4003994464874268,1.446162223815918
1667266056428681000,0.185680908203125,9.51894760131836,1.3980066776275635,1.4485549926757812
1667266056431078700,0.18807861328125,9.492626190185547,1.4174482822418213,1.4653047323226929
1667266056433476600,0.1904765625,9.449555397033691,1.446162223815918,1.4581263065338135
1667266056435874300,0.192874267578125,9.423234939575195,1.450947880744934,1.4605190753936768
1667266056438272300,0.195272216796875,9.384949684143066,1.4533406496047974,1.470090389251709
1667266056440670000,0.197669921875,9.35623550415039,1.4629119634628296,1.4988043308258057
1667266056443068000,0.20006787109375,9.332307815551758,1.4964114427566528,1.5083755254745483
1667266056445465600,0.202465576171875,9.301200866699219,1.5083755254745483,1.5346965789794922
1667266056447863600,0.204863525390625,9.332307815551758,1.4940186738967896,1.5442678928375244
1667266056450261200,0.20726123046875,9.353842735290527,1.5275181531906128,1.5825530290603638
1667266056452659200,0.2096591796875,9.35623550415039,1.55623197555542,1.6016956567764282
1667266056455057000,0.212056884765625,9.368199348449707,1.5801602602005005,1.6064813137054443
1667266056457454800,0.214454833984375,9.39452075958252,1.623231053352356,1.596909999847412
1667266056459852500,0.2168525390625,9.4088773727417,1.651944875717163,1.5897315740585327
1667266056462250500,0.21925048828125,9.444769859313965,1.6088740825653076,1.5849459171295166
1667266056464648200,0.221648193359375,9.483055114746094,1.596909999847412,1.6256239414215088
1667266056467046100,0.224046142578125,9.48066234588623,1.6016956567764282,1.678265929222107
1667266056469443800,0.22644384765625,9.50459098815918,1.654337763786316,1.6758731603622437
1667266056471841500,0.228841552734375,9.516554832458496,1.6686947345733643,1.6926229000091553
1667266056474239500,0.231239501953125,9.564411163330078,1.6495521068572998,1.7045869827270508
1667266056476637400,0.233637451171875,9.59791088104248,1.6399807929992676,1.7356936931610107
1667266056479035100,0.23603515625,9.593125343322754,1.6567305326461792,1.776371717453003
1667266056481432800,0.238432861328125,9.600303649902344,1.628016710281372,1.8170497417449951
1667266056483830800,0.240830810546875,9.645767211914062,1.599302887916565,1.8218353986740112
1667266056486228500,0.243228515625,9.667302131652832,1.5945172309875488,1.8290138244628906
1667266056488626400,0.24562646484375,9.672088623046875,1.5897315740585327,1.8409779071807861
1667266056491024400,0.2480244140625,9.710372924804688,1.6040884256362915,1.8505492210388184
1667266056493422000,0.250422119140625,9.72951602935791,1.5825530290603638,1.8529419898986816
1667266056495819800,0.25281982421875,9.758230209350586,1.5849459171295166,1.8457635641098022
1667266056498217700,0.2552177734375,9.76062297821045,1.6112669706344604,1.8170497417449951
1667266056500615400,0.257615478515625,9.765408515930176,1.6016956567764282,1.812264084815979
1667266056503013400,0.260013427734375,9.779765129089355,1.5897315740585327,1.7931214570999146
1667266056505411000,0.2624111328125,9.782157897949219,1.5897315740585327,1.7835501432418823
1667266056507809000,0.26480908203125,9.779765129089355,1.5945172309875488,1.7715860605239868
1667266056510206700,0.267206787109375,9.74387264251709,1.6016956567764282,1.745265007019043
1667266056512604700,0.269604736328125,9.710372924804688,1.6064813137054443,1.7428722381591797
1667266056515002400,0.27200244140625,9.676874160766602,1.6256239414215088,1.7261223793029785
1667266056517400300,0.274400390625,9.660123825073242,1.6351951360702515,1.683051586151123
1667266056519798000,0.276798095703125,9.62901782989502,1.6328023672103882,1.6926229000091553
1667266056522196000,0.279196044921875,9.593125343322754,1.651944875717163,1.6734803915023804
1667266056524593700,0.28159375,9.554840087890625,1.6663018465042114,1.6734803915023804
1667266056526991600,0.28399169921875,9.51894760131836,1.6639090776443481,1.651944875717163
1667266056529389300,0.286389404296875,9.478269577026367,1.6351951360702515,1.6639090776443481
1667266056531787300,0.288787353515625,9.442377090454102,1.6447664499282837,1.651944875717163
1667266056534185000,0.29118505859375,9.399306297302246,1.6423736810684204,1.651944875717163
1667266056536583000,0.2935830078125,9.37059211730957,1.6423736810684204,1.6495521068572998
1667266056538980600,0.295980712890625,9.36341381072998,1.6471593379974365,1.6471593379974365
1667266056541378600,0.298378662109375,9.327521324157715,1.6375880241394043,1.6304094791412354
1667266056543776300,0.3007763671875,9.305986404418945,1.6208382844924927,1.623231053352356
1667266056546174200,0.30317431640625,9.286844253540039,1.6184453964233398,1.596909999847412
1667266056548572000,0.305572021484375,9.255437850952148,1.6112669706344604,1.5801602602005005
1667266056550969900,0.307969970703125,9.250652313232422,1.6088740825653076,1.5753746032714844
1667266056553367600,0.310367431640625,9.245866775512695,1.5873386859893799,1.5490535497665405
1667266056555765500,0.312765625,9.231510162353516,1.6040884256362915,1.5346965789794922
1667266056558163200,0.3151630859375,9.22433090209961,1.6112669706344604,1.5227324962615967
1667266056560561200,0.31756103515625,9.221938133239746,1.6160526275634766,1.5179468393325806
1667266056562958800,0.319958740234375,9.21715259552002,1.6160526275634766,1.5227324962615967
1667266056565356800,0.322356689453125,9.214759826660156,1.6040884256362915,1.5131611824035645
1667266056567754500,0.32475439453125,9.253045082092285,1.6184453964233398,1.5227324962615967
1667266056570152400,0.32715234375,9.27727222442627,1.6160526275634766,1.5155540704727173
1667266056572550100,0.329550048828125,9.298808097839355,1.599302887916565,1.5275181531906128
1667266056574948000,0.331947998046875,9.337093353271484,1.6040884256362915,1.5466607809066772
1667266056577345800,0.334345703125,9.361021041870117,1.592124342918396,1.5705889463424683
1667266056579743700,0.33674365234375,9.38016414642334,1.592124342918396,1.5825530290603638
1667266056582141400,0.339141357421875,9.4088773727417,1.599302887916565,1.6016956567764282
1667266056584539100,0.3415390625,9.447162628173828,1.628016710281372,1.6160526275634766
1667266056586937000,0.34393701171875,9.471091270446777,1.6304094791412354,1.6304094791412354
1667266056589335000,0.3463349609375,9.509376525878906,1.6351951360702515,1.6495521068572998
1667266056591732700,0.348732666015625,9.542876243591309,1.628016710281372,1.6567305326461792
1667266056594130700,0.351130615234375,9.562018394470215,1.628016710281372,1.6806588172912598
1667266056596528400,0.3535283203125,9.583553314208984,1.6112669706344604,1.6758731603622437
1667266056598926000,0.355926025390625,9.61944580078125,1.5801602602005005,1.6854444742202759
1667266056601324000,0.358323974609375,9.63619613647461,1.592124342918396,1.6854444742202759
1667266056603722000,0.360721923828125,9.63619613647461,1.6064813137054443,1.695015788078308
1667266056606119700,0.36311962890625,9.655338287353516,1.6208382844924927,1.6710875034332275
1667266056608517400,0.365517333984375,9.667302131652832,1.6447664499282837,1.651944875717163
1667266056610915300,0.367915283203125,9.657731056213379,1.6328023672103882,1.6639090776443481
1667266056613313000,0.37031298828125,9.691230773925781,1.623231053352356,1.654337763786316
1667266056615711000,0.3727109375,9.705587387084961,1.6064813137054443,1.6447664499282837
1667266056618108700,0.375108642578125,9.719944953918457,1.5658032894134521,1.6112669706344604
1667266056620506600,0.377506591796875,9.739087104797363,1.561017632484436,1.6016956567764282
1667266056622904300,0.379904296875,9.731908798217773,1.5466607809066772,1.6136597394943237
1667266056625302300,0.38230224609375,9.719944953918457,1.572981834411621,1.6160526275634766
1667266056627700000,0.384699951171875,9.731908798217773,1.592124342918396,1.5849459171295166
1667266056630098000,0.387097900390625,9.739087104797363,1.5945172309875488,1.55623197555542
1667266056632495600,0.38949560546875,9.741479873657227,1.592124342918396,1.529910922050476
1667266056634893600,0.3918935546875,9.707980155944824,1.5658032894134521,1.5155540704727173
1667266056637291300,0.394291259765625,9.667302131652832,1.5442678928375244,1.5227324962615967
1667266056639689200,0.396689208984375,9.571589469909668,1.568196177482605,1.4940186738967896
1667266056642087000,0.3990869140625,9.52612590789795,1.5753746032714844,1.4533406496047974
1667266056644484900,0.40148486328125,9.516554832458496,1.5658032894134521,1.4868401288986206
1667266056646882600,0.403882568359375,9.471091270446777,1.572981834411621,1.5251253843307495
1667266056649280500,0.406280517578125,9.420842170715332,1.5753746032714844,1.529910922050476
1667266056651678200,0.40867822265625,9.396913528442383,1.596909999847412,1.5035899877548218
1667266056654076200,0.411076171875,9.38734245300293,1.6088740825653076,1.4844473600387573
1667266056656473900,0.413473876953125,9.358628273010254,1.6184453964233398,1.4796617031097412
1667266056658871800,0.415871826171875,9.315557479858398,1.6447664499282837,1.4844473600387573
1667266056661269500,0.41826953125,9.274879455566406,1.6495521068572998,1.5227324962615967
1667266056663667500,0.42066748046875,9.250652313232422,1.659123420715332,1.5490535497665405
1667266056666065200,0.423065185546875,9.221938133239746,1.6758731603622437,1.5538392066955566
1667266056668463000,0.425463134765625,9.205188751220703,1.6758731603622437,1.5658032894134521
1667266056670860800,0.42786083984375,9.176474571228027,1.6974085569381714,1.5873386859893799
1667266056673258800,0.4302587890625,9.166903495788574,1.721336841583252,1.6160526275634766
1667266056675656400,0.432656494140625,9.169296264648438,1.721336841583252,1.6256239414215088
1667266056678054400,0.435054443359375,9.18843936920166,1.7380865812301636,1.6399807929992676
1667266056680452000,0.4374521484375,9.205188751220703,1.7309080362319946,1.6423736810684204
1667266056682850000,0.43985009765625,9.229117393493652,1.745265007019043,1.6423736810684204
1667266056685247700,0.442247802734375,9.231510162353516,1.7356936931610107,1.659123420715332
1667266056687645700,0.444645751953125,9.243474006652832,1.7261223793029785,1.714158296585083
1667266056690043400,0.44704345703125,9.255437850952148,1.7117655277252197,1.721336841583252
1667266056692441300,0.44944140625,9.255437850952148,1.7117655277252197,1.7069798707962036
1667266056694839000,0.451839111328125,9.272486686706543,1.709372639656067,1.683051586151123
1667266056697237000,0.454237060546875,9.28445053100586,1.690230131149292,1.7021942138671875
1667266056699634700,0.456634765625,9.303593635559082,1.659123420715332,1.6998014450073242
1667266056702032600,0.45903271484375,9.320343017578125,1.6663018465042114,1.7165511846542358
1667266056704430300,0.461430419921875,9.346664428710938,1.659123420715332,1.7165511846542358
1667266056706828300,0.463828369140625,9.361021041870117,1.6639090776443481,1.7165511846542358
1667266056709226000,0.46622607421875,9.40169906616211,1.6854444742202759,1.7069798707962036
1667266056711624000,0.4686240234375,9.451948165893555,1.6663018465042114,1.6998014450073242
1667266056714021600,0.471021728515625,9.502198219299316,1.651944875717163,1.695015788078308
1667266056716419600,0.473419677734375,9.51894760131836,1.6375880241394043,1.709372639656067
1667266056718817300,0.4758173828125,9.557232856750488,1.6351951360702515,1.7045869827270508
1667266056721215200,0.47821533203125,9.59791088104248,1.651944875717163,1.695015788078308
1667266056723613000,0.480613037109375,9.614660263061523,1.6328023672103882,1.6806588172912598
1667266056726011000,0.483010986328125,9.652945518493652,1.6615161895751953,1.6615161895751953
1667266056728408600,0.48540869140625,9.698409080505371,1.6806588172912598,1.6328023672103882
1667266056730806300,0.48780615234375,9.7366943359375,1.654337763786316,1.6160526275634766
1667266056733204200,0.490204345703125,9.765408515930176,1.6567305326461792,1.6256239414215088
1667266056735602200,0.492602294921875,9.784550666809082,1.6399807929992676,1.6328023672103882
1667266056738000000,0.494999755859375,9.798908233642578,1.623231053352356,1.6184453964233398
1667266056740397600,0.4973974609375,9.791728973388672,1.6160526275634766,1.6375880241394043
1667266056742795500,0.49979541015625,9.76062297821045,1.6016956567764282,1.651944875717163
1667266056745193500,0.502193359375,9.758230209350586,1.5801602602005005,1.678265929222107
1667266056747591200,0.504591064453125,9.7366943359375,1.5705889463424683,1.695015788078308
1667266056749989000,0.506989013671875,9.739087104797363,1.596909999847412,1.695015788078308
1667266056752386800,0.50938671875,9.731908798217773,1.596909999847412,1.683051586151123
1667266056754784500,0.511784423828125,9.696016311645508,1.5945172309875488,1.678265929222107
1667266056757182500,0.514182373046875,9.664909362792969,1.5753746032714844,1.6758731603622437
1667266056759580400,0.516580322265625,9.621838569641113,1.5658032894134521,1.6567305326461792
1667266056761978000,0.51897802734375,9.593125343322754,1.5418751239776611,1.654337763786316
1667266056764375800,0.521375732421875,9.566803932189941,1.5275181531906128,1.6447664499282837
1667266056766773800,0.523773681640625,9.509376525878906,1.5442678928375244,1.6399807929992676
1667266056769171500,0.52617138671875,9.48066234588623,1.529910922050476,1.6208382844924927
1667266056771569400,0.5285693359375,9.451948165893555,1.537089467048645,1.599302887916565
1667266056773967000,0.530967041015625,9.425627708435059,1.532303810119629,1.568196177482605
1667266056776365000,0.533364990234375,9.39452075958252,1.532303810119629,1.561017632484436
1667266056778762800,0.5357626953125,9.351449966430664,1.5490535497665405,1.5538392066955566
1667266056781160700,0.53816064453125,9.341878890991211,1.55623197555542,1.5753746032714844
1667266056783558700,0.54055859375,9.337093353271484,1.5227324962615967,1.568196177482605
1667266056785956400,0.542956298828125,9.327521324157715,1.505982756614685,1.561017632484436
1667266056788354000,0.54535400390625,9.353842735290527,1.5203397274017334,1.5705889463424683
1667266056790752000,0.547751953125,9.35623550415039,1.5227324962615967,1.5634105205535889
1667266056793149700,0.550149658203125,9.377771377563477,1.532303810119629,1.5753746032714844
1667266056795547600,0.552547607421875,9.404091835021973,1.529910922050476,1.599302887916565
1667266056797945300,0.5549453125,9.437591552734375,1.529910922050476,1.6256239414215088
1667266056800343300,0.55734326171875,9.451948165893555,1.5586248636245728,1.6495521068572998
1667266056802741000,0.559740966796875,9.461520195007324,1.568196177482605,1.651944875717163
1667266056805139000,0.562138916015625,9.49501895904541,1.5777673721313477,1.6495521068572998
1667266056807536600,0.56453662109375,9.51894760131836,1.599302887916565,1.6878372430801392
1667266056809934600,0.5669345703125,9.50459098815918,1.6208382844924927,1.7285152673721313
1667266056812332300,0.569332275390625,9.521340370178223,1.6399807929992676,1.7261223793029785
1667266056814730200,0.571730224609375,9.550054550170898,1.6710875034332275,1.7572290897369385
1667266056817128000,0.5741279296875,9.571589469909668,1.695015788078308,1.7476578950881958
1667266056819526000,0.57652587890625,9.576375007629395,1.6998014450073242,1.7404793500900269
1667266056821923600,0.578923583984375,9.581160545349121,1.7021942138671875,1.7380865812301636
1667266056824321500,0.581321533203125,9.564411163330078,1.7069798707962036,1.7285152673721313
1667266056826719200,0.58371923828125,9.552447319030762,1.7021942138671875,1.7356936931610107
1667266056829117200,0.5861171875,9.593125343322754,1.7069798707962036,1.7261223793029785
1667266056831515000,0.588514892578125,9.59073257446289,1.7117655277252197,1.721336841583252
1667266056833912800,0.590912841796875,9.583553314208984,1.7261223793029785,1.7045869827270508
1667266056836310500,0.593310546875,9.585947036743164,1.745265007019043,1.678265929222107
1667266056838708500,0.59570849609375,9.585947036743164,1.7380865812301636,1.6639090776443481
1667266056841106200,0.598106201171875,9.588339805603027,1.714158296585083,1.6639090776443481
1667266056843504000,0.600504150390625,9.61944580078125,1.6878372430801392,1.651944875717163
1667266056845901800,0.60290185546875,9.624231338500977,1.6974085569381714,1.6615161895751953
1667266056848299800,0.6052998046875,9.602696418762207,1.7021942138671875,1.659123420715332
1667266056850697500,0.607697509765625,9.609874725341797,1.654337763786316,1.6304094791412354
1667266056853095400,0.610095458984375,9.621838569641113,1.6112669706344604,1.6351951360702515
1667266056855493000,0.6124931640625,9.600303649902344,1.596909999847412,1.654337763786316
1667266056857891000,0.61489111328125,9.59073257446289,1.5897315740585327,1.6758731603622437
1667266056860288800,0.617288818359375,9.559625625610352,1.5777673721313477,1.6615161895751953
1667266056862686700,0.619686767578125,9.533304214477539,1.592124342918396,1.651944875717163
1667266056865084400,0.62208447265625,9.492626190185547,1.6016956567764282,1.6328023672103882
1667266056867482400,0.624482421875,9.456734657287598,1.6088740825653076,1.6112669706344604
1667266056869880000,0.626880126953125,9.437591552734375,1.5897315740585327,1.6160526275634766
1667266056872278000,0.629278076171875,9.413662910461426,1.5634105205535889,1.628016710281372
1667266056874675700,0.63167578125,9.384949684143066,1.5634105205535889,1.6304094791412354
1667266056877073700,0.63407373046875,9.384949684143066,1.5466607809066772,1.6136597394943237
1667266056879471400,0.636471435546875,9.384949684143066,1.5849459171295166,1.5849459171295166
1667266056881869300,0.638869384765625,9.382556915283203,1.5873386859893799,1.5442678928375244
1667266056884267000,0.64126708984375,9.404091835021973,1.592124342918396,1.4988043308258057
1667266056886665000,0.6436650390625,9.423234939575195,1.5801602602005005,1.4724832773208618
1667266056889062700,0.646062744140625,9.430413246154785,1.568196177482605,1.4365909099578857
1667266056891460600,0.648460693359375,9.396913528442383,1.5466607809066772,1.4485549926757812
1667266056893858300,0.6508583984375,9.392127990722656,1.55623197555542,1.4724832773208618
1667266056896256300,0.65325634765625,9.375378608703613,1.55623197555542,1.470090389251709
1667266056898654000,0.655654052734375,9.392127990722656,1.5155540704727173,1.474876046180725
1667266056901052000,0.658052001953125,9.404091835021973,1.5035899877548218,1.5251253843307495
1667266056903449600,0.66044970703125,9.396913528442383,1.5083755254745483,1.5658032894134521
1667266056905847600,0.66284765625,9.404091835021973,1.5107684135437012,1.5825530290603638
1667266056908245200,0.665245361328125,9.430413246154785,1.5035899877548218,1.592124342918396
1667266056910643200,0.667643310546875,9.430413246154785,1.5155540704727173,1.6040884256362915
1667266056913041000,0.670041015625,9.432806015014648,1.505982756614685,1.6208382844924927
1667266056915438800,0.67243896484375,9.432806015014648,1.5227324962615967,1.6375880241394043
1667266056917836500,0.67483642578125,9.439984321594238,1.537089467048645,1.6304094791412354
1667266056920234500,0.677234375,9.437591552734375,1.55623197555542,1.6328023672103882
1667266056922632200,0.679632080078125,9.444769859313965,1.5586248636245728,1.6328023672103882
1667266056925030100,0.682030029296875,9.418449401855469,1.5538392066955566,1.659123420715332
1667266056927427800,0.684427734375,9.404091835021973,1.572981834411621,1.6639090776443481
1667266056929825800,0.68682568359375,9.392127990722656,1.599302887916565,1.6423736810684204
1667266056932223500,0.689223388671875,9.38734245300293,1.5849459171295166,1.628016710281372
1667266056934621400,0.691621337890625,9.38734245300293,1.5658032894134521,1.623231053352356
1667266056937019100,0.69401904296875,9.36341381072998,1.5873386859893799,1.6160526275634766
1667266056939417000,0.6964169921875,9.334700584411621,1.6208382844924927,1.596909999847412
1667266056941814800,0.698814697265625,9.322735786437988,1.6328023672103882,1.568196177482605
1667266056944212700,0.701212646484375,9.296415328979492,1.6567305326461792,1.532303810119629
1667266056946610400,0.7036103515625,9.294022560119629,1.651944875717163,1.4916257858276367
1667266056949008400,0.70600830078125,9.267701148986816,1.659123420715332,1.477268934249878
1667266056951406000,0.708406005859375,9.265308380126953,1.690230131149292,1.4413765668869019
1667266056953804000,0.710803955078125,9.265308380126953,1.7165511846542358,1.4294124841690063
1667266056956201700,0.71320166015625,9.272486686706543,1.7309080362319946,1.40279221534729
1667266056958599700,0.715599609375,9.28445053100586,1.7069798707962036,1.3884353637695312
1667266056960997400,0.717997314453125,9.291629791259766,1.6806588172912598,1.3836497068405151
1667266056963395300,0.720395263671875,9.286844253540039,1.695015788078308,1.4294124841690063
1667266056965793000,0.72279296875,9.28445053100586,1.6854444742202759,1.4318052530288696
1667266056968191000,0.72519091796875,9.294022560119629,1.6710875034332275,1.4557334184646606
1667266056970588700,0.727588623046875,9.305986404418945,1.6495521068572998,1.4653047323226929
1667266056972986600,0.729986572265625,9.332307815551758,1.6351951360702515,1.4724832773208618
1667266056975384300,0.73238427734375,9.346664428710938,1.628016710281372,1.4988043308258057
1667266056977782300,0.7347822265625,9.382556915283203,1.6328023672103882,1.4988043308258057
1667266056980180000,0.737179931640625,9.399306297302246,1.6304094791412354,1.505982756614685
1667266056982578000,0.739577880859375,9.416056632995605,1.6160526275634766,1.4844473600387573
1667266056984975600,0.7419755859375,9.46630573272705,1.5825530290603638,1.470090389251709
1667266056987373600,0.74437353515625,9.490233421325684,1.6112669706344604,1.477268934249878
1667266056989771300,0.746771240234375,9.506983757019043,1.6256239414215088,1.477268934249878
1667266056992169200,0.749169189453125,9.52612590789795,1.6256239414215088,1.4844473600387573
1667266056994567000,0.75156689453125,9.59791088104248,1.5801602602005005,1.4676976203918457
1667266056996964900,0.75396484375,9.62901782989502,1.561017632484436,1.4676976203918457
1667266056999362600,0.756362548828125,9.638588905334473,1.5634105205535889,1.4485549926757812
1667266057001760500,0.758760498046875,9.672088623046875,1.5394822359085083,1.415055513381958
1667266057004158200,0.761158203125,9.700801849365234,1.5035899877548218,1.4003994464874268
1667266057006556200,0.76355615234375,9.700801849365234,1.477268934249878,1.4174482822418213
1667266057008953900,0.765953857421875,9.710372924804688,1.501197099685669,1.4820544719696045
1667266057011351800,0.768351806640625,9.693623542785645,1.5107684135437012,1.532303810119629
1667266057013749500,0.77074951171875,9.698409080505371,1.5107684135437012,1.5705889463424683
1667266057016147500,0.7731474609375,9.698409080505371,1.4988043308258057,1.5705889463424683
1667266057018545200,0.775545166015625,9.719944953918457,1.4844473600387573,1.596909999847412
1667266057020943000,0.777943115234375,9.700801849365234,1.4892330169677734,1.6208382844924927
1667266057023340800,0.7803408203125,9.717552185058594,1.4964114427566528,1.623231053352356
1667266057025738800,0.78273876953125,9.76062297821045,1.501197099685669,1.6064813137054443
1667266057028136400,0.785136474609375,9.767801284790039,1.5179468393325806,1.596909999847412
1667266057030534400,0.787534423828125,9.774979591369629,1.505982756614685,1.6040884256362915
1667266057032932000,0.78993212890625,9.7366943359375,1.4988043308258057,1.6112669706344604
1667266057035330000,0.792330078125,9.688838005065918,1.4940186738967896,1.6615161895751953
1667266057037727700,0.794727783203125,9.660123825073242,1.4605190753936768,1.7572290897369385
1667266057040125700,0.797125732421875,9.624231338500977,1.4724832773208618,1.8290138244628906
1667266057042523400,0.7995234375,9.624231338500977,1.4724832773208618,1.872084617614746
1667266057044921300,0.80192138671875,9.621838569641113,1.474876046180725,1.8792630434036255
1667266057047319000,0.804319091796875,9.609874725341797,1.501197099685669,1.8696918487548828
1667266057049717000,0.806717041015625,9.59073257446289,1.537089467048645,1.8529419898986816
1667266057052114700,0.80911474609375,9.593125343322754,1.5801602602005005,1.8385851383209229
1667266057054512600,0.8115126953125,9.573982238769531,1.5873386859893799,1.8170497417449951
1667266057056910300,0.813910400390625,9.607481956481934,1.596909999847412,1.807478427886963
1667266057059308300,0.816308349609375,9.602696418762207,1.6112669706344604,1.8146568536758423
1667266057061706000,0.8187060546875,9.626625061035156,1.592124342918396,1.8218353986740112
1667266057064104000,0.82110400390625,9.633803367614746,1.6064813137054443,1.807478427886963
1667266057066501600,0.823501708984375,9.621838569641113,1.6064813137054443,1.8242281675338745
1667266057068899600,0.825899658203125,9.624231338500977,1.592124342918396,1.8529419898986816
1667266057071297300,0.82829736328125,9.631410598754883,1.6256239414215088,1.8577276468276978
1667266057073695200,0.8306953125,9.61226749420166,1.6399807929992676,1.8601205348968506
1667266057076093000,0.833093017578125,9.59073257446289,1.6328023672103882,1.8601205348968506
1667266057078491000,0.835490966796875,9.559625625610352,1.6615161895751953,1.8768702745437622
1667266057080888600,0.837888671875,9.533304214477539,1.6567305326461792,1.8625133037567139
1667266057083286500,0.84028662109375,9.509376525878906,1.654337763786316,1.8577276468276978
1667266057085684200,0.842684326171875,9.475876808166504,1.654337763786316,1.8625133037567139
1667266057088082200,0.845082275390625,9.456734657287598,1.6734803915023804,1.8385851383209229
1667266057090479900,0.84747998046875,9.430413246154785,1.6710875034332275,1.8409779071807861
1667266057092877800,0.8498779296875,9.411270141601562,1.6734803915023804,1.8266209363937378
1667266057095275500,0.852275634765625,9.38734245300293,1.6447664499282837,1.8409779071807861
1667266057097673500,0.854673583984375,9.346664428710938,1.6471593379974365,1.843370795249939
1667266057100071200,0.8570712890625,9.317950248718262,1.6112669706344604,1.8290138244628906
1667266057102469000,0.85946923828125,9.303593635559082,1.596909999847412,1.80508553981781
1667266057104866800,0.86186669921875,9.286844253540039,1.561017632484436,1.7955143451690674
1667266057107264800,0.8642646484375,9.301200866699219,1.5514464378356934,1.7691932916641235
1667266057109662500,0.866662353515625,9.27727222442627,1.5442678928375244,1.750050663948059
1667266057112060400,0.869060302734375,9.279664993286133,1.5394822359085083,1.7309080362319946
1667266057114458000,0.8714580078125,9.267701148986816,1.5155540704727173,1.7069798707962036
1667266057116856000,0.87385595703125,9.27727222442627,1.4940186738967896,1.6806588172912598
1667266057119253800,0.876253662109375,9.286844253540039,1.4940186738967896,1.6351951360702515
1667266057121651700,0.878651611328125,9.310771942138672,1.4844473600387573,1.6064813137054443
1667266057124049400,0.88104931640625,9.308379173278809,1.477268934249878,1.599302887916565
1667266057126447400,0.883447265625,9.332307815551758,1.470090389251709,1.568196177482605
1667266057128845000,0.885844970703125,9.346664428710938,1.450947880744934,1.5490535497665405
1667266057131243000,0.888242919921875,9.37059211730957,1.4605190753936768,1.5394822359085083
1667266057133640700,0.890640625,9.361021041870117,1.434198021888733,1.5490535497665405
1667266057136038700,0.89303857421875,9.38016414642334,1.407876968383789,1.5490535497665405
1667266057138436400,0.895436279296875,9.418449401855469,1.3836497068405151,1.55623197555542
1667266057140834300,0.897834228515625,9.430413246154785,1.378864049911499,1.572981834411621
1667266057143232000,0.90023193359375,9.461520195007324,1.378864049911499,1.572981834411621
1667266057145630000,0.9026298828125,9.468698501586914,1.378864049911499,1.5777673721313477
1667266057148027600,0.905027587890625,9.48784065246582,1.3525429964065552,1.5849459171295166
1667266057150425600,0.907425537109375,9.509376525878906,1.3621143102645874,1.5825530290603638
1667266057152823300,0.9098232421875,9.506983757019043,1.3884353637695312,1.5897315740585327
1667266057155221200,0.91222119140625,9.528518676757812,1.378864049911499,1.6064813137054443
1667266057157619000,0.914618896484375,9.535696983337402,1.3764712810516357,1.6375880241394043
1667266057160017000,0.917016845703125,9.547661781311035,1.3573286533355713,1.651944875717163
1667266057162414600,0.91941455078125,9.535696983337402,1.3453645706176758,1.6495521068572998
1667266057164812500,0.9218125,9.535696983337402,1.3262219429016113,1.651944875717163
1667266057167210200,0.924210205078125,9.538089752197266,1.3094722032546997,1.659123420715332
1667266057169608200,0.926608154296875,9.521340370178223,1.2831511497497559,1.6686947345733643
1667266057172006000,0.929005859375,9.521340370178223,1.287936806678772,1.6854444742202759
1667266057174403800,0.93140380859375,9.51176929473877,1.280758261680603,1.678265929222107
1667266057176801500,0.933801513671875,9.497411727905273,1.292722463607788,1.6399807929992676
1667266057179199500,0.936199462890625,9.478269577026367,1.2831511497497559,1.651944875717163
1667266057181597200,0.93859716796875,9.471091270446777,1.2711870670318604,1.6639090776443481
1667266057183995100,0.9409951171875,9.475876808166504,1.2592228651046753,1.6399807929992676
1667266057186392800,0.943392822265625,9.444769859313965,1.2472587823867798,1.6136597394943237
1667266057188790800,0.945790771484375,9.420842170715332,1.2305090427398682,1.623231053352356
1667266057191188500,0.9481884765625,9.456734657287598,1.2305090427398682,1.6040884256362915
1667266057193586400,0.95058642578125,9.461520195007324,1.2472587823867798,1.6399807929992676
1667266057195984100,0.952984130859375,9.471091270446777,1.2735798358917236,1.6351951360702515
1667266057198382000,0.955382080078125,9.468698501586914,1.3022937774658203,1.6399807929992676
1667266057200779800,0.95777978515625,9.47348403930664,1.2975081205368042,1.6064813137054443
1667266057203177700,0.960177734375,9.49501895904541,1.2951152324676514,1.6136597394943237
1667266057205575400,0.962575439453125,9.48066234588623,1.3262219429016113,1.6304094791412354
1667266057207973400,0.964973388671875,9.444769859313965,1.3668999671936035,1.6639090776443481
1667266057210371000,0.96737109375,9.454340934753418,1.3908281326293945,1.6615161895751953
1667266057212769000,0.96976904296875,9.471091270446777,1.415055513381958,1.6495521068572998
1667266057215166700,0.972166748046875,9.449555397033691,1.4246268272399902,1.6639090776443481
1667266057217564700,0.974564697265625,9.442377090454102,1.4054841995239258,1.6615161895751953
1667266057219962400,0.97696240234375,9.449555397033691,1.410269856452942,1.6758731603622437
1667266057222360300,0.9793603515625,9.411270141601562,1.4533406496047974,1.7117655277252197
1667266057224758000,0.981758056640625,9.389735221862793,1.446162223815918,1.690230131149292
1667266057227156000,0.984156005859375,9.382556915283203,1.4270195960998535,1.695015788078308
1667266057229553700,0.9865537109375,9.36341381072998,1.4318052530288696,1.695015788078308
1667266057231951600,0.98895166015625,9.365806579589844,1.4126626253128052,1.6806588172912598
1667266057234349300,0.991349365234375,9.375378608703613,1.3932210206985474,1.651944875717163
1667266057236747300,0.993747314453125,9.39452075958252,1.3932210206985474,1.6328023672103882
1667266057239145200,0.996145263671875,9.396913528442383,1.3764712810516357,1.6184453964233398
1667266057241543000,0.99854296875,9.4088773727417,1.3764712810516357,1.596909999847412
1667266057243940600,1.000940673828125,9.420842170715332,1.3812568187713623,1.5945172309875488
1667266057246338600,1.003338623046875,9.413662910461426,1.3764712810516357,1.6184453964233398
1667266057248736500,1.005736572265625,9.406484603881836,1.3812568187713623,1.6328023672103882
1667266057251134200,1.00813427734375,9.418449401855469,1.3812568187713623,1.6639090776443481
1667266057253532000,1.010531982421875,9.411270141601562,1.3812568187713623,1.6734803915023804
1667266057255929900,1.012929931640625,9.406484603881836,1.3836497068405151,1.7021942138671875
1667266057258327600,1.01532763671875,9.404091835021973,1.3764712810516357,1.7117655277252197
1667266057260725500,1.0177255859375,9.399306297302246,1.4126626253128052,1.7189439535140991
1667266057263123200,1.020123291015625,9.389735221862793,1.4437693357467651,1.7380865812301636
1667266057265521200,1.022521240234375,9.392127990722656,1.450947880744934,1.7428722381591797
1667266057267919000,1.024919189453125,9.40169906616211,1.4653047323226929,1.7691932916641235
1667266057270316800,1.02731689453125,9.404091835021973,1.4629119634628296,1.77397882938385
1667266057272714500,1.029714599609375,9.435198783874512,1.4676976203918457,1.7883358001708984
1667266057275112400,1.032112548828125,9.439984321594238,1.4318052530288696,1.7835501432418823
1667266057277510400,1.034510498046875,9.439984321594238,1.4270195960998535,1.8026927709579468
1667266057279908000,1.036908203125,9.447162628173828,1.3980066776275635,1.807478427886963
1667266057282306000,1.03930615234375,9.435198783874512,1.3668999671936035,1.831406593322754
1667266057284703700,1.041703857421875,9.406484603881836,1.3525429964065552,1.8601205348968506
1667266057287101700,1.044101806640625,9.40169906616211,1.3334003686904907,1.8696918487548828
1667266057289499400,1.04649951171875,9.406484603881836,1.2999008893966675,1.8816559314727783
1667266057291897300,1.0488974609375,9.4088773727417,1.2448660135269165,1.8744773864746094
1667266057294295000,1.051294921875,9.389735221862793,1.2376874685287476,1.8625133037567139
1667266057296693000,1.05369287109375,9.375378608703613,1.2496516704559326,1.872084617614746
1667266057299090700,1.056090576171875,9.37059211730957,1.2496516704559326,1.8649061918258667
1667266057301488600,1.058488525390625,9.384949684143066,1.2424731254577637,1.8457635641098022
1667266057303886300,1.06088623046875,9.399306297302246,1.2281162738800049,1.8577276468276978
1667266057306284300,1.0632841796875,9.392127990722656,1.2233306169509888,1.9151554107666016
1667266057308682000,1.065681884765625,9.4088773727417,1.225723385810852,1.9992033243179321
1667266057311080000,1.068079833984375,9.4088773727417,1.225723385810852,2.0374884605407715
1667266057313477600,1.0704775390625,9.413662910461426,1.2352946996688843,2.035095691680908
1667266057315875600,1.07287548828125,9.428020477294922,1.2759727239608765,2.0159530639648438
1667266057318273300,1.075273193359375,9.454340934753418,1.292722463607788,2.011167526245117
1667266057320671200,1.077671142578125,9.506983757019043,1.323829174041748,2.0039889812469482
1667266057323069000,1.08006884765625,9.535696983337402,1.342971682548523,2.001596212387085
1667266057325467000,1.082466796875,9.530911445617676,1.374078392982483,1.9920248985290527
1667266057327864600,1.084864501953125,9.533304214477539,1.3884353637695312,1.994417667388916
1667266057330262500,1.087262451171875,9.538089752197266,1.3980066776275635,1.9824535846710205
1667266057332660200,1.08966015625,9.557232856750488,1.446162223815918,1.9752750396728516
1667266057335058200,1.09205810546875,9.585947036743164,1.4653047323226929,1.9680966138839722
1667266057337455900,1.094455810546875,9.602696418762207,1.4724832773208618,1.9486548900604248
1667266057339853800,1.096853759765625,9.61226749420166,1.4820544719696045,1.9438693523406982
1667266057342251500,1.09925146484375,9.59073257446289,1.5035899877548218,1.9319051504135132
1667266057344649500,1.1016494140625,9.595518112182617,1.5203397274017334,1.9366908073425293
1667266057347047200,1.104047119140625,9.578767776489258,1.5346965789794922,1.9414764642715454
1667266057349445000,1.106445068359375,9.545269012451172,1.5251253843307495,1.927119493484497
1667266057351842800,1.1088427734375,9.51176929473877,1.529910922050476,1.9657038450241089
1667266057354240800,1.11124072265625,9.490233421325684,1.4964114427566528,1.9848463535308838
1667266057356638500,1.113638427734375,9.47348403930664,1.4844473600387573,2.0470597743988037
1667266057359036400,1.116036376953125,9.435198783874512,1.4485549926757812,2.1092731952667236
1667266057361434000,1.11843408203125,9.389735221862793,1.4174482822418213,2.166700839996338
1667266057363832000,1.12083203125,9.358628273010254,1.40279221534729,2.2121646404266357
1667266057366229800,1.123229736328125,9.353842735290527,1.3884353637695312,2.2337000370025635
1667266057368627700,1.125627685546875,9.346664428710938,1.3836497068405151,2.2265214920043945
1667266057371025400,1.128025390625,9.346664428710938,1.3836497068405151,2.2241287231445312
1667266057373423400,1.13042333984375,9.35623550415039,1.3812568187713623,2.2265214920043945
1667266057375821000,1.132821044921875,9.37059211730957,1.374078392982483,2.231307029724121
1667266057378219000,1.135218994140625,9.40169906616211,1.3621143102645874,2.228914260864258
1667266057380616700,1.13761669921875,9.411270141601562,1.3621143102645874,2.23848557472229
1667266057383014700,1.1400146484375,9.435198783874512,1.3453645706176758,2.252842426300049
1667266057385412400,1.142412353515625,9.478269577026367,1.3142578601837158,2.2719850540161133
1667266057387810300,1.144810302734375,9.542876243591309,1.280758261680603,2.245664119720459
1667266057390208000,1.1472080078125,9.595518112182617,1.2664014101028442,2.2265214920043945
1667266057392606000,1.14960595703125,9.667302131652832,1.2424731254577637,2.200200319290161
1667266057395003600,1.152003662109375,9.7366943359375,1.2448660135269165,2.20737886428833
1667266057397401600,1.154401611328125,9.779765129089355,1.2424731254577637,2.2025933265686035
1667266057399799300,1.15679931640625,9.791728973388672,1.2329018115997314,2.228914260864258
1667266057402197200,1.159197265625,9.786943435668945,1.201795220375061,2.228914260864258
1667266057404595000,1.161594970703125,9.801301002502441,1.1826525926589966,2.20737886428833
1667266057406993000,1.163992919921875,9.825528144836426,1.1826525926589966,2.228914260864258
1667266057409390600,1.166390625,9.837491989135742,1.1874382495880127,2.2265214920043945
1667266057411788500,1.16878857421875,9.832706451416016,1.2041879892349243,2.2265214920043945
1667266057414186200,1.171186279296875,9.837491989135742,1.2400803565979004,2.2432711124420166
1667266057416584200,1.173584228515625,9.844670295715332,1.2711870670318604,2.2671995162963867
1667266057418982100,1.175982177734375,9.844670295715332,1.3357932567596436,2.3126630783081055
1667266057421379800,1.1783798828125,9.866206169128418,1.3549357652664185,2.389233350753784
1667266057423777500,1.180777587890625,9.868598937988281,1.410269856452942,2.480160713195801
1667266057426175500,1.183175537109375,9.856635093688965,1.450947880744934,2.5713870525360107
1667266057428573400,1.185573486328125,9.837491989135742,1.5131611824035645,2.6479573249816895
1667266057430971100,1.18797119140625,9.801301002502441,1.5849459171295166,2.7652056217193604
1667266057433368800,1.190368896484375,9.765408515930176,1.6663018465042114,2.903989315032959
1667266057435766800,1.192766845703125,9.71515941619873,1.7835501432418823,2.999702215194702
1667266057438164700,1.195164794921875,9.63619613647461,1.872084617614746,3.0957143306732178
1667266057440562400,1.1975625,9.545269012451172,1.9680966138839722,3.193819999694824
1667266057442960100,1.199960205078125,9.459127426147461,2.0446670055389404,3.248854875564575
1667266057445358000,1.202358154296875,9.375378608703613,2.1068804264068604,3.2416765689849854
1667266057447756000,1.204756103515625,9.260522842407227,2.149951219558716,3.246462106704712
1667266057450153700,1.20715380859375,9.128618240356445,2.2241287231445312,3.3780672550201416
1667266057452551400,1.209551513671875,8.970691680908203,2.3126630783081055,3.64127779006958
1667266057454949400,1.211949462890625,8.8438720703125,2.3365912437438965,3.6942191123962402
1667266057457347300,1.214347412109375,8.70508861541748,2.3150558471679688,3.6293137073516846
1667266057459745000,1.2167451171875,8.575576782226562,2.3030917644500732,3.552743434906006
1667266057462143000,1.21914306640625,8.453543663024902,2.2719850540161133,3.483351469039917
1667266057464540700,1.221540771484375,8.353044509887695,2.2432711124420166,3.4163525104522705
1667266057466938600,1.223938720703125,8.276473999023438,2.2169501781463623,3.3134610652923584
1667266057469336300,1.22633642578125,8.274081230163574,2.159522533416748,3.224926710128784
1667266057471734300,1.228734375,8.324331283569336,2.1092731952667236,3.1268210411071777
1667266057474132000,1.231132080078125,8.410472869873047,2.0470597743988037,3.037987470626831
1667266057476530000,1.233530029296875,8.477471351623535,2.011167526245117,2.9709885120391846
1667266057478927600,1.235927734375,8.56600570678711,1.9824535846710205,2.913560628890991
1667266057481325600,1.23832568359375,8.654540061950684,1.9462621212005615,2.7963123321533203
1667266057483723300,1.24072314453125,8.752944946289062,1.9127626419067383,2.669492721557617
1667266057486121200,1.243121337890625,8.86062240600586,1.9151554107666016,2.5474588871002197
1667266057488519000,1.245518798828125,9.004191398620605,1.9175482988357544,2.39401912689209
1667266057490916900,1.247916748046875,9.154939651489258,1.9438693523406982,2.190629243850708
1667266057493314600,1.250314453125,9.313164710998535,2.0135602951049805,1.9103697538375854
1667266057495712500,1.25271240234375,9.48066234588623,2.0781664848327637,1.6088740825653076
1667266057498110200,1.255110107421875,9.640981674194336,2.0829520225524902,1.311864972114563
1667266057500508200,1.257508056640625,9.784550666809082,2.0925233364105225,1.0079765319824219
1667266057502905900,1.25990576171875,9.911669731140137,2.0542383193969727,0.7157530784606934
1667266057505303800,1.2623037109375,9.976275444030762,1.9920248985290527,0.49322056770324707
1667266057507701500,1.264701416015625,10.05284595489502,1.9103697538375854,0.30658039450645447
1667266057510099500,1.267099365234375,10.122238159179688,1.8194425106048584,0.14117653667926788
1667266057512497200,1.2694970703125,10.150951385498047,1.678265929222107,-0.0023928226437419653
1667266057514895000,1.27189501953125,10.095916748046875,1.5346965789794922,-0.064606212079525
1667266057517292800,1.274292724609375,10.036096572875977,1.3621143102645874,-0.09810572862625122
1667266057519690800,1.276690673828125,9.966704368591309,1.2041879892349243,-0.09810572862625122
1667266057522088400,1.27908837890625,9.909276962280273,1.0654042959213257,-0.08614161610603333
1667266057524486400,1.281486328125,9.830313682556152,0.9433703422546387,-0.07417750358581543
1667266057526884000,1.283884033203125,9.72951602935791,0.8162516355514526,-0.064606212079525
1667266057529282000,1.286281982421875,9.595518112182617,0.734895646572113,-0.0526420995593071
1667266057531679700,1.2886796875,9.439984321594238,0.675075113773346,-0.0023928226437419653
1667266057534077700,1.29107763671875,9.265308380126953,0.6248258352279663,0.0933200865983963
1667266057536475400,1.293475341796875,9.095118522644043,0.5841478109359741,0.16510476171970367
1667266057538873300,1.295873291015625,8.941978454589844,0.6008976101875305,0.2225325107574463
1667266057541271000,1.29827099609375,8.788837432861328,0.6296114325523376,0.2560320198535919
1667266057543669000,1.3006689453125,8.678468704223633,0.6655037999153137,0.2799602448940277
1667266057546066700,1.303066650390625,8.568398475646973,0.7444669604301453,0.2560320198535919
1667266057548464600,1.305464599609375,8.472685813903809,0.8377870321273804,0.2679961323738098
1667266057550862300,1.3078623046875,8.4200439453125,0.9194421172142029,0.2225325107574463
1667266057553260300,1.31026025390625,8.410472869873047,0.9960124492645264,0.14117653667926788
1667266057555658200,1.312658203125,8.376973152160645,1.1108678579330444,0.09092725813388824
1667266057558056000,1.315055908203125,8.362615585327148,1.1874382495880127,0.031106693670153618
1667266057560453600,1.31745361328125,8.345866203308105,1.3022937774658203,0.009571290574967861
1667266057562851600,1.3198515625,8.353044509887695,1.3860424757003784,-0.04546362906694412
1667266057565249500,1.32224951171875,8.365009307861328,1.4940186738967896,-0.0933200865983963
1667266057567647200,1.324647216796875,8.336295127868652,1.6064813137054443,-0.09092725813388824
1667266057570045000,1.327044921875,8.324331283569336,1.7404793500900269,-0.10767702013254166
1667266057572443000,1.32944287109375,8.264510154724121,1.8936200141906738,-0.07657032459974289
1667266057574840800,1.3318408203125,8.175975799560547,1.9992033243179321,0.04546362906694412
1667266057577238500,1.334238525390625,8.070392608642578,2.0398812294006348,0.2225325107574463
1667266057579636200,1.33663623046875,7.974679470062256,2.056631088256836,0.38793638348579407
1667266057582034200,1.3390341796875,7.826324462890625,2.059023857116699,0.5913262963294983
1667266057584432000,1.34143212890625,7.71386194229126,2.0470597743988037,0.8186444640159607
1667266057586829800,1.343829833984375,7.596613883972168,2.0279171466827393,1.0510473251342773
1667266057589227800,1.346227783203125,7.443173885345459,2.018345832824707,1.3046865463256836
1667266057591625500,1.34862548828125,7.349853992462158,2.0063817501068115,1.5825530290603638
1667266057594023400,1.3510234375,7.3522467613220215,1.9872392416000366,1.7333009243011475
1667266057596421000,1.353421142578125,7.3283185958862305,1.9872392416000366,1.9151554107666016
1667266057598819000,1.355819091796875,7.385746002197266,1.9752750396728516,2.056631088256836
1667266057601216800,1.358216796875,7.514958381652832,1.953440546989441,2.1379871368408203
1667266057603614700,1.36061474609375,7.6636128425598145,1.970489501953125,2.221735715866089
1667266057606012400,1.363012451171875,7.895716667175293,1.9175482988357544,2.2576282024383545
1667266057608410400,1.365410400390625,8.12542724609375,1.89840567111969,2.255235433578491
1667266057610808000,1.36780810546875,8.343473434448242,1.8744773864746094,2.341377019882202
1667266057613206000,1.3702060546875,8.618648529052734,1.781157374382019,2.3605196475982666
1667266057615603700,1.372603759765625,8.894122123718262,1.6998014450073242,2.372483730316162
1667266057618001700,1.375001708984375,9.181260108947754,1.6040884256362915,2.3820550441741943
1667266057620399400,1.3773994140625,9.439984321594238,1.4796617031097412,2.410768747329712
1667266057622797300,1.37979736328125,9.755837440490723,1.342971682548523,2.5785655975341797
1667266057625195000,1.382195068359375,10.088738441467285,1.1156535148620605,2.9063823223114014
1667266057627593000,1.384593017578125,10.438389778137207,0.9433703422546387,3.10528564453125
1667266057629990700,1.38699072265625,10.766206741333008,0.8377870321273804,3.1387851238250732
1667266057632388600,1.389388671875,11.089536666870117,0.8114659786224365,3.19860577583313
1667266057634786300,1.391786376953125,11.47956657409668,0.7540382146835327,3.3373894691467285
1667266057637184300,1.394184326171875,11.822039604187012,0.701396107673645,3.490530014038086
1667266057639582000,1.39658203125,12.241082191467285,0.5171487927436829,3.9622151851654053
1667266057641980000,1.39897998046875,12.54018497467041,0.36640095710754395,4.338187217712402
1667266057644377600,1.401377685546875,12.765409469604492,0.2392822653055191,4.615755081176758
1667266057646775600,1.403775634765625,12.961621284484863,0.1698904037475586,4.713860511779785
1667266057649173200,1.40617333984375,13.121940612792969,0.15314064919948578,4.694717884063721
1667266057651571200,1.4085712890625,13.196416854858398,0.12442677468061447,4.644468784332275
1667266057653969000,1.410968994140625,13.241880416870117,0.09571290761232376,4.620540618896484
1667266057656366800,1.413366943359375,13.201202392578125,-0.031106693670153618,4.677968502044678
1667266057658764500,1.4157646484375,13.100404739379883,-0.20099709928035736,4.781158924102783
1667266057661162500,1.41816259765625,12.806087493896484,-0.2946162819862366,4.685146808624268
1667266057663560200,1.420560302734375,12.492328643798828,-0.31854450702667236,4.46979284286499
1667266057665958100,1.422958251953125,12.121440887451172,-0.34247273206710815,4.285545349121094
1667266057668355800,1.42535595703125,11.721540451049805,-0.39032918214797974,4.069892406463623
1667266057670753800,1.42775390625,11.240283966064453,-0.4334000051021576,3.8162529468536377
1667266057673151500,1.4301513671875,10.71834945678711,-0.47168517112731934,3.6340994834899902
1667266057675549400,1.432549560546875,10.191629409790039,-0.5291129350662231,3.497708559036255
1667266057677947100,1.434947021484375,9.640981674194336,-0.5338985323905945,3.421138286590576
1667266057680345000,1.437344970703125,9.150154113769531,-0.5602195858955383,3.356531858444214
1667266057682742800,1.43974267578125,8.73619556427002,-0.5841478109359741,3.277568817138672
1667266057685140700,1.442140625,8.391329765319824,-0.6056832075119019,3.224926710128784
1667266057687538700,1.44453857421875,8.137690544128418,-0.6511468887329102,3.2416765689849854
1667266057689936400,1.446936279296875,7.981858253479004,-0.7229315638542175,3.256033420562744
1667266057692334000,1.449333984375,7.867002487182617,-0.8042874932289124,3.2584261894226074
1667266057694732000,1.45173193359375,7.850253105163574,-0.9194421172142029,3.224926710128784
1667266057697130000,1.4541298828125,7.8526458740234375,-1.0247262716293335,3.1866414546966553
1667266057699527700,1.456527587890625,7.907680511474609,-1.1419745683670044,3.1722846031188965
1667266057701925600,1.458925537109375,8.027321815490723,-1.2496516704559326,3.1627132892608643
1667266057704323300,1.4613232421875,8.175975799560547,-1.3597214221954346,3.0738797187805176
1667266057706721300,1.46372119140625,8.362615585327148,-1.5083755254745483,3.0499515533447266
1667266057709119000,1.466118896484375,8.575576782226562,-1.6663018465042114,3.0427730083465576
1667266057711517000,1.468516845703125,8.903693199157715,-1.8242281675338745,3.037987470626831
1667266057713914600,1.47091455078125,9.257830619812012,-1.9872392416000366,2.9709885120391846
1667266057716312600,1.4733125,9.617053031921387,-2.152343988418579,2.927917718887329
1667266057718710300,1.475710205078125,10.048060417175293,-2.2743778228759766,2.927917718887329
1667266057721108200,1.478108154296875,10.517353057861328,-2.341377019882202,2.9159533977508545
1667266057723506000,1.480505859375,10.977073669433594,-2.3916261196136475,2.8824539184570312
1667266057725904000,1.48290380859375,11.391032218933105,-2.3605196475982666,2.8441689014434814
1667266057728301600,1.485301513671875,11.733505249023438,-2.3054845333099365,2.8154549598693848
1667266057730699500,1.487699462890625,12.01346492767334,-2.166700839996338,2.8202404975891113
1667266057733097200,1.49009716796875,12.209976196289062,-2.0709879398345947,2.7819554805755615
1667266057735495200,1.4924951171875,12.257832527160645,-1.9606190919876099,2.7580273151397705
1667266057737892900,1.494892822265625,12.178869247436523,-1.7883358001708984,2.801098108291626
1667266057740290800,1.497290771484375,12.011072158813477,-1.6064813137054443,2.8226335048675537
1667266057742688500,1.4996884765625,11.762218475341797,-1.4246268272399902,2.7963123321533203
1667266057745086500,1.50208642578125,11.44845962524414,-1.2305090427398682,2.769991397857666
1667266057747484200,1.504484130859375,11.09910774230957,-1.0390832424163818,2.7436702251434326
1667266057749882000,1.506882080078125,10.715956687927246,-0.8524430394172668,2.729313373565674
1667266057752279800,1.50927978515625,10.351948738098145,-0.7037889361381531,2.6862425804138184
1667266057754677800,1.511677734375,9.959526062011719,-0.6248258352279663,2.6551358699798584
1667266057757075500,1.514075439453125,9.602696418762207,-0.5865406394004822,2.6551358699798584
1667266057759473400,1.516473388671875,9.3490571975708,-0.5769693851470947,2.590529680252075
1667266057761871000,1.51887109375,9.133403778076172,-0.6152545213699341,2.4849462509155273
1667266057764269000,1.52126904296875,9.018548965454102,-0.6535396575927734,2.389233350753784
1667266057766666800,1.523666748046875,9.035298347473145,-0.7181459069252014,2.181057929992676
1667266057769064700,1.526064697265625,9.114261627197266,-0.7731808423995972,1.9968105554580688
1667266057771462400,1.52846240234375,9.265308380126953,-0.8330013751983643,1.8026927709579468
1667266057773860400,1.5308603515625,9.406484603881836,-0.8979067206382751,1.599302887916565
1667266057776258000,1.533258056640625,9.566803932189941,-0.9457631707191467,1.450947880744934
1667266057778656000,1.535656005859375,9.75105094909668,-0.981655478477478,1.2951152324676514
1667266057781053700,1.5380537109375,10.016953468322754,-1.017547845840454,1.1419745683670044
1667266057783451600,1.54045166015625,10.194023132324219,-1.043868899345398,0.9888339638710022
1667266057785849300,1.542849365234375,10.354341506958008,-1.067797064781189,0.8401798605918884
1667266057788247300,1.545247314453125,10.526924133300781,-1.0534402132034302,0.6798607110977173
1667266057790645000,1.54764501953125,10.677672386169434,-1.0295119285583496,0.4668995141983032
1667266057793043000,1.55004296875,10.754241943359375,-0.9553344249725342,0.2826521694660187
1667266057795441000,1.55244091796875,10.837990760803223,-0.8835497498512268,0.11724831163883209
1667266057797838600,1.554838623046875,10.794919967651367,-0.8306085467338562,-0.035892341285943985
1667266057800236300,1.557236328125,10.806884765625,-0.7827520966529846,-0.02392822690308094
1667266057802634200,1.55963427734375,10.986644744873047,-0.7468597888946533,0.07896314561367035
1667266057805032200,1.5620322265625,10.943573951721191,-0.6918248534202576,0.13878370821475983
1667266057807430000,1.564429931640625,10.778170585632324,-0.6870391964912415,0.11485548317432404
1667266057809827600,1.56682763671875,10.58674430847168,-0.6990033388137817,0.18903298676013947
1667266057812225500,1.5692255859375,10.421640396118164,-0.7229315638542175,0.22971096634864807
1667266057814623500,1.57162353515625,10.299306869506836,-0.7540382146835327,0.30658039450645447
1667266057817021200,1.574021240234375,10.2418794631958,-0.7899305820465088,0.37118661403656006
1667266057819419100,1.576419189453125,10.268199920654297,-0.8330013751983643,0.46450668573379517
1667266057821816800,1.57881689453125,10.268199920654297,-0.8835497498512268,0.49322056770324707
1667266057824214800,1.58121484375,10.275378227233887,-0.9505487680435181,0.5530411601066589
1667266057826612500,1.583612548828125,10.275378227233887,-0.9960124492645264,0.6200401782989502
1667266057829010400,1.586010498046875,10.261021614074707,-1.0055837631225586,0.6391827464103699
1667266057831408000,1.588408203125,10.308877944946289,-0.9696913957595825,0.6487540602684021
1667266057833806000,1.59080615234375,10.388140678405762,-0.9074779748916626,0.6511468887329102
1667266057836203800,1.593203857421875,10.529316902160645,-0.8114659786224365,0.6272186636924744
1667266057838601700,1.595601806640625,10.636994361877441,-0.6655037999153137,0.612861692905426
1667266057840999400,1.59799951171875,10.71834945678711,-0.5027918815612793,0.643968403339386
1667266057843397400,1.6003974609375,10.778170585632324,-0.28983065485954285,0.7636095285415649
1667266057845795000,1.602795166015625,10.854741096496582,-0.0933200865983963,0.9385846853256226
1667266057848193000,1.605193115234375,10.919346809387207,0.12681959569454193,1.158724308013916
1667266057850590700,1.6075908203125,10.950753211975098,0.34247273206710815,1.378864049911499
1667266057852988700,1.60998876953125,10.948360443115234,0.5769693851470947,1.596909999847412
1667266057855386400,1.612386474609375,10.883454322814941,0.8162516355514526,1.812264084815979
1667266057857784300,1.614784423828125,10.773385047912598,1.079761266708374,1.9390836954116821
1667266057860182000,1.61718212890625,10.505388259887695,1.3836497068405151,1.9752750396728516
1667266057862580000,1.619580078125,10.412068367004395,1.678265929222107,2.0470597743988037
1667266057864977700,1.621977783203125,10.491031646728516,1.9752750396728516,2.1332013607025146
1667266057867375600,1.624375732421875,10.694421768188477,2.307877540588379,2.200200319290161
1667266057869773300,1.626773193359375,10.962717056274414,2.621636390686035,2.252842426300049
1667266057872171300,1.629171142578125,11.218749046325684,2.927917718887329,2.2791635990142822
1667266057874569000,1.63156884765625,11.414960861206055,3.208176851272583,2.26959228515625
1667266057876967000,1.633966796875,11.515758514404297,3.4378879070281982,2.200200319290161
1667266057879364600,1.636364501953125,11.542078971862793,3.6583266258239746,2.0709879398345947
1667266057881762600,1.638762451171875,11.436495780944824,3.8138601779937744,1.86729896068573
1667266057884160300,1.64116015625,11.211570739746094,3.921537160873413,1.5753746032714844
1667266057886558200,1.64355810546875,10.943573951721191,3.9622151851654053,1.201795220375061
1667266057888956000,1.645955810546875,10.622636795043945,3.959822416305542,0.7444669604301453
1667266057891353900,1.648353759765625,10.292128562927246,3.8832521438598633,0.24885354936122894
1667266057893751600,1.65075146484375,10.012167930603027,3.7277185916900635,-0.3233301639556885
1667266057896149500,1.6531494140625,9.796515464782715,3.4402806758880615,-0.9457631707191467
1667266057898547200,1.655547119140625,9.662516593933105,2.9853453636169434,-1.5873386859893799
1667266057900945200,1.657945068359375,9.667302131652832,2.6647071838378906,-2.0781664848327637
1667266057903342800,1.6603427734375,10.639387130737305,2.4634108543395996,-2.4562325477600098
1667266057905740800,1.66274072265625,11.762218475341797,2.1930220127105713,-2.872882604598999
1667266057908138500,1.665138427734375,12.523435592651367,1.8864415884017944,-3.2608189582824707
1667266057910536400,1.667536376953125,13.24427318572998,1.5634105205535889,-3.4402806758880615
1667266057912934100,1.66993408203125,13.835599899291992,1.2305090427398682,-3.5431721210479736
1667266057915332000,1.67233203125,14.57049560546875,0.9314061999320984,-3.9023945331573486
1667266057917730000,1.67472998046875,15.341282844543457,0.6702894568443298,-4.184747695922852
1667266057920127700,1.677127685546875,15.935002326965332,0.4166502356529236,-4.311866283416748
1667266057922525400,1.679525390625,16.334903717041016,0.13878370821475983,-4.244867324829102
1667266057924923400,1.68192333984375,16.54786491394043,-0.16510476171970367,-3.9478583335876465
1667266057927321300,1.6843212890625,16.655839920043945,-0.45254257321357727,-3.476173162460327
1667266057929719000,1.686718994140625,16.65105438232422,-0.8138588070869446,-2.8585257530212402
1667266057932116700,1.68911669921875,16.53111457824707,-1.201795220375061,-2.1882362365722656
1667266057934514700,1.6915146484375,16.32772445678711,-1.599302887916565,-1.5346965789794922
1667266057936912600,1.69391259765625,16.07887077331543,-2.0303099155426025,-0.9505487680435181
1667266057939310300,1.696310302734375,15.877574920654297,-2.4681966304779053,-0.4549354016780853
1667266057941708300,1.698708251953125,15.719648361206055,-2.8824539184570312,-0.1052841991186142
1667266057944106000,1.70110595703125,15.626328468322754,-3.2440693378448486,0.059820566326379776
1667266057946504000,1.70350390625,15.891931533813477,-3.4953157901763916,-0.03349951654672623
1667266057948901600,1.705901611328125,16.60798454284668,-3.6197423934936523,-0.43100717663764954
1667266057951299600,1.708299560546875,17.503198623657227,-3.617349624633789,-1.067797064781189
1667266057953697300,1.710697265625,18.389141082763672,-3.538386583328247,-1.7859430313110352
1667266057956095200,1.71309521484375,18.992431640625,-3.4474592208862305,-2.5833511352539062
1667266057958493000,1.715492919921875,19.320247650146484,-3.404388427734375,-3.2751760482788086
1667266057960891000,1.717890869140625,19.586151123046875,-3.4570305347442627,-3.79471755027771
1667266057963288600,1.72028857421875,19.818254470825195,-3.5647075176239014,-4.191926002502441
1667266057965686500,1.7226865234375,19.981266021728516,-3.73250412940979,-4.508078098297119
1667266057968084200,1.725084228515625,20.026729583740234,-3.9861433506011963,-4.788337230682373
1667266057970482200,1.727482177734375,20.0626220703125,-4.213760852813721,-5.06590461730957
1667266057972880000,1.7298798828125,20.155941009521484,-4.366901397705078,-5.238187789916992
1667266057975277800,1.73227783203125,20.258832931518555,-4.503292083740234,-5.360520839691162
1667266057977675500,1.734675537109375,20.347368240356445,-4.613361835479736,-5.422734260559082
1667266057980073500,1.737073486328125,20.467008590698242,-4.6540398597717285,-5.350949764251709
1667266057982471200,1.73947119140625,20.57498550415039,-4.694717884063721,-5.221437931060791
1667266057984869000,1.741869140625,20.685054779052734,-4.666004180908203,-4.953442096710205
1667266057987266800,1.744266845703125,20.795124053955078,-4.570291042327881,-4.543970108032227
1667266057989664800,1.746664794921875,20.92433738708496,-4.41475772857666,-4.0196428298950195
1667266057992062500,1.7490625,21.01287078857422,-4.280759811401367,-3.442673683166504
1667266057994460400,1.75146044921875,21.089740753173828,-4.110570430755615,-2.801098108291626
1667266057996858000,1.753858154296875,21.111276626586914,-3.9957146644592285,-2.1403799057006836
1667266057999256000,1.756256103515625,21.003299713134766,-3.8832521438598633,-1.4676976203918457
1667266058001653800,1.75865380859375,20.720947265625,-3.8066816329956055,-0.8018946647644043
1667266058004051700,1.7610517578125,20.349760055541992,-3.746861219406128,-0.20578274130821228
1667266058006449400,1.763449462890625,19.844575881958008,-3.7253258228302,0.3400799036026001
1667266058008847400,1.765847412109375,19.22453498840332,-3.691826343536377,0.8162516355514526
1667266058011245000,1.7682451171875,18.50878143310547,-3.7037904262542725,1.2041879892349243
1667266058013643000,1.77064306640625,17.699708938598633,-3.684647798538208,1.5179468393325806
1667266058016040700,1.773040771484375,16.835302352905273,-3.6655051708221436,1.7548363208770752
1667266058018438700,1.775438720703125,15.932609558105469,-3.6269209384918213,1.9175482988357544
1667266058020836400,1.77783642578125,15.046966552734375,-3.5407793521881104,2.0159530639648438
1667266058023234300,1.780234375,14.228022575378418,-3.4378879070281982,2.056631088256836
1667266058025632000,1.782632080078125,13.483555793762207,-3.277568817138672,2.042274236679077
1667266058028030000,1.785030029296875,12.822837829589844,-3.1100711822509766,1.958226203918457
1667266058030427600,1.787427734375,12.231511116027832,-2.9063823223114014,1.8337994813919067
1667266058032825600,1.78982568359375,11.695219993591309,-2.6790640354156494,1.651944875717163
1667266058035223600,1.7922236328125,11.22353458404541,-2.4562325477600098,1.4533406496047974
1667266058037621200,1.794621337890625,10.794919967651367,-2.283949136734009,1.2424731254577637
1667266058040019000,1.79701904296875,10.383355140686035,-2.135594129562378,1.1012966632843018
1667266058042417000,1.7994169921875,9.947562217712402,-2.063809633255005,0.9672985672950745
1667266058044814800,1.80181494140625,9.52612590789795,-2.0374884605407715,0.8883354067802429
1667266058047212500,1.804212646484375,9.056833267211914,-2.097309112548828,0.8763712644577026
1667266058049610200,1.8066103515625,8.616254806518555,-2.214557409286499,0.9050851464271545
1667266058052008200,1.80900830078125,8.207082748413086,-2.3748764991760254,0.9122636318206787
1667266058054406100,1.81140625,7.890930652618408,-2.540280342102051,0.9146564602851868
1667266058056803800,1.813803955078125,7.6253275871276855,-2.729313373565674,0.9146564602851868
1667266058059201800,1.816201904296875,7.673183917999268,-2.8752756118774414,0.893121063709259
1667266058061599500,1.818599609375,7.857431411743164,-3.0020952224731445,0.8955138921737671
1667266058063997400,1.82099755859375,7.974679470062256,-3.1244282722473145,0.9122636318206787
1667266058066395100,1.82339501953125,8.075178146362305,-3.2368907928466797,1.0055837631225586
1667266058068793000,1.82579296875,8.187939643859863,-3.303889751434326,1.1084750890731812
1667266058071190800,1.828190673828125,8.305188179016113,-3.4067811965942383,1.225723385810852
1667266058073588700,1.830588623046875,8.443971633911133,-3.497708559036255,1.3884353637695312
1667266058075986400,1.832986328125,8.518149375915527,-3.586242914199829,1.572981834411621
1667266058078384400,1.83538427734375,8.635397911071777,-3.691826343536377,1.7691932916641235
1667266058080782000,1.837781982421875,8.767302513122559,-3.811467409133911,1.9366908073425293
1667266058083180000,1.840179931640625,8.925228118896484,-3.897608995437622,2.0925233364105225
1667266058085577700,1.84257763671875,9.090332984924316,-4.007678985595703,2.245664119720459
1667266058087975700,1.8449755859375,9.245866775512695,-4.108177185058594,2.334198474884033
1667266058090373400,1.847373291015625,9.37059211730957,-4.189533233642578,2.4059832096099854
1667266058092771300,1.849771240234375,9.48784065246582,-4.295116424560547,2.489732027053833
1667266058095169000,1.8521689453125,9.60508918762207,-4.369294166564941,2.5474588871002197
1667266058097567000,1.85456689453125,9.712766647338867,-4.431507587432861,2.5785655975341797
1667266058099964700,1.856964599609375,9.818050384521484,-4.450650215148926,2.612065076828003
1667266058102362600,1.859362548828125,9.842277526855469,-4.503292083740234,2.612065076828003
1667266058104760300,1.86176025390625,9.923633575439453,-4.517649173736572,2.5713870525360107
1667266058107158300,1.864158203125,10.088738441467285,-4.543970108032227,2.533101797103882
1667266058109556000,1.866555908203125,10.304092407226562,-4.5391845703125,2.4777679443359375
1667266058111954000,1.868953857421875,10.569994926452637,-4.536791801452637,2.3700907230377197
1667266058114351600,1.8713515625,10.859526634216309,-4.524827480316162,2.245664119720459
1667266058116749600,1.87374951171875,11.111071586608887,-4.500899314880371,2.121237277984619
1667266058119147300,1.876147216796875,11.331212043762207,-4.493721008300781,2.0231316089630127
1667266058121545200,1.878545166015625,11.530115127563477,-4.498506546020508,1.89840567111969
1667266058123943000,1.88094287109375,11.688041687011719,-4.500899314880371,1.7620147466659546
1667266058126340900,1.8833408203125,11.783754348754883,-4.541577339172363,1.6399807929992676
1667266058128738600,1.885738525390625,11.807682037353516,-4.572684288024902,1.5035899877548218
1667266058131136500,1.888136474609375,11.790932655334473,-4.60857629776001,1.3836497068405151
1667266058133534200,1.8905341796875,11.709576606750488,-4.625326156616211,1.2999008893966675
1667266058135932200,1.89293212890625,11.644970893859863,-4.6301116943359375,1.220937728881836
1667266058138329900,1.895329833984375,11.55404281616211,-4.596612453460693,1.1443674564361572
1667266058140727800,1.897727783203125,11.462817192077637,-4.551148891448975,1.098903775215149
1667266058143125500,1.90012548828125,11.381461143493652,-4.479363918304443,1.0845468044281006
1667266058145523500,1.9025234375,11.328819274902344,-4.383651256561279,1.0917253494262695
1667266058147921200,1.904921142578125,11.331212043762207,-4.266402721405029,1.134796142578125
1667266058150319000,1.907319091796875,11.35513973236084,-4.124927043914795,1.2185449600219727
1667266058152716800,1.909716796875,11.388639450073242,-3.9622151851654053,1.3214362859725952
1667266058155114800,1.91211474609375,11.429317474365234,-3.8066816329956055,1.4533406496047974
1667266058157512400,1.914512451171875,11.462817192077637,-3.6559338569641113,1.6160526275634766
1667266058159910400,1.916910400390625,11.460424423217773,-3.497708559036255,1.8337994813919067
1667266058162308000,1.91930810546875,11.431710243225098,-3.373281717300415,2.0398812294006348
1667266058164706000,1.9217060546875,11.34796142578125,-3.253640651702881,2.262413740158081
1667266058167104000,1.92410400390625,11.23789119720459,-3.1651060581207275,2.482553482055664
1667266058169501700,1.926501708984375,11.089536666870117,-3.0667014122009277,2.693420886993408
1667266058171899400,1.9288994140625,10.90738296508789,-3.0116662979125977,2.8585257530212402
1667266058174297300,1.93129736328125,10.713563919067383,-2.95184588432312,2.9805595874786377
1667266058176695300,1.9336953125,10.491031646728516,-2.8824539184570312,3.088535785675049
1667266058179093000,1.936093017578125,10.268199920654297,-2.817847728729248,3.1651060581207275
1667266058181491000,1.938490966796875,10.009775161743164,-2.7963123321533203,3.1866414546966553
1667266058183888600,1.940888671875,9.75105094909668,-2.786741018295288,3.145963668823242
1667266058186286600,1.94328662109375,9.468698501586914,-2.784348249435425,3.0738797187805176
1667266058188684300,1.945684326171875,9.169296264648438,-2.786741018295288,2.973381280899048
1667266058191082200,1.948082275390625,8.877371788024902,-2.760420083999634,2.8226335048675537
1667266058193480000,1.95047998046875,8.56600570678711,-2.777169704437256,2.6647071838378906
1667266058195878000,1.9528779296875,8.233403205871582,-2.7819554805755615,2.480160713195801
1667266058198275600,1.955275634765625,7.9244303703308105,-2.7891337871551514,2.317448616027832
1667266058200673500,1.957673583984375,7.634898662567139,-2.7963123321533203,2.14516544342041
1667266058203071200,1.9600712890625,7.349853992462158,-2.8034908771514893,1.9920248985290527
1667266058205469200,1.96246923828125,7.105785846710205,-2.8226335048675537,1.8768702745437622
1667266058207867000,1.964866943359375,6.894918441772461,-2.8226335048675537,1.7548363208770752
1667266058210264800,1.967264892578125,6.7417778968811035,-2.8441689014434814,1.6710875034332275
1667266058212662500,1.96966259765625,6.655636310577393,-2.8585257530212402,1.5849459171295166
1667266058215060500,1.972060546875,6.62213659286499,-2.825026273727417,1.5107684135437012
1667266058217458200,1.974458251953125,6.634100914001465,-2.7987051010131836,1.4820544719696045
1667266058219856100,1.976856201171875,6.681957244873047,-2.7436702251434326,1.4629119634628296
1667266058222253800,1.97925390625,6.780063152313232,-2.7101707458496094,1.4724832773208618
1667266058224651800,1.98165185546875,6.8997039794921875,-2.659921407699585,1.5514464378356934
1667266058227049500,1.984049560546875,7.074679374694824,-2.5929224491119385,1.659123420715332
1667266058229447400,1.986447509765625,7.246962547302246,-2.5546371936798096,1.7787644863128662
1667266058231845000,1.98884521484375,7.443173885345459,-2.465803623199463,1.9079769849777222
1667266058234243000,1.9912431640625,7.610970497131348,-2.3772692680358887,2.073380708694458
1667266058236640800,1.993640869140625,7.780860900878906,-2.3150558471679688,2.2504496574401855
1667266058239038700,1.996038818359375,7.922037601470947,-2.228914260864258,2.4083759784698486
1667266058241436400,1.9984365234375,8.056035995483398,-2.1475582122802734,2.557030200958252
1667266058243834400,2.00083447265625,8.147261619567871,-2.0829520225524902,2.7029922008514404
1667266058246232000,2.003232177734375,8.235795974731445,-1.9968105554580688,2.8298118114471436
1667266058248630000,2.005630126953125,8.28126049041748,-1.9390836954116821,2.968595504760742
1667266058251027700,2.00802783203125,8.300402641296387,-1.8816559314727783,3.08345103263855
1667266058253425700,2.01042578125,8.283653259277344,-1.8409779071807861,3.200998544692993
1667266058255823400,2.0128232421875,8.245368003845215,-1.812264084815979,3.3278181552886963
1667266058258221300,2.01522119140625,8.168797492980957,-1.80508553981781,3.459423303604126
1667266058260619000,2.017618896484375,8.089534759521484,-1.831406593322754,3.5647075176239014
1667266058263017000,2.020016845703125,8.029714584350586,-1.8266209363937378,3.638885021209717
1667266058265414700,2.02241455078125,7.981858253479004,-1.8266209363937378,3.638885021209717
1667266058267812600,2.0248125,7.977072715759277,-1.831406593322754,3.61017107963562
1667266058270210300,2.027210205078125,7.996214866638184,-1.8457635641098022,3.675076484680176
1667266058272608300,2.029608154296875,8.027321815490723,-1.8744773864746094,3.7420754432678223
1667266058275006000,2.032005859375,8.065607070922852,-1.8888343572616577,3.770789384841919
1667266058277404000,2.03440380859375,8.10389232635498,-1.89840567111969,3.76361083984375
1667266058279801600,2.036801513671875,8.152048110961914,-1.8936200141906738,3.7540395259857178
1667266058282199600,2.039199462890625,8.231010437011719,-1.8816559314727783,3.6870405673980713
1667266058284597200,2.04159716796875,8.336295127868652,-1.8696918487548828,3.607778310775757
1667266058286995200,2.0439951171875,8.410472869873047,-1.8625133037567139,3.521636724472046
1667266058289393000,2.046392822265625,8.472685813903809,-1.8649061918258667,3.4235310554504395
1667266058291790800,2.048790771484375,8.530113220214844,-1.8553348779678345,3.3302109241485596
1667266058294188500,2.0511884765625,8.582756042480469,-1.83619225025177,3.263211965560913
1667266058296586500,2.05358642578125,8.575576782226562,-1.8266209363937378,3.193819999694824
1667266058298984200,2.055984130859375,8.561220169067383,-1.8242281675338745,3.1028928756713867
1667266058301382100,2.058382080078125,8.532505989074707,-1.8146568536758423,3.02123761177063
1667266058303779800,2.06077978515625,8.470293045043945,-1.8146568536758423,2.95902419090271
1667266058306177800,2.063177734375,8.43440055847168,-1.812264084815979,2.8896324634552
1667266058308575500,2.065575439453125,8.549256324768066,-1.7644076347351074,2.7963123321533203
1667266058310973400,2.067973388671875,8.518149375915527,-1.721336841583252,2.7125635147094727
1667266058313371400,2.070371337890625,8.400900840759277,-1.6878372430801392,2.6575286388397217
1667266058315769000,2.07276904296875,8.286046028137207,-1.6878372430801392,2.6072793006896973
1667266058318167000,2.0751669921875,8.185546875,-1.7021942138671875,2.542673110961914
1667266058320564700,2.077564697265625,8.089534759521484,-1.6926229000091553,2.4705893993377686
1667266058322962400,2.07996240234375,8.01057243347168,-1.695015788078308,2.4155545234680176
1667266058325360400,2.0823603515625,7.912466049194336,-1.690230131149292,2.3461625576019287
1667266058327758300,2.08475830078125,7.821538925170898,-1.6926229000091553,2.30069899559021
1667266058330156000,2.087156005859375,7.778468132019043,-1.6734803915023804,2.2480568885803223
1667266058332554000,2.089553955078125,7.7353973388671875,-1.654337763786316,2.190629243850708
1667266058334951700,2.09195166015625,7.7114691734313965,-1.6375880241394043,2.1643080711364746
1667266058337349600,2.094349609375,7.689933776855469,-1.5753746032714844,2.1619153022766113
1667266058339747300,2.096747314453125,7.6636128425598145,-1.5035899877548218,2.183450698852539
1667266058342145000,2.09914501953125,7.630113124847412,-1.434198021888733,2.204986095428467
1667266058344543000,2.10154296875,7.627720355987549,-1.350150227546692,2.2193429470062256
1667266058346941000,2.10394091796875,7.618149280548096,-1.2711870670318604,2.2504496574401855
1667266058349338600,2.106338623046875,7.5942206382751465,-1.197009563446045,2.3054845333099365
1667266058351736600,2.108736572265625,7.555636405944824,-1.1180464029312134,2.348555326461792
1667266058354134300,2.11113427734375,7.512565612792969,-1.0271191596984863,2.4083759784698486
1667266058356532200,2.1135322265625,7.495816230773926,-0.9385846853256226,2.4562325477600098
1667266058358930000,2.115929931640625,7.483851909637451,-0.859621524810791,2.4323041439056396
1667266058361327900,2.118327880859375,7.502994537353516,-0.8042874932289124,2.389233350753784
1667266058363725600,2.1207255859375,7.548458099365234,-0.7540382146835327,2.30069899559021
1667266058366123500,2.12312353515625,7.654041290283203,-0.6990033388137817,2.0542383193969727
1667266058368521200,2.125521240234375,7.780860900878906,-0.643968403339386,1.8649061918258667
1667266058370919200,2.127919189453125,7.95553731918335,-0.6224330067634583,1.654337763786316
1667266058373316900,2.13031689453125,8.087141990661621,-0.6296114325523376,1.3980066776275635
1667266058375714800,2.13271484375,8.204689979553223,-0.675075113773346,1.0941181182861328
1667266058378112500,2.135112548828125,8.259724617004395,-0.7851449251174927,0.7731808423995972
1667266058380510500,2.137510498046875,8.2788667678833,-0.924227774143219,0.5458626747131348
1667266058382908200,2.139908203125,8.20229721069336,-1.012762188911438,0.5195416212081909
1667266058385306000,2.14230615234375,8.065607070922852,-1.1132607460021973,0.5841478109359741
1667266058387703800,2.144703857421875,7.871788501739502,-1.2305090427398682,0.6702894568443298
1667266058390101800,2.147101806640625,7.689933776855469,-1.2999008893966675,0.7444669604301453
1667266058392499500,2.14949951171875,7.479066371917725,-1.374078392982483,0.8210372924804688
1667266058394897400,2.1518974609375,7.297211647033691,-1.4413765668869019,0.9170492887496948
1667266058397295000,2.154295166015625,7.132106781005859,-1.4988043308258057,1.0223335027694702
1667266058399693000,2.156693115234375,6.949953556060791,-1.5251253843307495,1.1276177167892456
1667266058402090800,2.1590908203125,6.772884368896484,-1.5394822359085083,1.2161520719528198
1667266058404488700,2.16148876953125,6.6149582862854,-1.537089467048645,1.2496516704559326
1667266058406886400,2.163886474609375,6.512066841125488,-1.537089467048645,1.2855439186096191
1667266058409284400,2.166284423828125,6.404090881347656,-1.532303810119629,1.3142578601837158
1667266058411682000,2.16868212890625,6.334698677062988,-1.4868401288986206,1.3310075998306274
1667266058414080000,2.171080078125,6.325127601623535,-1.4437693357467651,1.3812568187713623
1667266058416477700,2.173477783203125,6.349055767059326,-1.3836497068405151,1.3884353637695312
1667266058418875600,2.175875732421875,6.332305908203125,-1.3405789136886597,1.3070793151855469
1667266058421273300,2.1782734375,6.341877460479736,-1.2855439186096191,1.2376874685287476
1667266058423671300,2.18067138671875,6.361020088195801,-1.2711870670318604,1.1754741668701172
1667266058426069000,2.183069091796875,6.418447494506836,-1.197009563446045,1.1084750890731812
1667266058428467000,2.185467041015625,6.519245147705078,-1.1467602252960205,1.0534402132034302
1667266058430864600,2.18786474609375,6.612565517425537,-1.1108678579330444,1.0031908750534058
1667266058433262600,2.1902626953125,6.6939215660095215,-1.072582721710205,0.97926265001297
1667266058435660300,2.192660400390625,6.782455921173096,-1.012762188911438,0.9960124492645264
1667266058438058200,2.195058349609375,6.86381196975708,-0.9936196208000183,1.0199406147003174
1667266058440456000,2.1974560546875,6.973881721496582,-0.9696913957595825,1.0199406147003174
1667266058442854000,2.19985400390625,7.043572425842285,-0.9625129103660583,1.0079765319824219
1667266058445251600,2.20225146484375,7.086643218994141,-0.924227774143219,0.9912267923355103
1667266058447649500,2.2046494140625,7.139285564422607,-0.8979067206382751,0.9720842242240906
1667266058450047200,2.207047119140625,7.1488566398620605,-0.8859425783157349,0.9744769930839539
1667266058452445200,2.209445068359375,7.163213729858398,-0.859621524810791,0.9625129103660583
1667266058454843000,2.2118427734375,7.160820960998535,-0.8353942036628723,0.9361918568611145
1667266058457240800,2.21424072265625,7.153642177581787,-0.7731808423995972,0.8715856671333313
1667266058459638500,2.216638427734375,7.132106781005859,-0.7516453862190247,0.7947162389755249
1667266058462036500,2.219036376953125,7.086643218994141,-0.7133602499961853,0.7516453862190247
1667266058464434200,2.22143408203125,7.050751209259033,-0.6511468887329102,0.7540382146835327
1667266058466832100,2.22383203125,7.0097737312316895,-0.5985047817230225,0.766002357006073
1667266058469229800,2.226229736328125,6.949953556060791,-0.5554339289665222,0.7540382146835327
1667266058471627800,2.228627685546875,6.9236321449279785,-0.5099703073501587,0.7157530784606934
1667266058474025500,2.231025390625,6.928418159484863,-0.4501497745513916,0.6702894568443298
1667266058476423400,2.23342333984375,6.954739093780518,-0.38315072655677795,0.6391827464103699
1667266058478821000,2.235821044921875,7.017251491546631,-0.28983065485954285,0.610468864440918
1667266058481219000,2.238218994140625,7.089035987854004,-0.2225325107574463,0.6008976101875305
1667266058483616800,2.24061669921875,7.160820960998535,-0.16510476171970367,0.5865406394004822
1667266058486014700,2.2430146484375,7.249355316162109,-0.06939185410737991,0.5769693851470947
1667266058488412400,2.245412353515625,7.3283185958862305,-0.01196411345154047,0.6032904386520386
1667266058490810400,2.247810302734375,7.414460182189941,0.019142581149935722,0.6200401782989502
1667266058493208000,2.2502080078125,7.505387306213379,0.038285162299871445,0.6655037999153137
1667266058495606000,2.25260595703125,7.613363265991211,0.05024927482008934,0.7277171611785889
1667266058498004000,2.25500390625,7.723433494567871,0.004785645287483931,0.797109067440033
1667266058500401700,2.257401611328125,7.910073280334473,-0.035892341285943985,0.8835497498512268
1667266058502799400,2.25979931640625,8.108677864074707,-0.12442677468061447,0.9409775137901306
1667266058505197300,2.262197265625,8.314759254455566,-0.2392822653055191,1.0223335027694702
1667266058507595300,2.26459521484375,8.510971069335938,-0.3807578980922699,1.1539387702941895
1667266058509993000,2.266992919921875,8.678468704223633,-0.524327278137207,1.2592228651046753
1667266058512390700,2.269390625,8.82233715057373,-0.6822535395622253,1.3860424757003784
1667266058514788600,2.27178857421875,8.949156761169434,-0.8258228898048401,1.4892330169677734
1667266058517186600,2.2741865234375,9.047262191772461,-0.9840483069419861,1.572981834411621
1667266058519584300,2.276584228515625,9.119047164916992,-1.1563315391540527,1.6567305326461792
1667266058521982000,2.27898193359375,9.138189315795898,-1.319043517112732,1.745265007019043
1667266058524380000,2.2813798828125,9.131011009216309,-1.470090389251709,1.812264084815979
1667266058526777900,2.28377783203125,9.138189315795898,-1.6112669706344604,1.8457635641098022
1667266058529175600,2.286175537109375,9.111868858337402,-1.7261223793029785,1.8649061918258667
1667266058531573200,2.2885732421875,9.095118522644043,-1.843370795249939,1.8936200141906738
1667266058533971200,2.29097119140625,9.075976371765137,-1.8936200141906738,1.8936200141906738
1667266058536369200,2.293369140625,9.078369140625,-1.9319051504135132,1.83619225025177
1667266058538766800,2.295766845703125,9.09272575378418,-1.9414764642715454,1.7356936931610107
1667266058541164800,2.298164794921875,9.107083320617676,-1.9175482988357544,1.5945172309875488
1667266058543562500,2.3005625,9.133403778076172,-1.8792630434036255,1.4222339391708374
1667266058545960400,2.30296044921875,9.121439933776855,-1.8337994813919067,1.2329018115997314
1667266058548358100,2.305358154296875,9.123832702636719,-1.7572290897369385,1.0462616682052612
1667266058550756000,2.307756103515625,9.116654396057129,-1.690230131149292,0.8306085467338562
1667266058553153800,2.31015380859375,9.087940216064453,-1.6016956567764282,0.6296114325523376
1667266058555551700,2.3125517578125,9.049654960632324,-1.4796617031097412,0.4453641176223755
1667266058557949400,2.314949462890625,9.004191398620605,-1.3764712810516357,0.2727817893028259
1667266058560347400,2.317347412109375,8.944371223449707,-1.2831511497497559,0.13160525262355804
1667266058562745000,2.3197451171875,8.882157325744629,-1.1922239065170288,0.0023928226437419653
1667266058565143000,2.32214306640625,8.80798053741455,-1.0821540355682373,-0.10767702013254166
1667266058567540700,2.324540771484375,8.769695281982422,-0.9577272534370422,-0.18424734473228455
1667266058569938700,2.326938720703125,8.709874153137207,-0.8234301209449768,-0.2679961323738098
1667266058572336400,2.32933642578125,8.633005142211914,-0.6966105103492737,-0.3329014480113983
1667266058574734300,2.331734375,8.546863555908203,-0.5650052428245544,-0.2874378263950348
1667266058577132000,2.334132080078125,8.453543663024902,-0.4812564551830292,-0.2874378263950348
1667266058579530000,2.336530029296875,8.319544792175293,-0.4286143481731415,-0.31854450702667236
1667266058581927700,2.338927734375,8.168797492980957,-0.3448655605316162,-0.2632105052471161
1667266058584325600,2.34132568359375,8.015357971191406,-0.2727817893028259,-0.19142581522464752
1667266058586723300,2.343723388671875,7.8526458740234375,-0.19142581522464752,-0.13160525262355804
1667266058589121300,2.346121337890625,7.668398380279541,-0.08853443711996078,-0.07417750358581543
1667266058591519000,2.34851904296875,7.514958381652832,-0.01196411345154047,-0.031106693670153618
1667266058593917000,2.3509169921875,7.3522467613220215,0.07657032459974289,0.02632104977965355
1667266058596314600,2.353314697265625,7.189534664154053,0.15314064919948578,0.08135596662759781
1667266058598712600,2.355712646484375,7.043572425842285,0.24167509377002716,0.15553347766399384
1667266058601110300,2.3581103515625,6.9068827629089355,0.3329014480113983,0.23210379481315613
1667266058603508200,2.36050830078125,6.772884368896484,0.42382872104644775,0.30179476737976074
1667266058605906000,2.362906005859375,6.658029079437256,0.47168517112731934,0.37597227096557617
1667266058608303900,2.365303955078125,6.535995006561279,0.5291129350662231,0.4405784606933594
1667266058610701600,2.36770166015625,6.444768905639648,0.6080760359764099,0.5123631358146667
1667266058613099500,2.370099609375,6.377769470214844,0.6702894568443298,0.5769693851470947
1667266058615497200,2.372497314453125,6.332305908203125,0.732502818107605,0.6296114325523376
1667266058617895200,2.374895263671875,6.329913139343262,0.7947162389755249,0.6990033388137817
1667266058620292900,2.37729296875,6.341877460479736,0.8428717851638794,0.7588238716125488
1667266058622690800,2.37969091796875,6.3514485359191895,0.9002995491027832,0.8401798605918884
1667266058625088500,2.382088623046875,6.408876419067383,0.9385846853256226,0.9074779748916626
1667266058627486500,2.384486572265625,6.473781585693359,0.9744769930839539,0.9744769930839539
1667266058629884200,2.38688427734375,6.571887493133545,1.0031908750534058,1.048654556274414
1667266058632282000,2.3892822265625,6.686742782592773,1.0103694200515747,1.1300104856491089
1667266058634679800,2.3916796875,6.796812534332275,1.0151549577713013,1.2041879892349243
1667266058637077800,2.394077880859375,6.904489517211914,1.0079765319824219,1.225723385810852
1667266058639475500,2.396475341796875,7.031608581542969,1.0103694200515747,1.2137593030929565
1667266058641873400,2.398873291015625,7.160820960998535,1.0151549577713013,1.1754741668701172
1667266058644271000,2.40127099609375,7.290033340454102,1.0007981061935425,1.1515458822250366
1667266058646669000,2.4036689453125,7.443173885345459,1.0055837631225586,1.1084750890731812
1667266058649066800,2.406066650390625,7.613363265991211,1.0319048166275024,1.0941181182861328
1667266058651464700,2.408464599609375,7.7832536697387695,1.0630114078521729,1.1180464029312134
1667266058653862400,2.4108623046875,7.943572998046875,1.074975609779358,1.1228320598602295
1667266058656260400,2.41326025390625,8.094321250915527,1.0941181182861328,1.134796142578125
1667266058658658000,2.415657958984375,8.235795974731445,1.1156535148620605,1.1060823202133179
1667266058661056000,2.418055908203125,8.376973152160645,1.1300104856491089,1.0606186389923096
1667266058663453700,2.42045361328125,8.518149375915527,1.1276177167892456,0.9768698215484619
1667266058665851600,2.4228515625,8.685647010803223,1.1228320598602295,0.893121063709259
1667266058668249300,2.425249267578125,8.827122688293457,1.079761266708374,0.7923234105110168
1667266058670647300,2.427647216796875,8.956335067749023,1.074975609779358,0.7109674215316772
1667266058673045000,2.430044921875,9.083154678344727,1.0319048166275024,0.6320042610168457
1667266058675443000,2.43244287109375,9.164510726928711,1.0031908750534058,0.5817549824714661
1667266058677840600,2.434840576171875,9.267701148986816,0.9361918568611145,0.5458626747131348
1667266058680238600,2.437238525390625,9.334700584411621,0.8739784955978394,0.5386841893196106
1667266058682636300,2.43963623046875,9.392127990722656,0.7995018362998962,0.5482555031776428
1667266058685034200,2.4420341796875,9.449555397033691,0.7444669604301453,0.5961119532585144
1667266058687432000,2.444431884765625,9.48066234588623,0.6966105103492737,0.6296114325523376
1667266058689830000,2.446829833984375,9.514162063598633,0.6511468887329102,0.6726822853088379
1667266058692227600,2.4492275390625,9.533304214477539,0.5841478109359741,0.7205387353897095
1667266058694625500,2.45162548828125,9.566803932189941,0.5626124143600464,0.7396813035011292
1667266058697023200,2.454023193359375,9.595518112182617,0.5267201066017151,0.7396813035011292
1667266058699421200,2.456421142578125,9.585947036743164,0.5075774788856506,0.732502818107605
1667266058701819000,2.45881884765625,9.564411163330078,0.4668995141983032,0.7492526173591614
1667266058704216800,2.461216796875,9.566803932189941,0.4501497745513916,0.732502818107605
1667266058706614500,2.463614501953125,9.554840087890625,0.4501497745513916,0.7109674215316772
1667266058709012500,2.466012451171875,9.550054550170898,0.4334000051021576,0.7085745930671692
1667266058711410200,2.46841015625,9.530911445617676,0.40707895159721375,0.6870391964912415
1667266058713808100,2.47080810546875,9.492626190185547,0.37118661403656006,0.6367899179458618
1667266058716205800,2.473205810546875,9.425627708435059,0.3616153299808502,0.6152545213699341
1667266058718603800,2.475603759765625,9.38016414642334,0.35922250151634216,0.5865406394004822
1667266058721001500,2.47800146484375,9.325128555297852,0.3520440459251404,0.5458626747131348
1667266058723399400,2.4803994140625,9.243474006652832,0.3233301639556885,0.48843491077423096
1667266058725797000,2.482797119140625,9.18843936920166,0.3113660514354706,0.45254257321357727
1667266058728195000,2.485195068359375,9.123832702636719,0.29700911045074463,0.37597227096557617
1667266058730592800,2.4875927734375,9.042476654052734,0.275174617767334,0.3089732229709625
1667266058732990700,2.48999072265625,8.9850492477417,0.27756741642951965,0.28504499793052673
1667266058735388400,2.492388427734375,8.93240737915039,0.2826521694660187,0.2560320198535919
1667266058737786400,2.494786376953125,8.886942863464355,0.2826521694660187,0.2632105052471161
1667266058740184000,2.49718408203125,8.877371788024902,0.28983065485954285,0.2632105052471161
1667266058742582000,2.49958203125,8.872586250305176,0.33768710494041443,0.2679961323738098
1667266058744979700,2.501979736328125,8.896514892578125,0.39032918214797974,0.2799602448940277
1667266058747377700,2.504377685546875,8.937192916870117,0.43100717663764954,0.2799602448940277
1667266058749775400,2.506775390625,8.982656478881836,0.4956133961677551,0.2874378263950348
1667266058752173300,2.50917333984375,9.056833267211914,0.5865406394004822,0.29700911045074463
1667266058754571000,2.511571044921875,9.145368576049805,0.6655037999153137,0.31375887989997864
1667266058756969000,2.513968994140625,9.231510162353516,0.7181459069252014,0.35443684458732605
1667266058759366700,2.51636669921875,9.303593635559082,0.7827520966529846,0.41904306411743164
1667266058761764600,2.5187646484375,9.375378608703613,0.8066803216934204,0.4788636267185211
1667266058764162600,2.52116259765625,9.425627708435059,0.8428717851638794,0.5530411601066589
1667266058766560300,2.523560302734375,9.478269577026367,0.8668000102043152,0.6224330067634583
1667266058768958000,2.5259580078125,9.523733139038086,0.8883354067802429,0.6966105103492737
1667266058771356000,2.52835595703125,9.564411163330078,0.9050851464271545,0.7636095285415649
1667266058773753600,2.530753662109375,9.583553314208984,0.9122636318206787,0.8186444640159607
1667266058776151600,2.533151611328125,9.602696418762207,0.9170492887496948,0.8763712644577026
1667266058778549200,2.53554931640625,9.60508918762207,0.9026923179626465,0.9529415965080261
1667266058780947200,2.537947265625,9.583553314208984,0.893121063709259,1.0199406147003174
1667266058783345000,2.540344970703125,9.593125343322754,0.8787640929222107,1.1204391717910767
1667266058785742800,2.542742919921875,9.581160545349121,0.8548358678817749,1.1826525926589966
1667266058788140500,2.545140625,9.566803932189941,0.8186444640159607,1.2711870670318604
1667266058790538500,2.54753857421875,9.540482521057129,0.7851449251174927,1.3286148309707642
1667266058792936200,2.549936279296875,9.51176929473877,0.7636095285415649,1.350150227546692
1667266058795334100,2.552334228515625,9.485447883605957,0.7516453862190247,1.3692927360534668
1667266058797731800,2.55473193359375,9.456734657287598,0.7037889361381531,1.3621143102645874
1667266058800129800,2.5571298828125,9.413662910461426,0.6415755748748779,1.3573286533355713
1667266058802527500,2.559527587890625,9.37059211730957,0.6200401782989502,1.3094722032546997
1667266058804925400,2.561925537109375,9.334700584411621,0.610468864440918,1.2640085220336914
1667266058807323400,2.564323486328125,9.301200866699219,0.5673980712890625,1.2352946996688843
1667266058809721000,2.56672119140625,9.267701148986816,0.5003990530967712,1.1682956218719482
1667266058812118800,2.569118896484375,9.226723670959473,0.44775694608688354,1.134796142578125
1667266058814516700,2.571516845703125,9.20279598236084,0.39032918214797974,1.0821540355682373
1667266058816914700,2.573914794921875,9.18843936920166,0.3329014480113983,1.048654556274414
1667266058819312400,2.5763125,9.150154113769531,0.30179476737976074,0.9960124492645264
1667266058821710000,2.5787099609375,9.10229778289795,0.26081767678260803,0.9984052777290344
1667266058824108000,2.58110791015625,9.05444049835205,0.24167509377002716,0.9720842242240906
1667266058826506000,2.583506103515625,9.013762474060059,0.20578274130821228,0.9314061999320984
1667266058828903700,2.585903564453125,8.96829891204834,0.1866401731967926,0.8883354067802429
1667266058831301400,2.58830126953125,8.903693199157715,0.17228323221206665,0.8162516355514526
1667266058833699300,2.59069921875,8.827122688293457,0.1698904037475586,0.7085745930671692
1667266058836097000,2.593096923828125,8.774480819702148,0.1579262912273407,0.5889334678649902
1667266058838495000,2.595494873046875,8.717052459716797,0.1698904037475586,0.5027918815612793
1667266058840893000,2.597892822265625,8.656932830810547,0.16271193325519562,0.4046861231327057
1667266058843290600,2.60029052734375,8.601898193359375,0.1866401731967926,0.29700911045074463
1667266058845688300,2.602688232421875,8.55882740020752,0.18424734473228455,0.22971096634864807
1667266058848086300,2.605086181640625,8.532505989074707,0.20817556977272034,0.15553347766399384
1667266058850484200,2.607484130859375,8.499007225036621,0.2105683982372284,0.08614161610603333
1667266058852882000,2.6098818359375,8.506185531616211,0.24406790733337402,0.05742774158716202
1667266058855279600,2.612279541015625,8.515756607055664,0.275174617767334,0.05024927482008934
1667266058857677600,2.614677490234375,8.539685249328613,0.2874378263950348,0.0526420995593071
1667266058860075500,2.617075439453125,8.589934349060059,0.3233301639556885,0.06939185410737991
1667266058862473200,2.61947314453125,8.654540061950684,0.36640095710754395,0.0933200865983963
1667266058864871000,2.621870849609375,8.745766639709473,0.4046861231327057,0.14356936514377594
1667266058867268900,2.624268798828125,8.858229637145996,0.44775694608688354,0.20578274130821228
1667266058869666800,2.626666748046875,8.96112060546875,0.47647079825401306,0.2799602448940277
1667266058872064500,2.629064453125,9.095118522644043,0.5099703073501587,0.3640081584453583
1667266058874462200,2.631462158203125,9.18843936920166,0.5267201066017151,0.4549354016780853
1667266058876860200,2.633860107421875,9.301200866699219,0.5362913608551025,0.5626124143600464
1667266058879257900,2.6362578125,9.399306297302246,0.5578267574310303,0.6607181429862976
1667266058881655800,2.63865576171875,9.471091270446777,0.5769693851470947,0.7540382146835327
1667266058884053800,2.6410537109375,9.542876243591309,0.5889334678649902,0.8428717851638794
1667266058886451500,2.643451416015625,9.60508918762207,0.610468864440918,0.9266205430030823
1667266058888849200,2.64584912109375,9.648159980773926,0.6224330067634583,0.9888339638710022
1667266058891247000,2.6482470703125,9.710372924804688,0.643968403339386,1.0606186389923096
1667266058893645000,2.65064501953125,9.765408515930176,0.6487540602684021,1.1132607460021973
1667266058896042800,2.653042724609375,9.798908233642578,0.6655037999153137,1.1252248287200928
1667266058898440400,2.6554404296875,9.842277526855469,0.6918248534202576,1.1419745683670044
1667266058900838400,2.65783837890625,9.878170013427734,0.7253243923187256,1.1371889114379883
1667266058903236400,2.660236328125,9.9140625,0.7468597888946533,1.1108678579330444
1667266058905634000,2.662634033203125,9.957133293151855,0.8018946647644043,1.079761266708374
1667266058908031700,2.66503173828125,9.983454704284668,0.8428717851638794,1.0558329820632935
1667266058910429700,2.6674296875,10.002596855163574,0.8715856671333313,1.0582258701324463
1667266058912827600,2.66982763671875,10.0073823928833,0.8691928386688232,1.0295119285583496
1667266058915225300,2.672225341796875,9.985847473144531,0.8548358678817749,0.9888339638710022
1667266058917623000,2.674623046875,9.961918830871582,0.8452646136283875,0.9337990283966064
1667266058920021000,2.67702099609375,9.954740524291992,0.8210372924804688,0.8524430394172668
1667266058922419000,2.6794189453125,9.926026344299316,0.766002357006073,0.7731808423995972
1667266058924816600,2.681816650390625,9.897313117980957,0.7181459069252014,0.6894320249557495
1667266058927214600,2.684214599609375,9.89013385772705,0.6822535395622253,0.6056832075119019
1667266058929612300,2.6866123046875,9.882955551147461,0.6702894568443298,0.5147559642791748
1667266058932010000,2.689010009765625,9.911669731140137,0.6391827464103699,0.4166502356529236
1667266058934408000,2.691407958984375,9.940383911132812,0.5961119532585144,0.31854450702667236
1667266058936806000,2.693805908203125,9.973882675170898,0.5626124143600464,0.24646073579788208
1667266058939203600,2.69620361328125,9.985847473144531,0.5554339289665222,0.14835500717163086
1667266058941601300,2.698601318359375,10.002596855163574,0.5147559642791748,0.08614161610603333
1667266058943999200,2.700999267578125,9.983454704284668,0.5027918815612793,-0.009571290574967861
1667266058946397200,2.703397216796875,9.971489906311035,0.45972105860710144,-0.06699903309345245
1667266058948795000,2.705794921875,9.966704368591309,0.4214358925819397,-0.1459621787071228
1667266058951192600,2.708192626953125,9.964311599731445,0.38793638348579407,-0.20578274130821228
1667266058953590500,2.710590576171875,9.959526062011719,0.3568296730518341,-0.22971096634864807
1667266058955988500,2.712988525390625,9.937990188598633,0.3161516785621643,-0.2512463629245758
1667266058958386200,2.71538623046875,9.918848037719727,0.28983065485954285,-0.28504499793052673
1667266058960784000,2.717783935546875,9.89970588684082,0.2225325107574463,-0.26560330390930176
1667266058963181800,2.720181884765625,9.880562782287598,0.19621145725250244,-0.2560320198535919
1667266058965579500,2.72257958984375,9.844670295715332,0.1459621787071228,-0.23210379481315613
1667266058967977500,2.7249775390625,9.810872077941895,0.11724831163883209,-0.1986042857170105
1667266058970375400,2.72737548828125,9.770194053649902,0.11485548317432404,-0.15553347766399384
1667266058972773000,2.729773193359375,9.7366943359375,0.08853443711996078,-0.1459621787071228
1667266058975170800,2.7321708984375,9.686445236206055,0.07896314561367035,-0.11964113265275955
1667266058977568800,2.73456884765625,9.650552749633789,0.10049854964017868,-0.10049854964017868
1667266058979966700,2.736966796875,9.624231338500977,0.11246266216039658,-0.07178468257188797
1667266058982364400,2.739364501953125,9.573982238769531,0.13160525262355804,-0.038285162299871445
1667266058984762000,2.74176220703125,9.550054550170898,0.16749759018421173,-0.04307080805301666
1667266058987160000,2.74416015625,9.51176929473877,0.20578274130821228,-0.01196411345154047
1667266058989558000,2.74655810546875,9.444769859313965,0.24885354936122894,0.016749758273363113
1667266058991955700,2.748955810546875,9.406484603881836,0.2922234535217285,0.014356935396790504
1667266058994353400,2.751353515625,9.361021041870117,0.3233301639556885,0
1667266058996751400,2.75375146484375,9.313164710998535,0.37118661403656006,0.0023928226437419653
1667266058999149000,2.756149169921875,9.274879455566406,0.40707895159721375,-0.02392822690308094
1667266059001547000,2.758547119140625,9.238688468933105,0.4621138870716095,-0.04785645380616188
1667266059003945000,2.760945068359375,9.214759826660156,0.5315057039260864,-0.062213387340307236
1667266059006342700,2.7633427734375,9.205188751220703,0.5913262963294983,-0.08374879509210587
1667266059008740400,2.765740234375,9.20279598236084,0.612861692905426,-0.09092725813388824
1667266059011138300,2.76813818359375,9.207581520080566,0.646361231803894,-0.09810572862625122
1667266059013536300,2.770536376953125,9.20997428894043,0.6583253145217896,-0.12203395366668701
1667266059015934000,2.772933837890625,9.226723670959473,0.6702894568443298,-0.11964113265275955
1667266059018331600,2.77533154296875,9.245866775512695,0.6870391964912415,-0.11964113265275955
1667266059020729600,2.7777294921875,9.272486686706543,0.701396107673645,-0.12921242415905
1667266059023127600,2.78012744140625,9.291629791259766,0.7061817646026611,-0.12681959569454193
1667266059025525200,2.782525146484375,9.313164710998535,0.7037889361381531,-0.09810572862625122
1667266059027923000,2.7849228515625,9.346664428710938,0.7133602499961853,-0.07896314561367035
1667266059030321000,2.78732080078125,9.406484603881836,0.7181459069252014,-0.040677983313798904
1667266059032718800,2.78971875,9.471091270446777,0.7109674215316772,-0.009571290574967861
1667266059035116500,2.792116455078125,9.521340370178223,0.7109674215316772,0.035892341285943985
1667266059037514200,2.79451416015625,9.578767776489258,0.7253243923187256,0.07896314561367035
1667266059039912200,2.796912109375,9.626625061035156,0.7420741319656372,0.11485548317432404
1667266059042310000,2.799309814453125,9.657731056213379,0.7444669604301453,0.14117653667926788
1667266059044707800,2.801707763671875,9.703194618225098,0.7540382146835327,0.18424734473228455
1667266059047105800,2.804105712890625,9.7366943359375,0.7564310431480408,0.21774685382843018
1667266059049503500,2.80650341796875,9.770194053649902,0.7492526173591614,0.2560320198535919
1667266059051901200,2.808901123046875,9.789336204528809,0.7396813035011292,0.2679961323738098
1667266059054299100,2.811299072265625,9.825528144836426,0.6942176818847656,0.2826521694660187
1667266059056697000,2.813697021484375,9.863813400268555,0.6583253145217896,0.30179476737976074
1667266059059094800,2.8160947265625,9.870991706848145,0.6200401782989502,0.3233301639556885
1667266059061492500,2.818492431640625,9.885348320007324,0.5697908997535706,0.3496512174606323
1667266059063890400,2.820890380859375,9.89013385772705,0.5171487927436829,0.34247273206710815
1667266059066288400,2.823288330078125,9.89013385772705,0.5075774788856506,0.3041875660419464
1667266059068686000,2.82568603515625,9.868598937988281,0.47168517112731934,0.2632105052471161
1667266059071083800,2.828083740234375,9.859027862548828,0.4334000051021576,0.19621145725250244
1667266059073481700,2.830481689453125,9.827920913696289,0.38793638348579407,0.13878370821475983
1667266059075879400,2.83287939453125,9.813264846801758,0.37597227096557617,0.04307080805301666
1667266059078277400,2.83527734375,9.835099220275879,0.37836506962776184,-0.03349951654672623
1667266059080675000,2.837675048828125,9.847063064575195,0.4094717800617218,-0.09810572862625122
1667266059083073000,2.840072998046875,9.861420631408691,0.4166502356529236,-0.1698904037475586
1667266059085470700,2.842470703125,9.887741088867188,0.4142574071884155,-0.2105683982372284
1667266059087868700,2.84486865234375,9.916455268859863,0.43100717663764954,-0.24885354936122894
1667266059090266600,2.8472666015625,9.93559741973877,0.4334000051021576,-0.2727817893028259
1667266059092664300,2.849664306640625,9.988240242004395,0.45254257321357727,-0.29700911045074463
1667266059095062000,2.85206201171875,10.002596855163574,0.4573282301425934,-0.3233301639556885
1667266059097460000,2.8544599609375,10.012167930603027,0.4668995141983032,-0.32572299242019653
1667266059099857700,2.856857666015625,10.0073823928833,0.4573282301425934,-0.3209373354911804
1667266059102255600,2.859255615234375,10.009775161743164,0.45254257321357727,-0.3089732229709625
1667266059104653300,2.8616533203125,10.02413272857666,0.4549354016780853,-0.30179476737976074
1667266059107051300,2.86405126953125,10.071989059448242,0.47168517112731934,-0.2946162819862366
1667266059109449000,2.866448974609375,10.115059852600098,0.4668995141983032,-0.24406790733337402
1667266059111847000,2.868846923828125,10.172487258911133,0.48843491077423096,-0.1698904037475586
1667266059114244600,2.87124462890625,10.217950820922852,0.47647079825401306,-0.09571290761232376
1667266059116642600,2.873642578125,10.251450538635254,0.4740779995918274,-0.004785645287483931
1667266059119040300,2.876040283203125,10.292128562927246,0.4668995141983032,0.11006984114646912
1667266059121438200,2.878438232421875,10.354341506958008,0.4788636267185211,0.20817556977272034
1667266059123836000,2.8808359375,10.390533447265625,0.48843491077423096,0.30658039450645447
1667266059126233900,2.88323388671875,10.412068367004395,0.4812564551830292,0.38315072655677795
1667266059128631600,2.885631591796875,10.42642593383789,0.4956133961677551,0.47168517112731934
1667266059131029500,2.888029541015625,10.44078254699707,0.5075774788856506,0.5530411601066589
1667266059133427200,2.89042724609375,10.452746391296387,0.4860421121120453,0.612861692905426
1667266059135825200,2.8928251953125,10.443175315856934,0.4956133961677551,0.6343970894813538
1667266059138222800,2.895222900390625,10.438389778137207,0.5123631358146667,0.6487540602684021
1667266059140620800,2.897620849609375,10.431211471557617,0.524327278137207,0.6678966283798218
1667266059143018500,2.9000185546875,10.388140678405762,0.5482555031776428,0.6535396575927734
1667266059145416400,2.90241650390625,10.330413818359375,0.5721837282180786,0.6535396575927734
1667266059147814100,2.904814208984375,10.268199920654297,0.5889334678649902,0.6343970894813538
1667266059150212000,2.907212158203125,10.198808670043945,0.6176473498344421,0.6200401782989502
1667266059152609800,2.90960986328125,10.136594772338867,0.6343970894813538,0.6056832075119019
1667266059155007700,2.9120078125,10.062417030334473,0.6822535395622253,0.5913262963294983
1667266059157405400,2.914405517578125,9.985847473144531,0.7157530784606934,0.579362154006958
1667266059159803400,2.916803466796875,9.897313117980957,0.7468597888946533,0.5650052428245544
1667266059162201000,2.919201171875,9.810872077941895,0.7851449251174927,0.5506483316421509
1667266059164599000,2.92159912109375,9.746265411376953,0.8162516355514526,0.5195416212081909
1667266059166996700,2.923996826171875,9.669695854187012,0.8428717851638794,0.5123631358146667
1667266059169394700,2.926394775390625,9.60508918762207,0.8715856671333313,0.4980062246322632
1667266059171792400,2.92879248046875,9.559625625610352,0.8763712644577026,0.4980062246322632
1667266059174190300,2.9311904296875,9.499805450439453,0.9026923179626465,0.5075774788856506
1667266059176588000,2.933588134765625,9.451948165893555,0.9290133714675903,0.5458626747131348
1667266059178986000,2.935986083984375,9.411270141601562,0.9457631707191467,0.5769693851470947
1667266059181383700,2.9383837890625,9.392127990722656,0.9409775137901306,0.6008976101875305
1667266059183781600,2.94078173828125,9.38016414642334,0.9337990283966064,0.6415755748748779
1667266059186179300,2.943179443359375,9.368199348449707,0.9577272534370422,0.6583253145217896
1667266059188577300,2.945577392578125,9.339486122131348,0.9337990283966064,0.6894320249557495
1667266059190975000,2.94797509765625,9.341878890991211,0.9098708033561707,0.7085745930671692
1667266059193373000,2.950373046875,9.361021041870117,0.9050851464271545,0.6990033388137817
1667266059195770600,2.9527705078125,9.406484603881836,0.8644071817398071,0.6846463680267334
1667266059198168600,2.95516845703125,9.46630573272705,0.8090731501579285,0.675075113773346
1667266059200566300,2.957566162109375,9.528518676757812,0.7540382146835327,0.6631109714508057
1667266059202964200,2.959964111328125,9.602696418762207,0.7133602499961853,0.6320042610168457
1667266059205362000,2.96236181640625,9.684052467346191,0.6583253145217896,0.5889334678649902
1667266059207760000,2.964759765625,9.7366943359375,0.5721837282180786,0.5171487927436829
1667266059210157600,2.967157470703125,9.789336204528809,0.5075774788856506,0.4453641176223755
1667266059212555500,2.969555419921875,9.847063064575195,0.4286143481731415,0.35443684458732605
1667266059214953200,2.971953125,9.882955551147461,0.3329014480113983,0.2946162819862366
1667266059217351200,2.97435107421875,9.9140625,0.25363919138908386,0.20578274130821228
1667266059219748900,2.976748779296875,9.92124080657959,0.17706887423992157,0.12203395366668701
1667266059222146800,2.979146728515625,9.947562217712402,0.14835500717163086,0.08614161610603333
1667266059224544500,2.98154443359375,10.002596855163574,0.12203395366668701,0.059820566326379776
1667266059226942500,2.9839423828125,10.069596290588379,0.1052841991186142,0.040677983313798904
1667266059229340200,2.986340087890625,10.129416465759277,0.07657032459974289,0.0526420995593071
1667266059231738000,2.988738037109375,10.172487258911133,0.062213387340307236,0.05024927482008934
1667266059234135800,2.9911357421875,10.232307434082031,0.05742774158716202,0.040677983313798904
1667266059236533800,2.99353369140625,10.289735794067383,0.08614161610603333,0.05024927482008934
1667266059238931500,2.995931396484375,10.318449020385742,0.09092725813388824,0.03349951654672623
1667266059241329400,2.998329345703125,10.37348461151123,0.0933200865983963,0.059820566326379776
1667266059243727000,3.00072705078125,10.419246673583984,0.11964113265275955,0.07896314561367035
1667266059246125000,3.003125,10.450353622436523,0.12203395366668701,0.1052841991186142
1667266059248522800,3.005522705078125,10.469496726989746,0.15553347766399384,0.1339980661869049
1667266059250920700,3.007920654296875,10.476675033569336,0.1746760457754135,0.1746760457754135
1667266059253318400,3.010318359375,10.498209953308105,0.18903298676013947,0.20817556977272034
1667266059255716400,3.01271630859375,10.474282264709473,0.18424734473228455,0.23449662327766418
1667266059258114000,3.015114013671875,10.443175315856934,0.20099709928035736,0.28504499793052673
1667266059260512000,3.017511962890625,10.438389778137207,0.2153540402650833,0.30179476737976074
1667266059262909700,3.01990966796875,10.443175315856934,0.23210379481315613,0.3640081584453583
1667266059265307600,3.0223076171875,10.445568084716797,0.2632105052471161,0.41186460852622986
1667266059267705300,3.024705322265625,10.443175315856934,0.2727817893028259,0.45254257321357727
1667266059270103300,3.027103271484375,10.44078254699707,0.3161516785621643,0.490827739238739
1667266059272501000,3.0295009765625,10.438389778137207,0.32572299242019653,0.5147559642791748
1667266059274899000,3.03189892578125,10.409675598144531,0.2946162819862366,0.5315057039260864
1667266059277296600,3.034296630859375,10.371091842651367,0.2632105052471161,0.5482555031776428
1667266059279694600,3.036694580078125,10.356734275817871,0.22492532432079315,0.5530411601066589
1667266059282092300,3.03909228515625,10.330413818359375,0.21774685382843018,0.5578267574310303
1667266059284490200,3.041490234375,10.335199356079102,0.22013968229293823,0.5650052428245544
1667266059286888000,3.043887939453125,10.356734275817871,0.23210379481315613,0.5697908997535706
1667266059289286000,3.046285888671875,10.37348461151123,0.20338992774486542,0.5386841893196106
1667266059291683600,3.04868359375,10.37348461151123,0.20338992774486542,0.5147559642791748
1667266059294081500,3.05108154296875,10.339984893798828,0.1746760457754135,0.4788636267185211
1667266059296479200,3.053479248046875,10.3016996383667,0.11964113265275955,0.43100717663764954
1667266059298877200,3.055877197265625,10.2418794631958,0.0933200865983963,0.368793785572052
1667266059301275000,3.05827490234375,10.141380310058594,0.08614161610603333,0.33050861954689026
1667266059303672600,3.060672607421875,10.071989059448242,0.05503492057323456,0.3161516785621643
1667266059306070500,3.063070556640625,9.981060981750488,-0.02392822690308094,0.2826521694660187
1667266059308468500,3.065468505859375,9.9140625,-0.05503492057323456,0.2826521694660187
1667266059310866200,3.0678662109375,9.847063064575195,-0.09571290761232376,0.23210379481315613
1667266059313263900,3.070263916015625,9.777372360229492,-0.12681959569454193,0.22971096634864807
1667266059315661800,3.072661865234375,9.72951602935791,-0.15314064919948578,0.23210379481315613
1667266059318059800,3.075059814453125,9.818050384521484,-0.2105683982372284,0.20338992774486542
1667266059320457500,3.07745751953125,10.055238723754883,-0.2632105052471161,0.20338992774486542
1667266059322855400,3.07985546875,10.275378227233887,-0.2560320198535919,0.23210379481315613
1667266059325253000,3.082253173828125,10.392926216125488,-0.1986042857170105,0.26560330390930176
1667266059327650800,3.08465087890625,10.450353622436523,-0.13639089465141296,0.3281157910823822
1667266059330048800,3.087048828125,10.483853340148926,-0.062213387340307236,0.4142574071884155
1667266059332446700,3.08944677734375,10.491031646728516,-0.0023928226437419653,0.48364928364753723
1667266059334844400,3.091844482421875,10.481460571289062,0.04546362906694412,0.5267201066017151
1667266059337242000,3.0942421875,10.43360424041748,0.10767702013254166,0.5338985323905945
1667266059339640000,3.09664013671875,10.383355140686035,0.15074782073497772,0.5745765566825867
1667266059342038000,3.0990380859375,10.251450538635254,0.20817556977272034,0.6032904386520386
