time,seconds_elapsed,z,y,x
1667266097747765000,0.107764892578125,9.016156196594238,-0.3640081584453583,0.5817549824714661
1667266097750163000,0.110162841796875,9.095118522644043,-0.3233301639556885,0.6415755748748779
1667266097752560600,0.112560546875,9.18843936920166,-0.2679961323738098,0.7157530784606934
1667266097754958600,0.11495849609375,9.286844253540039,-0.17946170270442963,0.797109067440033
1667266097757356300,0.117356201171875,9.37059211730957,-0.11485548317432404,0.8691928386688232
1667266097759754200,0.119754150390625,9.456734657287598,-0.04785645380616188,0.981655478477478
1667266097762152000,0.12215185546875,9.506983757019043,0.02632104977965355,1.0941181182861328
1667266097764549600,0.124549560546875,9.552447319030762,0.09571290761232376,1.2329018115997314
1667266097766947600,0.126947509765625,9.562018394470215,0.12681959569454193,1.3310075998306274
1667266097769345300,0.12934521484375,9.540482521057129,0.19142581522464752,1.4676976203918457
1667266097771743200,0.1317431640625,9.514162063598633,0.2225325107574463,1.5849459171295166
1667266097774141000,0.134140869140625,9.475876808166504,0.2679961323738098,1.690230131149292
1667266097776539000,0.136538818359375,9.432806015014648,0.275174617767334,1.7596219778060913
1667266097778936600,0.1389365234375,9.389735221862793,0.28983065485954285,1.83619225025177
1667266097781334300,0.141334228515625,9.327521324157715,0.31375887989997864,1.8792630434036255
1667266097783732200,0.143732177734375,9.245866775512695,0.33768710494041443,1.8912272453308105
1667266097786130000,0.1461298828125,9.183652877807617,0.32572299242019653,1.89840567111969
1667266097788527900,0.14852783203125,9.133403778076172,0.3400799036026001,1.8792630434036255
1667266097790925600,0.150925537109375,9.078369140625,0.35443684458732605,1.9055840969085693
1667266097793323500,0.153323486328125,9.030512809753418,0.3520440459251404,1.9199410676956177
1667266097795721200,0.15572119140625,9.011369705200195,0.35443684458732605,1.9127626419067383
1667266097798119000,0.158118896484375,9.001798629760742,0.3496512174606323,1.9007984399795532
1667266097800516900,0.160516845703125,9.025727272033691,0.34725838899612427,1.8912272453308105
1667266097802914600,0.16291455078125,9.078369140625,0.3520440459251404,1.872084617614746
1667266097805312500,0.1653125,9.162117958068848,0.32572299242019653,1.831406593322754
1667266097807710200,0.167710205078125,9.253045082092285,0.30179476737976074,1.8098711967468262
1667266097810108200,0.170108154296875,9.346664428710938,0.27756741642951965,1.7883358001708984
1667266097812505900,0.172505859375,9.463912963867188,0.24646073579788208,1.7644076347351074
1667266097814903800,0.17490380859375,9.557232856750488,0.19142581522464752,1.7476578950881958
1667266097817301500,0.177301513671875,9.650552749633789,0.16271193325519562,1.7356936931610107
1667266097819699500,0.179699462890625,9.719944953918457,0.12681959569454193,1.7261223793029785
1667266097822097200,0.18209716796875,9.786943435668945,0.06939185410737991,1.683051586151123
1667266097824494800,0.184494873046875,9.835099220275879,0.03349951654672623,1.6375880241394043
1667266097826892800,0.186892822265625,9.873384475708008,0.0023928226437419653,1.6160526275634766
1667266097829290500,0.18929052734375,9.897313117980957,-0.04307080805301666,1.5897315740585327
1667266097831688400,0.1916884765625,9.9140625,-0.06939185410737991,1.532303810119629
1667266097834086100,0.194086181640625,9.92124080657959,-0.09092725813388824,1.4820544719696045
1667266097836484000,0.196484130859375,9.93559741973877,-0.10289137065410614,1.4246268272399902
1667266097838881800,0.1988818359375,9.933204650878906,-0.09571290761232376,1.40279221534729
1667266097841279500,0.201279541015625,9.918848037719727,-0.11006984114646912,1.3692927360534668
1667266097843677400,0.203677490234375,9.89013385772705,-0.11006984114646912,1.3357932567596436
1667266097846075100,0.2060751953125,9.863813400268555,-0.12203395366668701,1.316650629043579
1667266097848473000,0.20847314453125,9.854242324829102,-0.12681959569454193,1.287936806678772
1667266097850870800,0.210870849609375,9.810872077941895,-0.11724831163883209,1.2664014101028442
1667266097853268700,0.213268798828125,9.763015747070312,-0.11964113265275955,1.2424731254577637
1667266097855666400,0.21566650390625,9.705587387084961,-0.11485548317432404,1.2185449600219727
1667266097858064100,0.218064208984375,9.660123825073242,-0.1052841991186142,1.201795220375061
1667266097860462000,0.220462158203125,9.583553314208984,-0.11006984114646912,1.2041879892349243
1667266097862859800,0.22285986328125,9.51894760131836,-0.0933200865983963,1.1850453615188599
1667266097865257700,0.2252578125,9.478269577026367,-0.09092725813388824,1.170688509941101
1667266097867655400,0.227655517578125,9.420842170715332,-0.07178468257188797,1.1443674564361572
1667266097870053400,0.230053466796875,9.341878890991211,-0.07896314561367035,1.079761266708374
1667266097872451000,0.232451171875,9.296415328979492,-0.062213387340307236,1.0534402132034302
1667266097874848800,0.234848876953125,9.26291561126709,-0.05742774158716202,1.0271191596984863
1667266097877246700,0.237246826171875,9.229117393493652,-0.04546362906694412,0.981655478477478
1667266097879644400,0.23964453125,9.238688468933105,-0.04785645380616188,0.9409775137901306
1667266097882042400,0.24204248046875,9.253045082092285,-0.059820566326379776,0.9050851464271545
1667266097884440000,0.244440185546875,9.260522842407227,-0.02871387079358101,0.9026923179626465
1667266097886838000,0.246838134765625,9.286844253540039,-0.038285162299871445,0.8979067206382751
1667266097889235700,0.249235595703125,9.334700584411621,-0.04307080805301666,0.9218349456787109
1667266097891633700,0.251633544921875,9.406484603881836,-0.03349951654672623,0.9649057388305664
1667266097894031400,0.25403125,9.454340934753418,-0.04307080805301666,0.9840483069419861
1667266097896429000,0.256428955078125,9.509376525878906,-0.064606212079525,1.0295119285583496
1667266097898827000,0.258826904296875,9.571589469909668,-0.09092725813388824,1.043868899345398
1667266097901224700,0.261224609375,9.607481956481934,-0.08614161610603333,1.079761266708374
1667266097903622700,0.26362255859375,9.633803367614746,-0.08374879509210587,1.1108678579330444
1667266097906020400,0.266020263671875,9.681659698486328,-0.09571290761232376,1.1324033737182617
1667266097908418300,0.268418212890625,9.765408515930176,-0.09092725813388824,1.165902853012085
1667266097910816000,0.27081591796875,9.832706451416016,-0.07417750358581543,1.194616675376892
1667266097913213700,0.273213623046875,9.902098655700684,-0.04546362906694412,1.2233306169509888
1667266097915611600,0.275611572265625,9.957133293151855,-0.007178467698395252,1.256830096244812
1667266097918009300,0.27800927734375,10.028918266296387,0.01196411345154047,1.2711870670318604
1667266097920407300,0.2804072265625,10.091131210327148,0.02153540402650833,1.2855439186096191
1667266097922805000,0.282804931640625,10.134202003479004,0.062213387340307236,1.2975081205368042
1667266097925203000,0.285202880859375,10.165308952331543,0.059820566326379776,1.3214362859725952
1667266097927600600,0.2876005859375,10.198808670043945,0.07896314561367035,1.3262219429016113
1667266097929998300,0.289998291015625,10.201201438903809,0.07417750358581543,1.3214362859725952
1667266097932396300,0.292396240234375,10.191629409790039,0.062213387340307236,1.3310075998306274
1667266097934794000,0.2947939453125,10.174880027770996,0.040677983313798904,1.3549357652664185
1667266097937192000,0.29719189453125,10.112667083740234,0.03349951654672623,1.3692927360534668
1667266097939589600,0.299589599609375,10.069596290588379,0.019142581149935722,1.3573286533355713
1667266097941987600,0.301987548828125,10.000204086303711,-0.02632104977965355,1.378864049911499
1667266097944385300,0.30438525390625,9.92124080657959,-0.0526420995593071,1.3860424757003784
1667266097946783200,0.306783203125,9.856635093688965,-0.059820566326379776,1.3836497068405151
1667266097949181000,0.309180908203125,9.786943435668945,-0.0933200865983963,1.374078392982483
1667266097951579000,0.311578857421875,9.691230773925781,-0.11246266216039658,1.3716856241226196
1667266097953976600,0.3139765625,9.614660263061523,-0.13160525262355804,1.3573286533355713
1667266097956374300,0.316374267578125,9.545269012451172,-0.15553347766399384,1.3549357652664185
1667266097958772200,0.318772216796875,9.454340934753418,-0.1698904037475586,1.342971682548523
1667266097961170000,0.321169921875,9.442377090454102,-0.19142581522464752,1.3932210206985474
1667266097963567900,0.32356787109375,9.40169906616211,-0.19621145725250244,1.4246268272399902
1667266097965965600,0.325965576171875,9.332307815551758,-0.20338992774486542,1.4054841995239258
1667266097968363500,0.328363525390625,9.26291561126709,-0.2105683982372284,1.3836497068405151
1667266097970761200,0.33076123046875,9.19561767578125,-0.1818545162677765,1.3956137895584106
1667266097973159000,0.333158935546875,9.150154113769531,-0.1459621787071228,1.410269856452942
1667266097975556900,0.335556884765625,9.114261627197266,-0.12681959569454193,1.4003994464874268
1667266097977954600,0.33795458984375,9.083154678344727,-0.09810572862625122,1.374078392982483
1667266097980352500,0.3403525390625,9.068798065185547,-0.06939185410737991,1.3621143102645874
1667266097982750200,0.342750244140625,9.10229778289795,-0.038285162299871445,1.3621143102645874
1667266097985148200,0.345148193359375,9.147761344909668,-0.016749758273363113,1.3525429964065552
1667266097987545900,0.3475458984375,9.200403213500977,0.02632104977965355,1.3525429964065552
1667266097989943600,0.349943603515625,9.253045082092285,0.05503492057323456,1.350150227546692
1667266097992341500,0.352341552734375,9.317950248718262,0.0933200865983963,1.3836497068405151
1667266097994739200,0.3547392578125,9.37298583984375,0.11006984114646912,1.4198411703109741
1667266097997137200,0.35713720703125,9.437591552734375,0.12203395366668701,1.4174482822418213
1667266097999534800,0.359534912109375,9.516554832458496,0.13878370821475983,1.40279221534729
1667266098001932800,0.361932861328125,9.583553314208984,0.14117653667926788,1.4054841995239258
1667266098004330500,0.36433056640625,9.650552749633789,0.13639089465141296,1.3980066776275635
1667266098006728400,0.366728515625,9.686445236206055,0.11246266216039658,1.407876968383789
1667266098009126100,0.369126220703125,9.72951602935791,0.10767702013254166,1.4270195960998535
1667266098011523800,0.37152392578125,9.765408515930176,0.10767702013254166,1.4198411703109741
1667266098013921800,0.373921875,9.849455833435059,0.08374879509210587,1.4485549926757812
1667266098016319500,0.376319580078125,9.894919395446777,0.05024927482008934,1.4246268272399902
1667266098018717400,0.378717529296875,9.952347755432129,0.02153540402650833,1.3908281326293945
1667266098021115100,0.381115234375,10.002596855163574,-0.0023928226437419653,1.3262219429016113
1667266098023513000,0.38351318359375,10.074381828308105,-0.02392822690308094,1.3046865463256836
1667266098025910800,0.385910888671875,10.129416465759277,-0.059820566326379776,1.2759727239608765
1667266098028308700,0.388308837890625,10.16291618347168,-0.10289137065410614,1.2400803565979004
1667266098030706400,0.39070654296875,10.172487258911133,-0.1339980661869049,1.2089736461639404
1667266098033104100,0.393104248046875,10.18445110321045,-0.16510476171970367,1.1874382495880127
1667266098035502000,0.395502197265625,10.213165283203125,-0.20338992774486542,1.1682956218719482
1667266098037899800,0.397899658203125,10.217950820922852,-0.24167509377002716,1.1467602252960205
1667266098040297700,0.400297607421875,10.196415901184082,-0.275174617767334,1.1395817995071411
1667266098042695400,0.4026953125,10.15573787689209,-0.3161516785621643,1.1156535148620605
1667266098045093000,0.405093017578125,10.143773078918457,-0.33768710494041443,1.0845468044281006
1667266098047491000,0.407490966796875,10.153345108032227,-0.37836506962776184,1.103689432144165
1667266098049888800,0.409888671875,10.127023696899414,-0.4046861231327057,1.158724308013916
1667266098052286700,0.41228662109375,10.115059852600098,-0.40707895159721375,1.2065808773040771
1667266098054684400,0.414684326171875,10.112667083740234,-0.39032918214797974,1.2448660135269165
1667266098057082400,0.417082275390625,10.088738441467285,-0.3927220106124878,1.2592228651046753
1667266098059480000,0.41947998046875,10.098309516906738,-0.37597227096557617,1.2472587823867798
1667266098061877800,0.421877685546875,10.079167366027832,-0.3520440459251404,1.2185449600219727
1667266098064275700,0.424275634765625,10.028918266296387,-0.3281157910823822,1.1922239065170288
1667266098066673400,0.42667333984375,9.973882675170898,-0.2826521694660187,1.1682956218719482
1667266098069071400,0.4290712890625,9.902098655700684,-0.24885354936122894,1.1635099649429321
1667266098071469000,0.431468994140625,9.830313682556152,-0.2225325107574463,1.1515458822250366
1667266098073867000,0.433866943359375,9.74387264251709,-0.20578274130821228,1.1515458822250366
1667266098076264700,0.4362646484375,9.679266929626465,-0.19142581522464752,1.1467602252960205
1667266098078662700,0.43866259765625,9.607481956481934,-0.13878370821475983,1.1371889114379883
1667266098081060400,0.441060302734375,9.523733139038086,-0.08614161610603333,1.1419745683670044
1667266098083458300,0.443458251953125,9.423234939575195,-0.05024927482008934,1.1324033737182617
1667266098085856000,0.44585595703125,9.36341381072998,-0.031106693670153618,1.1467602252960205
1667266098088253700,0.448253662109375,9.325128555297852,-0.014356935396790504,1.1467602252960205
1667266098090651600,0.450651611328125,9.282057762145996,0.02153540402650833,1.1419745683670044
1667266098093049300,0.45304931640625,9.221938133239746,0.02392822690308094,1.1419745683670044
1667266098095447300,0.455447265625,9.183652877807617,0.035892341285943985,1.1419745683670044
1667266098097845000,0.457844970703125,9.159725189208984,0.016749758273363113,1.1491531133651733
1667266098100243000,0.460242919921875,9.119047164916992,0.009571290574967861,1.1563315391540527
1667266098102640600,0.462640625,9.121439933776855,0.0023928226437419653,1.1419745683670044
1667266098105038300,0.465038330078125,9.133403778076172,-0.02153540402650833,1.1754741668701172
1667266098107436300,0.467436279296875,9.166903495788574,-0.04307080805301666,1.1922239065170288
1667266098109834000,0.469833984375,9.212367057800293,-0.05503492057323456,1.197009563446045
1667266098112232000,0.47223193359375,9.253045082092285,-0.06939185410737991,1.2113664150238037
1667266098114629600,0.474629638671875,9.329915046691895,-0.09571290761232376,1.2113664150238037
1667266098117027600,0.477027587890625,9.435198783874512,-0.12921242415905,1.2185449600219727
1667266098119425300,0.47942529296875,9.502198219299316,-0.14117653667926788,1.2305090427398682
1667266098121823000,0.481822998046875,9.588339805603027,-0.14117653667926788,1.252044439315796
1667266098124221000,0.484220947265625,9.652945518493652,-0.12442677468061447,1.2903295755386353
1667266098126618600,0.48661865234375,9.703194618225098,-0.11246266216039658,1.323829174041748
1667266098129016600,0.4890166015625,9.741479873657227,-0.12921242415905,1.3334003686904907
1667266098131414300,0.491414306640625,9.770194053649902,-0.12442677468061447,1.3932210206985474
1667266098133812200,0.493812255859375,9.803693771362305,-0.10289137065410614,1.4270195960998535
1667266098136210000,0.4962099609375,9.815657615661621,-0.10767702013254166,1.446162223815918
1667266098138607900,0.49860791015625,9.813264846801758,-0.08853443711996078,1.446162223815918
1667266098141005600,0.501005615234375,9.861420631408691,-0.09092725813388824,1.450947880744934
1667266098143403500,0.503403564453125,9.873384475708008,-0.07178468257188797,1.4796617031097412
1667266098145801200,0.50580126953125,9.875777244567871,-0.06699903309345245,1.4940186738967896
1667266098148199000,0.508198974609375,9.875777244567871,-0.040677983313798904,1.5035899877548218
1667266098150596900,0.510596923828125,9.873384475708008,-0.02392822690308094,1.5251253843307495
1667266098152994600,0.51299462890625,9.863813400268555,-0.02632104977965355,1.5442678928375244
1667266098155392500,0.515392578125,9.856635093688965,-0.014356935396790504,1.5634105205535889
1667266098157790200,0.517790283203125,9.854242324829102,-0.014356935396790504,1.572981834411621
1667266098160188200,0.520188232421875,9.837491989135742,-0.019142581149935722,1.6160526275634766
1667266098162585900,0.5225859375,9.861420631408691,-0.019142581149935722,1.623231053352356
1667266098164983600,0.524983642578125,9.856635093688965,-0.014356935396790504,1.6471593379974365
1667266098167381500,0.527381591796875,9.866206169128418,-0.0023928226437419653,1.6495521068572998
1667266098169779200,0.529779296875,9.878170013427734,-0.01196411345154047,1.651944875717163
1667266098172177200,0.53217724609375,9.870991706848145,-0.02153540402650833,1.6495521068572998
1667266098174574800,0.534574951171875,9.870991706848145,-0.007178467698395252,1.6399807929992676
1667266098176972800,0.536972900390625,9.887741088867188,-0.02871387079358101,1.6112669706344604
1667266098179370500,0.53937060546875,9.897313117980957,-0.04307080805301666,1.5849459171295166
1667266098181768200,0.541768310546875,9.885348320007324,-0.062213387340307236,1.5705889463424683
1667266098184166100,0.544166259765625,9.866206169128418,-0.0933200865983963,1.568196177482605
1667266098186563800,0.546563720703125,9.813264846801758,-0.11724831163883209,1.5849459171295166
1667266098188961800,0.5489619140625,9.774979591369629,-0.13160525262355804,1.5658032894134521
1667266098191359500,0.551359375,9.741479873657227,-0.15074782073497772,1.55623197555542
1667266098193757400,0.55375732421875,9.693623542785645,-0.18424734473228455,1.5538392066955566
1667266098196155100,0.556155029296875,9.667302131652832,-0.18903298676013947,1.5418751239776611
1667266098198553000,0.558552978515625,9.6433744430542,-0.1986042857170105,1.5227324962615967
1667266098200950800,0.56095068359375,9.638588905334473,-0.22492532432079315,1.5346965789794922
1667266098203348500,0.563348388671875,9.607481956481934,-0.23210379481315613,1.5442678928375244
1667266098205746400,0.565746337890625,9.61944580078125,-0.2153540402650833,1.5658032894134521
1667266098208144100,0.56814404296875,9.6433744430542,-0.1866401731967926,1.623231053352356
1667266098210542000,0.5705419921875,9.662516593933105,-0.1698904037475586,1.651944875717163
1667266098212939800,0.572939697265625,9.674481391906738,-0.13639089465141296,1.6974085569381714
1667266098215337700,0.575337646484375,9.693623542785645,-0.11485548317432404,1.7524434328079224
1667266098217735400,0.5777353515625,9.712766647338867,-0.08614161610603333,1.7620147466659546
1667266098220133000,0.580133056640625,9.734301567077637,-0.0526420995593071,1.750050663948059
1667266098222531000,0.582531005859375,9.746265411376953,-0.014356935396790504,1.745265007019043
1667266098224928800,0.5849287109375,9.75344467163086,-0.0023928226437419653,1.7237296104431152
1667266098227326700,0.58732666015625,9.758230209350586,0.004785645287483931,1.7069798707962036
1667266098229724400,0.589724365234375,9.767801284790039,0.01196411345154047,1.6854444742202759
1667266098232122400,0.592122314453125,9.748658180236816,0.004785645287483931,1.695015788078308
1667266098234520000,0.59452001953125,9.717552185058594,0.0023928226437419653,1.7069798707962036
1667266098236917800,0.596917724609375,9.703194618225098,-0.01196411345154047,1.7165511846542358
1667266098239315700,0.599315673828125,9.681659698486328,-0.009571290574967861,1.714158296585083
1667266098241713400,0.60171337890625,9.652945518493652,-0.01196411345154047,1.7117655277252197
1667266098244111400,0.604111328125,9.624231338500977,-0.035892341285943985,1.721336841583252
1667266098246509000,0.606509033203125,9.61226749420166,-0.06699903309345245,1.7285152673721313
1667266098248907000,0.608906982421875,9.617053031921387,-0.06699903309345245,1.7189439535140991
1667266098251304700,0.6113046875,9.62901782989502,-0.08614161610603333,1.6974085569381714
1667266098253702700,0.61370263671875,9.638588905334473,-0.10289137065410614,1.6710875034332275
1667266098256100400,0.616100341796875,9.662516593933105,-0.12921242415905,1.6351951360702515
1667266098258498300,0.618498291015625,9.684052467346191,-0.13639089465141296,1.6304094791412354
1667266098260896000,0.62089599609375,9.72233772277832,-0.1459621787071228,1.6040884256362915
1667266098263293700,0.623293701171875,9.7366943359375,-0.1746760457754135,1.5753746032714844
1667266098265691600,0.625691650390625,9.75105094909668,-0.22492532432079315,1.5442678928375244
1667266098268089300,0.62808935546875,9.758230209350586,-0.24885354936122894,1.5227324962615967
1667266098270487300,0.6304873046875,9.772586822509766,-0.2946162819862366,1.5107684135437012
1667266098272885000,0.632885009765625,9.786943435668945,-0.31375887989997864,1.5083755254745483
1667266098275283000,0.635282958984375,9.774979591369629,-0.3400799036026001,1.501197099685669
1667266098277680600,0.6376806640625,9.791728973388672,-0.3568296730518341,1.4988043308258057
1667266098280078300,0.640078369140625,9.777372360229492,-0.37836506962776184,1.5203397274017334
1667266098282476300,0.642476318359375,9.75105094909668,-0.3640081584453583,1.5346965789794922
1667266098284874000,0.6448740234375,9.758230209350586,-0.368793785572052,1.5514464378356934
1667266098287272000,0.64727197265625,9.779765129089355,-0.35443684458732605,1.568196177482605
1667266098289669600,0.649669677734375,9.770194053649902,-0.34247273206710815,1.5801602602005005
1667266098292067600,0.652067626953125,9.779765129089355,-0.30658039450645447,1.599302887916565
1667266098294465300,0.65446533203125,9.810872077941895,-0.2799602448940277,1.623231053352356
1667266098296863000,0.656863037109375,9.830313682556152,-0.2632105052471161,1.6423736810684204
1667266098299261000,0.659260986328125,9.854242324829102,-0.2153540402650833,1.6328023672103882
1667266098301658600,0.66165869140625,9.868598937988281,-0.1818545162677765,1.6471593379974365
1667266098304056600,0.664056640625,9.902098655700684,-0.15074782073497772,1.6423736810684204
1667266098306454300,0.666454345703125,9.930811882019043,-0.09571290761232376,1.659123420715332
1667266098308852200,0.668852294921875,9.93559741973877,-0.06939185410737991,1.6758731603622437
1667266098311250000,0.67125,9.92841911315918,-0.06939185410737991,1.6854444742202759
1667266098313647900,0.67364794921875,9.940383911132812,-0.05503492057323456,1.7117655277252197
1667266098316045600,0.676045654296875,9.930811882019043,-0.0526420995593071,1.7237296104431152
1667266098318443500,0.678443603515625,9.904491424560547,-0.02871387079358101,1.7189439535140991
1667266098320841200,0.68084130859375,9.866206169128418,-0.016749758273363113,1.7261223793029785
1667266098323239000,0.683239013671875,9.849455833435059,0.007178467698395252,1.695015788078308
1667266098325636900,0.685636962890625,9.839884757995605,0.009571290574967861,1.695015788078308
1667266098328034600,0.68803466796875,9.798908233642578,0.04785645380616188,1.683051586151123
1667266098330432500,0.6904326171875,9.76062297821045,0.064606212079525,1.6567305326461792
1667266098332830200,0.692830322265625,9.724730491638184,0.08853443711996078,1.6328023672103882
1667266098335228200,0.695228271484375,9.696016311645508,0.11006984114646912,1.5897315740585327
1667266098337625900,0.6976259765625,9.660123825073242,0.12681959569454193,1.5897315740585327
1667266098340023600,0.7000234375,9.63619613647461,0.12681959569454193,1.568196177482605
1667266098342421500,0.70242138671875,9.607481956481934,0.11724831163883209,1.5346965789794922
1667266098344819200,0.704819091796875,9.581160545349121,0.13878370821475983,1.532303810119629
1667266098347217200,0.707217041015625,9.569196701049805,0.11724831163883209,1.5155540704727173
1667266098349614800,0.70961474609375,9.552447319030762,0.11246266216039658,1.5179468393325806
1667266098352012800,0.7120126953125,9.533304214477539,0.09571290761232376,1.5083755254745483
1667266098354410500,0.714410400390625,9.516554832458496,0.11964113265275955,1.4940186738967896
1667266098356808400,0.716808349609375,9.506983757019043,0.11485548317432404,1.4868401288986206
1667266098359206100,0.7192060546875,9.46630573272705,0.08374879509210587,1.4916257858276367
1667266098361604000,0.72160400390625,9.449555397033691,0.06699903309345245,1.4844473600387573
1667266098364001800,0.724001708984375,9.428020477294922,0.06699903309345245,1.4796617031097412
1667266098366399500,0.7263994140625,9.384949684143066,0.06939185410737991,1.4796617031097412
1667266098368797400,0.72879736328125,9.346664428710938,0.07417750358581543,1.477268934249878
1667266098371195100,0.731195068359375,9.344271659851074,0.059820566326379776,1.4676976203918457
1667266098373593000,0.733593017578125,9.315557479858398,0.035892341285943985,1.4581263065338135
1667266098375990800,0.73599072265625,9.28445053100586,0.031106693670153618,1.4796617031097412
1667266098378388700,0.738388671875,9.245866775512695,0.031106693670153618,1.4820544719696045
1667266098380786400,0.740786376953125,9.214759826660156,0.014356935396790504,1.4820544719696045
1667266098383184100,0.74318408203125,9.174081802368164,0.035892341285943985,1.4724832773208618
1667266098385582000,0.74558203125,9.169296264648438,0.02871387079358101,1.474876046180725
1667266098387979800,0.747979736328125,9.159725189208984,0.03349951654672623,1.4581263065338135
1667266098390377700,0.750377685546875,9.169296264648438,0.019142581149935722,1.4270195960998535
1667266098392775400,0.752775390625,9.176474571228027,0,1.415055513381958
1667266098395173000,0.755173095703125,9.20279598236084,0.009571290574967861,1.4054841995239258
1667266098397571000,0.757571044921875,9.245866775512695,-0.014356935396790504,1.3980066776275635
1667266098399968800,0.75996875,9.267701148986816,-0.05742774158716202,1.410269856452942
1667266098402366700,0.76236669921875,9.327521324157715,-0.05503492057323456,1.3908281326293945
1667266098404764400,0.764764404296875,9.38734245300293,-0.0526420995593071,1.378864049911499
1667266098407162400,0.767162353515625,9.48784065246582,-0.06939185410737991,1.3549357652664185
1667266098409560000,0.76956005859375,9.571589469909668,-0.06939185410737991,1.3453645706176758
1667266098411958000,0.7719580078125,9.660123825073242,-0.11485548317432404,1.3645070791244507
1667266098414355700,0.774355712890625,9.74387264251709,-0.1339980661869049,1.347757339477539
1667266098416753700,0.776753662109375,9.8207426071167,-0.1339980661869049,1.3405789136886597
1667266098419151400,0.7791513671875,9.878170013427734,-0.15553347766399384,1.3525429964065552
1667266098421549000,0.781549072265625,9.930811882019043,-0.17946170270442963,1.3597214221954346
1667266098423947000,0.783947021484375,9.983454704284668,-0.18903298676013947,1.3525429964065552
1667266098426344700,0.7863447265625,10.02413272857666,-0.20099709928035736,1.347757339477539
1667266098428742700,0.78874267578125,10.057631492614746,-0.22971096634864807,1.342971682548523
1667266098431140400,0.791140380859375,10.064809799194336,-0.26560330390930176,1.3405789136886597
1667266098433538300,0.793538330078125,10.112667083740234,-0.2799602448940277,1.3597214221954346
1667266098435936000,0.79593603515625,10.141380310058594,-0.2874378263950348,1.374078392982483
1667266098438333700,0.798333740234375,10.136594772338867,-0.3089732229709625,1.410269856452942
1667266098440731600,0.800731689453125,10.134202003479004,-0.3089732229709625,1.4198411703109741
1667266098443129300,0.80312939453125,10.117452621459961,-0.33529427647590637,1.446162223815918
1667266098445527300,0.80552734375,10.076774597167969,-0.34725838899612427,1.4653047323226929
1667266098447925000,0.807925048828125,10.057631492614746,-0.3400799036026001,1.4820544719696045
1667266098450323000,0.810322998046875,10.036096572875977,-0.3209373354911804,1.5131611824035645
1667266098452720600,0.812720703125,10.012167930603027,-0.29700911045074463,1.532303810119629
1667266098455118600,0.81511865234375,9.976275444030762,-0.2874378263950348,1.568196177482605
1667266098457516300,0.817516357421875,9.926026344299316,-0.2584248483181,1.592124342918396
1667266098459914200,0.819914306640625,9.885348320007324,-0.21774685382843018,1.6136597394943237
1667266098462312000,0.82231201171875,9.861420631408691,-0.19381862878799438,1.599302887916565
1667266098464709600,0.824709716796875,9.847063064575195,-0.15314064919948578,1.5825530290603638
1667266098467107600,0.827107666015625,9.861420631408691,-0.1339980661869049,1.55623197555542
1667266098469505300,0.82950537109375,9.870991706848145,-0.07657032459974289,1.5442678928375244
1667266098471903200,0.8319033203125,9.880562782287598,-0.02871387079358101,1.5490535497665405
1667266098474301000,0.834301025390625,9.897313117980957,-0.02871387079358101,1.55623197555542
1667266098476699000,0.836698974609375,9.887741088867188,-0.016749758273363113,1.5897315740585327
1667266098479096600,0.8390966796875,9.882955551147461,-0.004785645287483931,1.596909999847412
1667266098481494300,0.841494384765625,9.894919395446777,-0.014356935396790504,1.6064813137054443
1667266098483892200,0.843892333984375,9.892526626586914,-0.019142581149935722,1.592124342918396
1667266098486290000,0.8462900390625,9.902098655700684,-0.014356935396790504,1.5777673721313477
1667266098488687900,0.84868798828125,9.902098655700684,-0.019142581149935722,1.561017632484436
1667266098491085600,0.85108544921875,9.897313117980957,-0.016749758273363113,1.5490535497665405
1667266098493483500,0.8534833984375,9.880562782287598,-0.02871387079358101,1.561017632484436
1667266098495881200,0.855881103515625,9.859027862548828,-0.0526420995593071,1.568196177482605
1667266098498279200,0.858279052734375,9.842277526855469,-0.05503492057323456,1.5514464378356934
1667266098500676900,0.8606767578125,9.798908233642578,-0.062213387340307236,1.568196177482605
1667266098503074800,0.86307470703125,9.767801284790039,-0.064606212079525,1.561017632484436
1667266098505472500,0.865472412109375,9.746265411376953,-0.04546362906694412,1.5658032894134521
1667266098507870200,0.8678701171875,9.684052467346191,-0.05503492057323456,1.5705889463424683
1667266098510268200,0.87026806640625,9.660123825073242,-0.062213387340307236,1.5658032894134521
1667266098512665900,0.872665771484375,9.624231338500977,-0.064606212079525,1.572981834411621
1667266098515063800,0.875063720703125,9.59073257446289,-0.05742774158716202,1.599302887916565
1667266098517461500,0.87746142578125,9.564411163330078,-0.038285162299871445,1.6088740825653076
1667266098519859500,0.879859375,9.535696983337402,-0.035892341285943985,1.6328023672103882
1667266098522257200,0.882257080078125,9.51176929473877,-0.0526420995593071,1.6399807929992676
1667266098524654800,0.88465478515625,9.478269577026367,-0.040677983313798904,1.651944875717163
1667266098527052800,0.887052734375,9.439984321594238,-0.04307080805301666,1.6471593379974365
1667266098529450500,0.889450439453125,9.4088773727417,-0.038285162299871445,1.6304094791412354
1667266098531848400,0.891848388671875,9.39452075958252,-0.035892341285943985,1.6304094791412354
1667266098534246100,0.89424609375,9.35623550415039,-0.02392822690308094,1.6040884256362915
1667266098536644000,0.89664404296875,9.35623550415039,-0.01196411345154047,1.5777673721313477
1667266098539041800,0.899041748046875,9.320343017578125,-0.019142581149935722,1.5777673721313477
1667266098541439700,0.901439697265625,9.291629791259766,-0.031106693670153618,1.5490535497665405
1667266098543837400,0.90383740234375,9.286844253540039,-0.014356935396790504,1.5490535497665405
1667266098546235400,0.9062353515625,9.267701148986816,0,1.5514464378356934
1667266098548633000,0.908633056640625,9.267701148986816,-0.014356935396790504,1.5490535497665405
1667266098551030800,0.91103076171875,9.250652313232422,-0.019142581149935722,1.5442678928375244
1667266098553428700,0.9134287109375,9.250652313232422,-0.009571290574967861,1.5442678928375244
1667266098555826400,0.915826416015625,9.241081237792969,0.004785645287483931,1.5514464378356934
1667266098558224400,0.918224365234375,9.248259544372559,0,1.572981834411621
1667266098560622000,0.9206220703125,9.26291561126709,-0.01196411345154047,1.5705889463424683
1667266098563020000,0.92302001953125,9.296415328979492,0.004785645287483931,1.5801602602005005
1667266098565417700,0.925417724609375,9.339486122131348,0.0023928226437419653,1.5705889463424683
1667266098567815400,0.9278154296875,9.406484603881836,0.007178467698395252,1.5466607809066772
1667266098570213400,0.93021337890625,9.478269577026367,-0.004785645287483931,1.5466607809066772
1667266098572611000,0.932611083984375,9.578767776489258,-0.007178467698395252,1.5442678928375244
1667266098575009000,0.935009033203125,9.679266929626465,-0.02153540402650833,1.5538392066955566
1667266098577406700,0.93740673828125,9.767801284790039,-0.031106693670153618,1.5275181531906128
1667266098579804700,0.9398046875,9.849455833435059,-0.04307080805301666,1.5179468393325806
1667266098582202400,0.942202392578125,9.89970588684082,-0.0526420995593071,1.5035899877548218
1667266098584600300,0.944600341796875,9.978668212890625,-0.064606212079525,1.4964114427566528
1667266098586998000,0.946998046875,10.04566764831543,-0.08374879509210587,1.4844473600387573
1667266098589396000,0.94939599609375,10.093523979187012,-0.11485548317432404,1.4724832773208618
1667266098591793700,0.951793701171875,10.112667083740234,-0.12203395366668701,1.4653047323226929
1667266098594191400,0.95419140625,10.13898754119873,-0.10289137065410614,1.4724832773208618
1667266098596589300,0.95658935546875,10.148558616638184,-0.10289137065410614,1.501197099685669
1667266098598987000,0.958987060546875,10.17009449005127,-0.11485548317432404,1.5203397274017334
1667266098601385000,0.961385009765625,10.17009449005127,-0.12921242415905,1.5394822359085083
1667266098603782700,0.96378271484375,10.13180923461914,-0.1339980661869049,1.5514464378356934
1667266098606180600,0.9661806640625,10.105487823486328,-0.12921242415905,1.572981834411621
1667266098608578300,0.968578369140625,10.064809799194336,-0.12442677468061447,1.5945172309875488
1667266098610976000,0.97097607421875,10.01456069946289,-0.12442677468061447,1.5777673721313477
1667266098613374000,0.9733740234375,9.954740524291992,-0.12681959569454193,1.5825530290603638
1667266098615771600,0.975771728515625,9.918848037719727,-0.1052841991186142,1.572981834411621
1667266098618169600,0.978169677734375,9.875777244567871,-0.0933200865983963,1.5801602602005005
1667266098620567300,0.9805673828125,9.827920913696289,-0.07657032459974289,1.568196177482605
1667266098622965200,0.98296533203125,9.789336204528809,-0.05742774158716202,1.561017632484436
1667266098625363000,0.985363037109375,9.7366943359375,-0.040677983313798904,1.5658032894134521
1667266098627761000,0.987760986328125,9.693623542785645,-0.019142581149935722,1.5394822359085083
1667266098630158600,0.99015869140625,9.669695854187012,0.0023928226437419653,1.505982756614685
1667266098632556500,0.992556640625,9.607481956481934,0.02153540402650833,1.4796617031097412
1667266098634954200,0.994954345703125,9.569196701049805,0.016749758273363113,1.4629119634628296
1667266098637352000,0.99735205078125,9.516554832458496,0.038285162299871445,1.4676976203918457
1667266098639750000,0.99975,9.454340934753418,0.04785645380616188,1.4557334184646606
1667266098642147600,1.002147705078125,9.406484603881836,0.04307080805301666,1.446162223815918
1667266098644545500,1.004545654296875,9.368199348449707,0.038285162299871445,1.446162223815918
1667266098646943200,1.006943115234375,9.305986404418945,0.035892341285943985,1.4605190753936768
1667266098649341200,1.009341064453125,9.291629791259766,0.040677983313798904,1.4676976203918457
1667266098651739000,1.01173876953125,9.282057762145996,0.040677983313798904,1.4557334184646606
1667266098654136600,1.014136474609375,9.301200866699219,0.031106693670153618,1.4318052530288696
1667266098656534500,1.016534423828125,9.322735786437988,0.04546362906694412,1.4294124841690063
1667266098658932200,1.01893212890625,9.351449966430664,0.04546362906694412,1.4437693357467651
1667266098661330200,1.021330078125,9.375378608703613,0.031106693670153618,1.4294124841690063
1667266098663727900,1.023727783203125,9.437591552734375,0.02153540402650833,1.4437693357467651
1667266098666125800,1.026125732421875,9.485447883605957,-0.01196411345154047,1.4557334184646606
1667266098668523500,1.0285234375,9.509376525878906,-0.0023928226437419653,1.4653047323226929
1667266098670921500,1.03092138671875,9.557232856750488,-0.016749758273363113,1.4868401288986206
1667266098673319200,1.033319091796875,9.576375007629395,-0.040677983313798904,1.5107684135437012
1667266098675717000,1.035717041015625,9.600303649902344,-0.031106693670153618,1.5203397274017334
1667266098678114800,1.03811474609375,9.602696418762207,-0.04307080805301666,1.55623197555542
1667266098680512500,1.040512451171875,9.595518112182617,-0.04546362906694412,1.572981834411621
1667266098682910500,1.042910400390625,9.624231338500977,-0.0526420995593071,1.5873386859893799
1667266098685308200,1.04530810546875,9.648159980773926,-0.05503492057323456,1.596909999847412
1667266098687706000,1.0477060546875,9.662516593933105,-0.040677983313798904,1.6040884256362915
1667266098690103800,1.050103759765625,9.669695854187012,-0.0526420995593071,1.6016956567764282
1667266098692501800,1.052501708984375,9.705587387084961,-0.04546362906694412,1.6136597394943237
1667266098694899500,1.0548994140625,9.72951602935791,-0.04307080805301666,1.6064813137054443
1667266098697297400,1.05729736328125,9.758230209350586,-0.03349951654672623,1.5801602602005005
1667266098699695000,1.059695068359375,9.774979591369629,-0.02632104977965355,1.5897315740585327
1667266098702092800,1.0620927734375,9.784550666809082,-0.02632104977965355,1.5897315740585327
1667266098704490800,1.06449072265625,9.803693771362305,-0.02871387079358101,1.6016956567764282
1667266098706888400,1.066888427734375,9.806086540222168,-0.040677983313798904,1.5897315740585327
1667266098709286400,1.069286376953125,9.789336204528809,-0.05024927482008934,1.5801602602005005
1667266098711684000,1.07168408203125,9.798908233642578,-0.05503492057323456,1.572981834411621
1667266098714082000,1.07408203125,9.784550666809082,-0.05503492057323456,1.568196177482605
1667266098716479700,1.076479736328125,9.748658180236816,-0.04785645380616188,1.5658032894134521
1667266098718877700,1.078877685546875,9.74387264251709,-0.04307080805301666,1.5634105205535889
1667266098721275400,1.081275390625,9.727123260498047,-0.04546362906694412,1.5538392066955566
1667266098723673000,1.083673095703125,9.719944953918457,-0.0526420995593071,1.5490535497665405
1667266098726071000,1.086071044921875,9.739087104797363,-0.04546362906694412,1.5394822359085083
1667266098728468700,1.08846875,9.755837440490723,-0.04307080805301666,1.5275181531906128
1667266098730866700,1.09086669921875,9.777372360229492,-0.05503492057323456,1.5346965789794922
1667266098733264400,1.093264404296875,9.796515464782715,-0.05742774158716202,1.5251253843307495
1667266098735662300,1.095662353515625,9.815657615661621,-0.06939185410737991,1.532303810119629
1667266098738060000,1.09806005859375,9.825528144836426,-0.06699903309345245,1.537089467048645
1667266098740458000,1.1004580078125,9.847063064575195,-0.0526420995593071,1.561017632484436
1667266098742855700,1.102855712890625,9.847063064575195,-0.06699903309345245,1.5705889463424683
1667266098745253600,1.105253662109375,9.844670295715332,-0.07896314561367035,1.592124342918396
1667266098747651300,1.1076513671875,9.813264846801758,-0.09092725813388824,1.6064813137054443
1667266098750049000,1.110049072265625,9.763015747070312,-0.08374879509210587,1.6064813137054443
1667266098752447000,1.112447021484375,9.703194618225098,-0.07657032459974289,1.628016710281372
1667266098754844700,1.1148447265625,9.667302131652832,-0.07178468257188797,1.654337763786316
1667266098757242600,1.11724267578125,9.61944580078125,-0.035892341285943985,1.6639090776443481
1667266098759640300,1.119640380859375,9.583553314208984,-0.02632104977965355,1.6710875034332275
1667266098762038000,1.1220380859375,9.564411163330078,0,1.678265929222107
1667266098764436000,1.12443603515625,9.509376525878906,0.02632104977965355,1.690230131149292
1667266098766833700,1.126833740234375,9.449555397033691,0.059820566326379776,1.7165511846542358
1667266098769231600,1.129231689453125,9.392127990722656,0.08853443711996078,1.721336841583252
1667266098771629300,1.13162939453125,9.334700584411621,0.13160525262355804,1.7309080362319946
1667266098774027300,1.13402734375,9.320343017578125,0.16271193325519562,1.7548363208770752
1667266098776425000,1.136425048828125,9.298808097839355,0.1579262912273407,1.7356936931610107
1667266098778823000,1.138822998046875,9.28445053100586,0.1866401731967926,1.7428722381591797
1667266098781220600,1.141220703125,9.308379173278809,0.21774685382843018,1.7691932916641235
1667266098783618600,1.14361865234375,9.329915046691895,0.23688943684101105,1.7979071140289307
1667266098786016300,1.146016357421875,9.406484603881836,0.28504499793052673,1.831406593322754
1667266098788414000,1.1484140625,9.538089752197266,0.35922250151634216,1.843370795249939
1667266098790812000,1.15081201171875,9.672088623046875,0.4094717800617218,1.8864415884017944
1667266098793209600,1.153209716796875,9.789336204528809,0.4668995141983032,1.934298038482666
1667266098795607600,1.155607666015625,9.894919395446777,0.5147559642791748,1.9752750396728516
1667266098798005200,1.158005126953125,10.009775161743164,0.5362913608551025,2.0135602951049805
1667266098800403200,1.1604033203125,10.107880592346191,0.5530411601066589,2.0542383193969727
1667266098802801000,1.16280078125,10.179665565490723,0.5650052428245544,2.0853450298309326
1667266098805198800,1.16519873046875,10.239486694335938,0.5578267574310303,2.1403799057006836
1667266098807596500,1.167596435546875,10.275378227233887,0.5291129350662231,2.17627215385437
1667266098809994500,1.169994384765625,10.261021614074707,0.5003990530967712,2.181057929992676
1667266098812392200,1.17239208984375,10.268199920654297,0.48364928364753723,2.1403799057006836
1667266098814790000,1.174789794921875,10.26341438293457,0.45254257321357727,2.042274236679077
1667266098817187800,1.177187744140625,10.232307434082031,0.4142574071884155,1.92951238155365
1667266098819585500,1.17958544921875,10.205986976623535,0.39032918214797974,1.8146568536758423
1667266098821983500,1.1819833984375,10.189236640930176,0.38315072655677795,1.7117655277252197
1667266098824381200,1.184381103515625,10.16291618347168,0.3448655605316162,1.6016956567764282
1667266098826779100,1.186779052734375,10.148558616638184,0.31375887989997864,1.4988043308258057
1667266098829176800,1.1891767578125,10.095916748046875,0.2946162819862366,1.4294124841690063
1667266098831574500,1.191574462890625,10.079167366027832,0.24885354936122894,1.347757339477539
1667266098833972500,1.193972412109375,10.048060417175293,0.21774685382843018,1.2759727239608765
1667266098836370200,1.1963701171875,10.028918266296387,0.1698904037475586,1.2065808773040771
1667266098838768000,1.19876806640625,10.019346237182617,0.11485548317432404,1.1276177167892456
1667266098841165800,1.201165771484375,10.028918266296387,0.07417750358581543,1.067797064781189
1667266098843563800,1.203563720703125,10.067203521728516,0.031106693670153618,0.9936196208000183
1667266098845961500,1.20596142578125,10.100702285766602,0,0.924227774143219
1667266098848359400,1.208359375,10.15573787689209,-0.05024927482008934,0.8763712644577026
1667266098850757000,1.210757080078125,10.246665000915527,-0.09571290761232376,0.8452646136283875
1667266098853155000,1.213155029296875,10.344770431518555,-0.12442677468061447,0.8090731501579285
1667266098855552800,1.215552734375,10.457531929016113,-0.15074782073497772,0.766002357006073
1667266098857950500,1.217950439453125,10.589137077331543,-0.12442677468061447,0.6918248534202576
1667266098860348400,1.220348388671875,10.720743179321289,-0.12442677468061447,0.6415755748748779
1667266098862746000,1.22274609375,10.878668785095215,-0.12203395366668701,0.5865406394004822
1667266098865144000,1.22514404296875,11.001002311706543,-0.11246266216039658,0.5650052428245544
1667266098867541800,1.227541748046875,11.149356842041016,-0.07657032459974289,0.5578267574310303
1667266098869939700,1.229939697265625,11.285747528076172,-0.03349951654672623,0.5650052428245544
1667266098872337400,1.23233740234375,11.438888549804688,0.014356935396790504,0.6152545213699341
1667266098874735400,1.2347353515625,11.597113609313965,0.10049854964017868,0.6607181429862976
1667266098877133000,1.237133056640625,11.790932655334473,0.17228323221206665,0.7109674215316772
1667266098879530800,1.23953076171875,11.948859214782715,0.24885354936122894,0.7492526173591614
1667266098881928700,1.2419287109375,12.085549354553223,0.3329014480113983,0.7851449251174927
1667266098884326400,1.244326416015625,12.193225860595703,0.43579283356666565,0.7995018362998962
1667266098886724400,1.246724365234375,12.332009315490723,0.5482555031776428,0.7851449251174927
1667266098889122000,1.2491220703125,12.4540433883667,0.6918248534202576,0.7277171611785889
1667266098891520000,1.25152001953125,12.54736328125,0.893121063709259,0.6296114325523376
1667266098893917700,1.253917724609375,12.629018783569336,1.1467602252960205,0.4812564551830292
1667266098896315600,1.256315673828125,12.700803756713867,1.4533406496047974,0.31375887989997864
1667266098898713300,1.25871337890625,12.796516418457031,1.7309080362319946,0.1818545162677765
1667266098901111000,1.261111083984375,12.944870948791504,2.0398812294006348,0.038285162299871445
1667266098903509000,1.263509033203125,13.124333381652832,2.3270199298858643,-0.12921242415905
1667266098905906700,1.26590673828125,13.277772903442383,2.5929224491119385,-0.27038896083831787
1667266098908304600,1.2683046875,13.435699462890625,2.834597587585449,-0.4166502356529236
1667266098910702300,1.270702392578125,13.586446762084961,3.05234432220459,-0.5267201066017151
1667266098913100300,1.273100341796875,13.682159423828125,3.256033420562744,-0.612861692905426
1667266098915498000,1.275498046875,13.799707412719727,3.445066452026367,-0.6942176818847656
1667266098917896000,1.27789599609375,13.90259838104248,3.624528169631958,-0.768395185470581
1667266098920293600,1.280293701171875,14.010275840759277,3.7923247814178467,-0.8452646136283875
1667266098922691600,1.282691650390625,14.120345115661621,3.9478583335876465,-0.9122636318206787
1667266098925089300,1.28508935546875,14.251951217651367,4.065106391906738,-0.9649057388305664
1667266098927487000,1.287487060546875,14.347962379455566,4.144069671630859,-1.0414760112762451
1667266098929885000,1.289885009765625,14.472389221191406,4.191926002502441,-1.1371889114379883
1667266098932282600,1.29228271484375,14.587244987487793,4.230510234832764,-1.256830096244812
1667266098934680600,1.2946806640625,14.745171546936035,4.223331928253174,-1.3932210206985474
1667266098937078300,1.297078369140625,14.905789375305176,4.249652862548828,-1.537089467048645
1667266098939476200,1.299476318359375,15.078072547912598,4.278367042541504,-1.678265929222107
1667266098941874000,1.3018740234375,15.293426513671875,4.3070807456970215,-1.7883358001708984
1667266098944271600,1.304271728515625,15.427424430847168,4.273581027984619,-1.659123420715332
1667266098946669600,1.306669677734375,15.607185363769531,4.323830604553223,-1.6112669706344604
1667266098949067300,1.3090673828125,15.913467407226562,4.460221290588379,-1.6136597394943237
1667266098951465200,1.31146533203125,16.301403045654297,4.60857629776001,-1.6016956567764282
1667266098953863000,1.31386279296875,16.744375228881836,4.716253280639648,-1.596909999847412
1667266098956260900,1.3162607421875,17.108083724975586,4.876871585845947,-1.5634105205535889
1667266098958658600,1.318658447265625,17.479270935058594,5.053940296173096,-1.4940186738967896
1667266098961056500,1.321056396484375,17.80499267578125,5.204688549041748,-1.4270195960998535
1667266098963454200,1.3234541015625,18.104095458984375,5.336592674255371,-1.3764712810516357
1667266098965852200,1.32585205078125,18.36281967163086,5.4418768882751465,-1.342971682548523
1667266098968249900,1.328249755859375,18.587745666503906,5.542375564575195,-1.323829174041748
1667266098970647600,1.3306474609375,18.793527603149414,5.611767292022705,-1.3334003686904907
1667266098973045500,1.33304541015625,18.908681869506836,5.678766250610352,-1.3405789136886597
1667266098975443200,1.335443115234375,18.982860565185547,5.738586902618408,-1.3764712810516357
1667266098977841200,1.337841064453125,19.002002716064453,5.810371398925781,-1.4413765668869019
1667266098980238800,1.34023876953125,19.00678825378418,5.84147834777832,-1.5251253843307495
1667266098982636800,1.34263671875,18.951753616333008,5.843871116638184,-1.6064813137054443
1667266098985034500,1.345034423828125,18.86082649230957,5.683551788330078,-1.7117655277252197
1667266098987432400,1.347432373046875,18.75763511657715,5.482554912567139,-1.8242281675338745
1667266098989830100,1.349830078125,18.661922454833984,5.528018474578857,-1.8457635641098022
1667266098992228000,1.35222802734375,18.54945945739746,5.539982795715332,-1.83619225025177
1667266098994625800,1.354625732421875,18.427425384521484,5.475376605987549,-1.8290138244628906
1667266098997023500,1.3570234375,18.355642318725586,5.425127029418945,-1.8601205348968506
1667266098999421400,1.35942138671875,18.346071243286133,5.319543838500977,-1.9606190919876099
1667266099001819100,1.361819091796875,18.329320907592773,5.235795021057129,-2.0997018814086914
1667266099004217000,1.364217041015625,18.2742862701416,5.137689113616943,-2.2193429470062256
1667266099006614800,1.36661474609375,18.149559020996094,5.051547527313232,-2.2983062267303467
1667266099009012700,1.3690126953125,17.977275848388672,4.977370262145996,-2.310270309448242
1667266099011410400,1.371410400390625,17.77867317199707,4.905585289001465,-2.3222343921661377
1667266099013808000,1.37380810546875,17.503198623657227,4.817050933837891,-2.348555326461792
1667266099016206000,1.3762060546875,17.19213104248047,4.721039295196533,-2.3509483337402344
1667266099018603800,1.378603759765625,16.83769416809082,4.639683246612549,-2.3844478130340576
1667266099021001700,1.381001708984375,16.454544067382812,4.567898273468018,-2.417947292327881
1667266099023399400,1.3833994140625,16.04776382446289,4.46979284286499,-2.480160713195801
1667266099025797400,1.38579736328125,15.64547061920166,4.40757942199707,-2.5283162593841553
1667266099028195000,1.388195068359375,15.25753402709961,4.350151538848877,-2.5761725902557373
1667266099030593000,1.390593017578125,14.862420082092285,4.302295207977295,-2.6407787799835205
1667266099032990700,1.39299072265625,14.525032043457031,4.230510234832764,-2.729313373565674
1667266099035388700,1.395388671875,14.242379188537598,4.170390605926514,-2.8298118114471436
1667266099037786400,1.397786376953125,13.995918273925781,4.103391647338867,-2.9327032566070557
1667266099040184000,1.40018408203125,13.773386001586914,4.022035598754883,-3.0403802394866943
1667266099042582000,1.40258203125,13.545768737792969,3.921537160873413,-3.1387851238250732
1667266099044979700,1.404979736328125,13.342378616333008,3.81864595413208,-3.232105255126953
1667266099047377700,1.407377685546875,13.145868301391602,3.7612180709838867,-3.3302109241485596
1667266099049775400,1.409775390625,12.928121566772461,3.6942191123962402,-3.4402806758880615
1667266099052173300,1.41217333984375,12.727124214172363,3.624528169631958,-3.524029493331909
1667266099054571000,1.414571044921875,12.506686210632324,3.5718860626220703,-3.6511483192443848
1667266099056969000,1.416968994140625,12.29133129119873,3.5359935760498047,-3.770789384841919
1667266099059366700,1.41936669921875,12.06640625,3.4785659313201904,-3.873680830001831
1667266099061764600,1.4217646484375,11.838788986206055,3.4259238243103027,-4.00528621673584
1667266099064162300,1.424162353515625,11.637791633605957,3.3613176345825195,-4.141676902770996
1667266099066560000,1.42656005859375,11.474781036376953,3.277568817138672,-4.287938117980957
1667266099068958000,1.4289580078125,11.312068939208984,3.1890344619750977,-4.445864677429199
1667266099071355600,1.431355712890625,11.187642097473145,3.090928554534912,-4.555934429168701
1667266099073753600,1.433753662109375,11.103893280029297,2.9805595874786377,-4.709074974060059
1667266099076151300,1.4361513671875,11.039287567138672,2.92073917388916,-4.891228675842285
1667266099078549200,1.43854931640625,10.962717056274414,2.8680970668792725,-5.089832782745361
1667266099080947000,1.440947021484375,10.866704940795898,2.777169704437256,-5.281258583068848
1667266099083344600,1.4433447265625,10.787741661071777,2.652743101119995,-5.453841209411621
1667266099085742600,1.44574267578125,10.713563919067383,2.5474588871002197,-5.5758748054504395
1667266099088140300,1.448140380859375,10.680065155029297,2.4634108543395996,-5.678766250610352
1667266099090538200,1.450538330078125,10.656136512756348,2.3820550441741943,-5.839085578918457
1667266099092936000,1.45293603515625,10.620244026184082,2.3054845333099365,-6.011667728424072
1667266099095334000,1.455333984375,10.591530799865723,2.20737886428833,-6.16480827331543
1667266099097731600,1.457731689453125,10.553245544433594,2.090130567550659,-6.255735874176025
1667266099100129500,1.460129638671875,10.467103958129883,1.9992033243179321,-6.315556049346924
1667266099102527200,1.46252734375,10.390533447265625,1.8840487003326416,-6.310770511627197
1667266099104925200,1.46492529296875,10.306485176086426,1.8170497417449951,-6.372983932495117
1667266099107323000,1.467322998046875,10.194023132324219,1.7931214570999146,-6.435197353363037
1667266099109720600,1.469720458984375,10.033703804016113,1.7404793500900269,-6.428019046783447
1667266099112118500,1.472118408203125,9.837491989135742,1.6758731603622437,-6.372983932495117
1667266099114516200,1.47451611328125,9.645767211914062,1.596909999847412,-6.28205680847168
1667266099116914200,1.4769140625,9.514162063598633,1.5131611824035645,-6.198307991027832
1667266099119312000,1.479311767578125,9.39452075958252,1.4485549926757812,-6.081059455871582
1667266099121709800,1.481709716796875,9.296415328979492,1.3716856241226196,-5.9662041664123535
1667266099124107500,1.484107421875,9.20997428894043,1.3094722032546997,-5.822335720062256
1667266099126505500,1.48650537109375,9.133403778076172,1.2089736461639404,-5.666802406311035
1667266099128903200,1.488903076171875,9.078369140625,1.1180464029312134,-5.5136613845825195
1667266099131301000,1.491301025390625,9.006584167480469,1.048654556274414,-5.32193660736084
1667266099133698800,1.49369873046875,8.975478172302246,0.9625129103660583,-5.132903575897217
1667266099136096500,1.496096435546875,8.922835350036621,0.8620143532752991,-4.936692237854004
1667266099138494500,1.498494384765625,8.913264274597168,0.7947162389755249,-4.737788677215576
1667266099140892200,1.50089208984375,8.913264274597168,0.7636095285415649,-4.517649173736572
1667266099143290000,1.5032900390625,8.941978454589844,0.7755736112594604,-4.299902439117432
1667266099145687800,1.505687744140625,8.95394229888916,0.7731808423995972,-4.115355968475342
1667266099148085800,1.508085693359375,8.956335067749023,0.7875377535820007,-3.921537160873413
1667266099150483500,1.5104833984375,8.95394229888916,0.8210372924804688,-3.7205400466918945
1667266099152881200,1.512881103515625,8.941978454589844,0.8452646136283875,-3.5336008071899414
1667266099155279000,1.515279052734375,8.908478736877441,0.8644071817398071,-3.373281717300415
1667266099157676800,1.5176767578125,8.855836868286133,0.893121063709259,-3.2440693378448486
1667266099160074800,1.52007470703125,8.803194046020508,0.8691928386688232,-3.088535785675049
1667266099162472400,1.522472412109375,8.731410026550293,0.8306085467338562,-2.9638099670410156
1667266099164870400,1.524870361328125,8.649754524230957,0.8186444640159607,-2.8298118114471436
1667266099167268000,1.52726806640625,8.55882740020752,0.7923234105110168,-2.7173492908477783
1667266099169666000,1.529666015625,8.472685813903809,0.7492526173591614,-2.6072793006896973
1667266099172063700,1.532063720703125,8.360222816467285,0.7037889361381531,-2.5088746547698975
1667266099174461700,1.534461669921875,8.250153541564941,0.6678966283798218,-2.417947292327881
1667266099176859400,1.536859375,8.16401195526123,0.5985047817230225,-2.33180570602417
1667266099179257000,1.539257080078125,8.099106788635254,0.5338985323905945,-2.2719850540161133
1667266099181655000,1.541655029296875,8.051250457763672,0.4812564551830292,-2.2432711124420166
1667266099184052700,1.544052734375,8.034500122070312,0.42382872104644775,-2.1954147815704346
1667266099186450700,1.54645068359375,8.036892890930176,0.3735794425010681,-2.1643080711364746
1667266099188848400,1.548848388671875,8.084749221801758,0.34725838899612427,-2.111665964126587
1667266099191246300,1.551246337890625,8.130212783813477,0.3113660514354706,-2.049452543258667
1667266099193644000,1.55364404296875,8.211868286132812,0.27038896083831787,-2.0159530639648438
1667266099196042000,1.5560419921875,8.314759254455566,0.23688943684101105,-1.9606190919876099
1667266099198439700,1.558439697265625,8.381758689880371,0.16271193325519562,-1.8553348779678345
1667266099200837600,1.560837646484375,8.436793327331543,0.07417750358581543,-1.7237296104431152
1667266099203235300,1.5632353515625,8.482256889343262,-0.014356935396790504,-1.5634105205535889
1667266099205633000,1.565633056640625,8.534899711608887,-0.11964113265275955,-1.3764712810516357
1667266099208031000,1.568031005859375,8.549256324768066,-0.23449662327766418,-1.2113664150238037
1667266099210428700,1.5704287109375,8.568398475646973,-0.3807578980922699,-1.0247262716293335
1667266099212826600,1.57282666015625,8.597112655639648,-0.5386841893196106,-0.8691928386688232
1667266099215224300,1.575224365234375,8.635397911071777,-0.732502818107605,-0.7803592681884766
1667266099217622300,1.577622314453125,8.64496898651123,-0.9026923179626465,-0.7253243923187256
1667266099220020000,1.58002001953125,8.616254806518555,-1.0821540355682373,-0.7157530784606934
1667266099222417700,1.582417724609375,8.561220169067383,-1.2400803565979004,-0.7085745930671692
1667266099224815600,1.584815673828125,8.496614456176758,-1.4054841995239258,-0.6966105103492737
1667266099227213300,1.58721337890625,8.432007789611816,-1.5514464378356934,-0.6846463680267334
1667266099229611300,1.589611328125,8.355437278747559,-1.6806588172912598,-0.6296114325523376
1667266099232009000,1.592009033203125,8.312366485595703,-1.83619225025177,-0.5697908997535706
1667266099234407000,1.594406982421875,8.28843879699707,-1.9800606966018677,-0.490827739238739
1667266099236804600,1.5968046875,8.266902923583984,-2.1308085918426514,-0.41186460852622986
1667266099239202600,1.59920263671875,8.254939079284668,-2.2983062267303467,-0.3329014480113983
1667266099241600300,1.601600341796875,8.247760772705078,-2.4562325477600098,-0.24885354936122894
1667266099243998200,1.603998291015625,8.226224899291992,-2.566601276397705,-0.17228323221206665
1667266099246396000,1.60639599609375,8.231010437011719,-2.6647071838378906,-0.09571290761232376
1667266099248793600,1.608793701171875,8.235795974731445,-2.731706142425537,-0.014356935396790504
1667266099251191600,1.611191650390625,8.20229721069336,-2.769991397857666,0.0933200865983963
1667266099253589200,1.61358935546875,8.154440879821777,-2.755634307861328,0.21774685382843018
1667266099255987200,1.6159873046875,8.154440879821777,-2.7125635147094727,0.3113660514354706
1667266099258385000,1.618385009765625,8.20229721069336,-2.6312077045440674,0.40229329466819763
1667266099260782800,1.620782958984375,8.314759254455566,-2.5307090282440186,0.5171487927436829
1667266099263180500,1.6231806640625,8.417651176452637,-2.396411895751953,0.6152545213699341
1667266099265578500,1.62557861328125,8.575576782226562,-2.2169501781463623,0.7277171611785889
1667266099267976200,1.62797607421875,8.726624488830566,-2.0518453121185303,0.8883354067802429
1667266099270374100,1.6303740234375,8.886942863464355,-1.9127626419067383,1.0701899528503418
1667266099272771800,1.632771728515625,9.035298347473145,-1.77397882938385,1.2687941789627075
1667266099275169500,1.63516943359375,9.131011009216309,-1.6447664499282837,1.4868401288986206
1667266099277567500,1.6375673828125,9.181260108947754,-1.5705889463424683,1.7333009243011475
1667266099279965200,1.639965087890625,9.176474571228027,-1.5586248636245728,1.9824535846710205
1667266099282363100,1.642363037109375,9.147761344909668,-1.5873386859893799,2.200200319290161
1667266099284760800,1.6447607421875,9.07119083404541,-1.7045869827270508,2.410768747329712
1667266099287158800,1.64715869140625,8.937192916870117,-1.8864415884017944,2.549851655960083
1667266099289556500,1.649556396484375,8.781659126281738,-2.063809633255005,2.628814697265625
1667266099291954200,1.6519541015625,8.575576782226562,-2.2600209712982178,2.659921407699585
1667266099294352100,1.65435205078125,8.348258972167969,-2.4634108543395996,2.604886531829834
1667266099296749800,1.656749755859375,8.089534759521484,-2.628814697265625,2.5307090282440186
1667266099299147800,1.659147705078125,7.814360618591309,-2.825026273727417,2.4562325477600098
1667266099301545500,1.66154541015625,7.512565612792969,-2.997309446334839,2.3676979541778564
1667266099303943400,1.663943359375,7.256533622741699,-3.1555347442626953,2.2480568885803223
1667266099306341000,1.666341064453125,7.019644260406494,-3.301496982574463,2.1092731952667236
1667266099308739000,1.668739013671875,6.818347930908203,-3.4163525104522705,1.958226203918457
1667266099311136800,1.67113671875,6.643671989440918,-3.500101327896118,1.7620147466659546
1667266099313534700,1.67353466796875,6.480959892272949,-3.5647075176239014,1.5538392066955566
1667266099315932400,1.675932373046875,6.372983932495117,-3.5910286903381348,1.3070793151855469
1667266099318330000,1.678330078125,6.291627883911133,-3.569493293762207,1.0606186389923096
1667266099320728000,1.68072802734375,6.236593246459961,-3.5048868656158447,0.8234301209449768
1667266099323125800,1.683125732421875,6.181558132171631,-3.404388427734375,0.6176473498344421
1667266099325523700,1.685523681640625,6.112166404724121,-3.301496982574463,0.4046861231327057
1667266099327921400,1.68792138671875,6.061916828155518,-3.1722846031188965,0.24646073579788208
1667266099330319400,1.6903193359375,6.023632049560547,-3.0188448429107666,0.09810572862625122
1667266099332717000,1.692717041015625,6.006882190704346,-2.856132984161377,-0.019142581149935722
1667266099335115000,1.695114990234375,5.999703884124756,-2.6862425804138184,-0.062213387340307236
1667266099337512700,1.6975126953125,5.994917869567871,-2.5713870525360107,-0.09571290761232376
1667266099339910400,1.699910400390625,6.035595893859863,-2.444268226623535,-0.06699903309345245
1667266099342308400,1.702308349609375,6.145665645599365,-2.33180570602417,-0.01196411345154047
1667266099344706000,1.7047060546875,6.272485256195068,-2.255235433578491,0.09092725813388824
1667266099347104000,1.70710400390625,6.3993048667907715,-2.200200319290161,0.2273181527853012
1667266099349501700,1.709501708984375,6.533602237701416,-2.1643080711364746,0.4142574071884155
1667266099351899600,1.711899658203125,6.662814617156982,-2.1475582122802734,0.6224330067634583
1667266099354297300,1.71429736328125,6.81595516204834,-2.1619153022766113,0.8162516355514526
1667266099356695300,1.7166953125,6.94038200378418,-2.1619153022766113,1.0007981061935425
1667266099359093000,1.719093017578125,7.06271505355835,-2.1930220127105713,1.2233306169509888
1667266099361490700,1.72149072265625,7.2349982261657715,-2.2576282024383545,1.446162223815918
1667266099363888600,1.723888671875,7.45274543762207,-2.338984251022339,1.5945172309875488
1667266099366286300,1.726286376953125,7.740182876586914,-2.4466612339019775,1.7069798707962036
1667266099368684300,1.728684326171875,8.053643226623535,-2.564208507537842,1.7883358001708984
1667266099371082000,1.73108203125,8.4200439453125,-2.691028118133545,1.872084617614746
1667266099373480000,1.73347998046875,8.762516975402832,-2.863311290740967,1.9776679277420044
1667266099375877600,1.735877685546875,9.116654396057129,-3.037987470626831,2.090130567550659
1667266099378275600,1.738275634765625,9.432806015014648,-3.2344980239868164,2.2193429470062256
1667266099380673300,1.74067333984375,9.741479873657227,-3.4091739654541016,2.365305185317993
1667266099383071200,1.7430712890625,9.988240242004395,-3.5910286903381348,2.535494804382324
1667266099385469000,1.745468994140625,10.194023132324219,-3.7444684505462646,2.707777976989746
1667266099387866600,1.74786669921875,10.349555969238281,-3.866502285003662,2.8776683807373047
1667266099390264600,1.7502646484375,10.493424415588379,-4.010071754455566,3.0236306190490723
1667266099392662300,1.752662353515625,10.608280181884766,-4.146462440490723,3.1627132892608643
1667266099395060200,1.755060302734375,10.69681453704834,-4.304687976837158,3.3206396102905273
1667266099397458000,1.7574580078125,10.735099792480469,-4.46979284286499,3.4618160724639893
1667266099399855900,1.75985595703125,10.713563919067383,-4.60857629776001,3.600599765777588
1667266099402253600,1.762253662109375,10.670493125915527,-4.716253280639648,3.6726837158203125
1667266099404651300,1.7646513671875,10.601101875305176,-4.790729999542236,3.70139741897583
1667266099407049200,1.76704931640625,10.502995491027832,-4.931906700134277,3.809074640274048
1667266099409447000,1.769447021484375,10.383355140686035,-5.07308292388916,3.967000722885132
1667266099411844900,1.771844970703125,10.215558052062988,-5.180759906768799,4.146462440490723
1667266099414242600,1.77424267578125,10.02173900604248,-5.276473045349121,4.34536600112915
1667266099416640500,1.776640625,9.830313682556152,-5.31475830078125,4.527220249176025
1667266099419038200,1.7790380859375,9.703194618225098,-5.305186748504639,4.73300313949585
1667266099421436200,1.781436279296875,9.583553314208984,-5.262115955352783,4.891228675842285
1667266099423833900,1.783833740234375,9.492626190185547,-5.1544389724731445,5.061119079589844
1667266099426231800,1.786231689453125,9.404091835021973,-5.041976451873779,5.233402252197266
1667266099428629500,1.78862939453125,9.358628273010254,-4.84815788269043,5.360520839691162
1667266099431027200,1.791027099609375,9.310771942138672,-4.625326156616211,5.44426965713501
1667266099433425200,1.793425048828125,9.265308380126953,-4.371686935424805,5.463412284851074
1667266099435822800,1.79582275390625,9.245866775512695,-4.084249019622803,5.492125988006592
1667266099438220800,1.798220703125,9.198010444641113,-3.8210387229919434,5.480162143707275
1667266099440618500,1.800618408203125,9.10229778289795,-3.5431721210479736,5.463412284851074
1667266099443016400,1.803016357421875,8.987442016601562,-3.277568817138672,5.4658050537109375
1667266099445414100,1.8054140625,8.819944381713867,-3.030808925628662,5.4897332191467285
1667266099447812000,1.80781201171875,8.621041297912598,-2.8369903564453125,5.511268615722656
1667266099450209800,1.810209716796875,8.400900840759277,-2.645564556121826,5.580660820007324
1667266099452607700,1.812607666015625,8.185546875,-2.5088746547698975,5.635695457458496
1667266099455005400,1.81500537109375,7.972286701202393,-2.379662036895752,5.676373481750488
1667266099457403100,1.817403076171875,7.809575080871582,-2.252842426300049,5.6859450340271
1667266099459801000,1.819801025390625,7.725826263427734,-2.1571295261383057,5.657230854034424
1667266099462198800,1.82219873046875,7.694719314575195,-2.066202402114868,5.571089267730713
1667266099464596700,1.8245966796875,7.697112083435059,-2.011167526245117,5.556732177734375
1667266099466994400,1.826994384765625,7.754539966583252,-1.9920248985290527,5.635695457458496
1667266099469392400,1.829392333984375,7.843074321746826,-1.953440546989441,5.676373481750488
1667266099471790000,1.8317900390625,7.95553731918335,-1.89840567111969,5.707480430603027
1667266099474187800,1.834187744140625,8.056035995483398,-1.8409779071807861,5.664409637451172
1667266099476585700,1.836585693359375,8.17836856842041,-1.7548363208770752,5.621338367462158
1667266099478983400,1.8389833984375,8.28843879699707,-1.6639090776443481,5.5758748054504395
1667266099481381400,1.84138134765625,8.360222816467285,-1.6016956567764282,5.50648307800293
1667266099483779000,1.843779052734375,8.42722225189209,-1.5514464378356934,5.4179487228393555
1667266099486177000,1.846177001953125,8.525327682495117,-1.55623197555542,5.319543838500977
1667266099488574700,1.84857470703125,8.647361755371094,-1.5777673721313477,5.204688549041748
1667266099490972700,1.85097265625,8.700303077697754,-1.6495521068572998,5.108975410461426
1667266099493370400,1.853370361328125,8.69043254852295,-1.7285152673721313,4.994120121002197
1667266099495768300,1.855768310546875,8.633005142211914,-1.7859430313110352,4.884049892425537
1667266099498166000,1.858166015625,8.55164909362793,-1.8409779071807861,4.752145767211914
1667266099500563700,1.860563720703125,8.446364402770996,-1.8912272453308105,4.599005222320557
1667266099502961700,1.862961669921875,8.293224334716797,-1.9247267246246338,4.474578380584717
1667266099505359400,1.865359375,8.113463401794434,-1.9630118608474731,4.350151538848877
1667266099507757300,1.86775732421875,7.919644832611084,-1.9872392416000366,4.252045631408691
1667266099510155000,1.870155029296875,7.733004570007324,-1.9992033243179321,4.182354927062988
1667266099512552700,1.872552734375,7.543672561645508,-1.9968105554580688,4.091427803039551
1667266099514950700,1.87495068359375,7.378567695617676,-1.9800606966018677,4.026821613311768
1667266099517348400,1.877348388671875,7.196712970733643,-1.9728822708129883,3.9861433506011963
1667266099519746300,1.879746337890625,7.019644260406494,-1.9486548900604248,3.9885363578796387
1667266099522144000,1.88214404296875,6.849454879760742,-1.9079769849777222,4.007678985595703
1667266099524542000,1.8845419921875,6.681957244873047,-1.8481563329696655,4.045963764190674
1667266099526939600,1.886939697265625,6.5288166999816895,-1.7883358001708984,4.1129631996154785
1667266099529337600,1.889337646484375,6.418447494506836,-1.709372639656067,4.196712017059326
1667266099531735300,1.8917353515625,6.327520370483398,-1.6328023672103882,4.297509670257568
1667266099534133200,1.89413330078125,6.267699718475342,-1.5586248636245728,4.395615100860596
1667266099536531000,1.896531005859375,6.262914180755615,-1.4844473600387573,4.5200419425964355
1667266099538928600,1.8989287109375,6.260521411895752,-1.3812568187713623,4.649254322052002
1667266099541326600,1.90132666015625,6.2653069496154785,-1.2831511497497559,4.817050933837891
1667266099543724300,1.903724365234375,6.2653069496154785,-1.2137593030929565,4.9654059410095215
1667266099546122200,1.906122314453125,6.250949859619141,-1.1491531133651733,5.1209397315979
1667266099548520000,1.90852001953125,6.198307991027832,-1.098903775215149,5.266901969909668
1667266099550918000,1.91091796875,6.138487339019775,-1.0582258701324463,5.4179487228393555
1667266099553315600,1.913315673828125,6.071488380432129,-1.0295119285583496,5.556732177734375
1667266099555713500,1.915713623046875,5.994917869567871,-0.9720842242240906,5.647659778594971
1667266099558111200,1.918111328125,5.886941909790039,-0.9409775137901306,5.774479389190674
1667266099560509200,1.92050927734375,5.776872158050537,-0.8955138921737671,5.889334678649902
1667266099562907000,1.922906982421875,5.676373481750488,-0.8644071817398071,5.935097694396973
1667266099565304600,1.9253046875,5.6069817543029785,-0.8162516355514526,5.975775241851807
1667266099567702500,1.92770263671875,5.571089267730713,-0.7827520966529846,5.9901323318481445
1667266099570100200,1.930100341796875,5.542375564575195,-0.7923234105110168,5.973382472991943
1667266099572498200,1.932498291015625,5.494519233703613,-0.8042874932289124,5.959025859832764
1667266099574895900,1.934895751953125,5.4179487228393555,-0.8162516355514526,5.9662041664123535
1667266099577293800,1.9372939453125,5.343770980834961,-0.7923234105110168,5.947061538696289
1667266099579691500,1.93969140625,5.286044120788574,-0.7875377535820007,5.944668769836426
1667266099582089200,1.942089111328125,5.231009483337402,-0.7923234105110168,5.913562297821045
1667266099584487200,1.944487060546875,5.226223945617676,-0.8162516355514526,5.846263885498047
1667266099586884900,1.946884765625,5.276473045349121,-0.857228696346283,5.762515068054199
1667266099589282800,1.94928271484375,5.365306377410889,-0.8859425783157349,5.678766250610352
1667266099591680500,1.951680419921875,5.4897332191467285,-0.9194421172142029,5.571089267730713
1667266099594078500,1.954078369140625,5.650052547454834,-0.9529415965080261,5.425127029418945
1667266099596476200,1.95647607421875,5.822335720062256,-0.9960124492645264,5.269294738769531
1667266099598874000,1.9588740234375,5.978168487548828,-1.0319048166275024,5.089832782745361
1667266099601271800,1.961271728515625,6.155237197875977,-1.0534402132034302,4.8792643547058105
1667266099603669800,1.963669677734375,6.303592205047607,-1.0893324613571167,4.711467742919922
1667266099606067500,1.9660673828125,6.461817741394043,-1.1228320598602295,4.541577339172363
1667266099608465200,1.968465087890625,6.567101955413818,-1.194616675376892,4.366901397705078
1667266099610863000,1.970863037109375,6.67717170715332,-1.2496516704559326,4.189533233642578
1667266099613260800,1.9732607421875,6.772884368896484,-1.2903295755386353,4.0196428298950195
1667266099615658800,1.97565869140625,6.856633186340332,-1.350150227546692,3.849752426147461
1667266099618056400,1.978056396484375,6.9236321449279785,-1.434198021888733,3.6798620223999023
1667266099620454400,1.980454345703125,6.988238334655762,-1.501197099685669,3.514458179473877
1667266099622852000,1.98285205078125,7.031608581542969,-1.561017632484436,3.356531858444214
1667266099625249800,1.985249755859375,7.043572425842285,-1.6495521068572998,3.208176851272583
1667266099627647700,1.987647705078125,7.060322284698486,-1.695015788078308,3.0355947017669678
1667266099630045400,1.99004541015625,7.060322284698486,-1.7524434328079224,2.8441689014434814
1667266099632443400,1.992443359375,7.05553674697876,-1.7691932916641235,2.6886353492736816
1667266099634841000,1.994841064453125,7.072286605834961,-1.80508553981781,2.5283162593841553
1667266099637239000,1.997239013671875,7.091429233551025,-1.8218353986740112,2.3676979541778564
1667266099639636700,1.99963671875,7.141678333282471,-1.8170497417449951,2.2432711124420166
1667266099642034700,2.00203466796875,7.175177574157715,-1.8266209363937378,2.128415822982788
1667266099644432400,2.004432373046875,7.230212688446045,-1.83619225025177,2.0685951709747314
1667266099646830300,2.006830322265625,7.2732834815979,-1.8840487003326416,2.0207388401031494
1667266099649228000,2.00922802734375,7.309175968170166,-1.9175482988357544,2.0063817501068115
1667266099651625700,2.011625732421875,7.3522467613220215,-1.9848463535308838,2.0039889812469482
1667266099654023700,2.014023681640625,7.383353233337402,-2.032702922821045,2.0398812294006348
1667266099656421400,2.01642138671875,7.39053201675415,-2.0925233364105225,2.080559253692627
1667266099658819300,2.0188193359375,7.368996620178223,-2.183450698852539,2.118844509124756
1667266099661217000,2.021217041015625,7.4001030921936035,-2.2432711124420166,2.1236300468444824
1667266099663615000,2.023614990234375,7.419245719909668,-2.276770830154419,2.1308085918426514
1667266099666012700,2.0260126953125,7.407281398773193,-2.3054845333099365,2.149951219558716
1667266099668410400,2.028410400390625,7.28046178817749,-2.3222343921661377,2.2121646404266357
1667266099670808300,2.030808349609375,7.139285564422607,-2.365305185317993,2.283949136734009
1667266099673206000,2.0332060546875,7.06271505355835,-2.348555326461792,2.338984251022339
1667266099675604000,2.03560400390625,7.036394119262695,-2.324627161026001,2.3533411026000977
1667266099678001700,2.038001708984375,7.045965194702148,-2.3509483337402344,2.379662036895752
1667266099680399600,2.040399658203125,7.091429233551025,-2.3676979541778564,2.3437697887420654
1667266099682797300,2.04279736328125,7.165606498718262,-2.4083759784698486,2.324627161026001
1667266099685195300,2.0451953125,7.256533622741699,-2.4562325477600098,2.3030917644500732
1667266099687593000,2.047593017578125,7.366603374481201,-2.489732027053833,2.2887349128723145
1667266099689991000,2.049990966796875,7.438388347625732,-2.5307090282440186,2.3365912437438965
1667266099692388600,2.052388671875,7.514958381652832,-2.5785655975341797,2.3844478130340576
1667266099694786300,2.054786376953125,7.579864025115967,-2.6312077045440674,2.465803623199463
1667266099697184300,2.057184326171875,7.608577728271484,-2.667099952697754,2.557030200958252
1667266099699582000,2.05958203125,7.675576686859131,-2.722134828567505,2.6718854904174805
1667266099701980000,2.06197998046875,7.761718273162842,-2.738884687423706,2.762812852859497
1667266099704377600,2.064377685546875,7.809575080871582,-2.7484560012817383,2.8680970668792725
1667266099706775600,2.066775634765625,7.855038642883301,-2.738884687423706,3.0332016944885254
1667266099709173200,2.06917333984375,7.862216949462891,-2.7484560012817383,3.1627132892608643
1667266099711571000,2.071571044921875,7.907680511474609,-2.746062994003296,3.279961585998535
1667266099713969000,2.073968994140625,7.984251022338867,-2.6958138942718506,3.3828530311584473
1667266099716366600,2.07636669921875,8.034500122070312,-2.669492721557617,3.490530014038086
1667266099718764500,2.0787646484375,8.039285659790039,-2.6072793006896973,3.6197423934936523
1667266099721162200,2.081162353515625,8.072785377502441,-2.5112674236297607,3.6511483192443848
1667266099723560200,2.083560302734375,8.09671401977539,-2.4059832096099854,3.691826343536377
1667266099725958000,2.0859580078125,8.115856170654297,-2.293520450592041,3.8162529468536377
1667266099728355800,2.08835595703125,8.127820014953613,-2.2025933265686035,3.9813578128814697
1667266099730753500,2.09075341796875,8.144868850708008,-2.104487419128418,4.132105827331543
1667266099733151500,2.0931513671875,8.221439361572266,-2.011167526245117,4.264009952545166
1667266099735549200,2.095549072265625,8.388936996459961,-1.89840567111969,4.357329845428467
1667266099737947000,2.09794677734375,8.546863555908203,-1.7859430313110352,4.4410786628723145
1667266099740344800,2.1003447265625,8.692825317382812,-1.659123420715332,4.529613494873047
1667266099742742500,2.102742431640625,8.834300994873047,-1.5227324962615967,4.615755081176758
1667266099745140500,2.105140380859375,8.975478172302246,-1.4054841995239258,4.7473602294921875
1667266099747538200,2.1075380859375,9.07119083404541,-1.2951152324676514,4.876871585845947
1667266099749936000,2.10993603515625,9.1716890335083,-1.1826525926589966,5.030012130737305
1667266099752333800,2.112333740234375,9.28445053100586,-1.0558329820632935,5.149653434753418
1667266099754731500,2.1147314453125,9.35623550415039,-0.9481559991836548,5.2477593421936035
1667266099757129500,2.11712939453125,9.435198783874512,-0.8452646136283875,5.353342533111572
1667266099759527200,2.119527099609375,9.490233421325684,-0.7468597888946533,5.456233978271484
1667266099761925000,2.121925048828125,9.583553314208984,-0.6535396575927734,5.508875846862793
1667266099764322800,2.12432275390625,9.717552185058594,-0.5482555031776428,5.578267574310303
1667266099766720800,2.126720703125,9.837491989135742,-0.46450668573379517,5.642873764038086
1667266099769118500,2.129118408203125,9.947562217712402,-0.37836506962776184,5.673980712890625
1667266099771516400,2.131516357421875,10.012167930603027,-0.33768710494041443,5.697908878326416
1667266099773914000,2.1339140625,10.026525497436523,-0.2799602448940277,5.72422981262207
1667266099776312000,2.13631201171875,10.000204086303711,-0.2392822653055191,5.7409796714782715
1667266099778709800,2.138709716796875,9.9140625,-0.1986042857170105,5.743372440338135
1667266099781107500,2.141107421875,9.782157897949219,-0.13878370821475983,5.733801364898682
1667266099783505400,2.14350537109375,9.602696418762207,-0.09810572862625122,5.729015827178955
1667266099785903000,2.145903076171875,9.399306297302246,-0.08135596662759781,5.719444274902344
1667266099788301000,2.148301025390625,9.181260108947754,-0.059820566326379776,5.712265968322754
1667266099790698800,2.15069873046875,8.913264274597168,-0.0526420995593071,5.6931233406066895
1667266099793096700,2.1530966796875,8.587541580200195,-0.05503492057323456,5.695516109466553
1667266099795494400,2.155494384765625,8.247760772705078,-0.04546362906694412,5.695516109466553
1667266099797892000,2.15789208984375,7.871788501739502,-0.05024927482008934,5.664409637451172
1667266099800290000,2.1602900390625,7.493422985076904,-0.08135596662759781,5.633302688598633
1667266099802687700,2.162687744140625,7.096214771270752,-0.1339980661869049,5.585446357727051
1667266099805085700,2.165085693359375,6.689135551452637,-0.1866401731967926,5.539982795715332
1667266099807483400,2.1674833984375,6.270092487335205,-0.2392822653055191,5.475376605987549
1667266099809881300,2.16988134765625,5.8582282066345215,-0.3233301639556885,5.427519798278809
1667266099812279000,2.172279052734375,5.4514479637146,-0.38793638348579407,5.3318071365356445
1667266099814677000,2.174677001953125,5.068297386169434,-0.43100717663764954,5.2166523933410645
1667266099817074700,2.17707470703125,4.730610370635986,-0.4692923426628113,5.113760948181152
1667266099819472400,2.179472412109375,4.455435752868652,-0.5315057039260864,4.994120121002197
1667266099821870300,2.181870361328125,4.235296249389648,-0.5506483316421509,4.843372344970703
1667266099824268000,2.18426806640625,4.091427803039551,-0.5602195858955383,4.716253280639648
1667266099826666000,2.186666015625,3.983750581741333,-0.5362913608551025,4.613361835479736
1667266099829063700,2.189063720703125,3.935894250869751,-0.5099703073501587,4.498506546020508
1667266099831461600,2.191461669921875,3.928715705871582,-0.4549354016780853,4.390829563140869
1667266099833859300,2.193859375,3.9646079540252686,-0.41186460852622986,4.321437835693359
1667266099836257300,2.19625732421875,4.086641788482666,-0.3400799036026001,4.311866283416748
1667266099838655000,2.198655029296875,4.235296249389648,-0.2826521694660187,4.335794448852539
1667266099841052700,2.201052734375,4.412364959716797,-0.275174617767334,4.4410786628723145
1667266099843450600,2.20345068359375,4.603790760040283,-0.2632105052471161,4.5822553634643555
1667266099845848300,2.205848388671875,4.776372909545898,-0.27756741642951965,4.730610370635986
1667266099848246300,2.208246337890625,4.974977493286133,-0.29700911045074463,4.91037130355835
1667266099850644000,2.21064404296875,5.152046203613281,-0.33529427647590637,5.099404335021973
1667266099853042000,2.2130419921875,5.3318071365356445,-0.39511483907699585,5.235795021057129
1667266099855439600,2.215439697265625,5.508875846862793,-0.5123631358146667,5.348556995391846
1667266099857837300,2.21783740234375,5.652445316314697,-0.6080760359764099,5.434698581695557
1667266099860235300,2.2202353515625,5.7649078369140625,-0.6870391964912415,5.50648307800293
1667266099862633000,2.222633056640625,5.851049423217773,-0.7995018362998962,5.525625705718994
1667266099865031000,2.225031005859375,5.896812438964844,-0.9361918568611145,5.508875846862793
1667266099867428600,2.2274287109375,5.886941909790039,-1.0582258701324463,5.470590591430664
1667266099869826600,2.22982666015625,5.860620975494385,-1.1802598237991333,5.379663467407227
1667266099872224300,2.232224365234375,5.815157413482666,-1.2903295755386353,5.254937648773193
1667266099874622200,2.234622314453125,5.776872158050537,-1.415055513381958,5.104189872741699
1667266099877020000,2.23702001953125,5.767300605773926,-1.55623197555542,4.91037130355835
1667266099879417600,2.23941748046875,5.757729530334473,-1.683051586151123,4.713860511779785
1667266099881815600,2.241815673828125,5.784050464630127,-1.80508553981781,4.4721856117248535
1667266099884213200,2.244213134765625,5.836692810058594,-1.89840567111969,4.2209391593933105
1667266099886611200,2.246611083984375,5.911169052124023,-2.0039889812469482,3.967000722885132
1667266099889009000,2.2490087890625,6.006882190704346,-2.0518453121185303,3.7109687328338623
1667266099891406800,2.25140673828125,6.152844429016113,-2.0757737159729004,3.521636724472046
1667266099893804500,2.253804443359375,6.279664039611816,-2.094916343688965,3.3373894691467285
1667266099896202200,2.2562021484375,6.4375901222229,-2.1092731952667236,3.1866414546966553
1667266099898600200,2.25860009765625,6.6245293617248535,-2.094916343688965,3.07627272605896
1667266099900998000,2.260997802734375,6.830312252044678,-2.0757737159729004,2.966202735900879
1667266099903395800,2.263395751953125,7.06271505355835,-1.9992033243179321,2.8896324634552
1667266099905793500,2.26579345703125,7.316354274749756,-1.9247267246246338,2.863311290740967
1667266099908191500,2.26819140625,7.622934818267822,-1.831406593322754,2.8585257530212402
1667266099910589200,2.270589111328125,7.95553731918335,-1.709372639656067,2.8776683807373047
1667266099912987100,2.272987060546875,8.286046028137207,-1.5873386859893799,2.9398818016052246
1667266099915384800,2.275384765625,8.609076499938965,-1.4365909099578857,3.0355947017669678
1667266099917782800,2.27778271484375,8.920442581176758,-1.2903295755386353,3.1483564376831055
1667266099920180500,2.280180419921875,9.176474571228027,-1.1539387702941895,3.2727832794189453
1667266099922578200,2.282578125,9.411270141601562,-1.0558329820632935,3.4019956588745117
1667266099924976000,2.28497607421875,9.593125343322754,-0.9433703422546387,3.555136203765869
1667266099927373800,2.287373779296875,9.719944953918457,-0.8644071817398071,3.7037904262542725
1667266099929771800,2.289771728515625,9.772586822509766,-0.7827520966529846,3.85693097114563
1667266099932169500,2.29216943359375,9.823135375976562,-0.7061817646026611,4.029214382171631
1667266099934567400,2.2945673828125,9.830313682556152,-0.6487540602684021,4.134498596191406
1667266099936965000,2.296965087890625,9.859027862548828,-0.6008976101875305,4.225724697113037
1667266099939362800,2.29936279296875,9.937990188598633,-0.5913262963294983,4.304687976837158
1667266099941760800,2.3017607421875,10.03848934173584,-0.6343970894813538,4.319045066833496
1667266099944158500,2.304158447265625,10.196415901184082,-0.701396107673645,4.285545349121094
1667266099946556400,2.306556396484375,10.359127044677734,-0.797109067440033,4.223331928253174
1667266099948954000,2.3089541015625,10.526924133300781,-0.9433703422546387,4.156033992767334
1667266099951352000,2.31135205078125,10.680065155029297,-1.0893324613571167,4.048357009887695
1667266099953749800,2.313749755859375,10.840383529663086,-1.2472587823867798,3.9382870197296143
1667266099956147700,2.316147705078125,11.02014446258545,-1.378864049911499,3.7660038471221924
1667266099958545400,2.31854541015625,11.182856559753418,-1.501197099685669,3.5958142280578613
1667266099960943000,2.320943115234375,11.3718900680542,-1.6208382844924927,3.418745279312134
1667266099963341000,2.323341064453125,11.534900665283203,-1.7021942138671875,3.253640651702881
1667266099965738800,2.32573876953125,11.67846965789795,-1.7691932916641235,3.1028928756713867
1667266099968136700,2.32813671875,11.7957181930542,-1.8337994813919067,2.92073917388916
1667266099970534400,2.330534423828125,11.908181190490723,-1.831406593322754,2.7508487701416016
1667266099972932400,2.332932373046875,11.99910831451416,-1.8337994813919067,2.652743101119995
1667266099975330000,2.335330078125,12.078370094299316,-1.8385851383209229,2.557030200958252
1667266099977728000,2.33772802734375,12.154940605163574,-1.8194425106048584,2.4777679443359375
1667266099980125700,2.340125732421875,12.219547271728516,-1.807478427886963,2.449054002761841
1667266099982523400,2.3425234375,12.257832527160645,-1.781157374382019,2.403590440750122
1667266099984921300,2.34492138671875,12.272189140319824,-1.709372639656067,2.389233350753784
1667266099987319000,2.347319091796875,12.279367446899414,-1.6471593379974365,2.3700907230377197
1667266099989717000,2.349717041015625,12.260225296020508,-1.5801602602005005,2.396411895751953
1667266099992114700,2.35211474609375,12.214761734008789,-1.4940186738967896,2.4466612339019775
1667266099994512600,2.3545126953125,12.150155067443848,-1.3932210206985474,2.504088878631592
1667266099996910300,2.356910400390625,12.095120429992676,-1.3310075998306274,2.5953152179718018
1667266099999308000,2.35930810546875,12.027822494506836,-1.2281162738800049,2.6958138942718506
1667266100001706000,2.3617060546875,11.953644752502441,-1.134796142578125,2.7652056217193604
1667266100004103700,2.364103759765625,11.879467010498047,-1.048654556274414,2.8202404975891113
1667266100006501600,2.366501708984375,11.843574523925781,-0.9314061999320984,2.8680970668792725
1667266100008899300,2.3688994140625,11.812468528747559,-0.8282157182693481,2.8920252323150635
1667266100011297300,2.37129736328125,11.810074806213379,-0.701396107673645,2.8944180011749268
1667266100013695000,2.373695068359375,11.800503730773926,-0.5650052428245544,2.8752756118774414
1667266100016093000,2.376093017578125,11.78853988647461,-0.4405784606933594,2.8752756118774414
1667266100018490600,2.37849072265625,11.755040168762207,-0.3089732229709625,2.8992037773132324
1667266100020888300,2.380888427734375,11.721540451049805,-0.17946170270442963,2.9159533977508545
1667266100023286300,2.383286376953125,11.67846965789795,-0.08853443711996078,2.9303104877471924
1667266100025684000,2.38568408203125,11.668898582458496,0.01196411345154047,2.968595504760742
1667266100028082000,2.38808203125,11.63300609588623,0.1052841991186142,2.99013090133667
1667266100030479600,2.390479736328125,11.587542533874512,0.17706887423992157,3.0260233879089355
1667266100032877600,2.392877685546875,11.53968620300293,0.2392822653055191,3.061915636062622
1667266100035275300,2.395275146484375,11.462817192077637,0.2922234535217285,3.0786654949188232
1667266100037673200,2.397673095703125,11.388639450073242,0.33529427647590637,3.08345103263855
1667266100040071000,2.40007080078125,11.297712326049805,0.33768710494041443,3.061915636062622
1667266100042468600,2.402468505859375,11.190034866333008,0.33529427647590637,2.997309446334839
1667266100044866600,2.404866455078125,11.068000793457031,0.3209373354911804,2.911167860031128
1667266100047264300,2.40726416015625,10.91456127166748,0.26560330390930176,2.8226335048675537
1667266100049662200,2.409662109375,10.727921485900879,0.2105683982372284,2.7125635147094727
1667266100052060000,2.412059814453125,10.546066284179688,0.14356936514377594,2.5833511352539062
1667266100054457600,2.41445751953125,10.385747909545898,0.059820566326379776,2.480160713195801
1667266100056855600,2.41685546875,10.213165283203125,-0.016749758273363113,2.334198474884033
1667266100059253200,2.419253173828125,10.064809799194336,-0.08614161610603333,2.2193429470062256
1667266100061651200,2.421651123046875,9.949954986572266,-0.14356936514377594,2.0997018814086914
1667266100064049000,2.424048828125,9.89013385772705,-0.20099709928035736,1.9657038450241089
1667266100066446800,2.42644677734375,9.859027862548828,-0.2679961323738098,1.800299882888794
1667266100068844500,2.428844482421875,9.856635093688965,-0.3161516785621643,1.6495521068572998
1667266100071242500,2.431242431640625,9.887741088867188,-0.368793785572052,1.505982756614685
1667266100073640200,2.43364013671875,9.916455268859863,-0.41904306411743164,1.410269856452942
1667266100076038100,2.4360380859375,9.937990188598633,-0.4692923426628113,1.323829174041748
1667266100078435800,2.438435791015625,9.9140625,-0.5075774788856506,1.2687941789627075
1667266100080833500,2.44083349609375,9.911669731140137,-0.5458626747131348,1.220937728881836
1667266100083231500,2.4432314453125,9.882955551147461,-0.5530411601066589,1.1826525926589966
1667266100085629200,2.445629150390625,9.859027862548828,-0.5482555031776428,1.158724308013916
1667266100088027100,2.448027099609375,9.837491989135742,-0.5769693851470947,1.1419745683670044
1667266100090424800,2.4504248046875,9.806086540222168,-0.5985047817230225,1.158724308013916
1667266100092822800,2.45282275390625,9.76062297821045,-0.6224330067634583,1.165902853012085
1667266100095220500,2.455220458984375,9.724730491638184,-0.6248258352279663,1.1539387702941895
1667266100097618200,2.4576181640625,9.679266929626465,-0.6032904386520386,1.1276177167892456
1667266100100016000,2.46001611328125,9.664909362792969,-0.5937191247940063,1.0845468044281006
1667266100102413800,2.462413818359375,9.679266929626465,-0.5434698462486267,1.0271191596984863
1667266100104811800,2.464811767578125,9.72951602935791,-0.4956133961677551,1.0151549577713013
1667266100107209500,2.46720947265625,9.796515464782715,-0.45972105860710144,1.0151549577713013
1667266100109607400,2.469607421875,9.89013385772705,-0.3807578980922699,1.0007981061935425
1667266100112005000,2.472005126953125,9.995418548583984,-0.32572299242019653,1.0103694200515747
1667266100114402800,2.47440283203125,10.105487823486328,-0.2679961323738098,0.9888339638710022
1667266100116800800,2.47680078125,10.215558052062988,-0.20817556977272034,0.9720842242240906
1667266100119198500,2.479198486328125,10.339984893798828,-0.12681959569454193,0.97926265001297
1667266100121596400,2.481596435546875,10.498209953308105,-0.05503492057323456,0.9912267923355103
1667266100123994000,2.483994140625,10.706385612487793,0.007178467698395252,1.0007981061935425
1667266100126392000,2.48639208984375,10.92891788482666,0.1052841991186142,1.0199406147003174
1667266100128789800,2.488789794921875,11.211570739746094,0.16510476171970367,1.048654556274414
1667266100131187700,2.491187744140625,11.50857925415039,0.2225325107574463,1.079761266708374
1667266100133585400,2.49358544921875,11.845967292785645,0.25363919138908386,1.0845468044281006
1667266100135983400,2.4959833984375,12.209976196289062,0.22971096634864807,1.0558329820632935
1667266100138381000,2.498381103515625,12.614362716674805,0.19621145725250244,1.0151549577713013
1667266100140778800,2.50077880859375,12.985548973083496,0.12203395366668701,0.9984052777290344
1667266100143176700,2.5031767578125,13.342378616333008,0.019142581149935722,0.9864411354064941
1667266100145574400,2.505574462890625,13.655838966369629,-0.07417750358581543,0.97926265001297
1667266100147972400,2.507972412109375,13.914563179016113,-0.1866401731967926,0.9936196208000183
1667266100150370000,2.5103701171875,14.16820240020752,-0.28504499793052673,1.0342975854873657
1667266100152768000,2.51276806640625,14.400605201721191,-0.34247273206710815,1.0630114078521729
1667266100155165700,2.515165771484375,14.649458885192871,-0.38793638348579407,1.0893324613571167
1667266100157563400,2.5175634765625,14.889039993286133,-0.39511483907699585,1.1419745683670044
1667266100159961300,2.51996142578125,15.130714416503906,-0.385543555021286,1.2137593030929565
1667266100162359000,2.522359130859375,15.36042594909668,-0.3520440459251404,1.3334003686904907
1667266100164757000,2.524757080078125,15.566507339477539,-0.33768710494041443,1.4629119634628296
1667266100167154700,2.52715478515625,15.736397743225098,-0.3233301639556885,1.6064813137054443
1667266100169552600,2.529552734375,15.884753227233887,-0.30179476737976074,1.7596219778060913
1667266100171950300,2.531950439453125,15.951751708984375,-0.30179476737976074,1.9319051504135132
1667266100174348000,2.53434814453125,15.961323738098145,-0.2874378263950348,2.1332013607025146
1667266100176746000,2.53674609375,15.906288146972656,-0.2512463629245758,2.317448616027832
1667266100179143700,2.539143798828125,15.808182716369629,-0.2105683982372284,2.482553482055664
1667266100181541600,2.541541748046875,15.66939926147461,-0.17228323221206665,2.635993242263794
1667266100183939300,2.543939208984375,15.492330551147461,-0.11724831163883209,2.7819554805755615
1667266100186337300,2.546337158203125,15.291033744812012,-0.064606212079525,2.880061149597168
1667266100188735000,2.54873486328125,15.035001754760742,-0.040677983313798904,2.9470601081848145
1667266100191133000,2.5511328125,14.754742622375488,-0.0023928226437419653,2.9781668186187744
1667266100193530600,2.553530517578125,14.469996452331543,0.05024927482008934,2.9805595874786377
1667266100195928300,2.55592822265625,14.184951782226562,0.08853443711996078,2.99013090133667
1667266100198326300,2.558326171875,13.950454711914062,0.11246266216039658,2.9638099670410156
1667266100200724000,2.560723876953125,13.703695297241211,0.1579262912273407,2.9159533977508545
1667266100203122000,2.563121826171875,13.497912406921387,0.17946170270442963,2.8704898357391357
1667266100205519600,2.56551953125,13.308879852294922,0.19621145725250244,2.7915267944335938
1667266100207917600,2.56791748046875,13.189238548278809,0.21296121180057526,2.707777976989746
1667266100210315300,2.570315185546875,13.155439376831055,0.24406790733337402,2.6479573249816895
1667266100212713200,2.572713134765625,13.172189712524414,0.2727817893028259,2.6072793006896973
1667266100215111000,2.57511083984375,13.277772903442383,0.34247273206710815,2.588136672973633
1667266100217508600,2.577508544921875,13.411770820617676,0.42382872104644775,2.5689942836761475
1667266100219906600,2.579906494140625,13.560126304626465,0.5099703073501587,2.5474588871002197
1667266100222304300,2.58230419921875,13.72523021697998,0.579362154006958,2.535494804382324
1667266100224702200,2.5847021484375,13.878670692443848,0.6655037999153137,2.535494804382324
1667266100227100000,2.587099853515625,14.031810760498047,0.7181459069252014,2.525923490524292
1667266100229497600,2.58949755859375,14.15145206451416,0.7755736112594604,2.4945175647735596
1667266100231895600,2.5918955078125,14.256736755371094,0.8282157182693481,2.4634108543395996
1667266100234293200,2.594293212890625,14.381462097167969,0.8787640929222107,2.4227328300476074
1667266100236691200,2.596691162109375,14.489139556884766,0.8811569213867188,2.39401912689209
1667266100239089000,2.5990888671875,14.539388656616211,0.8835497498512268,2.358126640319824
1667266100241486800,2.60148681640625,14.594423294067383,0.8210372924804688,2.310270309448242
1667266100243884500,2.603884521484375,14.618351936340332,0.7157530784606934,2.2743778228759766
1667266100246282200,2.6062822265625,14.659029960632324,0.5865406394004822,2.197807550430298
1667266100248680200,2.60868017578125,14.733206748962402,0.39990049600601196,2.097309112548828
1667266100251078000,2.611077880859375,14.855240821838379,0.13878370821475983,1.9486548900604248
1667266100253475800,2.613475830078125,15.046966552734375,-0.16749759018421173,1.7380865812301636
1667266100255873500,2.61587353515625,15.279069900512695,-0.579362154006958,1.505982756614685
1667266100258271500,2.618271484375,15.509079933166504,-1.0414760112762451,1.2352946996688843
1667266100260669200,2.620669189453125,15.78664779663086,-1.4892330169677734,0.9218349456787109
1667266100263067100,2.623067138671875,16.05015754699707,-1.9247267246246338,0.5506483316421509
1667266100265464800,2.62546484375,16.373188018798828,-2.389233350753784,0.16749759018421173
1667266100267862800,2.62786279296875,16.732410430908203,-2.808276414871216,-0.21296121180057526
1667266100270260500,2.630260498046875,17.122739791870117,-3.2033913135528564,-0.5817549824714661
1667266100272658200,2.632658203125,17.507984161376953,-3.552743434906006,-0.9194421172142029
1667266100275056000,2.63505615234375,17.85045623779297,-3.8712878227233887,-1.225723385810852
1667266100277453800,2.637453857421875,18.183059692382812,-4.115355968475342,-1.5227324962615967
1667266100279851800,2.639851806640625,18.470497131347656,-4.326223373413086,-1.7309080362319946
1667266100282249500,2.64224951171875,18.77199363708496,-4.481756687164307,-1.9438693523406982
1667266100284647400,2.6446474609375,19.059431076049805,-4.618147850036621,-2.1092731952667236
1667266100287045000,2.647045166015625,19.305891036987305,-4.677968502044678,-2.2337000370025635
1667266100289442800,2.64944287109375,19.53590202331543,-4.6995038986206055,-2.310270309448242
1667266100291840800,2.6518408203125,19.758434295654297,-4.677968502044678,-2.3198416233062744
1667266100294238500,2.654238525390625,19.94537353515625,-4.60857629776001,-2.262413740158081
1667266100296636400,2.656636474609375,20.096120834350586,-4.515256404876709,-2.1619153022766113
1667266100299034000,2.6590341796875,20.189441680908203,-4.383651256561279,-2.0446670055389404
1667266100301432000,2.66143212890625,20.232511520385742,-4.254438877105713,-1.8649061918258667
1667266100303829800,2.663829833984375,20.201404571533203,-4.108177185058594,-1.651944875717163
1667266100306227500,2.6662275390625,20.13201332092285,-3.9263229370117188,-1.4413765668869019
1667266100308625400,2.66862548828125,19.998014450073242,-3.73250412940979,-1.2041879892349243
1667266100311023000,2.671023193359375,19.818254470825195,-3.5575289726257324,-0.9864411354064941
1667266100313421000,2.673421142578125,19.559829711914062,-3.3613176345825195,-0.732502818107605
1667266100315818800,2.67581884765625,19.243677139282227,-3.169891834259033,-0.4980062246322632
1667266100318216700,2.678216796875,18.85843276977539,-2.999702215194702,-0.3233301639556885
1667266100320614400,2.680614501953125,18.432212829589844,-2.8298118114471436,-0.16749759018421173
1667266100323012000,2.68301220703125,17.958133697509766,-2.6790640354156494,-0.04785645380616188
1667266100325410000,2.68541015625,17.42902183532715,-2.5283162593841553,0.02632104977965355
1667266100327807700,2.687807861328125,16.878372192382812,-2.4131617546081543,0.059820566326379776
1667266100330205700,2.690205810546875,16.31336784362793,-2.310270309448242,0.062213387340307236
1667266100332603400,2.692603271484375,15.724433898925781,-2.2504496574401855,0.05024927482008934
1667266100335001300,2.69500146484375,15.147464752197266,-2.1954147815704346,-0.007178467698395252
1667266100337399000,2.69739892578125,14.594423294067383,-2.1786649227142334,-0.0933200865983963
1667266100339797000,2.699796875,14.05813217163086,-2.1475582122802734,-0.19621145725250244
1667266100342194700,2.702194580078125,13.564911842346191,-2.135594129562378,-0.3209373354911804
1667266100344592600,2.704592529296875,13.102797508239746,-2.1308085918426514,-0.4334000051021576
1667266100346990300,2.706990234375,12.707982063293457,-2.1092731952667236,-0.5458626747131348
1667266100349388000,2.709387939453125,12.353545188903809,-2.1068804264068604,-0.6511468887329102
1667266100351786000,2.711785888671875,12.058928489685059,-2.0709879398345947,-0.7277171611785889
1667266100354183700,2.71418359375,11.836396217346191,-2.032702922821045,-0.7707880139350891
1667266100356581600,2.71658154296875,11.719147682189941,-1.922333836555481,-0.7612167000770569
1667266100358979300,2.718979248046875,11.67129135131836,-1.7787644863128662,-0.7205387353897095
1667266100361377300,2.721377197265625,11.685648918151855,-1.6136597394943237,-0.6559324860572815
1667266100363775000,2.72377490234375,11.740683555603027,-1.4413765668869019,-0.5362913608551025
1667266100366172700,2.726172607421875,11.817254066467285,-1.2735798358917236,-0.36640095710754395
1667266100368570600,2.728570556640625,11.896217346191406,-1.1108678579330444,-0.11724831163883209
1667266100370968300,2.73096826171875,11.98475170135498,-0.9601200819015503,0.1698904037475586
1667266100373366300,2.7333662109375,12.111869812011719,-0.8353942036628723,0.4740779995918274
1667266100375764000,2.735763916015625,12.28415298461914,-0.7516453862190247,0.8066803216934204
1667266100378161700,2.73816162109375,12.530613899230957,-0.7253243923187256,1.1635099649429321
1667266100380559600,2.7405595703125,12.851551055908203,-0.8186444640159607,1.4868401288986206
1667266100382957300,2.742957275390625,13.2299165725708,-1.0103694200515747,1.7668004035949707
1667266100385355300,2.745355224609375,13.660624504089355,-1.2640085220336914,1.9848463535308838
1667266100387753000,2.7477529296875,14.072488784790039,-1.5801602602005005,2.169093608856201
1667266100390151000,2.75015087890625,14.472389221191406,-1.9414764642715454,2.317448616027832
1667266100392548600,2.752548583984375,14.857633590698242,-2.355733871459961,2.4155545234680176
1667266100394946600,2.754946533203125,15.183357238769531,-2.7652056217193604,2.472982168197632
1667266100397344300,2.75734423828125,15.466009140014648,-3.1411778926849365,2.4538395404815674
1667266100399742000,2.759741943359375,15.736397743225098,-3.490530014038086,2.389233350753784
1667266100402140000,2.762139892578125,15.939787864685059,-3.809074640274048,2.262413740158081
1667266100404537600,2.76453759765625,16.12433433532715,-4.086641788482666,2.0925233364105225
1667266100406935600,2.766935546875,16.29901123046875,-4.314259052276611,1.9079769849777222
1667266100409333200,2.769333251953125,16.586448669433594,-4.455435752868652,1.6663018465042114
1667266100411731200,2.771731201171875,16.79462432861328,-4.596612453460693,1.4557334184646606
1667266100414129000,2.77412890625,16.801801681518555,-4.72582483291626,1.220937728881836
1667266100416526800,2.77652685546875,16.725231170654297,-4.805087089538574,0.97926265001297
1667266100418924500,2.778924560546875,16.629518508911133,-4.872086048126221,0.7205387353897095
1667266100421322200,2.781322265625,16.540685653686523,-4.898406982421875,0.38793638348579407
1667266100423720200,2.78372021484375,16.466508865356445,-4.884049892425537,0.08614161610603333
1667266100426118000,2.786117919921875,16.39711570739746,-4.845765113830566,-0.19621145725250244
1667266100428515800,2.788515869140625,16.34447479248047,-4.759324073791504,-0.4788636267185211
1667266100430913500,2.79091357421875,16.34447479248047,-4.644468784332275,-0.7109674215316772
1667266100433311500,2.7933115234375,16.34208106994629,-4.488935470581055,-0.8811569213867188
1667266100435709200,2.795709228515625,16.332509994506836,-4.287938117980957,-0.9864411354064941
1667266100438107000,2.79810693359375,16.306188583374023,-4.139284133911133,-1.0055837631225586
1667266100440504800,2.8005048828125,16.263118743896484,-4.014857292175293,-0.9960124492645264
1667266100442902500,2.802902587890625,16.215261459350586,-3.864109516143799,-0.9553344249725342
1667266100445300500,2.805300537109375,16.131513595581055,-3.7037904262542725,-0.8739784955978394
1667266100447698200,2.8076982421875,15.992729187011719,-3.5168511867523193,-0.7779664397239685
1667266100450096000,2.81009619140625,15.815361022949219,-3.332603693008423,-0.6774678826332092
1667266100452493800,2.812493896484375,15.583257675170898,-3.1579277515411377,-0.5865406394004822
1667266100454891500,2.8148916015625,15.343676567077637,-2.98295259475708,-0.46450668573379517
1667266100457289500,2.81728955078125,15.08764362335205,-2.817847728729248,-0.368793785572052
1667266100459687200,2.819687255859375,14.81934928894043,-2.6312077045440674,-0.2799602448940277
1667266100462085000,2.822085205078125,14.539388656616211,-2.403590440750122,-0.20578274130821228
1667266100464482800,2.82448291015625,14.266307830810547,-2.159522533416748,-0.1986042857170105
1667266100466880800,2.826880859375,14.010275840759277,-1.903191328048706,-0.2153540402650833
1667266100469278500,2.829278564453125,13.754243850708008,-1.6615161895751953,-0.2679961323738098
1667266100471676200,2.83167626953125,13.495519638061523,-1.4246268272399902,-0.3329014480113983
1667266100474074000,2.83407421875,13.25862979888916,-1.2041879892349243,-0.3927220106124878
1667266100476471800,2.836471923828125,13.021441459655762,-1.0103694200515747,-0.45972105860710144
1667266100478869800,2.838869873046875,12.779767036437988,-0.8210372924804688,-0.47168517112731934
1667266100481267500,2.841267333984375,12.544970512390137,-0.6870391964912415,-0.4621138870716095
1667266100483665400,2.84366552734375,12.29372501373291,-0.5841478109359741,-0.39990049600601196
1667266100486063000,2.84606298828125,12.051750183105469,-0.5315057039260864,-0.2874378263950348
1667266100488461000,2.8484609375,11.802896499633789,-0.5315057039260864,-0.11006984114646912
1667266100490858800,2.850858642578125,11.55404281616211,-0.5913262963294983,0.0933200865983963
1667266100493256400,2.85325634765625,11.309676170349121,-0.6726822853088379,0.3209373354911804
1667266100495654400,2.855654296875,11.056036949157715,-0.7612167000770569,0.5027918815612793
1667266100498052000,2.858052001953125,10.802098274230957,-0.8476574420928955,0.6726822853088379
1667266100500450000,2.860449951171875,10.603494644165039,-0.9337990283966064,0.8476574420928955
1667266100502847700,2.86284765625,10.435997009277344,-1.0247262716293335,1.0295119285583496
1667266100505245700,2.86524560546875,10.318449020385742,-1.1228320598602295,1.201795220375061
1667266100507643400,2.867643310546875,10.244272232055664,-1.2137593030929565,1.3908281326293945
1667266100510041000,2.870041015625,10.196415901184082,-1.2903295755386353,1.5514464378356934
1667266100512439000,2.87243896484375,10.222736358642578,-1.3405789136886597,1.6974085569381714
1667266100514836700,2.874836669921875,10.292128562927246,-1.40279221534729,1.8577276468276978
1667266100517234700,2.877234619140625,10.368699073791504,-1.4844473600387573,2.0303099155426025
1667266100519632400,2.87963232421875,10.500602722167969,-1.5634105205535889,2.181057929992676
1667266100522030300,2.8820302734375,10.646565437316895,-1.683051586151123,2.2911276817321777
1667266100524428000,2.884427978515625,10.787741661071777,-1.7883358001708984,2.365305185317993
1667266100526825700,2.88682568359375,10.989038467407227,-1.92951238155365,2.3820550441741943
1667266100529223700,2.8892236328125,11.312068939208984,-2.0135602951049805,2.33180570602417
1667266100531621400,2.891621337890625,11.62582778930664,-2.135594129562378,2.26959228515625
1667266100534019300,2.894019287109375,11.845967292785645,-2.283949136734009,2.2025933265686035
1667266100536417000,2.8964169921875,12.025429725646973,-2.449054002761841,2.0997018814086914
1667266100538815000,2.89881494140625,12.18365478515625,-2.612065076828003,1.9992033243179321
1667266100541212700,2.901212646484375,12.341581344604492,-2.7675983905792236,1.8577276468276978
1667266100543610400,2.9036103515625,12.44686508178711,-2.927917718887329,1.709372639656067
1667266100546008300,2.90600830078125,12.506686210632324,-3.088535785675049,1.5418751239776611
1667266100548406000,2.908406005859375,12.559328079223633,-3.222533941268921,1.3334003686904907
1667266100550804000,2.910803955078125,12.592827796936035,-3.3230323791503906,1.098903775215149
1667266100553201700,2.91320166015625,12.604791641235352,-3.421138286590576,0.8452646136283875
1667266100555599600,2.915599609375,12.585648536682129,-3.442673683166504,0.5937191247940063
1667266100557997300,2.917997314453125,12.537792205810547,-3.445066452026367,0.3520440459251404
1667266100560395000,2.92039501953125,12.468400955200195,-3.4235310554504395,0.11246266216039658
1667266100562793000,2.92279296875,12.377472877502441,-3.356531858444214,-0.1339980661869049
1667266100565190700,2.925190673828125,12.265010833740234,-3.2416765689849854,-0.3520440459251404
1667266100567588600,2.927588623046875,12.133405685424805,-3.1148569583892822,-0.5745765566825867
1667266100569986300,2.929986328125,11.979965209960938,-2.966202735900879,-0.7564310431480408
1667266100572384300,2.93238427734375,11.810074806213379,-2.786741018295288,-0.9290133714675903
1667266100574782000,2.934781982421875,11.63300609588623,-2.6096723079681396,-1.0654042959213257
1667266100577180000,2.937179931640625,11.467602729797363,-2.4323041439056396,-1.1611171960830688
1667266100579577600,2.93957763671875,11.319247245788574,-2.245664119720459,-1.158724308013916
1667266100581975300,2.941975341796875,11.206785202026367,-2.063809633255005,-1.1132607460021973
1667266100584373200,2.944373291015625,11.082358360290527,-1.8888343572616577,-1.0295119285583496
1667266100586771000,2.94677099609375,10.989038467407227,-1.7356936931610107,-0.9649057388305664
1667266100589169000,2.9491689453125,10.864312171936035,-1.5849459171295166,-0.8401798605918884
1667266100591566600,2.951566650390625,10.708778381347656,-1.4294124841690063,-0.6846463680267334
1667266100593964500,2.953964599609375,10.541280746459961,-1.2783654928207397,-0.5697908997535706
1667266100596362200,2.9563623046875,10.347163200378418,-1.1324033737182617,-0.4405784606933594
1667266100598760200,2.95876025390625,10.107880592346191,-1.0199406147003174,-0.32572299242019653
1667266100601158000,2.961157958984375,9.856635093688965,-0.8883354067802429,-0.22971096634864807
1667266100603555600,2.9635556640625,9.571589469909668,-0.7516453862190247,-0.15314064919948578
1667266100605953500,2.96595361328125,9.267701148986816,-0.6248258352279663,-0.07657032459974289
1667266100608351200,2.968351318359375,8.96112060546875,-0.5291129350662231,0.014356935396790504
1667266100610749200,2.970749267578125,8.65932559967041,-0.4142574071884155,0.05742774158716202
1667266100613147000,2.97314697265625,8.3267240524292,-0.31854450702667236,0.07657032459974289
1667266100615544800,2.975544921875,8.0081787109375,-0.2273181527853012,0.062213387340307236
1667266100617942500,2.977942626953125,7.692326545715332,-0.14835500717163086,0.05503492057323456
1667266100620340200,2.98034033203125,7.409674644470215,-0.07178468257188797,0.01196411345154047
1667266100622738200,2.98273828125,7.122535705566406,0.016749758273363113,-0.04785645380616188
1667266100625135900,2.985135986328125,6.86381196975708,0.1052841991186142,-0.12203395366668701
1667266100627533800,2.987533935546875,6.62213659286499,0.17946170270442963,-0.22492532432079315
1667266100629931500,2.989931640625,6.401698112487793,0.26081767678260803,-0.33529427647590637
1667266100632329200,2.9923291015625,6.198307991027832,0.3281157910823822,-0.45254257321357727
1667266100634727200,2.99472705078125,5.982954025268555,0.37836506962776184,-0.5673980712890625
1667266100637124900,2.997124755859375,5.805585861206055,0.4286143481731415,-0.6726822853088379
1667266100639522800,2.999522705078125,5.6548380851745605,0.46450668573379517,-0.7707880139350891
1667266100641920500,3.00192041015625,5.511268615722656,0.4860421121120453,-0.8620143532752991
1667266100644318500,3.004318359375,5.389235019683838,0.4980062246322632,-0.9385846853256226
1667266100646716200,3.006716064453125,5.266901969909668,0.4980062246322632,-1.0055837631225586
1667266100649113900,3.00911376953125,5.171188831329346,0.49322056770324707,-1.079761266708374
1667266100651511800,3.01151171875,5.1065826416015625,0.5315057039260864,-1.1539387702941895
1667266100653909500,3.013909423828125,5.044369220733643,0.524327278137207,-1.2089736461639404
1667266100656307500,3.016307373046875,4.998905658721924,0.5338985323905945,-1.2137593030929565
1667266100658705200,3.018705078125,4.970191955566406,0.5721837282180786,-1.2329018115997314
1667266100661103000,3.02110302734375,4.9654059410095215,0.5913262963294983,-1.1682956218719482
1667266100663500800,3.023500732421875,4.9654059410095215,0.5865406394004822,-1.1252248287200928
1667266100665898800,3.025898681640625,4.970191955566406,0.6224330067634583,-1.0893324613571167
1667266100668296400,3.02829638671875,4.986941337585449,0.6702894568443298,-1.0151549577713013
1667266100670694100,3.030694091796875,5.006083965301514,0.7133602499961853,-0.9505487680435181
1667266100673092000,3.033092041015625,5.027619361877441,0.7516453862190247,-0.8811569213867188
1667266100675489800,3.03548974609375,5.030012130737305,0.7995018362998962,-0.8353942036628723
1667266100677887700,3.0378876953125,5.022833824157715,0.8306085467338562,-0.766002357006073
1667266100680285400,3.040285400390625,5.018048286437988,0.857228696346283,-0.701396107673645
1667266100682683400,3.042683349609375,5.001298427581787,0.8644071817398071,-0.6248258352279663
1667266100685081000,3.0450810546875,4.979763031005859,0.890728235244751,-0.5673980712890625
1667266100687479000,3.04747900390625,4.929513931274414,0.893121063709259,-0.5003990530967712
1667266100689876700,3.049876708984375,4.867300510406494,0.9290133714675903,-0.4501497745513916
1667266100692274400,3.0522744140625,4.812265396118164,0.9457631707191467,-0.385543555021286
1667266100694672400,3.05467236328125,4.73300313949585,0.9433703422546387,-0.32572299242019653
1667266100697070000,3.057070068359375,4.656432628631592,0.9337990283966064,-0.28983065485954285
1667266100699468000,3.059468017578125,4.587040901184082,0.9433703422546387,-0.23688943684101105
1667266100701865700,3.06186572265625,4.4961137771606445,0.97926265001297,-0.1698904037475586
1667266100704263700,3.064263671875,4.42193603515625,1.0319048166275024,-0.12921242415905
1667266100706661400,3.066661376953125,4.366901397705078,1.048654556274414,-0.0933200865983963
1667266100709059000,3.06905908203125,4.316651821136475,1.0773683786392212,-0.064606212079525
1667266100711457000,3.07145703125,4.278367042541504,1.1491531133651733,-0.040677983313798904
1667266100713854700,3.073854736328125,4.261617183685303,1.2376874685287476,-0.031106693670153618
1667266100716252700,3.076252685546875,4.261617183685303,1.316650629043579,-0.016749758273363113
1667266100718650400,3.078650390625,4.275974273681641,1.4222339391708374,-0.016749758273363113
1667266100721048300,3.08104833984375,4.295116424560547,1.5155540704727173,0.007178467698395252
1667266100723446000,3.083446044921875,4.29033088684082,1.6208382844924927,0.02871387079358101
1667266100725843700,3.08584375,4.268795490264893,1.7333009243011475,0.08135596662759781
1667266100728241700,3.08824169921875,4.244867324829102,1.8026927709579468,0.12203395366668701
1667266100730639400,3.090639404296875,4.230510234832764,1.8840487003326416,0.1818545162677765
1667266100733037300,3.093037353515625,4.201497554779053,1.953440546989441,0.24885354936122894
1667266100735435000,3.09543505859375,4.170390605926514,2.025524377822876,0.2994019389152527
1667266100737832700,3.097832763671875,4.141676902770996,2.080559253692627,0.3616153299808502
1667266100740230700,3.100230712890625,4.108177185058594,2.1260228157043457,0.4142574071884155
1667266100742628400,3.10262841796875,4.079463481903076,2.17627215385437,0.4453641176223755
1667266100745026300,3.1050263671875,4.033999919891357,2.221735715866089,0.46450668573379517
1667266100747424000,3.107424072265625,4.00528621673584,2.2648067474365234,0.4549354016780853
1667266100749822000,3.109822021484375,3.969393730163574,2.3030917644500732,0.4668995141983032
1667266100752219600,3.1122197265625,3.9502511024475098,2.3676979541778564,0.4621138870716095
1667266100754617300,3.114617431640625,3.9167516231536865,2.4131617546081543,0.43100717663764954
1667266100757015300,3.117015380859375,3.904787540435791,2.4634108543395996,0.37118661403656006
1667266100759413000,3.1194130859375,3.890430450439453,2.513660192489624,0.3113660514354706
1667266100761811000,3.12181103515625,3.8617167472839355,2.5546371936798096,0.27038896083831787
1667266100764208600,3.124208740234375,3.85693097114563,2.5785655975341797,0.20817556977272034
1667266100766606600,3.126606689453125,3.8234314918518066,2.590529680252075,0.11964113265275955
1667266100769004300,3.12900439453125,3.8210387229919434,2.6072793006896973,0.038285162299871445
1667266100771402000,3.131402099609375,3.7995033264160156,2.6096723079681396,-0.04785645380616188
1667266100773800000,3.133800048828125,3.7827534675598145,2.6072793006896973,-0.11964113265275955
1667266100776197600,3.13619775390625,3.7731821537017822,2.628814697265625,-0.18903298676013947
1667266100778595600,3.138595703125,3.7923247814178467,2.6168506145477295,-0.23449662327766418
1667266100780993300,3.1409931640625,3.777967929840088,2.6024937629699707,-0.29700911045074463
1667266100783391200,3.14339111328125,3.770789384841919,2.588136672973633,-0.3281157910823822
1667266100785789000,3.145788818359375,3.780360698699951,2.588136672973633,-0.385543555021286
1667266100788187000,3.148186767578125,3.8066816329956055,2.5929224491119385,-0.43100717663764954
1667266100790584600,3.15058447265625,3.842574119567871,2.614457845687866,-0.4621138870716095
1667266100792982300,3.152982177734375,3.895216226577759,2.643171787261963,-0.5027918815612793
1667266100795380200,3.155380126953125,3.959822416305542,2.6718854904174805,-0.5123631358146667
1667266100797778000,3.15777783203125,4.022035598754883,2.7125635147094727,-0.5530411601066589
1667266100800175900,3.16017578125,4.069892406463623,2.738884687423706,-0.6272186636924744
1667266100802573600,3.162573486328125,4.117748737335205,2.760420083999634,-0.6798607110977173
1667266100804971500,3.164971435546875,4.144069671630859,2.7484560012817383,-0.734895646572113
1667266100807369200,3.167369140625,4.117748737335205,2.746062994003296,-0.7899305820465088
