time,seconds_elapsed,z,y,x
1667266097735246000,0.09524609375,0.10453123599290848,-0.07169819623231888,0.4047626554965973
1667266097737643800,0.097643798828125,0.12407834827899933,-0.09613208472728729,0.3803287744522095
1667266097740041700,0.100041748046875,0.139960378408432,-0.11629004776477814,0.3510081171989441
1667266097742439400,0.102439453125,0.15950748324394226,-0.13033953309059143,0.31985488533973694
1667266097744837400,0.10483740234375,0.17783290147781372,-0.13828055560588837,0.28931254148483276
1667266097747235000,0.107235107421875,0.19676917791366577,-0.14133478701114655,0.2606027126312256
1667266097749632800,0.1096328125,0.21509459614753723,-0.1327829211950302,0.23494713008403778
1667266097752030700,0.11203076171875,0.22975492477416992,-0.1205659806728363,0.21051323413848877
1667266097754428400,0.114428466796875,0.24319356679916382,-0.10040801763534546,0.18730103969573975
1667266097756826400,0.116826416015625,0.25357797741889954,-0.07963921129703522,0.1689756214618683
1667266097759224000,0.11922412109375,0.2584647536277771,-0.05703786388039589,0.154926136136055
1667266097761622000,0.1216220703125,0.2609081268310547,-0.038101598620414734,0.1414874941110611
1667266097764019700,0.124019775390625,0.2602972984313965,-0.019776180386543274,0.13476817309856415
1667266097766417700,0.126417724609375,0.2566322088241577,-0.007559234742075205,0.1286597102880478
1667266097768815400,0.1288154296875,0.2468586415052414,0.0016034740256145597,0.12316207587718964
1667266097771213000,0.131213134765625,0.23586340248584747,0.008322793990373611,0.11888615041971207
1667266097773611000,0.133611083984375,0.2212030589580536,0.010155336000025272,0.11766445636749268
1667266097776008700,0.1360087890625,0.2059318870306015,0.010155336000025272,0.1152210608124733
1667266097778406700,0.13840673828125,0.18943901360034943,0.007711946498602629,0.11155597865581512
1667266097780804400,0.140804443359375,0.16928105056285858,0.004046862944960594,0.11094513535499573
1667266097783202300,0.143202392578125,0.1533990204334259,0.0009926267666742206,0.10972344130277634
1667266097785600000,0.14560009765625,0.13690614700317383,-0.004504998680204153,0.10544750839471817
1667266097787998000,0.147998046875,0.12041326612234116,-0.008780929259955883,0.10178242623806
1667266097790395600,0.150395751953125,0.10697462409734726,-0.01794363744556904,0.09384141117334366
1667266097792793300,0.15279345703125,0.09353598952293396,-0.02405211143195629,0.08651123940944672
1667266097795191300,0.15519140625,0.08070819079875946,-0.028938889503479004,0.07734853774309158
1667266097797589000,0.157589111328125,0.07032378762960434,-0.03749075159430504,0.06635328382253647
1667266097799987000,0.159987060546875,0.058717694133520126,-0.048486001789569855,0.05413633957505226
1667266097802384600,0.162384521484375,0.047111593186855316,-0.060092099010944366,0.043141089379787445
1667266097804782600,0.164782470703125,0.037948887795209885,-0.07291989028453827,0.031534988433122635
1667266097807180300,0.16718017578125,0.02695363573729992,-0.08696937561035156,0.019928891211748123
1667266097809578000,0.169577880859375,0.017180079594254494,-0.10040801763534546,0.009544488042593002
1667266097811976000,0.171975830078125,0.006184828467667103,-0.11201411485671997,0.00038177953683771193
1667266097814373600,0.17437353515625,-0.005421269219368696,-0.11812258511781693,-0.005726693198084831
1667266097816771600,0.176771484375,-0.015194825828075409,-0.1211768239736557,-0.010613471269607544
1667266097819169300,0.179169189453125,-0.021303297951817513,-0.11873343586921692,-0.0130568603053689
1667266097821567000,0.18156689453125,-0.031076854094862938,-0.11384665966033936,-0.013667707331478596
1667266097823965000,0.18396484375,-0.03840702027082443,-0.10346225649118423,-0.016721943393349648
1667266097826362600,0.186362548828125,-0.0426829531788826,-0.09124530851840973,-0.014278554357588291
1667266097828760600,0.188760498046875,-0.045737188309431076,-0.07902836054563522,-0.014889402315020561
1667266097831158300,0.191158203125,-0.04756972938776016,-0.06742226332426071,-0.012446013279259205
1667266097833556200,0.19355615234375,-0.04818057641386986,-0.05703786388039589,-0.010002624243497849
1667266097835954000,0.195953857421875,-0.04818057641386986,-0.04543176665902138,-0.006337540224194527
1667266097838352000,0.198351806640625,-0.04512634128332138,-0.03382566571235657,-0.0014507622690871358
1667266097840749600,0.20074951171875,-0.0426829531788826,-0.025273805484175682,0.004046862944960594
1667266097843147500,0.2031474609375,-0.03962871432304382,-0.014278554357588291,0.005879404954612255
1667266097845545200,0.205545166015625,-0.03596363216638565,-0.002061609411612153,0.007101099472492933
1667266097847943000,0.20794287109375,-0.03352024406194687,0.011987877078354359,0.010766183026134968
1667266097850340900,0.2103408203125,-0.031076854094862938,0.024815669283270836,0.013209572061896324
1667266097852738600,0.212738525390625,-0.028633465990424156,0.03764346241950989,0.014431266114115715
1667266097855136500,0.215136474609375,-0.02557922899723053,0.04680617153644562,0.012598725035786629
1667266097857534200,0.2175341796875,-0.02557922899723053,0.05596888065338135,0.010155336000025272
1667266097859932200,0.21993212890625,-0.02435753494501114,0.06390989571809769,0.0064902519807219505
1667266097862329900,0.222329833984375,-0.023746687918901443,0.07062921673059464,0.005268557462841272
1667266097864727600,0.2247275390625,-0.024968381971120834,0.07246175408363342,0.0022143214009702206
1667266097867125500,0.22712548828125,-0.021914144977927208,0.07185091078281403,-0.005726693198084831
1667266097869523200,0.229523193359375,-0.0231358390301466,0.06574243307113647,-0.010613471269607544
1667266097871921200,0.231921142578125,-0.021303297951817513,0.05841226875782013,-0.020997874438762665
1667266097874318800,0.23431884765625,-0.020692450925707817,0.05047125369310379,-0.02832804247736931
1667266097876716800,0.236716796875,-0.021914144977927208,0.03886515647172928,-0.03687990456819534
1667266097879114500,0.239114501953125,-0.02008160389959812,0.02542651630938053,-0.044820915907621384
1667266097881512200,0.24151220703125,-0.01763821393251419,0.010766183026134968,-0.050929389894008636
1667266097883910100,0.24391015625,-0.015805672854185104,-0.006948387715965509,-0.05825955793261528
1667266097886307800,0.246307861328125,-0.014583977870643139,-0.02160872146487236,-0.06497887521982193
1667266097888705800,0.248705810546875,-0.015194825828075409,-0.03687990456819534,-0.07108735293149948
1667266097891103500,0.251103515625,-0.013973130844533443,-0.05215108394622803,-0.07475243508815765
1667266097893501400,0.25350146484375,-0.012140588834881783,-0.06375718116760254,-0.07902836054563522
1667266097895899100,0.255899169921875,-0.012751436792314053,-0.07353074103593826,-0.08086090534925461
1667266097898296800,0.258296875,-0.013362283818423748,-0.08269345015287399,-0.08330429345369339
1667266097900694800,0.26069482421875,-0.009697199799120426,-0.08758022636175156,-0.08513683825731277
1667266097903092500,0.263092529296875,-0.005421269219368696,-0.09246700257062912,-0.08574768155813217
1667266097905490400,0.265490478515625,-0.005421269219368696,-0.09674293547868729,-0.08513683825731277
1667266097907888000,0.26788818359375,-0.0023670331574976444,-0.10346225649118423,-0.08269345015287399
1667266097910286000,0.2702861328125,-0.0035887276753783226,-0.11079242080450058,-0.07841751724481583
1667266097912683800,0.272683837890625,-0.0023670331574976444,-0.11323580890893936,-0.07414158433675766
1667266097915081700,0.275081787109375,0.0031305921729654074,-0.11384665966033936,-0.06681142002344131
1667266097917479400,0.2774794921875,0.0037414394319057465,-0.11629004776477814,-0.05948125198483467
1667266097919877400,0.27987744140625,0.0037414394319057465,-0.11567919701337814,-0.05031854286789894
1667266097922275000,0.282275146484375,0.0037414394319057465,-0.11262496560811996,-0.04115583375096321
1667266097924672800,0.2846728515625,0.0031305921729654074,-0.11079242080450058,-0.032603971660137177
1667266097927070700,0.28707080078125,0.0025197449140250683,-0.10529479384422302,-0.020997874438762665
1667266097929468400,0.289468505859375,0.0019088976550847292,-0.09979717433452606,-0.010002624243497849
1667266097931866400,0.291866455078125,-0.0005344913806766272,-0.09368869662284851,0.00038177953683771193
1667266097934264000,0.29426416015625,-0.0017561858985573053,-0.08635853230953217,0.009544488042593002
1667266097936662000,0.296662109375,-0.004199574701488018,-0.08269345015287399,0.018096350133419037
1667266097939059700,0.299059814453125,-0.009697199799120426,-0.07902836054563522,0.02664821222424507
1667266097941457400,0.30145751953125,-0.012140588834881783,-0.07597412914037704,0.033978380262851715
1667266097943855400,0.30385546875,-0.013973130844533443,-0.07108735293149948,0.040697697550058365
1667266097946253000,0.306253173828125,-0.0164165198802948,-0.0686439573764801,0.043141089379787445
1667266097948651000,0.308651123046875,-0.018249060958623886,-0.06620056927204132,0.04680617153644562
1667266097951048700,0.311048583984375,-0.01885990984737873,-0.06375718116760254,0.0492495596408844
1667266097953446400,0.3134462890625,-0.018249060958623886,-0.06375718116760254,0.04741701856255531
1667266097955844400,0.31584423828125,-0.017027366906404495,-0.05825955793261528,0.04375193640589714
1667266097958242000,0.318241943359375,-0.017027366906404495,-0.05276193097233772,0.04008685052394867
1667266097960640000,0.320639892578125,-0.01763821393251419,-0.04909684881567955,0.0358109213411808
1667266097963037700,0.32303759765625,-0.019470756873488426,-0.040544986724853516,0.03092414326965809
1667266097965435600,0.325435546875,-0.023746687918901443,-0.03199312463402748,0.024815669283270836
1667266097967833300,0.327833251953125,-0.02435753494501114,-0.025884652510285378,0.01748550310730934
1667266097970231300,0.330231201171875,-0.02557922899723053,-0.028938889503479004,0.008322793990373611
1667266097972629000,0.33262890625,-0.028633465990424156,-0.03077143058180809,-0.002672456670552492
1667266097975027000,0.33502685546875,-0.02924431301653385,-0.03565821051597595,-0.014889402315020561
1667266097977424600,0.337424560546875,-0.030466007068753242,-0.0429883748292923,-0.026495499536395073
1667266097979822600,0.339822509765625,-0.03229855000972748,-0.04665346071124077,-0.03993413969874382
1667266097982220300,0.34222021484375,-0.03168770298361778,-0.050929389894008636,-0.053983625024557114
1667266097984618000,0.344617919921875,-0.035352785140275955,-0.053983625024557114,-0.06497887521982193
1667266097987016000,0.347015869140625,-0.035352785140275955,-0.05825955793261528,-0.07780666649341583
1667266097989413600,0.34941357421875,-0.03779617324471474,-0.05825955793261528,-0.09063446521759033
1667266097991811600,0.3518115234375,-0.04085041210055351,-0.06375718116760254,-0.10040801763534546
1667266097994209300,0.354209228515625,-0.04146125912666321,-0.0692548081278801,-0.10957072675228119
1667266097996607000,0.35660693359375,-0.045737188309431076,-0.07108735293149948,-0.11812258511781693
1667266097999005000,0.3590048828125,-0.05062396824359894,-0.07169819623231888,-0.12300936877727509
1667266098001402600,0.361402587890625,-0.05428905040025711,-0.07353074103593826,-0.13033953309059143
1667266098003800600,0.363800537109375,-0.05795413255691528,-0.07230904698371887,-0.1333937644958496
1667266098006198300,0.3661982421875,-0.06467345356941223,-0.07291989028453827,-0.135226309299469
1667266098008596200,0.36859619140625,-0.0683385357260704,-0.07291989028453827,-0.1358371526002884
1667266098010994000,0.370993896484375,-0.07383616268634796,-0.07353074103593826,-0.13705885410308838
1667266098013391600,0.3733916015625,-0.08055548369884491,-0.07475243508815765,-0.1340046226978302
1667266098015789600,0.37578955078125,-0.08422056585550308,-0.07902836054563522,-0.13033953309059143
1667266098018187300,0.378187255859375,-0.09032903611660004,-0.08696937561035156,-0.12545275688171387
1667266098020585200,0.380585205078125,-0.09277242422103882,-0.09063446521759033,-0.11995512992143631
1667266098022983000,0.38298291015625,-0.0946049690246582,-0.0949103906750679,-0.11079242080450058
1667266098025380900,0.385380859375,-0.0958266630768776,-0.09979717433452606,-0.10101886838674545
1667266098027778600,0.387778564453125,-0.09704835712909698,-0.10407309979200363,-0.09063446521759033
1667266098030176500,0.390176513671875,-0.0958266630768776,-0.1077381819486618,-0.07841751724481583
1667266098032574200,0.39257421875,-0.09155073016881943,-0.11384665966033936,-0.07047650218009949
1667266098034972000,0.394971923828125,-0.08483141660690308,-0.11751174181699753,-0.0552053228020668
1667266098037369900,0.397369873046875,-0.07933378964662552,-0.1217876747250557,-0.0423775278031826
1667266098039767600,0.399767578125,-0.0695602297782898,-0.11995512992143631,-0.03077143058180809
1667266098042165500,0.40216552734375,-0.06100837141275406,-0.11506835371255875,-0.01916533336043358
1667266098044563200,0.404563232421875,-0.05123481526970863,-0.10651648789644241,-0.006337540224194527
1667266098046961200,0.406961181640625,-0.0426829531788826,-0.09857547283172607,0.004657710436731577
1667266098049358800,0.40935888671875,-0.03352024406194687,-0.08941277116537094,0.014431266114115715
1667266098051756800,0.4117568359375,-0.0231358390301466,-0.07536327838897705,0.024815669283270836
1667266098054154500,0.414154541015625,-0.013973130844533443,-0.057648710906505585,0.033978380262851715
1667266098056552200,0.41655224609375,-0.007253811229020357,-0.04421006888151169,0.04253023862838745
1667266098058950100,0.4189501953125,0.0031305921729654074,-0.031382277607917786,0.05169294774532318
1667266098061347800,0.421347900390625,0.011071606539189816,-0.017332790419459343,0.059023115783929825
1667266098063745800,0.423745849609375,0.019623467698693275,-0.005726693198084831,0.06513158977031708
1667266098066143500,0.4261435546875,0.027564482763409615,0.004657710436731577,0.06940752267837524
1667266098068541400,0.42854150390625,0.036727190017700195,0.013209572061896324,0.07124006003141403
1667266098070939100,0.430939208984375,0.04527905210852623,0.02420482225716114,0.07246175408363342
1667266098073336800,0.4333369140625,0.055052608251571655,0.032756682485342026,0.07001836597919464
1667266098075734800,0.43573486328125,0.062993623316288,0.039476003497838974,0.06452073901891708
1667266098078132500,0.438132568359375,0.07093463838100433,0.04375193640589714,0.0620773509144783
1667266098080530400,0.440530517578125,0.0752105712890625,0.04375193640589714,0.05413633957505226
1667266098082928000,0.44292822265625,0.08315158635377884,0.03886515647172928,0.04619532451033592
1667266098085326000,0.445326171875,0.08681666851043701,0.035200074315071106,0.03886515647172928
1667266098087723800,0.447723876953125,0.09109259396791458,0.02664821222424507,0.02970244735479355
1667266098090121700,0.450121826171875,0.09231429547071457,0.015652960166335106,0.018096350133419037
1667266098092519400,0.45251953125,0.09536852687597275,0.005879404954612255,0.008322793990373611
1667266098094917000,0.454917236328125,0.09353598952293396,-0.0051158457063138485,-0.0038941511884331703
1667266098097315000,0.457315185546875,0.09109259396791458,-0.014889402315020561,-0.015500249341130257
1667266098099712800,0.459712646484375,0.09109259396791458,-0.02710634656250477,-0.024662958458065987
1667266098102110700,0.46211083984375,0.08742751181125641,-0.040544986724853516,-0.03443651273846626
1667266098104508400,0.46450830078125,0.08376242965459824,-0.058870404958724976,-0.044820915907621384
1667266098106906400,0.46690625,0.07948649674654007,-0.0814717561006546,-0.05337277799844742
1667266098109304000,0.469303955078125,0.07643226534128189,-0.10529479384422302,-0.058870404958724976
1667266098111702000,0.471701904296875,0.07398887723684311,-0.12789614498615265,-0.06192464008927345
1667266098114099700,0.474099609375,0.07093463838100433,-0.15477342903614044,-0.06436803191900253
1667266098116497400,0.476497314453125,0.06849125027656555,-0.17676392197608948,-0.06375718116760254
1667266098118895400,0.478895263671875,0.06849125027656555,-0.19386765360832214,-0.06253548711538315
1667266098121293000,0.48129296875,0.06665870547294617,-0.20425204932689667,-0.060092099010944366
1667266098123691000,0.48369091796875,0.06849125027656555,-0.2140256017446518,-0.05276193097233772
1667266098126088700,0.486088623046875,0.06971294432878494,-0.22074492275714874,-0.048486001789569855
1667266098128486400,0.488486328125,0.06910209357738495,-0.22196662425994873,-0.041766680777072906
1667266098130884400,0.49088427734375,0.07215633243322372,-0.21707984805107117,-0.03749075159430504
1667266098133282000,0.493281982421875,0.07154548168182373,-0.2134147584438324,-0.032603971660137177
1667266098135680000,0.495679931640625,0.07215633243322372,-0.20730629563331604,-0.02710634656250477
1667266098138077700,0.49807763671875,0.07276718318462372,-0.20303036272525787,-0.02160872146487236
1667266098140475600,0.5004755859375,0.07337802648544312,-0.19570018351078033,-0.017332790419459343
1667266098142873300,0.502873291015625,0.0758214145898819,-0.1871483325958252,-0.011835165321826935
1667266098145271000,0.50527099609375,0.0758214145898819,-0.18165069818496704,-0.008170082233846188
1667266098147669000,0.5076689453125,0.07643226534128189,-0.1743205338716507,-0.0051158457063138485
1667266098150066700,0.510066650390625,0.0758214145898819,-0.16393613815307617,-0.002672456670552492
1667266098152464600,0.512464599609375,0.07398887723684311,-0.15538427233695984,0.00038177953683771193
1667266098154862300,0.5148623046875,0.07398887723684311,-0.1474432498216629,0.0022143214009702206
1667266098157260300,0.51726025390625,0.0752105712890625,-0.13705885410308838,0.00038177953683771193
1667266098159658000,0.519657958984375,0.07276718318462372,-0.12911784648895264,0.0028251686599105597
1667266098162056000,0.522055908203125,0.07154548168182373,-0.12239851802587509,0.0016034740256145597
1667266098164453600,0.52445361328125,0.06910209357738495,-0.11629004776477814,0.004657710436731577
1667266098166851600,0.5268515625,0.06604786217212677,-0.11567919701337814,0.0016034740256145597
1667266098169249300,0.529249267578125,0.06482616811990738,-0.11384665966033936,0.004046862944960594
1667266098171647000,0.53164697265625,0.05932854115962982,-0.11323580890893936,0.005879404954612255
1667266098174045000,0.534044921875,0.05566345527768135,-0.11384665966033936,0.0064902519807219505
1667266098176442600,0.536442626953125,0.053830914199352264,-0.11629004776477814,0.007101099472492933
1667266098178840600,0.538840576171875,0.048333290964365005,-0.11445750296115875,0.010155336000025272
1667266098181238300,0.54123828125,0.04283566400408745,-0.11201411485671997,0.012598725035786629
1667266098183636200,0.54363623046875,0.039170581847429276,-0.11018157750368118,0.015042114071547985
1667266098186034000,0.546033935546875,0.03367295488715172,-0.10895988345146179,0.01748550310730934
1667266098188431600,0.548431640625,0.03184041380882263,-0.10712733864784241,0.021150587126612663
1667266098190829600,0.55082958984375,0.02695363573729992,-0.10712733864784241,0.022372281178832054
1667266098193227300,0.553227294921875,0.025731941685080528,-0.10468395054340363,0.022372281178832054
1667266098195625200,0.555625244140625,0.025731941685080528,-0.10285140573978424,0.024815669283270836
1667266098198023000,0.55802294921875,0.023288551717996597,-0.10407309979200363,0.02420482225716114
1667266098200420900,0.5604208984375,0.023899398744106293,-0.10346225649118423,0.02420482225716114
1667266098202818600,0.562818603515625,0.023288551717996597,-0.10468395054340363,0.02420482225716114
1667266098205216300,0.56521630859375,0.023899398744106293,-0.10468395054340363,0.021150587126612663
1667266098207614200,0.5676142578125,0.022677704691886902,-0.10407309979200363,0.021150587126612663
1667266098210012000,0.570011962890625,0.01901262067258358,-0.10040801763534546,0.02298312820494175
1667266098212409900,0.572409912109375,0.018401773646473885,-0.09796462953090668,0.02298312820494175
1667266098214807600,0.5748076171875,0.015347537584602833,-0.09796462953090668,0.024815669283270836
1667266098217205500,0.57720556640625,0.012904148548841476,-0.09979717433452606,0.024815669283270836
1667266098219603200,0.579603271484375,0.012904148548841476,-0.09918632358312607,0.02664821222424507
1667266098222001200,0.582001220703125,0.012904148548841476,-0.09857547283172607,0.02970244735479355
1667266098224398800,0.58439892578125,0.009849912486970425,-0.09674293547868729,0.031534988433122635
1667266098226796800,0.586796875,0.009849912486970425,-0.09124530851840973,0.03214583545923233
1667266098229194500,0.589194580078125,0.00862821750342846,-0.08635853230953217,0.03214583545923233
1667266098231592200,0.59159228515625,0.007406522985547781,-0.07719582319259644,0.03214583545923233
1667266098233990100,0.593990234375,0.004963133949786425,-0.06742226332426071,0.030313294380903244
1667266098236387800,0.596387939453125,0.0031305921729654074,-0.06497887521982193,0.02970244735479355
1667266098238785800,0.598785888671875,0.000687203137204051,-0.058870404958724976,0.02664821222424507
1667266098241183500,0.60118359375,-0.0017561858985573053,-0.05459447205066681,0.02542651630938053
1667266098243581400,0.60358154296875,-0.006032116711139679,-0.053983625024557114,0.023593975231051445
1667266098245979100,0.605979248046875,-0.00908635277301073,-0.05459447205066681,0.019318044185638428
1667266098248376800,0.608376953125,-0.015194825828075409,-0.0552053228020668,0.018707197159528732
1667266098250774800,0.61077490234375,-0.021914144977927208,-0.060092099010944366,0.01382041908800602
1667266098253172500,0.61317236328125,-0.021914144977927208,-0.06131379306316376,0.009544488042593002
1667266098255570400,0.6155703125,-0.026190076023340225,-0.06681142002344131,0.008933641016483307
1667266098257968000,0.617968017578125,-0.03229855000972748,-0.06986565887928009,0.007101099472492933
1667266098260366000,0.620365966796875,-0.034131091088056564,-0.07108735293149948,0.005268557462841272
1667266098262763800,0.622763671875,-0.03718532621860504,-0.07475243508815765,0.0034360159188508987
1667266098265161500,0.625161376953125,-0.03779617324471474,-0.07536327838897705,0.0022143214009702206
1667266098267559400,0.627559326171875,-0.04085041210055351,-0.07414158433675766,0.004657710436731577
1667266098269957000,0.62995703125,-0.04146125912666321,-0.07108735293149948,0.0028251686599105597
1667266098272355000,0.63235498046875,-0.04085041210055351,-0.06436803191900253,0.004046862944960594
1667266098274752800,0.634752685546875,-0.04085041210055351,-0.05703786388039589,0.004046862944960594
1667266098277150700,0.637150634765625,-0.03779617324471474,-0.047264307737350464,0.004657710436731577
1667266098279548400,0.63954833984375,-0.035352785140275955,-0.03504735976457596,0.007101099472492933
1667266098281946400,0.6419462890625,-0.03352024406194687,-0.02160872146487236,0.007711946498602629
1667266098284344000,0.644343994140625,-0.031076854094862938,-0.0051158457063138485,0.007711946498602629
1667266098286742000,0.646741943359375,-0.027411770075559616,0.010155336000025272,0.007711946498602629
1667266098289139700,0.6491396484375,-0.02557922899723053,0.027259059250354767,0.005268557462841272
1667266098291537400,0.651537353515625,-0.0231358390301466,0.043141089379787445,0.004046862944960594
1667266098293935400,0.653935302734375,-0.01763821393251419,0.059023115783929825,0.0028251686599105597
1667266098296333000,0.6563330078125,-0.015805672854185104,0.07307260483503342,0.0028251686599105597
1667266098298731000,0.65873095703125,-0.014583977870643139,0.07857023179531097,0.0009926267666742206
1667266098301128700,0.661128662109375,-0.010918894782662392,0.08223531395196915,0.0009926267666742206
1667266098303526400,0.6635263671875,-0.012140588834881783,0.08956547826528549,0.0016034740256145597
1667266098305924400,0.66592431640625,-0.009697199799120426,0.09323056042194366,0.0034360159188508987
1667266098308322000,0.668322021484375,-0.011529741808772087,0.09689565002918243,0.005268557462841272
1667266098310720000,0.670719970703125,-0.009697199799120426,0.1023932695388794,0.005268557462841272
1667266098313117700,0.67311767578125,-0.011529741808772087,0.10300412029027939,0.007711946498602629
1667266098315515600,0.675515625,-0.012751436792314053,0.10361496359109879,0.011987877078354359
1667266098317913300,0.677913330078125,-0.012751436792314053,0.10605835169553757,0.012598725035786629
1667266098320311300,0.680311279296875,-0.012140588834881783,0.11033428460359573,0.016874656081199646
1667266098322709000,0.682708984375,-0.013973130844533443,0.1146102175116539,0.019928891211748123
1667266098325107000,0.68510693359375,-0.015805672854185104,0.12132953852415085,0.023593975231051445
1667266098327504600,0.687504638671875,-0.015805672854185104,0.12316207587718964,0.029091600328683853
1667266098329902300,0.68990234375,-0.017027366906404495,0.1280488520860672,0.032756682485342026
1667266098332300300,0.69230029296875,-0.01763821393251419,0.1292705535888672,0.0364217683672905
1667266098334698000,0.694697998046875,-0.019470756873488426,0.1292705535888672,0.04008685052394867
1667266098337096000,0.697095947265625,-0.01885990984737873,0.12316207587718964,0.044362783432006836
1667266098339493600,0.69949365234375,-0.021914144977927208,0.11338852345943451,0.0492495596408844
1667266098341891600,0.7018916015625,-0.021914144977927208,0.09872818738222122,0.051082100719213486
1667266098344289300,0.704289306640625,-0.026190076023340225,0.08406785130500793,0.053525492548942566
1667266098346687000,0.70668701171875,-0.029855160042643547,0.06696412712335587,0.05841226875782013
1667266098349085000,0.7090849609375,-0.03168770298361778,0.053525492548942566,0.060244809836149216
1667266098351482600,0.711482666015625,-0.03474193811416626,0.04253023862838745,0.06329904496669769
1667266098353880600,0.713880615234375,-0.03840702027082443,0.029091600328683853,0.06452073901891708
1667266098356278300,0.7162783203125,-0.04023956134915352,0.019928891211748123,0.06452073901891708
1667266098358676200,0.71867626953125,-0.04390464723110199,0.01382041908800602,0.06452073901891708
1667266098361074000,0.721073974609375,-0.04512634128332138,0.009544488042593002,0.06329904496669769
1667266098363471600,0.7234716796875,-0.04818057641386986,0.0064902519807219505,0.059023115783929825
1667266098365869600,0.72586962890625,-0.05062396824359894,0.0064902519807219505,0.05413633957505226
1667266098368267300,0.728267333984375,-0.052456509321928024,0.004046862944960594,0.048638712614774704
1667266098370665200,0.730665283203125,-0.053678203374147415,0.005879404954612255,0.043141089379787445
1667266098373063000,0.73306298828125,-0.0561215914785862,0.007711946498602629,0.03764346241950989
1667266098375460900,0.7354609375,-0.05856497958302498,0.010155336000025272,0.02970244735479355
1667266098377858600,0.737858642578125,-0.06100837141275406,0.013209572061896324,0.02176143415272236
1667266098380256500,0.740256591796875,-0.06100837141275406,0.010155336000025272,0.011987877078354359
1667266098382654200,0.742654296875,-0.06528430432081223,0.008322793990373611,0.0016034740256145597
1667266098385052200,0.74505224609375,-0.06650599837303162,0.0022143214009702206,-0.011835165321826935
1667266098387449900,0.747449951171875,-0.0683385357260704,-0.005726693198084831,-0.02160872146487236
1667266098389847600,0.74984765625,-0.07017108052968979,-0.011835165321826935,-0.03504735976457596
1667266098392245500,0.75224560546875,-0.07200361788272858,-0.02160872146487236,-0.047264307737350464
1667266098394643200,0.754643310546875,-0.07383616268634796,-0.03199312463402748,-0.058870404958724976
1667266098397041200,0.757041259765625,-0.07322531193494797,-0.044820915907621384,-0.07047650218009949
1667266098399438800,0.75943896484375,-0.07566870748996735,-0.05825955793261528,-0.07963921129703522
1667266098401836800,0.7618369140625,-0.07505785673856735,-0.06742226332426071,-0.08941277116537094
1667266098404234500,0.764234375,-0.07750124484300613,-0.07841751724481583,-0.0955212414264679
1667266098406632200,0.766632080078125,-0.07689040154218674,-0.08758022636175156,-0.10224056243896484
1667266098409030100,0.769030029296875,-0.07750124484300613,-0.0942995473742485,-0.10712733864784241
1667266098411427800,0.771427734375,-0.07566870748996735,-0.09857547283172607,-0.10895988345146179
1667266098413825800,0.77382568359375,-0.07627955079078674,-0.10346225649118423,-0.1083490327000618
1667266098416223500,0.776223388671875,-0.07505785673856735,-0.10529479384422302,-0.10712733864784241
1667266098418621400,0.778621337890625,-0.07444700598716736,-0.11079242080450058,-0.10407309979200363
1667266098421019100,0.78101904296875,-0.07017108052968979,-0.11629004776477814,-0.09857547283172607
1667266098423417000,0.7834169921875,-0.07017108052968979,-0.11751174181699753,-0.09368869662284851
1667266098425814800,0.785814697265625,-0.06589514762163162,-0.11873343586921692,-0.08941277116537094
1667266098428212700,0.788212646484375,-0.06223006546497345,-0.11934428662061691,-0.08391514420509338
1667266098430610400,0.7906103515625,-0.059175826609134674,-0.11567919701337814,-0.07597412914037704
1667266098433008000,0.793008056640625,-0.053678203374147415,-0.11079242080450058,-0.06620056927204132
1667266098435406000,0.795406005859375,-0.04879142343997955,-0.10162971168756485,-0.06070294603705406
1667266098437803800,0.7978037109375,-0.043293800204992294,-0.09124530851840973,-0.049707695841789246
1667266098440201700,0.80020166015625,-0.03779617324471474,-0.07719582319259644,-0.04115583375096321
1667266098442599400,0.802599365234375,-0.03290939703583717,-0.06558972597122192,-0.03199312463402748
1667266098444997400,0.804997314453125,-0.026190076023340225,-0.05215108394622803,-0.02405211143195629
1667266098447395000,0.80739501953125,-0.02008160389959812,-0.03504735976457596,-0.01794363744556904
1667266098449792800,0.809792724609375,-0.015194825828075409,-0.019776180386543274,-0.008170082233846188
1667266098452190700,0.812190673828125,-0.009697199799120426,-0.0038941511884331703,0.0009926267666742206
1667266098454588400,0.81458837890625,-0.006642963737249374,0.011377030052244663,0.007711946498602629
1667266098456986400,0.816986328125,-0.004810422193259001,0.021150587126612663,0.014431266114115715
1667266098459384000,0.819384033203125,0.0031305921729654074,0.03092414326965809,0.022372281178832054
1667266098461782000,0.821781982421875,0.0067956759594380856,0.035200074315071106,0.02664821222424507
1667266098464179700,0.8241796875,0.009849912486970425,0.0358109213411808,0.03336753323674202
1667266098466577700,0.82657763671875,0.01779092662036419,0.033978380262851715,0.04008685052394867
1667266098468975400,0.828975341796875,0.02023431472480297,0.032756682485342026,0.04558447748422623
1667266098471373000,0.831373046875,0.023899398744106293,0.02542651630938053,0.0492495596408844
1667266098473771000,0.83377099609375,0.02695363573729992,0.02053973823785782,0.05291464552283287
1667266098476168700,0.836168701171875,0.02695363573729992,0.011987877078354359,0.05657972767949104
1667266098478566700,0.838566650390625,0.031229566782712936,0.005879404954612255,0.05963396281003952
1667266098480964400,0.84096435546875,0.03184041380882263,-0.0014507622690871358,0.06329904496669769
1667266098483362300,0.8433623046875,0.031229566782712936,-0.008170082233846188,0.06696412712335587
1667266098485760000,0.845760009765625,0.03245126083493233,-0.014278554357588291,0.07185091078281403
1667266098488158000,0.848157958984375,0.03184041380882263,-0.014278554357588291,0.07368344813585281
1667266098490555600,0.8505556640625,0.0293970238417387,-0.014889402315020561,0.07918107509613037
1667266098492953300,0.852953369140625,0.03061871975660324,-0.0130568603053689,0.08406785130500793
1667266098495351300,0.855351318359375,0.023899398744106293,-0.010002624243497849,0.0877329409122467
1667266098497749000,0.8577490234375,0.020845163613557816,-0.008780929259955883,0.09261971712112427
1667266098500147000,0.86014697265625,0.018401773646473885,-0.004504998680204153,0.09567394852638245
1667266098502544600,0.862544677734375,0.014125842601060867,-0.0032833039294928312,0.09994988143444061
1667266098504942600,0.864942626953125,0.011682453565299511,-0.0014507622690871358,0.10422581434249878
1667266098507340300,0.86734033203125,0.005573981441557407,0.0009926267666742206,0.10483665764331818
1667266098509738000,0.869738037109375,0.000687203137204051,-0.0032833039294928312,0.10850174725055695
1667266098512136000,0.872135986328125,-0.0029778804164379835,-0.005726693198084831,0.10666920244693756
1667266098514533600,0.87453369140625,-0.00908635277301073,-0.0038941511884331703,0.10789089649915695
1667266098516931600,0.876931640625,-0.012140588834881783,-0.008170082233846188,0.10666920244693756
1667266098519329300,0.879329345703125,-0.013973130844533443,-0.010002624243497849,0.10422581434249878
1667266098521727200,0.881727294921875,-0.015805672854185104,-0.0130568603053689,0.1023932695388794
1667266098524125000,0.884125,-0.0164165198802948,-0.012446013279259205,0.09933903813362122
1667266098526523000,0.88652294921875,-0.019470756873488426,-0.012446013279259205,0.09445225447416306
1667266098528920600,0.888920654296875,-0.019470756873488426,-0.011835165321826935,0.09078717231750488
1667266098531318500,0.891318603515625,-0.01885990984737873,-0.012446013279259205,0.08345700800418854
1667266098533716200,0.89371630859375,-0.02008160389959812,-0.013667707331478596,0.0761268362402916
1667266098536114000,0.896114013671875,-0.02008160389959812,-0.01122431829571724,0.06879667192697525
1667266098538512000,0.898511962890625,-0.01763821393251419,-0.011835165321826935,0.05963396281003952
1667266098540909600,0.90090966796875,-0.0164165198802948,-0.0130568603053689,0.05047125369310379
1667266098543307500,0.9033076171875,-0.013973130844533443,-0.010002624243497849,0.040697697550058365
1667266098545705200,0.905705322265625,-0.012751436792314053,-0.008780929259955883,0.03092414326965809
1667266098548103200,0.908103271484375,-0.013973130844533443,-0.010002624243497849,0.018096350133419037
1667266098550500900,0.9105009765625,-0.013362283818423748,-0.008780929259955883,0.007101099472492933
1667266098552898600,0.912898681640625,-0.013973130844533443,-0.0051158457063138485,-0.0051158457063138485
1667266098555296500,0.915296630859375,-0.0164165198802948,-0.00022906772210262716,-0.01794363744556904
1667266098557694200,0.917694091796875,-0.01885990984737873,0.0009926267666742206,-0.03077143058180809
1667266098560092200,0.920092041015625,-0.02008160389959812,0.0028251686599105597,-0.04359922185540199
1667266098562489900,0.92248974609375,-0.021303297951817513,0.0064902519807219505,-0.053983625024557114
1667266098564887800,0.9248876953125,-0.02435753494501114,0.007101099472492933,-0.06436803191900253
1667266098567285500,0.927285400390625,-0.02680092304944992,0.005268557462841272,-0.07414158433675766
1667266098569683500,0.929683349609375,-0.028633465990424156,-0.0014507622690871358,-0.08086090534925461
1667266098572081200,0.9320810546875,-0.031076854094862938,-0.010002624243497849,-0.08452598750591278
1667266098574478800,0.934478759765625,-0.03290939703583717,-0.01916533336043358,-0.08696937561035156
1667266098576876800,0.936876708984375,-0.03290939703583717,-0.02832804247736931,-0.08758022636175156
1667266098579274500,0.9392744140625,-0.03229855000972748,-0.03626905754208565,-0.08758022636175156
1667266098581672400,0.94167236328125,-0.03168770298361778,-0.040544986724853516,-0.08269345015287399
1667266098584070100,0.944070068359375,-0.03168770298361778,-0.047264307737350464,-0.07719582319259644
1667266098586468000,0.946468017578125,-0.028633465990424156,-0.049707695841789246,-0.07169819623231888
1667266098588865800,0.94886572265625,-0.02557922899723053,-0.044820915907621384,-0.06192464008927345
1667266098591263700,0.951263671875,-0.0231358390301466,-0.040544986724853516,-0.050929389894008636
1667266098593661400,0.953661376953125,-0.01763821393251419,-0.03199312463402748,-0.0423775278031826
1667266098596059100,0.95605908203125,-0.015805672854185104,-0.025884652510285378,-0.0295497365295887
1667266098598457000,0.95845703125,-0.013973130844533443,-0.013667707331478596,-0.017332790419459343
1667266098600854800,0.960854736328125,-0.010308047756552696,-0.0008399150101467967,-0.0051158457063138485
1667266098603252700,0.963252685546875,-0.008475505746901035,0.014431266114115715,0.005268557462841272
1667266098605650400,0.965650390625,-0.005421269219368696,0.026037365198135376,0.01626380905508995
1667266098608048400,0.96804833984375,-0.0017561858985573053,0.03703261539340019,0.029091600328683853
1667266098610446000,0.970446044921875,0.000687203137204051,0.05047125369310379,0.04130854457616806
1667266098612844000,0.972843994140625,0.004352286923676729,0.060244809836149216,0.051082100719213486
1667266098615241700,0.97524169921875,0.004963133949786425,0.06757497787475586,0.05841226875782013
1667266098617639400,0.977639404296875,0.007406522985547781,0.07185091078281403,0.06818582862615585
1667266098620037400,0.980037353515625,0.009849912486970425,0.07429429888725281,0.07307260483503342
1667266098622435000,0.98243505859375,0.01046075951308012,0.07368344813585281,0.07857023179531097
1667266098624833000,0.9848330078125,0.012904148548841476,0.0749051421880722,0.08162446320056915
1667266098627230700,0.987230712890625,0.014736690558493137,0.07429429888725281,0.08406785130500793
1667266098629628700,0.989628662109375,0.015958385542035103,0.07185091078281403,0.08590039610862732
1667266098632026400,0.9920263671875,0.01779092662036419,0.07185091078281403,0.08528954535722733
1667266098634424300,0.99442431640625,0.01779092662036419,0.07062921673059464,0.08223531395196915
1667266098636822000,0.996822021484375,0.01779092662036419,0.06940752267837524,0.07918107509613037
1667266098639220000,0.999219970703125,0.01901262067258358,0.06757497787475586,0.07246175408363342
1667266098641617700,1.00161767578125,0.019623467698693275,0.06879667192697525,0.06635328382253647
1667266098644015400,1.004015380859375,0.018401773646473885,0.06696412712335587,0.059023115783929825
1667266098646413300,1.006413330078125,0.01779092662036419,0.06452073901891708,0.049860406666994095
1667266098648811000,1.00881103515625,0.0165692325681448,0.06146650388836861,0.0364217683672905
1667266098651209000,1.011208984375,0.015347537584602833,0.05413633957505226,0.027259059250354767
1667266098653606700,1.013606689453125,0.014736690558493137,0.044362783432006836,0.015042114071547985
1667266098656004600,1.016004638671875,0.013514995574951172,0.0364217683672905,0.007711946498602629
1667266098658402300,1.01840234375,0.012293301522731781,0.023593975231051445,-0.002061609411612153
1667266098660800000,1.020800048828125,0.01046075951308012,0.011377030052244663,-0.010613471269607544
1667266098663198000,1.023197998046875,0.009849912486970425,0.004657710436731577,-0.02038702741265297
1667266098665595600,1.025595703125,0.007406522985547781,0.0016034740256145597,-0.024662958458065987
1667266098667993600,1.02799365234375,0.0067956759594380856,-0.002672456670552492,-0.028938889503479004
1667266098670391300,1.030391357421875,0.005573981441557407,-0.004504998680204153,-0.032603971660137177
1667266098672789200,1.032789306640625,0.005573981441557407,-0.005726693198084831,-0.03443651273846626
1667266098675187000,1.03518701171875,0.004963133949786425,-0.006948387715965509,-0.03504735976457596
1667266098677585000,1.0375849609375,0.005573981441557407,-0.0051158457063138485,-0.03565821051597595
1667266098679982600,1.039982666015625,0.005573981441557407,-0.0051158457063138485,-0.03687990456819534
1667266098682380500,1.042380615234375,0.006184828467667103,-0.004504998680204153,-0.03443651273846626
1667266098684778200,1.0447783203125,0.0067956759594380856,-0.0014507622690871358,-0.03565821051597595
1667266098687176000,1.047176025390625,0.006184828467667103,-0.00022906772210262716,-0.03443651273846626
1667266098689574000,1.049573974609375,0.005573981441557407,0.00038177953683771193,-0.032603971660137177
1667266098691971600,1.0519716796875,0.005573981441557407,-0.002672456670552492,-0.030160583555698395
1667266098694369500,1.05436962890625,0.006184828467667103,-0.005726693198084831,-0.027717193588614464
1667266098696767200,1.056767333984375,0.007406522985547781,-0.006337540224194527,-0.025273805484175682
1667266098699165200,1.059165283203125,0.0067956759594380856,-0.007559234742075205,-0.02283041551709175
1667266098701563000,1.06156298828125,0.006184828467667103,-0.010002624243497849,-0.02038702741265297
1667266098703960600,1.063960693359375,0.008017370477318764,-0.011835165321826935,-0.016111096367239952
1667266098706358500,1.066358642578125,0.0067956759594380856,-0.010002624243497849,-0.013667707331478596
1667266098708756200,1.068756103515625,0.006184828467667103,-0.007559234742075205,-0.009391776286065578
1667266098711154200,1.071154296875,0.006184828467667103,-0.007559234742075205,-0.008780929259955883
1667266098713552000,1.0735517578125,0.0031305921729654074,-0.005726693198084831,-0.008780929259955883
1667266098715949800,1.07594970703125,0.000687203137204051,-0.004504998680204153,-0.0051158457063138485
1667266098718347500,1.078347412109375,0.00129805039614439,-0.005726693198084831,-0.002672456670552492
1667266098720745500,1.080745361328125,0.00129805039614439,-0.006948387715965509,-0.002061609411612153
1667266098723143200,1.08314306640625,0.000687203137204051,-0.009391776286065578,0.0009926267666742206
1667266098725541000,1.085541015625,0.00007635590736754239,-0.0130568603053689,0.0028251686599105597
1667266098727938800,1.087938720703125,-0.0005344913806766272,-0.02038702741265297,0.0028251686599105597
1667266098730336500,1.09033642578125,-0.0017561858985573053,-0.025273805484175682,0.005879404954612255
1667266098732734500,1.092734375,-0.0017561858985573053,-0.028938889503479004,0.008933641016483307
1667266098735132200,1.095132080078125,-0.0035887276753783226,-0.03199312463402748,0.010766183026134968
1667266098737530000,1.097530029296875,-0.0035887276753783226,-0.03199312463402748,0.01382041908800602
1667266098739927800,1.099927734375,-0.0029778804164379835,-0.031382277607917786,0.016874656081199646
1667266098742325800,1.10232568359375,-0.005421269219368696,-0.02832804247736931,0.019318044185638428
1667266098744723500,1.104723388671875,-0.006642963737249374,-0.020997874438762665,0.022372281178832054
1667266098747121200,1.10712109375,-0.00908635277301073,-0.015500249341130257,0.026037365198135376
1667266098749519000,1.10951904296875,-0.010308047756552696,-0.010002624243497849,0.024815669283270836
1667266098751917000,1.1119169921875,-0.011529741808772087,-0.0032833039294928312,0.02542651630938053
1667266098754314800,1.114314697265625,-0.013973130844533443,0.0016034740256145597,0.024815669283270836
1667266098756712400,1.11671240234375,-0.015805672854185104,0.008933641016483307,0.02420482225716114
1667266098759110400,1.1191103515625,-0.0164165198802948,0.013209572061896324,0.02298312820494175
1667266098761508000,1.121508056640625,-0.019470756873488426,0.015652960166335106,0.018096350133419037
1667266098763906000,1.123906005859375,-0.022524992004036903,0.02053973823785782,0.016874656081199646
1667266098766303700,1.1263037109375,-0.024968381971120834,0.021150587126612663,0.01382041908800602
1667266098768701700,1.12870166015625,-0.027411770075559616,0.019318044185638428,0.008933641016483307
1667266098771099400,1.131099365234375,-0.031076854094862938,0.01748550310730934,0.0022143214009702206
1667266098773497000,1.1334970703125,-0.03474193811416626,0.01748550310730934,-0.002061609411612153
1667266098775895000,1.13589501953125,-0.03962871432304382,0.015042114071547985,-0.01122431829571724
1667266098778292700,1.138292724609375,-0.04512634128332138,0.01382041908800602,-0.019776180386543274
1667266098780690700,1.140690673828125,-0.04879142343997955,0.015042114071547985,-0.02832804247736931
1667266098783088400,1.14308837890625,-0.05306735634803772,0.018096350133419037,-0.041766680777072906
1667266098785486300,1.145486328125,-0.06039752438664436,0.019318044185638428,-0.05215108394622803
1667266098787884000,1.147884033203125,-0.06589514762163162,0.024815669283270836,-0.06131379306316376
1667266098790282000,1.150281982421875,-0.07444700598716736,0.03214583545923233,-0.07353074103593826
1667266098792679700,1.1526796875,-0.08605311065912247,0.04253023862838745,-0.08635853230953217
1667266098795077600,1.15507763671875,-0.0958266630768776,0.05535803362727165,-0.0942995473742485
1667266098797475300,1.157475341796875,-0.1086544543504715,0.06879667192697525,-0.10407309979200363
1667266098799873000,1.159873046875,-0.11903885751962662,0.08162446320056915,-0.11018157750368118
1667266098802271000,1.16227099609375,-0.1336991935968399,0.09689565002918243,-0.11445750296115875
1667266098804668700,1.164668701171875,-0.14408360421657562,0.11338852345943451,-0.11812258511781693
1667266098807066600,1.167066650390625,-0.15507884323596954,0.12438376992940903,-0.11995512992143631
1667266098809464300,1.16946435546875,-0.16546325385570526,0.13537901639938354,-0.11751174181699753
1667266098811862300,1.1718623046875,-0.17584764957427979,0.14515258371829987,-0.11629004776477814
1667266098814260000,1.174260009765625,-0.18317782878875732,0.1555369794368744,-0.11079242080450058
1667266098816657700,1.17665771484375,-0.18867544829845428,0.16225630044937134,-0.10346225649118423
1667266098819055600,1.1790556640625,-0.19172967970371246,0.16286714375019073,-0.09368869662284851
1667266098821453300,1.181453369140625,-0.19478392601013184,0.16164545714855194,-0.08330429345369339
1667266098823851300,1.183851318359375,-0.19661645591259003,0.15614783763885498,-0.07475243508815765
1667266098826249000,1.1862490234375,-0.19417306780815125,0.15126104652881622,-0.06192464008927345
1667266098828647000,1.18864697265625,-0.19172967970371246,0.1420983374118805,-0.04909684881567955
1667266098831044600,1.191044677734375,-0.1862320601940155,0.12988139688968658,-0.03687990456819534
1667266098833442600,1.193442626953125,-0.18073442578315735,0.11216682940721512,-0.02405211143195629
1667266098835840300,1.19584033203125,-0.1727934181690216,0.08956547826528549,-0.012446013279259205
1667266098838238200,1.19823828125,-0.16424155235290527,0.06390989571809769,-0.002061609411612153
1667266098840636000,1.200635986328125,-0.15324631333351135,0.02970244735479355,0.008933641016483307
1667266098843033600,1.20303369140625,-0.14041851460933685,-0.005726693198084831,0.02176143415272236
1667266098845431600,1.205431640625,-0.12636902928352356,-0.04787515476346016,0.031534988433122635
1667266098847829200,1.207829345703125,-0.1086544543504715,-0.09307785332202911,0.04008685052394867
1667266098850227200,1.210227294921875,-0.08788564801216125,-0.13766969740390778,0.05230379477143288
1667266098852625000,1.212625,-0.06406260281801224,-0.18348324298858643,0.06085565686225891
1667266098855022800,1.21502294921875,-0.03962871432304382,-0.2244100123643875,0.07307260483503342
1667266098857420500,1.217420654296875,-0.010308047756552696,-0.2641150951385498,0.08101361989974976
1667266098859818500,1.219818603515625,0.022066857665777206,-0.29832252860069275,0.09139802306890488
1667266098862216200,1.22221630859375,0.052609220147132874,-0.32336726784706116,0.09872818738222122
1667266098864614100,1.2246142578125,0.08742751181125641,-0.3429143726825714,0.10544750839471817
1667266098867011800,1.22701171875,0.12407834827899933,-0.3575747013092041,0.11216682940721512
1667266098869409500,1.229409423828125,0.15828579664230347,-0.36123979091644287,0.1139993667602539
1667266098871807500,1.231807373046875,0.1937149316072464,-0.3557421863079071,0.11705360561609268
1667266098874205200,1.234205078125,0.22975492477416992,-0.3416926860809326,0.11705360561609268
1667266098876603100,1.23660302734375,0.26335152983665466,-0.3184804916381836,0.11705360561609268
1667266098879000800,1.239000732421875,0.2981698215007782,-0.28732728958129883,0.11277767270803452
1667266098881398800,1.241398681640625,0.33176642656326294,-0.2531198263168335,0.11094513535499573
1667266098883796500,1.24379638671875,0.3659738600254059,-0.21036052703857422,0.10483665764331818
1667266098886194200,1.246194091796875,0.39895960688591003,-0.16637952625751495,0.09689565002918243
1667266098888592100,1.248592041015625,0.4301128387451172,-0.12850698828697205,0.0883437842130661
1667266098890989800,1.25098974609375,0.46370941400527954,-0.09857547283172607,0.07795938104391098
1667266098893387800,1.2533876953125,0.4954734742641449,-0.07780666649341583,0.06513158977031708
1667266098895785500,1.255785400390625,0.5278483629226685,-0.07047650218009949,0.04619532451033592
1667266098898183400,1.258183349609375,0.5620558261871338,-0.0692548081278801,0.022372281178832054
1667266098900581000,1.2605810546875,0.590765655040741,-0.06742226332426071,-0.0032833039294928312
1667266098902979000,1.26297900390625,0.618253767490387,-0.06681142002344131,-0.03077143058180809
1667266098905376800,1.265376708984375,0.6396334171295166,-0.06131379306316376,-0.05703786388039589
1667266098907774700,1.267774658203125,0.6597914099693298,-0.0552053228020668,-0.08452598750591278
1667266098910172400,1.27017236328125,0.6781167984008789,-0.04665346071124077,-0.10957072675228119
1667266098912570000,1.272570068359375,0.692777156829834,-0.039323292672634125,-0.13217207789421082
1667266098914968000,1.274968017578125,0.7007181644439697,-0.0295497365295887,-0.15416257083415985
1667266098917365800,1.27736572265625,0.7080483436584473,-0.026495499536395073,-0.17554223537445068
1667266098919763700,1.279763671875,0.7141568064689636,-0.025273805484175682,-0.19264595210552216
1667266098922161400,1.282161376953125,0.715989351272583,-0.031382277607917786,-0.20913882553577423
1667266098924559400,1.284559326171875,0.7147676348686218,-0.03993413969874382,-0.2262425571680069
1667266098926957000,1.28695703125,0.7135459780693054,-0.05154023692011833,-0.2402920424938202
1667266098929355000,1.28935498046875,0.7123242616653442,-0.07108735293149948,-0.2500655949115753
1667266098931752700,1.291752685546875,0.711713433265686,-0.0942995473742485,-0.25983914732933044
1667266098934150700,1.294150634765625,0.7141568064689636,-0.11690089106559753,-0.2641150951385498
1667266098936548400,1.29654833984375,0.7220978140830994,-0.14072394371032715,-0.2653367817401886
1667266098938946000,1.298946044921875,0.7306496500968933,-0.1621035933494568,-0.26106083393096924
1667266098941344000,1.301343994140625,0.7428666353225708,-0.1853157877922058,-0.24884390830993652
1667266098943741700,1.30374169921875,0.7581378221511841,-0.21524730324745178,-0.23540526628494263
1667266098946139600,1.3061396484375,0.7673004865646362,-0.25861746072769165,-0.22074492275714874
1667266098948537300,1.308537353515625,0.7813500165939331,-0.31359371542930603,-0.20241950452327728
1667266098950935300,1.310935302734375,0.7960103154182434,-0.36185064911842346,-0.1724879890680313
1667266098953333000,1.3133330078125,0.8106706738471985,-0.396668940782547,-0.13644801080226898
1667266098955730700,1.315730712890625,0.8259418606758118,-0.41621604561805725,-0.09185615926980972
1667266098958128600,1.318128662109375,0.8424347043037415,-0.43148723244667053,-0.03993413969874382
1667266098960526300,1.3205263671875,0.8589276075363159,-0.43889376521110535,0.01748550310730934
1667266098962924300,1.32292431640625,0.877252995967865,-0.434617817401886,0.07918107509613037
1667266098965322000,1.325322021484375,0.8925241827964783,-0.41621604561805725,0.14393088221549988
1667266098967720000,1.327719970703125,0.9114604592323303,-0.3832302987575531,0.21784339845180511
1667266098970117600,1.33011767578125,0.9297859072685242,-0.33558422327041626,0.29114508628845215
1667266098972515600,1.332515625,0.9505546689033508,-0.2775537371635437,0.36750099062919617
1667266098974913300,1.334913330078125,0.9694909453392029,-0.2121930718421936,0.4426352083683014
1667266098977311200,1.337311279296875,0.9908705949783325,-0.14438901841640472,0.5220453143119812
1667266098979709000,1.339708984375,1.0159153938293457,-0.07902836054563522,0.600233793258667
1667266098982106600,1.342106689453125,1.0415709018707275,-0.020997874438762665,0.6826981902122498
1667266098984504600,1.344504638671875,1.0678373575210571,0.02053973823785782,0.7634063363075256
1667266098986902300,1.34690234375,1.0959362983703613,0.05963396281003952,0.8348754644393921
1667266098989300200,1.34930029296875,1.1209810972213745,0.09994988143444061,0.9002361297607422
1667266098991698000,1.351697998046875,1.1374739408493042,0.12316207587718964,0.9619317054748535
1667266098994095900,1.354095947265625,1.1521342992782593,0.13110309839248657,1.0315682888031006
1667266098996493600,1.35649365234375,1.1655728816986084,0.126216322183609,1.1067025661468506
1667266098998891500,1.3588916015625,1.1784007549285889,0.10911259055137634,1.194664478302002
1667266099001289200,1.361289306640625,1.1942827701568604,0.09139802306890488,1.2899566888809204
1667266099003687200,1.363687255859375,1.2126082181930542,0.07307260483503342,1.3938007354736328
1667266099006084900,1.3660849609375,1.2321553230285645,0.05596888065338135,1.5025315284729004
1667266099008482600,1.368482666015625,1.2541457414627075,0.04253023862838745,1.6100406646728516
1667266099010880500,1.370880615234375,1.271249532699585,0.03092414326965809,1.7114412784576416
1667266099013278200,1.3732783203125,1.2871315479278564,0.014431266114115715,1.8079551458358765
1667266099015676200,1.37567626953125,1.3017919063568115,0.00038177953683771193,1.8995822668075562
1667266099018073900,1.378073974609375,1.3097329139709473,-0.014889402315020561,1.9808249473571777
1667266099020471800,1.380471923828125,1.316452145576477,-0.03199312463402748,2.0522940158843994
1667266099022869500,1.382869384765625,1.3225606679916382,-0.048486001789569855,2.114600419998169
1667266099025267200,1.38526708984375,1.3237823247909546,-0.06314633786678314,2.1714093685150146
1667266099027665200,1.3876650390625,1.3256149291992188,-0.07963921129703522,2.2172229290008545
1667266099030062800,1.390062744140625,1.3280582427978516,-0.0942995473742485,2.2581496238708496
1667266099032460800,1.392460693359375,1.3280582427978516,-0.10529479384422302,2.288691997528076
1667266099034858500,1.3948583984375,1.3280582427978516,-0.11018157750368118,2.310682535171509
1667266099037256400,1.39725634765625,1.3292800188064575,-0.10957072675228119,2.3265645503997803
1667266099039654100,1.399654052734375,1.3329451084136963,-0.09857547283172607,2.3363380432128906
1667266099042052000,1.402052001953125,1.3390535116195679,-0.08269345015287399,2.3412249088287354
1667266099044449800,1.40444970703125,1.3433294296264648,-0.057648710906505585,2.3412249088287354
1667266099046847700,1.40684765625,1.3488271236419678,-0.025273805484175682,2.333894729614258
1667266099049245400,1.409245361328125,1.355546474456787,0.010766183026134968,2.3247320652008057
1667266099051643100,1.41164306640625,1.3604332208633423,0.0492495596408844,2.311904191970825
1667266099054041000,1.414041015625,1.3671525716781616,0.08712209016084671,2.296633005142212
1667266099056438800,1.416438720703125,1.3695958852767944,0.12071868777275085,2.279529333114624
1667266099058836700,1.418836669921875,1.372650146484375,0.15187190473079681,2.2630364894866943
1667266099061234400,1.421234375,1.372650146484375,0.17752748727798462,2.2434892654418945
1667266099063632400,1.42363232421875,1.3708176612854004,0.19829629361629486,2.2208878993988037
1667266099066030000,1.426030029296875,1.3708176612854004,0.21784339845180511,2.198897361755371
1667266099068428000,1.428427978515625,1.3677634000778198,0.23433628678321838,2.178128719329834
1667266099070825700,1.43082568359375,1.3634874820709229,0.24899661540985107,2.157970666885376
1667266099073223400,1.433223388671875,1.3586006164550781,0.2703762650489807,2.14025616645813
1667266099075621400,1.435621337890625,1.35798978805542,0.2868691384792328,2.1243741512298584
1667266099078019000,1.43801904296875,1.35798978805542,0.2996969223022461,2.1109354496002197
1667266099080417000,1.4404169921875,1.3604332208633423,0.3015294671058655,2.0981075763702393
1667266099082814700,1.442814697265625,1.3659307956695557,0.2960318624973297,2.088334083557129
1667266099085212700,1.445212646484375,1.3744826316833496,0.2862583100795746,2.0810039043426514
1667266099087610400,1.4476103515625,1.3842562437057495,0.27648472785949707,2.074284553527832
1667266099090008300,1.45000830078125,1.3964731693267822,0.26426780223846436,2.070619583129883
1667266099092406000,1.452406005859375,1.4111335277557373,0.24899661540985107,2.071230411529541
1667266099094803700,1.4548037109375,1.4312914609909058,0.2337254285812378,2.074284553527832
1667266099097201700,1.45720166015625,1.4538928270339966,0.22150848805904388,2.076727867126465
1667266099099599400,1.459599365234375,1.4789376258850098,0.20929154753684998,2.0816147327423096
1667266099101997300,1.461997314453125,1.5076473951339722,0.20073968172073364,2.085890769958496
1667266099104395000,1.46439501953125,1.5375789403915405,0.1946312040090561,2.0895557403564453
1667266099106793000,1.46679296875,1.5693429708480835,0.18180342018604279,2.0950534343719482
1667266099109190700,1.469190673828125,1.6023286581039429,0.16286714375019073,2.09444260597229
1667266099111588600,1.471588623046875,1.6383687257766724,0.1396549493074417,2.091999053955078
1667266099113986300,1.473986328125,1.673187017440796,0.11766445636749268,2.0840580463409424
1667266099116384300,1.47638427734375,1.7104486227035522,0.09994988143444061,2.0730628967285156
1667266099118782000,1.478781982421875,1.7464886903762817,0.09017632901668549,2.0577917098999023
1667266099121179600,1.4811796875,1.7831394672393799,0.08223531395196915,2.042520523071289
1667266099123577600,1.48357763671875,1.8204011917114258,0.07795938104391098,2.0241951942443848
1667266099125975300,1.485975341796875,1.8576629161834717,0.07795938104391098,2.004647970199585
1667266099128373200,1.488373291015625,1.8943136930465698,0.08467870205640793,1.9851008653640747
1667266099130771000,1.49077099609375,1.9315754175186157,0.09323056042194366,1.9667754173278809
1667266099133169000,1.4931689453125,1.9663937091827393,0.09933903813362122,1.9484500885009766
1667266099135566600,1.495566650390625,2.0024337768554688,0.10361496359109879,1.9319571256637573
1667266099137964500,1.497964599609375,2.035419464111328,0.10728005319833755,1.9148534536361694
1667266099140362200,1.5003623046875,2.0653510093688965,0.1146102175116539,1.9020256996154785
1667266099142760200,1.50276025390625,2.0922281742095947,0.1146102175116539,1.8885869979858398
1667266099145158000,1.505157958984375,2.1197164058685303,0.11705360561609268,1.8794243335723877
1667266099147555600,1.5075556640625,2.141706943511963,0.12560546398162842,1.8720941543579102
1667266099149953500,1.50995361328125,2.1606431007385254,0.13721156120300293,1.8653748035430908
1667266099152351200,1.512351318359375,2.1759142875671387,0.15003935992717743,1.8598772287368774
1667266099154749200,1.514749267578125,2.188131332397461,0.1677539348602295,1.8543795347213745
1667266099157147000,1.51714697265625,2.200348138809204,0.18363595008850098,1.848271131515503
1667266099159544800,1.519544921875,2.21134352684021,0.2056264579296112,1.8415517807006836
1667266099161942500,1.521942626953125,2.2211170196533203,0.22639526426792145,1.8348324298858643
1667266099164340200,1.52434033203125,2.2308905124664307,0.25205084681510925,1.825669765472412
1667266099166738200,1.52673828125,2.236999034881592,0.27892813086509705,1.8128420114517212
1667266099169135900,1.529135986328125,2.246772527694702,0.30519455671310425,1.7987924814224243
1667266099171533800,1.531533935546875,2.255324363708496,0.33085015416145325,1.7841321229934692
1667266099173931500,1.533931640625,2.26387619972229,0.35833826661109924,1.7658066749572754
1667266099176329500,1.53632958984375,2.271817207336426,0.38460469245910645,1.7450379133224487
1667266099178727200,1.53872705078125,2.280369281768799,0.4157579243183136,1.7236582040786743
1667266099181125000,1.541125,2.292586088180542,0.44691112637519836,1.701056957244873
1667266099183522800,1.543522705078125,2.3023595809936523,0.4798968732357025,1.672347068786621
1667266099185920800,1.545920654296875,2.3145766258239746,0.5177693963050842,1.6436372995376587
1667266099188318500,1.548318359375,2.324960947036743,0.5574744939804077,1.611262321472168
1667266099190716200,1.550716064453125,2.335345506668091,0.600233793258667,1.5788874626159668
1667266099193114000,1.553114013671875,2.3463406562805176,0.6484907269477844,1.5471234321594238
1667266099195511800,1.55551171875,2.35855770111084,0.6973584890365601,1.5129159688949585
1667266099197909800,1.55790966796875,2.372072696685791,0.7474479675292969,1.4787085056304932
1667266099200307500,1.560307373046875,2.3849003314971924,0.7999808192253113,1.4445010423660278
1667266099202705400,1.562705322265625,2.3995606899261475,0.854957103729248,1.4109044075012207
1667266099205103000,1.56510302734375,2.409945249557495,0.9123767614364624,1.3760861158370972
1667266099207501000,1.5675009765625,2.42155122756958,0.9685747027397156,1.3388245105743408
1667266099209898800,1.569898681640625,2.429492235183716,1.0259943008422852,1.3003411293029785
1667266099212296400,1.57229638671875,2.436211585998535,1.0870790481567383,1.2606359720230103
1667266099214694400,1.5746943359375,2.4398765563964844,1.1390010118484497,1.2270394563674927
1667266099217092000,1.577092041015625,2.4484286308288574,1.1854255199432373,1.195886254310608
1667266099219490000,1.579489990234375,2.4575912952423096,1.2404017448425293,1.1598461866378784
1667266099221887700,1.5818876953125,2.4698081016540527,1.303318977355957,1.120751976966858
1667266099224285700,1.58428564453125,2.490576982498169,1.368068814277649,1.0755493640899658
1667266099226683400,1.586683349609375,2.5156216621398926,1.432207703590393,1.0303466320037842
1667266099229081000,1.5890810546875,2.5437207221984863,1.4951250553131104,0.9790354371070862
1667266099231479000,1.59147900390625,2.5767064094543457,1.562318205833435,0.9210049510002136
1667266099233876700,1.593876708984375,2.61457896232605,1.621570348739624,0.8629744648933411
1667266099236274700,1.596274658203125,2.652451515197754,1.6759358644485474,0.8049439787864685
1667266099238672400,1.59867236328125,2.695821762084961,1.7217493057250977,0.7493568658828735
1667266099241070300,1.6010703125,2.7410242557525635,1.7620652914047241,0.6949151158332825
1667266099243468000,1.603468017578125,2.785616159439087,1.7932184934616089,0.646658182144165
1667266099245866000,1.605865966796875,2.8308188915252686,1.812154769897461,0.6026771664619446
1667266099248263700,1.608263671875,2.8766324520111084,1.8243716955184937,0.5599178671836853
1667266099250661600,1.61066162109375,2.924278497695923,1.8243716955184937,0.5250995755195618
1667266099253059300,1.613059326171875,2.9670379161834717,1.8152090311050415,0.48905959725379944
1667266099255457300,1.615457275390625,3.011018753051758,1.7950509786605835,0.46034976840019226
1667266099257855000,1.61785498046875,3.051334857940674,1.7626761198043823,0.43591588735580444
1667266099260252700,1.620252685546875,3.087374687194824,1.7229710817337036,0.4163687527179718
1667266099262650600,1.622650634765625,3.120971441268921,1.6771575212478638,0.3992650508880615
1667266099265048300,1.62504833984375,3.1509029865264893,1.6276788711547852,0.3913240134716034
1667266099267446300,1.6274462890625,3.1753368377685547,1.5769785642623901,0.387658953666687
1667266099269844000,1.629843994140625,3.191218852996826,1.5293325185775757,0.3870480954647064
1667266099272242000,1.632241943359375,3.205268383026123,1.4847406148910522,0.3913240134716034
1667266099274639600,1.6346396484375,3.2101550102233887,1.4432029724121094,0.39743250608444214
1667266099277037600,1.63703759765625,3.2095441818237305,1.4028871059417725,0.40781688690185547
1667266099279435300,1.639435302734375,3.2009923458099365,1.3741772174835205,0.4163687527179718
1667266099281833000,1.6418330078125,3.190608024597168,1.3448566198349,0.42064470052719116
1667266099284231000,1.64423095703125,3.1747260093688965,1.3198118209838867,0.42369893193244934
1667266099286628600,1.646628662109375,3.1551787853240967,1.2984322309494019,0.42125552892684937
1667266099289026600,1.649026611328125,3.138685941696167,1.275830864906311,0.4157579243183136
1667266099291424300,1.65142431640625,3.119138717651367,1.256894588470459,0.4029301106929779
1667266099293822200,1.653822265625,3.106921911239624,1.2373474836349487,0.3858264088630676
1667266099296220000,1.656219970703125,3.097759246826172,1.2202438116073608,0.3607816696166992
1667266099298617600,1.65861767578125,3.0940940380096436,1.2031400203704834,0.3265742063522339
1667266099301015600,1.661015625,3.0965373516082764,1.1817604303359985,0.2887016832828522
1667266099303413200,1.663413330078125,3.106921911239624,1.1518288850784302,0.2441098392009735
1667266099305811200,1.665811279296875,3.120971441268921,1.1170105934143066,0.19646374881267548
1667266099308209000,1.668208984375,3.1466269493103027,1.067531943321228,0.14698512852191925
1667266099310606800,1.67060693359375,3.1753368377685547,1.0156099796295166,0.09567394852638245
1667266099313004500,1.673004638671875,3.2101550102233887,0.9569686055183411,0.043141089379787445
1667266099315402500,1.675402587890625,3.251081705093384,0.8885536789894104,-0.0051158457063138485
1667266099317800200,1.67780029296875,3.2987279891967773,0.8146411776542664,-0.05215108394622803
1667266099320198100,1.6801982421875,3.3482065200805664,0.7358418703079224,-0.0942995473742485
1667266099322595800,1.682595947265625,3.4037935733795166,0.6423822641372681,-0.135226309299469
1667266099324993500,1.68499365234375,3.4636566638946533,0.540370762348175,-0.17187714576721191
1667266099327391500,1.6873916015625,3.5247414112091064,0.42492061853408813,-0.20180866122245789
1667266099329789200,1.6897890625,3.5882694721221924,0.29236677289009094,-0.22868594527244568
1667266099332187100,1.692187255859375,3.6517975330352783,0.15126104652881622,-0.2525089979171753
1667266099334584800,1.694584716796875,3.7128822803497314,-0.0038941511884331703,-0.27327778935432434
1667266099336982800,1.696982666015625,3.77213454246521,-0.16637952625751495,-0.2916032075881958
1667266099339380500,1.69938037109375,3.8289432525634766,-0.3337516784667969,-0.3019876182079315
1667266099341778200,1.701778076171875,3.8839194774627686,-0.509141206741333,-0.3080960810184479
1667266099344176000,1.704176025390625,3.9333982467651367,-0.6875085830688477,-0.30870693922042847
1667266099346573800,1.70657373046875,3.97799015045166,-0.8634325861930847,-0.3050418496131897
1667266099348971800,1.7089716796875,4.018916606903076,-1.0375241041183472,-0.29587915539741516
1667266099351369500,1.711369384765625,4.054346084594727,-1.212226390838623,-0.2818296551704407
1667266099353767400,1.713767333984375,4.0861101150512695,-1.3795984983444214,-0.2628933787345886
1667266099356165000,1.7161650390625,4.113598346710205,-1.5426948070526123,-0.24212458729743958
1667266099358563000,1.71856298828125,4.136199474334717,-1.702736735343933,-0.21769069135189056
1667266099360960800,1.720960693359375,4.153913974761963,-1.8560594320297241,-0.19386765360832214
1667266099363358700,1.723358642578125,4.168574333190918,-2.0008301734924316,-0.16760121285915375
1667266099365756400,1.72575634765625,4.182013034820557,-2.1333839893341064,-0.14438901841640472
1667266099368154000,1.728154052734375,4.1930084228515625,-2.256164312362671,-0.11995512992143631
1667266099370552000,1.730552001953125,4.203392505645752,-2.3587865829467773,-0.0949103906750679
1667266099372949800,1.73294970703125,4.214387893676758,-2.4406402111053467,-0.07353074103593826
1667266099375347700,1.73534765625,4.224161624908447,-2.502335786819458,-0.05276193097233772
1667266099377745400,1.737745361328125,4.235767841339111,-2.5438733100891113,-0.027717193588614464
1667266099380143400,1.740143310546875,4.246762752532959,-2.5652530193328857,-0.007559234742075205
1667266099382541000,1.742541015625,4.256536483764648,-2.566474676132202,0.010766183026134968
1667266099384939000,1.74493896484375,4.267531871795654,-2.5499818325042725,0.02298312820494175
1667266099387336700,1.747336669921875,4.273640155792236,-2.5121092796325684,0.03458922728896141
1667266099389734700,1.749734619140625,4.280970096588135,-2.4595766067504883,0.04619532451033592
1667266099392132400,1.75213232421875,4.2852463722229,-2.389939785003662,0.051082100719213486
1667266099394530000,1.754530029296875,4.288300514221191,-2.303199529647827,0.05291464552283287
1667266099396928000,1.756927978515625,4.293187141418457,-2.2036314010620117,0.05169294774532318
1667266099399325700,1.75932568359375,4.2974629402160645,-2.0930681228637695,0.048638712614774704
1667266099401723600,1.7617236328125,4.302350044250488,-1.974563717842102,0.04375193640589714
1667266099404121300,1.764121337890625,4.313345432281494,-1.8468966484069824,0.03886515647172928
1667266099406519300,1.766519287109375,4.323729515075684,-1.7149536609649658,0.031534988433122635
1667266099408917000,1.7689169921875,4.336557388305664,-1.5854541063308716,0.022372281178832054
1667266099411314700,1.771314697265625,4.342665672302246,-1.466949701309204,0.014431266114115715
1667266099413712600,1.773712646484375,4.34755277633667,-1.3563863039016724,0.007711946498602629
1667266099416110300,1.7761103515625,4.346941947937012,-1.2531532049179077,0.0016034740256145597
1667266099418508300,1.77850830078125,4.343887805938721,-1.1596934795379639,-0.0051158457063138485
1667266099420906000,1.780906005859375,4.3377790451049805,-1.0772291421890259,-0.0038941511884331703
1667266099423304000,1.783303955078125,4.329227447509766,-0.9996515512466431,-0.0008399150101467967
1667266099425701600,1.78570166015625,4.312734127044678,-0.9312366247177124,0.008933641016483307
1667266099428099600,1.788099609375,4.293187141418457,-0.8683193922042847,0.02298312820494175
1667266099430497300,1.790497314453125,4.270586013793945,-0.8072346448898315,0.04008685052394867
1667266099432895200,1.792895263671875,4.243708610534668,-0.7485933303833008,0.06696412712335587
1667266099435293000,1.79529296875,4.215609550476074,-0.6917845010757446,0.09689565002918243
1667266099437690600,1.797690673828125,4.185678005218506,-0.6361974477767944,0.1268271654844284
1667266099440088600,1.800088623046875,4.15147066116333,-0.5861079692840576,0.16164545714855194
1667266099442486300,1.802486328125,4.117263317108154,-0.5378510355949402,0.19707459211349487
1667266099444884200,1.80488427734375,4.080001354217529,-0.49448084831237793,0.23006035387516022
1667266099447282000,1.807281982421875,4.042129039764404,-0.457830011844635,0.26365694403648376
1667266099449680000,1.809679931640625,4.00120210647583,-0.4235462248325348,0.29297763109207153
1667266099452077600,1.81207763671875,3.9559996128082275,-0.3954472541809082,0.3247416615486145
1667266099454475500,1.8144755859375,3.911407709121704,-0.373456746339798,0.3491755723953247
1667266099456873200,1.816873291015625,3.859485626220703,-0.35207709670066833,0.37116608023643494
1667266099459271000,1.81927099609375,3.8081746101379395,-0.3300865888595581,0.38521555066108704
1667266099461668900,1.8216689453125,3.758085012435913,-0.3080960810184479,0.4023192822933197
1667266099464066600,1.824066650390625,3.7073848247528076,-0.2787754237651825,0.4145362079143524
1667266099466464500,1.826464599609375,3.653019428253174,-0.2506764531135559,0.42430979013442993
1667266099468862200,1.8288623046875,3.5968213081359863,-0.22013407945632935,0.4298073947429657
1667266099471260200,1.83126025390625,3.5363473892211914,-0.1877591758966446,0.43774840235710144
1667266099473657900,1.833657958984375,3.4734301567077637,-0.14499986171722412,0.44568943977355957
1667266099476055800,1.836055908203125,3.4068479537963867,-0.0955212414264679,0.4542413055896759
1667266099478453500,1.83845361328125,3.3396546840667725,-0.039323292672634125,0.46340399980545044
1667266099480851200,1.840851318359375,3.272461414337158,0.02053973823785782,0.4719558656215668
1667266099483249200,1.843249267578125,3.2046573162078857,0.08406785130500793,0.4798968732357025
1667266099485646800,1.845646728515625,3.136242628097534,0.153704434633255,0.48722705245018005
1667266099488044800,1.848044921875,3.0708818435668945,0.22578442096710205,0.4945572018623352
1667266099490442500,1.8504423828125,3.007964611053467,0.30519455671310425,0.5006656646728516
1667266099492840400,1.85284033203125,2.9468798637390137,0.3888806402683258,0.5031090974807739
1667266099495238100,1.855238037109375,2.8906819820404053,0.4701233208179474,0.5037199258804321
1667266099497636000,1.857635986328125,2.8357057571411133,0.5519768595695496,0.49944397807121277
1667266099500033800,1.86003369140625,2.7837836742401123,0.6283327341079712,0.4957789182662964
1667266099502431700,1.862431640625,2.7355268001556396,0.6985802054405212,0.48661619424819946
1667266099504829400,1.864829345703125,2.6897132396698,0.7608866095542908,0.47684264183044434
1667266099507227100,1.86722705078125,2.649397373199463,0.8097543716430664,0.4664582312107086
1667266099509625000,1.869625,2.6072487831115723,0.854957103729248,0.4542413055896759
1667266099512022800,1.872022705078125,2.5681545734405518,0.8879428505897522,0.4420243501663208
1667266099514420700,1.874420654296875,2.5321145057678223,0.9123767614364624,0.4279748499393463
1667266099516818400,1.876818359375,2.4954638481140137,0.9264262318611145,0.417590469121933
1667266099519216400,1.87921630859375,2.461867094039917,0.9313129782676697,0.40781688690185547
1667266099521614000,1.881614013671875,2.427048921585083,0.9252045154571533,0.3998758792877197
1667266099524011800,1.88401171875,2.3885655403137207,0.9111550450325012,0.39559996128082275
1667266099526409700,1.88640966796875,2.353060007095337,0.886721134185791,0.3931565582752228
1667266099528807400,1.888807373046875,2.3145766258239746,0.8531245589256287,0.39376741647720337
1667266099531205400,1.891205322265625,2.2712063789367676,0.807921826839447,0.39498910307884216
1667266099533603000,1.89360302734375,2.2302796840667725,0.7596648931503296,0.3998758792877197
1667266099536001000,1.8960009765625,2.183244466781616,0.710797131061554,0.40720605850219727
1667266099538398700,1.898398681640625,2.130100727081299,0.6619293689727783,0.4169796109199524
1667266099540796700,1.900796630859375,2.075735330581665,0.6136724352836609,0.4279748499393463
1667266099543194400,1.9031943359375,2.0183157920837402,0.5690805912017822,0.43835926055908203
1667266099545592300,1.90559228515625,1.955398440361023,0.5299863815307617,0.45057621598243713
1667266099547990000,1.907989990234375,1.8888161182403564,0.491502970457077,0.46096062660217285
1667266099550387700,1.9103876953125,1.8155144453048706,0.4560738205909729,0.4713450074195862
1667266099552785700,1.91278564453125,1.7434344291687012,0.41942301392555237,0.4786751866340637
1667266099555183400,1.915183349609375,1.6652460098266602,0.38521555066108704,0.4835619628429413
1667266099557581300,1.917581298828125,1.5846141576766968,0.3528406620025635,0.48539450764656067
1667266099559979000,1.91997900390625,1.5064257383346558,0.31741151213645935,0.48539450764656067
1667266099562377000,1.922376953125,1.4239612817764282,0.283204048871994,0.4798968732357025
1667266099564774700,1.924774658203125,1.345162034034729,0.25327253341674805,0.47501009702682495
1667266099567172400,1.92717236328125,1.2645301818847656,0.22639526426792145,0.4652365446090698
1667266099569570300,1.9295703125,1.1814548969268799,0.2044047713279724,0.4560738205909729
1667266099571968000,1.931968017578125,1.1032664775848389,0.18607935309410095,0.4420243501663208
1667266099574366000,1.934365966796875,1.0244672298431396,0.17080816626548767,0.4273640215396881
1667266099576763600,1.936763671875,0.9487221240997314,0.15675868093967438,0.41087114810943604
1667266099579161600,1.93916162109375,0.8748096227645874,0.14515258371829987,0.389491468667984
1667266099581559300,1.941559326171875,0.8008971214294434,0.13782241940498352,0.36750099062919617
1667266099583957200,1.943957275390625,0.7263737320899963,0.13110309839248657,0.3406237065792084
1667266099586355000,1.94635498046875,0.6542937755584717,0.13293562829494476,0.3137464225292206
1667266099588753000,1.9487529296875,0.5846571922302246,0.13904410600662231,0.27953898906707764
1667266099591150600,1.951150634765625,0.5186856985092163,0.154926136136055,0.24288813769817352
1667266099593548300,1.95354833984375,0.4557684063911438,0.17691664397716522,0.2062373012304306
1667266099595946200,1.9559462890625,0.39346200227737427,0.21173493564128876,0.1671430766582489
1667266099598344000,1.958343994140625,0.3360423445701599,0.25388339161872864,0.12255123257637024
1667266099600742000,1.960741943359375,0.28045526146888733,0.30458372831344604,0.07857023179531097
1667266099603139600,1.9631396484375,0.22853323817253113,0.35955995321273804,0.03092414326965809
1667266099605537500,1.96553759765625,0.1784437596797943,0.42247724533081055,-0.01916533336043358
1667266099607935200,1.967935302734375,0.13140851259231567,0.48905959725379944,-0.06986565887928009
1667266099610333000,1.9703330078125,0.09109259396791458,0.5562527775764465,-0.11690089106559753
1667266099612731000,1.97273095703125,0.05322006717324257,0.6222242712974548,-0.16576866805553436
1667266099615128600,1.975128662109375,0.02023431472480297,0.6888066530227661,-0.21646900475025177
1667266099617526500,1.977526611328125,-0.00908635277301073,0.7559998631477356,-0.2622825503349304
1667266099619924200,1.97992431640625,-0.03474193811416626,0.8213604688644409,-0.3025984466075897
1667266099622322200,1.982322265625,-0.05123481526970863,0.8775584697723389,-0.33924928307533264
1667266099624720000,1.984719970703125,-0.06711684167385101,0.9307021498680115,-0.37834352254867554
1667266099627117800,1.987117919921875,-0.07811209559440613,0.9722397923469543,-0.4113292694091797
1667266099629515500,1.989515625,-0.08299887180328369,1.0058363676071167,-0.44003909826278687
1667266099631913500,1.99191357421875,-0.08299887180328369,1.0284377336502075,-0.4638621509075165
1667266099634311200,1.994311279296875,-0.07811209559440613,1.0382112264633179,-0.4858526289463043
1667266099636708900,1.996708984375,-0.07139277458190918,1.035767912864685,-0.5017346739768982
1667266099639106800,1.99910693359375,-0.05795413255691528,1.0223292112350464,-0.5115082263946533
1667266099641504500,2.00150439453125,-0.04085041210055351,0.9991170763969421,-0.5170058608055115
1667266099643902500,2.00390234375,-0.023746687918901443,0.9752939939498901,-0.5163949728012085
1667266099646300200,2.006300048828125,-0.0011453386396169662,0.9441407918930054,-0.5139515995979309
1667266099648698000,2.008697998046875,0.02145601063966751,0.9111550450325012,-0.5102865099906921
1667266099651095800,2.011095703125,0.04161396995186806,0.8781692981719971,-0.4992912709712982
1667266099653493800,2.01349365234375,0.06482616811990738,0.8421292901039124,-0.48340925574302673
1667266099655891500,2.015891357421875,0.08559497445821762,0.8054784536361694,-0.46813806891441345
1667266099658289200,2.0182890625,0.10758547484874725,0.762108325958252,-0.45225605368614197
1667266099660687000,2.02068701171875,0.1283542811870575,0.7144622206687927,-0.4345414638519287
1667266099663084800,2.023084716796875,0.15034478902816772,0.6686486601829529,-0.4131618142127991
1667266099665482800,2.025482666015625,0.17111359536647797,0.6216134428977966,-0.38933876156806946
1667266099667880400,2.02788037109375,0.19127154350280762,0.572745680809021,-0.3673482835292816
1667266099670278400,2.0302783203125,0.21326205134391785,0.5147151947021484,-0.35207709670066833
1667266099672676000,2.032676025390625,0.2315874695777893,0.4542413055896759,-0.33619505167007446
1667266099675074000,2.035073974609375,0.25357797741889954,0.39682164788246155,-0.32336726784706116
1667266099677471700,2.0374716796875,0.2755684554576874,0.34428879618644714,-0.30931776762008667
1667266099679869400,2.039869384765625,0.2969481348991394,0.2978644073009491,-0.29648998379707336
1667266099682267400,2.042267333984375,0.3219928741455078,0.2563267946243286,-0.28793811798095703
1667266099684665000,2.0446650390625,0.3500918447971344,0.2184542566537857,-0.2793862521648407
1667266099687063000,2.04706298828125,0.3775799572467804,0.18913358449935913,-0.2665584683418274
1667266099689460700,2.049460693359375,0.40873315930366516,0.16408884525299072,-0.26167169213294983
1667266099691858700,2.051858642578125,0.4398863911628723,0.14820681512355804,-0.25556322932243347
1667266099694256400,2.05425634765625,0.47409382462501526,0.13598987460136414,-0.2500655949115753
1667266099696654300,2.056654296875,0.5083012580871582,0.13476817309856415,-0.24762220680713654
1667266099699052000,2.059052001953125,0.540065348148346,0.13476817309856415,-0.24517881870269775
1667266099701449700,2.06144970703125,0.5730510950088501,0.14515258371829987,-0.24273543059825897
1667266099703847700,2.06384765625,0.6048151254653931,0.15675868093967438,-0.2409028857946396
1667266099706245400,2.066245361328125,0.6353574991226196,0.17386239767074585,-0.2396811991930008
1667266099708643300,2.068643310546875,0.6658998727798462,0.18913358449935913,-0.2378486543893814
1667266099711041000,2.071041015625,0.6915554404258728,0.2056264579296112,-0.2378486543893814
1667266099713439000,2.07343896484375,0.7172110676765442,0.22822780907154083,-0.237237811088562
1667266099715836700,2.075836669921875,0.7385907173156738,0.2569376230239868,-0.23540526628494263
1667266099718234600,2.078234619140625,0.7618029117584229,0.2844257652759552,-0.23112933337688446
1667266099720632300,2.08063232421875,0.7819608449935913,0.3149681091308594,-0.22929678857326508
1667266099723030000,2.083030029296875,0.7978428602218628,0.3510081171989441,-0.2262425571680069
1667266099725428000,2.085427978515625,0.8106706738471985,0.38155046105384827,-0.2250208556652069
1667266099727825700,2.08782568359375,0.8247201442718506,0.4127036929130554,-0.22379916906356812
1667266099730223600,2.0902236328125,0.8357154130935669,0.4426352083683014,-0.22257746756076813
1667266099732621300,2.092621337890625,0.8442672491073608,0.4774535000324249,-0.21891239285469055
1667266099735019000,2.09501904296875,0.8509865999221802,0.5141043066978455,-0.21463645994663239
1667266099737417000,2.0974169921875,0.8577058911323547,0.5519768595695496,-0.20852798223495483
1667266099739814700,2.099814697265625,0.8619818091392517,0.595346987247467,-0.1987544298171997
1667266099742212600,2.102212646484375,0.8638143539428711,0.6399388313293457,-0.1859266310930252
1667266099744610300,2.1046103515625,0.8625926971435547,0.6814764738082886,-0.16882291436195374
1667266099747008300,2.10700830078125,0.8607601523399353,0.7199598550796509,-0.1492757946252823
1667266099749406000,2.109406005859375,0.8558733463287354,0.7596648931503296,-0.12667444348335266
1667266099751804000,2.111803955078125,0.8485432267189026,0.7993699908256531,-0.10040801763534546
1667266099754201600,2.11420166015625,0.8363262414932251,0.8415184617042542,-0.07353074103593826
1667266099756599600,2.116599609375,0.822276771068573,0.8897753953933716,-0.04421006888151169
1667266099758997200,2.118997314453125,0.8051730394363403,0.942308247089386,-0.012446013279259205
1667266099761395000,2.12139501953125,0.7831825613975525,0.9972845315933228,0.022372281178832054
1667266099763793000,2.12379296875,0.762413740158081,1.0608125925064087,0.05841226875782013
1667266099766190600,2.126190673828125,0.7379798293113708,1.1353360414505005,0.09994988143444061
1667266099768588500,2.128588623046875,0.711713433265686,1.216578722000122,0.14270919561386108
1667266099770986200,2.130986328125,0.6866686940193176,1.3039298057556152,0.18913358449935913
1667266099773384200,2.13338427734375,0.6591805219650269,1.3931134939193726,0.23494713008403778
1667266099775782000,2.135781982421875,0.6304707527160645,1.4835189580917358,0.2825932204723358
1667266099778179800,2.138179931640625,0.6005392074584961,1.5696483850479126,0.3265742063522339
1667266099780577500,2.14057763671875,0.5693860054016113,1.6557778120040894,0.36933353543281555
1667266099782975200,2.142975341796875,0.535178542137146,1.7364096641540527,0.40720605850219727
1667266099785373200,2.145373291015625,0.5021927952766418,1.8097113370895386,0.4444677233695984
1667266099787771000,2.14777099609375,0.4667636752128601,1.877515435218811,0.4786751866340637
1667266099790168800,2.1501689453125,0.43377789855003357,1.9386001825332642,0.5092175602912903
1667266099792566500,2.15256640625,0.40140300989151,1.9947980642318726,0.5354839563369751
1667266099794964500,2.154964599609375,0.3671955466270447,2.0400006771087646,0.5586961507797241
1667266099797362200,2.157362060546875,0.3335989713668823,2.0772624015808105,0.5757998824119568
1667266099799760100,2.159760009765625,0.299391508102417,2.1084156036376953,0.5892385244369507
1667266099802157800,2.16215771484375,0.26579490303993225,2.1206326484680176,0.600233793258667
1667266099804555500,2.164555419921875,0.23464170098304749,2.1261303424835205,0.6014555096626282
1667266099806953500,2.166953369140625,0.20348849892616272,2.1175782680511475,0.5990120768547058
1667266099809351200,2.16935107421875,0.17416782677173615,2.095587968826294,0.5904602408409119
1667266099811749000,2.1717490234375,0.14851224422454834,2.0571045875549316,0.5800758004188538
1667266099814146800,2.174146728515625,0.12407834827899933,2.0045716762542725,0.5654155015945435
1667266099816544800,2.176544677734375,0.10269869863986969,1.9386001825332642,0.5422033071517944
1667266099818942500,2.1789423828125,0.08437328040599823,1.8622442483901978,0.5183802843093872
1667266099821340400,2.18134033203125,0.06910209357738495,1.7773364782333374,0.493946373462677
1667266099823738000,2.183738037109375,0.06055023521184921,1.6814334392547607,0.4658474028110504
1667266099826135800,2.1861357421875,0.05138752609491348,1.580643653869629,0.43530502915382385
1667266099828533800,2.18853369140625,0.04650074616074562,1.4786320924758911,0.40842774510383606
1667266099830931500,2.190931396484375,0.04405735805630684,1.3760098218917847,0.3803287744522095
1667266099833329400,2.193329345703125,0.04161396995186806,1.2727766036987305,0.35406234860420227
1667266099835727000,2.19572705078125,0.03978142887353897,1.168932557106018,0.32901760935783386
1667266099838125000,2.198125,0.034283801913261414,1.0669211149215698,0.30641624331474304
1667266099840522800,2.200522705078125,0.02695363573729992,0.970407247543335,0.2862583100795746
1667266099842920700,2.202920654296875,0.015958385542035103,0.8763367533683777,0.2697654068470001
1667266099845318400,2.205318359375,-0.0005344913806766272,0.7926506996154785,0.25388339161872864
1667266099847716000,2.207716064453125,-0.0231358390301466,0.7144622206687927,0.24044474959373474
1667266099850114000,2.210114013671875,-0.04879142343997955,0.6448256373405457,0.22883865237236023
1667266099852511700,2.21251171875,-0.08055548369884491,0.5812975168228149,0.2190650999546051
1667266099854909700,2.21490966796875,-0.11659546941518784,0.5330405831336975,0.20929154753684998
1667266099857307400,2.217307373046875,-0.15446799993515015,0.48844873905181885,0.19585290551185608
1667266099859705300,2.219705322265625,-0.19661645591259003,0.4542413055896759,0.18424680829048157
1667266099862103000,2.22210302734375,-0.2387649267911911,0.4285857081413269,0.17080816626548767
1667266099864500700,2.224500732421875,-0.280913382768631,0.4053735136985779,0.1555369794368744
1667266099866898700,2.226898681640625,-0.32069480419158936,0.39376741647720337,0.13721156120300293
1667266099869296400,2.22929638671875,-0.35917818546295166,0.38460469245910645,0.11705360561609268
1667266099871694300,2.2316943359375,-0.395218163728714,0.3803287744522095,0.09200886636972427
1667266099874092000,2.234092041015625,-0.42514967918395996,0.3791070878505707,0.06085565686225891
1667266099876490000,2.236489990234375,-0.45263782143592834,0.3760528564453125,0.02542651630938053
1667266099878887700,2.2388876953125,-0.4703523814678192,0.37177690863609314,-0.010002624243497849
1667266099881285600,2.24128564453125,-0.47951510548591614,0.366279274225235,-0.050929389894008636
1667266099883683300,2.243683349609375,-0.4831801950931549,0.35711658000946045,-0.09124530851840973
1667266099886081000,2.2460810546875,-0.47951510548591614,0.34306707978248596,-0.135226309299469
1667266099888479000,2.24847900390625,-0.4679090082645416,0.32840675115585327,-0.17798562347888947
1667266099890876700,2.250876708984375,-0.45019441843032837,0.3106921911239624,-0.22135578095912933
1667266099893274600,2.253274658203125,-0.42698222398757935,0.2941993176937103,-0.2622825503349304
1667266099895672300,2.25567236328125,-0.40132665634155273,0.2746522128582001,-0.3013767600059509
1667266099898070300,2.2580703125,-0.3695625960826874,0.255715936422348,-0.33741676807403564
1667266099900468000,2.260468017578125,-0.33474430441856384,0.23494713008403778,-0.3728458881378174
1667266099902866000,2.262865966796875,-0.3011476993560791,0.21295662224292755,-0.40338826179504395
1667266099905263600,2.265263671875,-0.2644205093383789,0.1915769726037979,-0.42965468764305115
1667266099907661300,2.267661376953125,-0.227769672870636,0.16347800195217133,-0.4492017924785614
1667266099910059300,2.270059326171875,-0.19111883640289307,0.13476817309856415,-0.4614187479019165
1667266099912457000,2.27245703125,-0.15752223134040833,0.10972344130277634,-0.46874892711639404
1667266099914855000,2.27485498046875,-0.12942326068878174,0.08223531395196915,-0.46813806891441345
1667266099917252600,2.277252685546875,-0.10437852889299393,0.05657972767949104,-0.4626404345035553
1667266099919650600,2.279650634765625,-0.08788564801216125,0.0358109213411808,-0.4479801058769226
1667266099922048300,2.28204833984375,-0.07383616268634796,0.01626380905508995,-0.42904382944107056
1667266099924446000,2.284446044921875,-0.07078192383050919,-0.0008399150101467967,-0.4088858962059021
1667266099926844000,2.286843994140625,-0.07200361788272858,-0.016721943393349648,-0.3856737017631531
1667266099929241600,2.28924169921875,-0.0811663269996643,-0.03443651273846626,-0.3594072461128235
1667266099931639600,2.2916396484375,-0.09765920788049698,-0.056427016854286194,-0.3325299620628357
1667266099934037200,2.294037353515625,-0.120871402323246,-0.0814717561006546,-0.3056527078151703
1667266099936435200,2.296435302734375,-0.1477486789226532,-0.1077381819486618,-0.2793862521648407
1667266099938833000,2.2988330078125,-0.18012358248233795,-0.14133478701114655,-0.2537306845188141
1667266099941230800,2.30123095703125,-0.2137201875448227,-0.16943375766277313,-0.23235101997852325
1667266099943628500,2.303628662109375,-0.2515927255153656,-0.19447849690914154,-0.2134147584438324
1667266099946026500,2.306026611328125,-0.2894652485847473,-0.20669543743133545,-0.19692188501358032
1667266099948424200,2.308424072265625,-0.32374903559684753,-0.20913882553577423,-0.188370019197464
1667266099950822000,2.31082177734375,-0.3573456406593323,-0.2011978179216385,-0.17859646677970886
1667266099953219800,2.3132197265625,-0.3836120665073395,-0.17737478017807007,-0.1730988472700119
1667266099955617500,2.315617431640625,-0.41048935055732727,-0.14255647361278534,-0.17676392197608948
1667266099958015500,2.318015380859375,-0.4330907166004181,-0.09185615926980972,-0.18042901158332825
1667266099960413200,2.3204130859375,-0.4459185004234314,-0.02832804247736931,-0.188370019197464
1667266099962811000,2.322810791015625,-0.4563029110431671,0.040697697550058365,-0.2005869746208191
1667266099965208800,2.325208740234375,-0.4593571424484253,0.12316207587718964,-0.212803915143013
1667266099967606500,2.3276064453125,-0.4587462842464447,0.20990239083766937,-0.22807510197162628
1667266099970004500,2.33000439453125,-0.45202696323394775,0.3009186387062073,-0.24456797540187836
1667266099972402200,2.332402099609375,-0.4422534108161926,0.3907131850719452,-0.2622825503349304
1667266099974800100,2.334800048828125,-0.4282039403915405,0.4823402762413025,-0.2799971103668213
1667266099977197800,2.33719775390625,-0.41537612676620483,0.572745680809021,-0.29587915539741516
1667266099979595800,2.339595703125,-0.39827242493629456,0.6613185405731201,-0.30992862582206726
1667266099981993500,2.341993408203125,-0.3830012381076813,0.7413395047187805,-0.32214558124542236
1667266099984391400,2.344391357421875,-0.3695625960826874,0.8164737224578857,-0.3319191336631775
1667266099986789000,2.3467890625,-0.3555130958557129,0.8842777609825134,-0.3416926860809326
1667266099989186800,2.349186767578125,-0.34757208824157715,0.9447516202926636,-0.34719032049179077
1667266099991584800,2.351584716796875,-0.3396310806274414,0.9905651807785034,-0.34719032049179077
1667266099993982500,2.353982421875,-0.337798535823822,1.0259943008422852,-0.347801148891449
1667266099996380400,2.35638037109375,-0.3408527672290802,1.0516499280929565,-0.343525230884552
1667266099998778000,2.358778076171875,-0.34573954343795776,1.0644776821136475,-0.33924928307533264
1667266100001176000,2.361176025390625,-0.3549022674560547,1.067531943321228,-0.3294757306575775
1667266100003573800,2.36357373046875,-0.367730051279068,1.063256025314331,-0.3160370886325836
1667266100005971500,2.365971435546875,-0.3799470067024231,1.0504282712936401,-0.29954421520233154
1667266100008369400,2.368369384765625,-0.3970507085323334,1.0327136516571045,-0.2787754237651825
1667266100010767000,2.37076708984375,-0.41537612676620483,1.007058024406433,-0.2531198263168335
1667266100013165000,2.3731650390625,-0.4337015450000763,0.9740723371505737,-0.22318831086158752
1667266100015562800,2.375562744140625,-0.4587462842464447,0.9368106126785278,-0.19081340730190277
1667266100017960700,2.377960693359375,-0.4837910234928131,0.8971055746078491,-0.15171918272972107
1667266100020358400,2.3803583984375,-0.5100574493408203,0.8500702977180481,-0.11201411485671997
1667266100022756000,2.382756103515625,-0.5405998229980469,0.7950940728187561,-0.0680331140756607
1667266100025154000,2.385154052734375,-0.573585569858551,0.7309551239013672,-0.02160872146487236
1667266100027551700,2.3875517578125,-0.610236406326294,0.6600968241691589,0.027869906276464462
1667266100029949700,2.38994970703125,-0.6499415040016174,0.5825192332267761,0.07918107509613037
1667266100032347400,2.392347412109375,-0.6884248852729797,0.5006656646728516,0.13354648649692535
1667266100034745300,2.394745361328125,-0.7330167293548584,0.42125552892684937,0.18607935309410095
1667266100037143000,2.39714306640625,-0.7757760286331177,0.34367793798446655,0.23983390629291534
1667266100039541000,2.399541015625,-0.8173136115074158,0.2722088098526001,0.29053422808647156
1667266100041938700,2.401938720703125,-0.860683798789978,0.20318306982517242,0.3400128483772278
1667266100044336600,2.404336669921875,-0.9028322696685791,0.13904410600662231,0.387658953666687
1667266100046734300,2.406734375,-0.9419264793395996,0.08040276914834976,0.42492061853408813
1667266100049132000,2.409132080078125,-0.9749122262001038,0.027869906276464462,0.4585172235965729
1667266100051530000,2.411530029296875,-1.0054545402526855,-0.02038702741265297,0.48600533604621887
1667266100053927700,2.413927734375,-1.0335536003112793,-0.0686439573764801,0.5055524706840515
1667266100056325600,2.41632568359375,-1.0537115335464478,-0.11201411485671997,0.5189911127090454
1667266100058723300,2.418723388671875,-1.0714260339736938,-0.15477342903614044,0.5244887471199036
1667266100061121300,2.421121337890625,-1.0830321311950684,-0.19325679540634155,0.5232670307159424
1667266100063519000,2.42351904296875,-1.0897514820098877,-0.2256316989660263,0.5165477395057678
1667266100065916700,2.425916748046875,-1.09219491481781,-0.24640052020549774,0.502498209476471
1667266100068314600,2.428314697265625,-1.0909732580184937,-0.2561740577220917,0.4835619628429413
1667266100070712300,2.43071240234375,-1.0873081684112549,-0.25556322932243347,0.46096062660217285
1667266100073110300,2.4331103515625,-1.0805888175964355,-0.24762220680713654,0.4316399395465851
1667266100075508000,2.435508056640625,-1.0677610635757446,-0.23357272148132324,0.39865419268608093
1667266100077906000,2.437906005859375,-1.0561549663543701,-0.212803915143013,0.362003356218338
1667266100080303600,2.4403037109375,-1.0439379215240479,-0.1877591758966446,0.31985488533973694
1667266100082701300,2.442701416015625,-1.0298885107040405,-0.1608818918466568,0.2740413546562195
1667266100085099300,2.445099365234375,-1.0188932418823242,-0.1327829211950302,0.22700610756874084
1667266100087497000,2.4474970703125,-1.0054545402526855,-0.10529479384422302,0.17569494247436523
1667266100089895000,2.44989501953125,-0.994459331035614,-0.07841751724481583,0.12194038182497025
1667266100092292600,2.452292724609375,-0.9846857786178589,-0.05154023692011833,0.06818582862615585
1667266100094690600,2.454690673828125,-0.9743013978004456,-0.02710634656250477,0.010766183026134968
1667266100097088300,2.457088134765625,-0.9645278453826904,-0.008170082233846188,-0.04909684881567955
1667266100099486200,2.459486328125,-0.9578084945678711,0.007101099472492933,-0.1083490327000618
1667266100101884000,2.4618837890625,-0.9517000317573547,0.019928891211748123,-0.16637952625751495
1667266100104281900,2.46428173828125,-0.9462023973464966,0.024815669283270836,-0.22868594527244568
1667266100106679600,2.466679443359375,-0.9413156509399414,0.02664821222424507,-0.28549474477767944
1667266100109077200,2.4690771484375,-0.9370396733283997,0.02542651630938053,-0.3416926860809326
1667266100111475200,2.47147509765625,-0.9345963001251221,0.02542651630938053,-0.3936147093772888
1667266100113873000,2.473872802734375,-0.9333745837211609,0.018096350133419037,-0.44309332966804504
1667266100116270800,2.476270751953125,-0.9339854717254639,0.010155336000025272,-0.4895177185535431
1667266100118668500,2.47866845703125,-0.9345963001251221,-0.0032833039294928312,-0.5322770476341248
1667266100121066500,2.48106640625,-0.9358180165290833,-0.018554486334323883,-0.5725929737091064
1667266100123464200,2.483464111328125,-0.939483106136322,-0.038101598620414734,-0.6049678325653076
1667266100125862000,2.48586181640625,-0.9419264793395996,-0.06314633786678314,-0.6367319226264954
1667266100128259800,2.488259765625,-0.943759024143219,-0.09063446521759033,-0.6617766618728638
1667266100130657500,2.490657470703125,-0.948034942150116,-0.12423106282949448,-0.6776586771011353
1667266100133055500,2.493055419921875,-0.9529217481613159,-0.1602710485458374,-0.6868214011192322
1667266100135453200,2.495453125,-0.9565867781639099,-0.19447849690914154,-0.6892647743225098
1667266100137851000,2.497850830078125,-0.9584193229675293,-0.2262425571680069,-0.6837671399116516
1667266100140248800,2.500248779296875,-0.9596410393714905,-0.2531198263168335,-0.6715502142906189
1667266100142646500,2.502646484375,-0.9608627557754517,-0.27266693115234375,-0.6520031094551086
1667266100145044500,2.50504443359375,-0.9584193229675293,-0.28610557317733765,-0.6251258254051208
1667266100147442200,2.507442138671875,-0.9559759497642517,-0.29832252860069275,-0.5958051681518555
1667266100149840100,2.509840087890625,-0.9535325765609741,-0.30931776762008667,-0.5591543316841125
1667266100152237800,2.51223779296875,-0.9492566585540771,-0.3197021782398224,-0.5212817788124084
1667266100154635800,2.5146357421875,-0.9468132257461548,-0.3306974470615387,-0.4791333079338074
1667266100157033500,2.517033447265625,-0.9425373077392578,-0.3404709994792938,-0.4320980906486511
1667266100159431400,2.519431396484375,-0.9376505613327026,-0.34902286529541016,-0.3850628435611725
1667266100161829000,2.5218291015625,-0.9364288449287415,-0.3539096415042877,-0.3343625068664551
1667266100164226800,2.524226806640625,-0.938872218132019,-0.34963369369506836,-0.28549474477767944
1667266100166624800,2.526624755859375,-0.9425373077392578,-0.3404709994792938,-0.23418356478214264
1667266100169022500,2.5290224609375,-0.9517000317573547,-0.32397812604904175,-0.18959172070026398
1667266100171420400,2.53142041015625,-0.9620844125747681,-0.29710084199905396,-0.14377817511558533
1667266100173818000,2.533818115234375,-0.9791881442070007,-0.26106083393096924,-0.10407309979200363
1667266100176216000,2.536216064453125,-1.0024003982543945,-0.21463645994663239,-0.06681142002344131
1667266100178613800,2.53861376953125,-1.0280559062957764,-0.16393613815307617,-0.03993413969874382
1667266100181011500,2.541011474609375,-1.0598199367523193,-0.10712733864784241,-0.0130568603053689
1667266100183409400,2.543409423828125,-1.0970816612243652,-0.049707695841789246,0.005268557462841272
1667266100185807000,2.54580712890625,-1.1355650424957275,0.0016034740256145597,0.019318044185638428
1667266100188205000,2.548205078125,-1.178935170173645,0.048638712614774704,0.030313294380903244
1667266100190602800,2.550602783203125,-1.2241379022598267,0.0889546349644661,0.03458922728896141
1667266100193000700,2.553000732421875,-1.26872980594635,0.12132953852415085,0.03458922728896141
1667266100195398400,2.5553984375,-1.3145432472229004,0.14454172551631927,0.02664821222424507
1667266100197796000,2.557796142578125,-1.3628002405166626,0.15798036754131317,0.011377030052244663
1667266100200194000,2.560194091796875,-1.4110571146011353,0.16225630044937134,-0.010613471269607544
1667266100202591700,2.562591796875,-1.4599249362945557,0.16164545714855194,-0.03993413969874382
1667266100204989700,2.56498974609375,-1.5081819295883179,0.15675868093967438,-0.07536327838897705
1667266100207387400,2.567387451171875,-1.5558279752731323,0.1543152928352356,-0.11445750296115875
1667266100209785300,2.569785400390625,-1.6022523641586304,0.14454172551631927,-0.1608818918466568
1667266100212183000,2.57218310546875,-1.6492875814437866,0.13598987460136414,-0.20303036272525787
1667266100214581000,2.5745810546875,-1.6975445747375488,0.1280488520860672,-0.2525089979171753
1667266100216978700,2.576978759765625,-1.7482448816299438,0.12438376992940903,-0.30015507340431213
1667266100219376400,2.57937646484375,-1.8013886213302612,0.12377292662858963,-0.34719032049179077
1667266100221774300,2.5817744140625,-1.8575865030288696,0.12377292662858963,-0.3930038511753082
1667266100224172000,2.584172119140625,-1.9168386459350586,0.126216322183609,-0.4333197772502899
1667266100226570000,2.586570068359375,-1.97853422164917,0.12560546398162842,-0.473024845123291
1667266100228967700,2.5889677734375,-2.0432841777801514,0.12194038182497025,-0.5096756815910339
1667266100231365600,2.59136572265625,-2.114142417907715,0.10972344130277634,-0.5444939732551575
1667266100233763300,2.593763427734375,-2.1856114864349365,0.09261971712112427,-0.5713712573051453
1667266100236161300,2.596161376953125,-2.2644107341766357,0.07001836597919464,-0.6000810861587524
1667266100238559000,2.59855908203125,-2.3444318771362305,0.04130854457616806,-0.6220715641975403
1667266100240956700,2.600956787109375,-2.427506923675537,0.008322793990373611,-0.6471163034439087
1667266100243354600,2.603354736328125,-2.5118038654327393,-0.02710634656250477,-0.6691068410873413
1667266100245752300,2.60575244140625,-2.595489978790283,-0.06681142002344131,-0.6880430579185486
1667266100248150300,2.608150390625,-2.6803977489471436,-0.10651648789644241,-0.7063685059547424
1667266100250548000,2.6105478515625,-2.7610297203063965,-0.1486649513244629,-0.7240830659866333
1667266100252946000,2.61294580078125,-2.837385416030884,-0.1871483325958252,-0.7454627156257629
1667266100255343600,2.615343505859375,-2.9064111709594727,-0.22196662425994873,-0.7625664472579956
1667266100257741300,2.6177412109375,-2.965052604675293,-0.24212458729743958,-0.7784484624862671
1667266100260139300,2.62013916015625,-3.009720802307129,-0.25739577412605286,-0.7924979329109192
1667266100262537000,2.622536865234375,-3.041484832763672,-0.264725923538208,-0.8083800077438354
1667266100264935000,2.624934814453125,-3.0634753704071045,-0.2622825503349304,-0.8169318437576294
1667266100267332600,2.62733251953125,-3.0689730644226074,-0.2506764531135559,-0.8273162841796875
1667266100269730600,2.62973046875,-3.0610320568084717,-0.2274642437696457,-0.8322030305862427
1667266100272128300,2.632128173828125,-3.038430690765381,-0.19570018351078033,-0.8358681201934814
1667266100274526000,2.63452587890625,-3.0030014514923096,-0.15171918272972107,-0.838922381401062
1667266100276924000,2.636923828125,-2.95955491065979,-0.09735377877950668,-0.8370898365974426
1667266100279321600,2.639321533203125,-2.9033570289611816,-0.03443651273846626,-0.8303704857826233
1667266100281719600,2.641719482421875,-2.8416614532470703,0.0358109213411808,-0.8224294781684875
1667266100284117200,2.6441171875,-2.774468183517456,0.11277767270803452,-0.810823380947113
1667266100286515200,2.64651513671875,-2.699334144592285,0.1934095174074173,-0.7949413657188416
1667266100288913000,2.648912841796875,-2.6229782104492188,0.27953898906707764,-0.7747833728790283
1667266100291310800,2.651310791015625,-2.546011447906494,0.36933353543281555,-0.7509603500366211
1667266100293708500,2.65370849609375,-2.4696555137634277,0.4560738205909729,-0.7204179763793945
1667266100296106500,2.6561064453125,-2.395742893218994,0.5397599339485168,-0.6831563115119934
1667266100298504200,2.658504150390625,-2.3267171382904053,0.6185591816902161,-0.6416186690330505
1667266100300902000,2.66090185546875,-2.2631890773773193,0.6949151158332825,-0.5976377129554749
1667266100303299800,2.6632998046875,-2.203936815261841,0.7608866095542908,-0.5463265180587769
1667266100305697500,2.665697509765625,-2.1483497619628906,0.8225821852684021,-0.49318280816078186
1667266100308095500,2.668095458984375,-2.1049797534942627,0.8787801265716553,-0.4382065534591675
1667266100310493200,2.6704931640625,-2.068939685821533,0.9270370602607727,-0.37956520915031433
1667266100312891000,2.672890869140625,-2.042062282562256,0.9679638147354126,-0.32214558124542236
1667266100315288800,2.675288818359375,-2.022515296936035,0.9954519867897034,-0.2641150951385498
1667266100317686500,2.6776865234375,-2.0115199089050293,1.0192749500274658,-0.211582213640213
1667266100320084500,2.68008447265625,-2.0096874237060547,1.0284377336502075,-0.1590493619441986
1667266100322482200,2.682482177734375,-2.012741804122925,1.0259943008422852,-0.10957072675228119
1667266100324880100,2.684880126953125,-2.022515296936035,1.0095014572143555,-0.06742226332426071
1667266100327277800,2.68727783203125,-2.0328996181488037,0.9777373671531677,-0.03077143058180809
1667266100329675500,2.689675537109375,-2.0469491481781006,0.9288696050643921,0.0022143214009702206
1667266100332073500,2.692073486328125,-2.0640528202056885,0.8653414845466614,0.029091600328683853
1667266100334471200,2.69447119140625,-2.0793240070343018,0.7883747220039368,0.04802786558866501
1667266100336869000,2.696869140625,-2.0927627086639404,0.6998018622398376,0.0626882016658783
1667266100339266800,2.699266845703125,-2.103757858276367,0.5984012484550476,0.06879667192697525
1667266100341664800,2.701664794921875,-2.111698865890503,0.48600533604621887,0.06940752267837524
1667266100344062500,2.7040625,-2.1153640747070312,0.364446759223938,0.06329904496669769
1667266100346460400,2.70646044921875,-2.117196559906006,0.23555797338485718,0.051082100719213486
1667266100348858000,2.708858154296875,-2.1123099327087402,0.10605835169553757,0.0358109213411808
1667266100351255800,2.711255859375,-2.103757858276367,-0.030160583555698395,0.015042114071547985
1667266100353653800,2.71365380859375,-2.0927627086639404,-0.16821207106113434,-0.008780929259955883
1667266100356051500,2.716051513671875,-2.07993483543396,-0.3044309914112091,-0.03871244564652443
1667266100358449400,2.718449462890625,-2.0671072006225586,-0.44255882501602173,-0.07108735293149948
1667266100360847000,2.72084716796875,-2.0561118125915527,-0.5775560736656189,-0.10407309979200363
1667266100363245000,2.7232451171875,-2.045727491378784,-0.7076665759086609,-0.13828055560588837
1667266100365642800,2.725642822265625,-2.0432841777801514,-0.8286142945289612,-0.1749313771724701
1667266100368040700,2.728040771484375,-2.0469491481781006,-0.9428427219390869,-0.211582213640213
1667266100370438400,2.7304384765625,-2.056722640991211,-1.0491302013397217,-0.24762220680713654
1667266100372836000,2.732836181640625,-2.071993827819824,-1.1456440687179565,-0.28427302837371826
1667266100375234000,2.735234130859375,-2.093984365463257,-1.2348277568817139,-0.3197021782398224
1667266100377631700,2.7376318359375,-2.123305082321167,-1.3032426834106445,-0.3563530147075653
1667266100380029700,2.74002978515625,-2.1593451499938965,-1.3576080799102783,-0.3936147093772888
1667266100382427400,2.742427490234375,-2.201493501663208,-1.3857070207595825,-0.42843300104141235
1667266100384825300,2.744825439453125,-2.244863748550415,-1.3875395059585571,-0.46813806891441345
1667266100387223000,2.74722314453125,-2.293731451034546,-1.3606622219085693,-0.5066214203834534
1667266100389620700,2.749620849609375,-2.337712526321411,-1.3124053478240967,-0.5493807792663574
1667266100392018700,2.752018798828125,-2.3816933631896973,-1.2409361600875854,-0.5921400785446167
1667266100394416400,2.75441650390625,-2.4226202964782715,-1.148698329925537,-0.6367319226264954
1667266100396814300,2.756814453125,-2.4543843269348145,-1.045465111732483,-0.6807129383087158
1667266100399212000,2.7592119140625,-2.4775965213775635,-0.9269607067108154,-0.7191963195800781
1667266100401610000,2.76160986328125,-2.4947001934051514,-0.7968502640724182,-0.7570688128471375
1667266100404007700,2.764007568359375,-2.4983654022216797,-0.6575770974159241,-0.7900545597076416
1667266100406405400,2.7664052734375,-2.4928677082061768,-0.5158604979515076,-0.8224294781684875
1667266100408803300,2.76880322265625,-2.4745421409606934,-0.3697916567325592,-0.8480850458145142
1667266100411201000,2.771200927734375,-2.4464433193206787,-0.21463645994663239,-0.8596911430358887
1667266100413599000,2.773598876953125,-2.407349109649658,-0.06436803191900253,-0.8682430386543274
1667266100415996700,2.77599658203125,-2.3584811687469482,0.06818582862615585,-0.8712972402572632
1667266100418394600,2.77839453125,-2.296785593032837,0.18485765159130096,-0.8755732178688049
1667266100420792300,2.780792236328125,-2.2234840393066406,0.2868691384792328,-0.8755732178688049
1667266100423190000,2.78318994140625,-2.144073963165283,0.3748311400413513,-0.8694646954536438
1667266100425588000,2.785587890625,-2.057333469390869,0.4560738205909729,-0.8603020310401917
1667266100427985700,2.787985595703125,-1.9626522064208984,0.5299863815307617,-0.842587411403656
1667266100430383600,2.790383544921875,-1.8661383390426636,0.5935144424438477,-0.81998610496521
1667266100432781300,2.79278125,-1.7726787328720093,0.655820906162262,-0.7888329029083252
1667266100435179300,2.79517919921875,-1.679219126701355,0.7114079594612122,-0.7527928948402405
1667266100437577000,2.797576904296875,-1.5937005281448364,0.7596648931503296,-0.7100335955619812
1667266100439975000,2.799974853515625,-1.5149011611938477,0.804256796836853,-0.662387490272522
1667266100442372600,2.80237255859375,-1.4428212642669678,0.8451835513114929,-0.6092438101768494
1667266100444770600,2.8047705078125,-1.3780714273452759,0.8793910145759583,-0.5548783540725708
1667266100447168300,2.807168212890625,-1.3224843740463257,0.9056574106216431,-0.49684789776802063
1667266100449566000,2.80956591796875,-1.2778924703598022,0.9227611422538757,-0.4357631504535675
1667266100451964000,2.8119638671875,-1.245517611503601,0.9264262318611145,-0.37406760454177856
1667266100454361600,2.814361572265625,-1.220472812652588,0.9245936870574951,-0.3148154020309448
1667266100456759600,2.816759521484375,-1.2100883722305298,0.9129875898361206,-0.25739577412605286
1667266100459157200,2.8191572265625,-1.206423282623291,0.891607940196991,-0.20364120602607727
1667266100461555000,2.821554931640625,-1.211920976638794,0.859233021736145,-0.15171918272972107
1667266100463953000,2.823952880859375,-1.2235270738601685,0.8207496404647827,-0.10468395054340363
1667266100466350600,2.8263505859375,-1.2400199174880981,0.7712710499763489,-0.057648710906505585
1667266100468748500,2.82874853515625,-1.2589561939239502,0.7132405042648315,-0.019776180386543274
1667266100471146200,2.831146240234375,-1.2809467315673828,0.6472690105438232,0.02053973823785782
1667266100473544200,2.833544189453125,-1.30476975440979,0.5739673376083374,0.05230379477143288
1667266100475942000,2.83594189453125,-1.3249276876449585,0.4963897466659546,0.08284615725278854
1667266100478339600,2.838339599609375,-1.346307396888733,0.41087114810943604,0.10789089649915695
1667266100480737500,2.840737548828125,-1.3658545017242432,0.32840675115585327,0.13232478499412537
1667266100483135200,2.84313525390625,-1.3847907781600952,0.24166645109653473,0.14942851662635803
1667266100485533200,2.845533203125,-1.4037270545959473,0.15126104652881622,0.1653105467557907
1667266100487931000,2.847930908203125,-1.4220523834228516,0.06390989571809769,0.17447324097156525
1667266100490328800,2.850328857421875,-1.4440429210662842,-0.022219568490982056,0.1805817186832428
1667266100492726500,2.8527265625,-1.4642008543014526,-0.1083490327000618,0.18302510678768158
1667266100495124200,2.855124267578125,-1.4874130487442017,-0.19203510880470276,0.179360032081604
1667266100497522200,2.857522216796875,-1.5136795043945312,-0.27144524455070496,0.17202985286712646
1667266100499920000,2.859919921875,-1.5430002212524414,-0.34719032049179077,0.15614783763885498
1667266100502317800,2.86231787109375,-1.572320818901062,-0.41927027702331543,0.1396549493074417
1667266100504715500,2.864715576171875,-1.601030707359314,-0.49264830350875854,0.11888615041971207
1667266100507113500,2.867113525390625,-1.627297043800354,-0.5696150660514832,0.09384141117334366
1667266100509511200,2.86951123046875,-1.6572285890579224,-0.638029932975769,0.06635328382253647
1667266100511909000,2.8719091796875,-1.692657709121704,-0.7021689414978027,0.03703261539340019
1667266100514306800,2.874306884765625,-1.7293086051940918,-0.7589777112007141,0.004657710436731577
1667266100516704500,2.87670458984375,-1.770235300064087,-0.8041804432868958,-0.026495499536395073
1667266100519102500,2.8791025390625,-1.8074970245361328,-0.8414421081542969,-0.0558161698281765
1667266100521500200,2.881500244140625,-1.8478130102157593,-0.8628217577934265,-0.0814717561006546
1667266100523898000,2.883898193359375,-1.8838529586791992,-0.870151937007904,-0.10590564459562302
1667266100526295800,2.8862958984375,-1.9186712503433228,-0.8603783845901489,-0.12911784648895264
1667266100528693800,2.88869384765625,-1.9492136240005493,-0.8341119289398193,-0.1468324065208435
1667266100531091500,2.891091552734375,-1.9718149900436401,-0.7760814428329468,-0.1590493619441986
1667266100533489400,2.893489501953125,-1.988918662071228,-0.6972821354866028,-0.16699036955833435
1667266100535887000,2.89588720703125,-2.0005247592926025,-0.6032116413116455,-0.17615307867527008
1667266100538284800,2.898284912109375,-2.010298252105713,-0.49020493030548096,-0.18165069818496704
1667266100540682800,2.900682861328125,-2.013963460922241,-0.36246147751808167,-0.1865374743938446
1667266100543080400,2.90308056640625,-2.010909080505371,-0.2268534004688263,-0.19203510880470276
1667266100545478400,2.905478515625,-2.004189968109131,-0.082082599401474,-0.19631104171276093
1667266100547876000,2.9078759765625,-1.9895294904708862,0.06757497787475586,-0.2011978179216385
1667266100550274000,2.910274169921875,-1.9687607288360596,0.22150848805904388,-0.20486289262771606
1667266100552671700,2.912671630859375,-1.9443268775939941,0.3778853714466095,-0.20913882553577423
1667266100555069400,2.9150693359375,-1.9113410711288452,0.5287646651268005,-0.211582213640213
1667266100557467400,2.91746728515625,-1.8698034286499023,0.6723137497901917,-0.21585814654827118
1667266100559865000,2.919864990234375,-1.8264333009719849,0.8073109984397888,-0.21830153465270996
1667266100562263000,2.922262939453125,-1.7726787328720093,0.9325346946716309,-0.22135578095912933
1667266100564660700,2.92466064453125,-1.717091679573059,1.0455414056777954,-0.2250208556652069
1667266100567058400,2.927058349609375,-1.6578394174575806,1.1487746238708496,-0.22929678857326508
1667266100569456400,2.929456298828125,-1.595533013343811,1.2373474836349487,-0.23357272148132324
1667266100571854000,2.93185400390625,-1.5326157808303833,1.317368507385254,-0.2384594976902008
1667266100574252000,2.934251953125,-1.4672551155090332,1.391281008720398,-0.24640052020549774
1667266100576649700,2.936649658203125,-1.4043378829956055,1.4560308456420898,-0.2512872815132141
1667266100579047700,2.939047607421875,-1.342031478881836,1.5232239961624146,-0.2549523711204529
1667266100581445400,2.9414453125,-1.2846118211746216,1.591028094291687,-0.25983914732933044
1667266100583843000,2.943843017578125,-1.2302464246749878,1.663107991218567,-0.25922831892967224
1667266100586241000,2.946240966796875,-1.1880979537963867,1.737020492553711,-0.25739577412605286
1667266100588638700,2.948638671875,-1.1477819681167603,1.8127655982971191,-0.2518981397151947
1667266100591036700,2.95103662109375,-1.1172395944595337,1.8848456144332886,-0.24640052020549774
1667266100593434400,2.953434326171875,-1.0934165716171265,1.9587581157684326,-0.23601610958576202
1667266100595832300,2.955832275390625,-1.077534556388855,2.024118661880493,-0.2262425571680069
1667266100598230000,2.95822998046875,-1.0683718919754028,2.084592580795288,-0.21463645994663239
1667266100600628000,2.9606279296875,-1.0665392875671387,2.1383471488952637,-0.20608459413051605
1667266100603025700,2.963025634765625,-1.0683718919754028,2.1786630153656006,-0.19570018351078033
1667266100605423400,2.96542333984375,-1.0787562131881714,2.2128705978393555,-0.1865374743938446
1667266100607821300,2.9678212890625,-1.0940274000167847,2.2336392402648926,-0.18042901158332825
1667266100610219000,2.970218994140625,-1.115407109260559,2.2471542358398438,-0.1730988472700119
1667266100612617000,2.972616943359375,-1.136786699295044,2.253262758255005,-0.1724879890680313
1667266100615014700,2.9750146484375,-1.1606098413467407,2.2489869594573975,-0.16943375766277313
1667266100617412600,2.97741259765625,-1.1838220357894897,2.2428784370422363,-0.16821207106113434
1667266100619810300,2.979810302734375,-1.2082558870315552,2.2281417846679688,-0.17004460096359253
1667266100622208300,2.982208251953125,-1.230857253074646,2.2067620754241943,-0.1724879890680313
1667266100624606000,2.98460595703125,-1.254069447517395,2.1817173957824707,-0.18042901158332825
1667266100627003600,2.987003662109375,-1.2736165523529053,2.151175022125244,-0.1871483325958252
1667266100629401600,2.989401611328125,-1.2882769107818604,2.1145241260528564,-0.19447849690914154
1667266100631799300,2.99179931640625,-1.3029371500015259,2.075429916381836,-0.20425204932689667
1667266100634197200,2.994197265625,-1.3139324188232422,2.0308380126953125,-0.21463645994663239
1667266100636595000,2.996594970703125,-1.321873426437378,1.9844136238098145,-0.2256316989660263
1667266100638993000,2.998992919921875,-1.327981948852539,1.9331024885177612,-0.2390703409910202
1667266100641390600,3.001390625,-1.3285927772521973,1.8793479204177856,-0.2543415129184723
1667266100643788300,3.003788330078125,-1.3292036056518555,1.826815128326416,-0.267169326543808
1667266100646186200,3.006186279296875,-1.327981948852539,1.774893045425415,-0.2812187969684601
1667266100648584000,3.008583984375,-1.3243168592453003,1.72419273853302,-0.2934357523918152
1667266100650982000,3.01098193359375,-1.3182083368301392,1.6722707748413086,-0.3050418496131897
1667266100653379600,3.013379638671875,-1.3108782768249512,1.6221812963485718,-0.3148154020309448
1667266100655777500,3.015777587890625,-1.3029371500015259,1.567815899848938,-0.32642149925231934
1667266100658175200,3.01817529296875,-1.2937744855880737,1.5134503841400146,-0.3331408202648163
1667266100660573000,3.020572998046875,-1.2833900451660156,1.4560308456420898,-0.33802759647369385
1667266100662971000,3.022970947265625,-1.2717839479446411,1.3943352699279785,-0.33680590987205505
1667266100665368600,3.02536865234375,-1.2613996267318726,1.3314179182052612,-0.33558422327041626
1667266100667766500,3.0277666015625,-1.2504043579101562,1.267279028892517,-0.3325299620628357
1667266100670164200,3.030164306640625,-1.2424633502960205,1.2025291919708252,-0.32397812604904175
1667266100672562200,3.032562255859375,-1.2339115142822266,1.1390010118484497,-0.3148154020309448
1667266100674960000,3.0349599609375,-1.2290246486663818,1.0779163837432861,-0.3019876182079315
1667266100677357600,3.037357666015625,-1.2235270738601685,1.0192749500274658,-0.28671643137931824
1667266100679755500,3.039755615234375,-1.220472812652588,0.9661312699317932,-0.27144524455070496
1667266100682153200,3.0421533203125,-1.2180293798446655,0.91482013463974,-0.2549523711204529
1667266100684551200,3.04455126953125,-1.2180293798446655,0.8628981113433838,-0.2384594976902008
