time,seconds_elapsed,z,y,x
1667825239609234700,0.010234619140625,-1.0050201416015625,-0.17193603515625,-0.039581298828125
1667825239619241500,0.020241455078125,-0.9806060791015625,-0.1789398193359375,-0.0386962890625
1667825239629249500,0.03024951171875,-0.9360809326171875,-0.1724090576171875,0.0180816650390625
1667825239639256600,0.040256591796875,-0.9237213134765625,-0.1693572998046875,0.0273590087890625
1667825239649264600,0.0502646484375,-0.9233551025390625,-0.184722900390625,0.00341796875
1667825239659271400,0.060271484375,-0.9246978759765625,-0.210174560546875,-0.0129547119140625
1667825239669279500,0.070279541015625,-0.9317169189453125,-0.225128173828125,-0.0142669677734375
1667825239679286500,0.08028662109375,-0.943450927734375,-0.229644775390625,-0.01641845703125
1667825239689294600,0.090294677734375,-0.9429168701171875,-0.225189208984375,-0.0212249755859375
1667825239699301400,0.10030126953125,-0.93365478515625,-0.2070770263671875,-0.0120697021484375
1667825239709309700,0.110309814453125,-0.931549072265625,-0.187255859375,-0.02276611328125
1667825239719316500,0.12031640625,-0.928436279296875,-0.165679931640625,-0.064666748046875
1667825239729324500,0.130324462890625,-0.892974853515625,-0.1884765625,-0.08740234375
1667825239739331600,0.14033154296875,-0.846527099609375,-0.2159881591796875,-0.0911865234375
1667825239749339600,0.150339599609375,-0.828277587890625,-0.218597412109375,-0.0952301025390625
1667825239759346400,0.160346435546875,-0.821075439453125,-0.2117919921875,-0.1080322265625
1667825239769354500,0.1703544921875,-0.8354949951171875,-0.2278594970703125,-0.1591339111328125
1667825239779361500,0.180361572265625,-0.841766357421875,-0.2464141845703125,-0.214324951171875
1667825239789368600,0.19036865234375,-0.8497161865234375,-0.26080322265625,-0.2322845458984375
1667825239799376400,0.20037646484375,-0.8680877685546875,-0.2766571044921875,-0.2407073974609375
1667825239809384700,0.210384765625,-0.883087158203125,-0.2822723388671875,-0.2653350830078125
1667825239819391500,0.2203916015625,-0.8865509033203125,-0.278778076171875,-0.303924560546875
1667825239829398500,0.2303984375,-0.882232666015625,-0.26336669921875,-0.305877685546875
1667825239839406600,0.240406494140625,-0.890472412109375,-0.2402496337890625,-0.28338623046875
1667825239849413600,0.25041357421875,-0.8926239013671875,-0.231536865234375,-0.263214111328125
1667825239859421400,0.26042138671875,-0.8766326904296875,-0.248809814453125,-0.2413330078125
1667825239869428700,0.2704287109375,-0.843841552734375,-0.2873992919921875,-0.2148895263671875
1667825239879436500,0.2804365234375,-0.835205078125,-0.32720947265625,-0.1875762939453125
1667825239889443600,0.290443603515625,-0.833831787109375,-0.3657073974609375,-0.156402587890625
1667825239899451400,0.300451416015625,-0.83294677734375,-0.3937530517578125,-0.1503753662109375
1667825239909458700,0.310458740234375,-0.8546600341796875,-0.389373779296875,-0.1672515869140625
1667825239919466500,0.320466552734375,-0.8931884765625,-0.341339111328125,-0.2003173828125
1667825239929473500,0.3304736328125,-0.9423980712890625,-0.2638397216796875,-0.24334716796875
1667825239939481600,0.340481689453125,-0.98492431640625,-0.1803741455078125,-0.2988128662109375
1667825239949488600,0.350488525390625,-1.0155792236328125,-0.1000823974609375,-0.382476806640625
1667825239959496400,0.360496337890625,-1.006134033203125,-0.0055389404296875,-0.46697998046875
1667825239969503700,0.370503662109375,-0.95074462890625,0.103302001953125,-0.51708984375
1667825239979511600,0.380511474609375,-0.8797607421875,0.1593780517578125,-0.5187225341796875
1667825239989518600,0.3905185546875,-0.867156982421875,0.19293212890625,-0.48809814453125
1667825239999526400,0.4005263671875,-0.8993682861328125,0.264923095703125,-0.44696044921875
1667825240009533700,0.41053369140625,-0.9022216796875,0.3209228515625,-0.40545654296875
1667825240019541500,0.42054150390625,-0.8880767822265625,0.3441162109375,-0.372528076171875
1667825240029548500,0.430548583984375,-0.870574951171875,0.349761962890625,-0.35101318359375
1667825240039556600,0.440556640625,-0.8730010986328125,0.3387451171875,-0.3528900146484375
1667825240049563600,0.450563720703125,-0.8884124755859375,0.3149871826171875,-0.368499755859375
1667825240059571500,0.460571533203125,-0.896331787109375,0.292572021484375,-0.369232177734375
1667825240069578800,0.470578857421875,-0.9056396484375,0.2823638916015625,-0.3595733642578125
1667825240079586600,0.480586669921875,-0.9141845703125,0.281097412109375,-0.3537750244140625
1667825240089593600,0.490593505859375,-0.9140472412109375,0.28857421875,-0.3657989501953125
1667825240099600600,0.5006005859375,-0.9112091064453125,0.306549072265625,-0.3862457275390625
1667825240109608700,0.510608642578125,-0.9076385498046875,0.3115692138671875,-0.3937835693359375
1667825240119615500,0.520615478515625,-0.91278076171875,0.294708251953125,-0.3760528564453125
1667825240129623600,0.53062353515625,-0.9117431640625,0.27581787109375,-0.3427734375
1667825240139630600,0.540630615234375,-0.907867431640625,0.2696685791015625,-0.3229217529296875
1667825240149638700,0.550638671875,-0.9075775146484375,0.2701568603515625,-0.318023681640625
1667825240159645400,0.5606455078125,-0.896728515625,0.266876220703125,-0.31622314453125
1667825240169653800,0.57065380859375,-0.8827056884765625,0.2558441162109375,-0.316864013671875
1667825240179660500,0.58066064453125,-0.8743896484375,0.24053955078125,-0.3098602294921875
1667825240189668600,0.590668701171875,-0.870361328125,0.2236480712890625,-0.301025390625
1667825240199675600,0.600675537109375,-0.87213134765625,0.21185302734375,-0.2911834716796875
1667825240209683700,0.61068359375,-0.882232666015625,0.2057647705078125,-0.29449462890625
1667825240219690500,0.6206904296875,-0.894378662109375,0.2024993896484375,-0.3033294677734375
1667825240229698600,0.630698486328125,-0.8993988037109375,0.2001800537109375,-0.31048583984375
1667825240239705600,0.64070556640625,-0.9009857177734375,0.2018280029296875,-0.3192138671875
1667825240249713700,0.650713623046875,-0.906890869140625,0.20770263671875,-0.3350067138671875
1667825240259720400,0.660720458984375,-0.9189910888671875,0.214263916015625,-0.3502349853515625
1667825240269728800,0.670728759765625,-0.9322509765625,0.220123291015625,-0.3512115478515625
1667825240279735600,0.680735595703125,-0.939300537109375,0.2237548828125,-0.3558502197265625
1667825240289743600,0.69074365234375,-0.9455108642578125,0.233673095703125,-0.3697357177734375
1667825240299750700,0.700750732421875,-0.9466705322265625,0.2511444091796875,-0.3838958740234375
1667825240309758700,0.7107587890625,-0.947174072265625,0.2674407958984375,-0.391693115234375
1667825240319765500,0.720765625,-0.9487152099609375,0.2733154296875,-0.3890380859375
1667825240329773600,0.730773681640625,-0.949127197265625,0.27349853515625,-0.383819580078125
1667825240339780600,0.740780517578125,-0.9466094970703125,0.2766571044921875,-0.38671875
1667825240349788700,0.75078857421875,-0.9405364990234375,0.286895751953125,-0.38970947265625
1667825240359795500,0.76079541015625,-0.9369964599609375,0.298309326171875,-0.39251708984375
1667825240369802500,0.770802490234375,-0.9353485107421875,0.306610107421875,-0.3996429443359375
1667825240379810600,0.780810546875,-0.934234619140625,0.315673828125,-0.407318115234375
1667825240389817600,0.790817626953125,-0.928619384765625,0.315216064453125,-0.407196044921875
1667825240399825700,0.80082568359375,-0.9199676513671875,0.301727294921875,-0.4046630859375
1667825240409832400,0.81083251953125,-0.9131317138671875,0.290435791015625,-0.4051971435546875
1667825240419840500,0.820840576171875,-0.895233154296875,0.2881622314453125,-0.406707763671875
1667825240429847600,0.83084765625,-0.8698883056640625,0.285369873046875,-0.407196044921875
1667825240439855600,0.840855712890625,-0.8455963134765625,0.2796630859375,-0.4027099609375
1667825240449862400,0.8508623046875,-0.8182373046875,0.2626953125,-0.3846282958984375
1667825240459870500,0.860870361328125,-0.787994384765625,0.237335205078125,-0.3581695556640625
1667825240469877500,0.87087744140625,-0.7611541748046875,0.221160888671875,-0.3403167724609375
1667825240479885600,0.880885498046875,-0.7331695556640625,0.2135009765625,-0.323150634765625
1667825240489892600,0.890892578125,-0.70404052734375,0.200439453125,-0.30535888671875
1667825240499901200,0.900901123046875,-0.681060791015625,0.1810150146484375,-0.2881011962890625
1667825240509908200,0.910908203125,-0.6647796630859375,0.1626129150390625,-0.2776947021484375
1667825240519916300,0.920916259765625,-0.6557769775390625,0.15167236328125,-0.2687225341796875
1667825240529923300,0.93092333984375,-0.6495208740234375,0.1383819580078125,-0.258941650390625
1667825240539931400,0.940931396484375,-0.65240478515625,0.1186065673828125,-0.2496337890625
1667825240549938200,0.950938232421875,-0.6655426025390625,0.0951385498046875,-0.2429962158203125
1667825240559946200,0.9609462890625,-0.685791015625,0.0755157470703125,-0.246826171875
1667825240569953300,0.970953369140625,-0.7136077880859375,0.068389892578125,-0.260650634765625
1667825240579961300,0.98096142578125,-0.7391510009765625,0.0664520263671875,-0.278564453125
1667825240589968100,0.990968017578125,-0.7657318115234375,0.0601806640625,-0.29278564453125
1667825240599976200,1.00097607421875,-0.787200927734375,0.0532073974609375,-0.3025054931640625
1667825240609983200,1.010983154296875,-0.8020782470703125,0.048797607421875,-0.3094940185546875
1667825240619991300,1.0209912109375,-0.8103179931640625,0.0494232177734375,-0.3127288818359375
1667825240629998000,1.030998046875,-0.820281982421875,0.0581207275390625,-0.313995361328125
1667825240640006400,1.04100634765625,-0.832061767578125,0.0629730224609375,-0.3135986328125
1667825240650013200,1.05101318359375,-0.8394317626953125,0.062774658203125,-0.31427001953125
1667825240660020200,1.061020263671875,-0.841766357421875,0.0614776611328125,-0.310791015625
1667825240670028300,1.0710283203125,-0.8454742431640625,0.066436767578125,-0.30999755859375
1667825240680035300,1.081035400390625,-0.8508148193359375,0.08172607421875,-0.3162994384765625
1667825240690043100,1.091043212890625,-0.8548126220703125,0.0977783203125,-0.32818603515625
1667825240700050400,1.101050537109375,-0.8610992431640625,0.108428955078125,-0.337677001953125
1667825240710058200,1.111058349609375,-0.8717193603515625,0.11077880859375,-0.34576416015625
1667825240720065300,1.121065185546875,-0.8881988525390625,0.109893798828125,-0.351654052734375
1667825240730073000,1.131072998046875,-0.9043731689453125,0.1170196533203125,-0.361297607421875
1667825240740080400,1.141080322265625,-0.9155731201171875,0.1346893310546875,-0.3826141357421875
1667825240750088200,1.151088134765625,-0.926605224609375,0.15472412109375,-0.407684326171875
1667825240760095200,1.16109521484375,-0.9418487548828125,0.1741790771484375,-0.4354400634765625
1667825240770103300,1.171103271484375,-0.955352783203125,0.193115234375,-0.458953857421875
1667825240780110300,1.1811103515625,-0.9667205810546875,0.207977294921875,-0.47454833984375
1667825240790118100,1.1911181640625,-0.9727020263671875,0.219207763671875,-0.478057861328125
1667825240800125400,1.20112548828125,-0.965423583984375,0.226104736328125,-0.4688720703125
1667825240810133200,1.21113330078125,-0.950927734375,0.23272705078125,-0.452789306640625
1667825240820140300,1.221140380859375,-0.9264068603515625,0.240753173828125,-0.4362640380859375
1667825240830148000,1.231148193359375,-0.9007568359375,0.25396728515625,-0.4235992431640625
1667825240840155400,1.2411552734375,-0.874176025390625,0.2569732666015625,-0.4033203125
1667825240850163200,1.2511630859375,-0.852874755859375,0.241363525390625,-0.38720703125
1667825240860170200,1.261170166015625,-0.845977783203125,0.22149658203125,-0.3753509521484375
1667825240870178300,1.27117822265625,-0.843841552734375,0.20977783203125,-0.366790771484375
1667825240880185300,1.281185302734375,-0.846221923828125,0.2078094482421875,-0.368499755859375
1667825240890193200,1.291193115234375,-0.85919189453125,0.21502685546875,-0.3780364990234375
1667825240900200400,1.301200439453125,-0.8730010986328125,0.22589111328125,-0.3918609619140625
1667825240910208300,1.311208251953125,-0.89776611328125,0.2410736083984375,-0.4119873046875
1667825240920215300,1.32121533203125,-0.9358673095703125,0.2615203857421875,-0.43792724609375
1667825240930223000,1.33122314453125,-0.9805755615234375,0.2929229736328125,-0.47454833984375
1667825240940230400,1.34123046875,-1.0323944091796875,0.3404388427734375,-0.5126495361328125
1667825240950238200,1.35123828125,-1.074493408203125,0.387603759765625,-0.5511627197265625
1667825240960245200,1.361245361328125,-1.1036529541015625,0.4283447265625,-0.5843963623046875
1667825240970253300,1.37125341796875,-1.1174163818359375,0.4557342529296875,-0.60614013671875
1667825240980260400,1.38126025390625,-1.1229400634765625,0.4624481201171875,-0.6082763671875
1667825240990267400,1.391267333984375,-1.12933349609375,0.4557952880859375,-0.594818115234375
1667825241000275500,1.401275390625,-1.123931884765625,0.45086669921875,-0.5805816650390625
1667825241010282200,1.4112822265625,-1.0974884033203125,0.4513702392578125,-0.5641937255859375
1667825241020290300,1.421290283203125,-1.0629425048828125,0.4444580078125,-0.5425872802734375
1667825241030297300,1.43129736328125,-1.0287322998046875,0.42596435546875,-0.5231475830078125
1667825241040305400,1.441305419921875,-0.9970703125,0.414642333984375,-0.517303466796875
1667825241050312200,1.451312255859375,-0.9735870361328125,0.403961181640625,-0.5119171142578125
1667825241060320300,1.4613203125,-0.9421234130859375,0.3693084716796875,-0.485198974609375
1667825241070327300,1.471327392578125,-0.910247802734375,0.3184051513671875,-0.4417724609375
1667825241080335400,1.48133544921875,-0.882781982421875,0.274505615234375,-0.4134521484375
1667825241090342400,1.49134228515625,-0.854156494140625,0.2468719482421875,-0.3970489501953125
1667825241100350500,1.5013505859375,-0.8197174072265625,0.2192840576171875,-0.37933349609375
1667825241110357200,1.511357177734375,-0.7845916748046875,0.1868743896484375,-0.3646697998046875
1667825241120365300,1.521365234375,-0.761749267578125,0.15850830078125,-0.3569488525390625
1667825241130372400,1.531372314453125,-0.740234375,0.1430206298828125,-0.35028076171875
1667825241140380400,1.54138037109375,-0.720733642578125,0.13262939453125,-0.3425750732421875
1667825241150387200,1.55138720703125,-0.7060089111328125,0.11956787109375,-0.3380126953125
1667825241160395300,1.561395263671875,-0.6963958740234375,0.1053314208984375,-0.3398284912109375
1667825241170402300,1.57140234375,-0.699005126953125,0.09979248046875,-0.3419647216796875
1667825241180410400,1.581410400390625,-0.70037841796875,0.0942230224609375,-0.3400726318359375
1667825241190417400,1.59141748046875,-0.701690673828125,0.0864105224609375,-0.3468475341796875
1667825241200425500,1.601425537109375,-0.70556640625,0.079559326171875,-0.3535308837890625
1667825241210432300,1.611432373046875,-0.7097625732421875,0.071807861328125,-0.3551025390625
1667825241220440300,1.6214404296875,-0.71685791015625,0.07098388671875,-0.3579559326171875
1667825241230447400,1.631447265625,-0.7230377197265625,0.079620361328125,-0.3619384765625
1667825241240455400,1.641455322265625,-0.7240447998046875,0.08990478515625,-0.35760498046875
1667825241250462200,1.651462158203125,-0.727783203125,0.0918426513671875,-0.3500518798828125
1667825241260470300,1.66147021484375,-0.7367706298828125,0.090789794921875,-0.33905029296875
1667825241270477300,1.671477294921875,-0.7421112060546875,0.0845489501953125,-0.32513427734375
1667825241280484000,1.681484130859375,-0.7494659423828125,0.0771026611328125,-0.3115234375
1667825241290492400,1.691492431640625,-0.7639312744140625,0.07598876953125,-0.3024139404296875
1667825241300500500,1.70150048828125,-0.7704010009765625,0.0781097412109375,-0.2989349365234375
1667825241310507300,1.71150732421875,-0.7796630859375,0.0814666748046875,-0.2960968017578125
1667825241320515300,1.721515380859375,-0.7981414794921875,0.0864715576171875,-0.2982330322265625
1667825241330522400,1.7315224609375,-0.8135528564453125,0.0889434814453125,-0.301666259765625
1667825241340529200,1.741529052734375,-0.8270721435546875,0.085662841796875,-0.2972412109375
1667825241350537200,1.751537109375,-0.837127685546875,0.0792999267578125,-0.288360595703125
1667825241360544300,1.761544189453125,-0.8482208251953125,0.075164794921875,-0.2845458984375
1667825241370552300,1.77155224609375,-0.8657684326171875,0.0859375,-0.29058837890625
1667825241380559000,1.78155908203125,-0.8888702392578125,0.10797119140625,-0.294525146484375
1667825241390567400,1.7915673828125,-0.90972900390625,0.1231842041015625,-0.293121337890625
1667825241400574200,1.80157421875,-0.928466796875,0.1237640380859375,-0.296630859375
1667825241410582300,1.811582275390625,-0.9510650634765625,0.124542236328125,-0.3068084716796875
1667825241420589300,1.82158935546875,-0.9733734130859375,0.1313323974609375,-0.313751220703125
1667825241430597400,1.831597412109375,-0.9970703125,0.141357421875,-0.318267822265625
1667825241440604200,1.841604248046875,-1.012969970703125,0.1449127197265625,-0.3236846923828125
1667825241450612200,1.8516123046875,-1.0224151611328125,0.144073486328125,-0.33331298828125
1667825241460619300,1.861619384765625,-1.031524658203125,0.1539154052734375,-0.3478851318359375
1667825241470627300,1.87162744140625,-1.029815673828125,0.1692352294921875,-0.3562774658203125
1667825241480634000,1.881634033203125,-1.020294189453125,0.1722412109375,-0.3542327880859375
1667825241490642400,1.891642333984375,-1.018096923828125,0.1593780517578125,-0.347259521484375
1667825241500649000,1.90164892578125,-1.0257568359375,0.1451568603515625,-0.3380584716796875
1667825241510657000,1.911656982421875,-1.032806396484375,0.1310882568359375,-0.3263092041015625
1667825241520664000,1.9216640625,-1.0509033203125,0.1168060302734375,-0.32763671875
1667825241530672000,1.931672119140625,-1.0744781494140625,0.1110992431640625,-0.3542938232421875
1667825241540679000,1.941678955078125,-1.0959930419921875,0.129241943359375,-0.407440185546875
1667825241550687000,1.95168701171875,-1.1121978759765625,0.166656494140625,-0.4727783203125
1667825241560694000,1.961694091796875,-1.1263885498046875,0.1998748779296875,-0.5334930419921875
1667825241570702000,1.9717021484375,-1.135345458984375,0.212738037109375,-0.578826904296875
1667825241580708900,1.981708984375,-1.1386260986328125,0.2044525146484375,-0.5987701416015625
1667825241590717200,1.99171728515625,-1.1206817626953125,0.185272216796875,-0.601165771484375
1667825241600724000,2.001723876953125,-1.0868072509765625,0.167572021484375,-0.5989837646484375
1667825241610732000,2.01173193359375,-1.0474700927734375,0.1492156982421875,-0.5883331298828125
1667825241620739000,2.021739013671875,-1.00927734375,0.1298675537109375,-0.5761566162109375
1667825241630747100,2.0317470703125,-0.9642181396484375,0.1097259521484375,-0.559051513671875
1667825241640754000,2.04175390625,-0.9232177734375,0.09515380859375,-0.545562744140625
1667825241650762000,2.051761962890625,-0.893280029296875,0.0790252685546875,-0.54656982421875
1667825241660769000,2.06176904296875,-0.8725128173828125,0.054595947265625,-0.547637939453125
1667825241670776000,2.071776123046875,-0.84722900390625,0.02001953125,-0.5218048095703125
1667825241680784000,2.081783935546875,-0.82672119140625,-0.01019287109375,-0.4935150146484375
1667825241690791200,2.091791259765625,-0.8196868896484375,-0.0351715087890625,-0.4737548828125
1667825241700799000,2.101799072265625,-0.80987548828125,-0.051177978515625,-0.459686279296875
1667825241710806000,2.111805908203125,-0.80181884765625,-0.055419921875,-0.44677734375
1667825241720814000,2.12181396484375,-0.793853759765625,-0.0541534423828125,-0.43121337890625
1667825241730821000,2.131821044921875,-0.788482666015625,-0.0521392822265625,-0.4130706787109375
1667825241740829000,2.141828857421875,-0.7868804931640625,-0.05499267578125,-0.4000701904296875
1667825241750836200,2.151836181640625,-0.7839508056640625,-0.062469482421875,-0.389312744140625
1667825241760844000,2.161843994140625,-0.787139892578125,-0.0647430419921875,-0.386444091796875
1667825241770851000,2.17185107421875,-0.7905120849609375,-0.0691070556640625,-0.39129638671875
1667825241780859000,2.18185888671875,-0.799835205078125,-0.0792694091796875,-0.3952484130859375
1667825241790866200,2.1918662109375,-0.8100128173828125,-0.08465576171875,-0.3981170654296875
1667825241800874000,2.2018740234375,-0.8140106201171875,-0.073394775390625,-0.401397705078125
1667825241810881000,2.211881103515625,-0.8216094970703125,-0.050048828125,-0.4078216552734375
1667825241820889000,2.22188916015625,-0.82666015625,-0.0291748046875,-0.41741943359375
1667825241830896000,2.231896240234375,-0.8296661376953125,-0.02178955078125,-0.4174652099609375
1667825241840904000,2.241904052734375,-0.8376922607421875,-0.0267791748046875,-0.41290283203125
1667825241850911200,2.2519111328125,-0.85064697265625,-0.032318115234375,-0.4090423583984375
1667825241860919000,2.2619189453125,-0.8567962646484375,-0.0351715087890625,-0.4046173095703125
1667825241870926000,2.271926025390625,-0.858367919921875,-0.027618408203125,-0.404205322265625
1667825241880934000,2.281933837890625,-0.856964111328125,-0.0140228271484375,-0.4136505126953125
1667825241890941200,2.291941162109375,-0.8544464111328125,0.000823974609375,-0.42596435546875
1667825241900949000,2.301948974609375,-0.8523101806640625,0.0107879638671875,-0.4283905029296875
1667825241910956000,2.3119560546875,-0.8579864501953125,0.0134124755859375,-0.430023193359375
1667825241920964000,2.321964111328125,-0.86737060546875,0.017913818359375,-0.437286376953125
1667825241930971100,2.33197119140625,-0.870758056640625,0.025787353515625,-0.448822021484375
1667825241940979000,2.34197900390625,-0.87664794921875,0.038665771484375,-0.4670867919921875
1667825241950986200,2.351986328125,-0.8862457275390625,0.060211181640625,-0.48846435546875
1667825241960994000,2.361994140625,-0.888397216796875,0.0849456787109375,-0.5106048583984375
1667825241971001000,2.3720009765625,-0.8863677978515625,0.1027374267578125,-0.5225982666015625
1667825241981009000,2.3820087890625,-0.8794708251953125,0.1088104248046875,-0.5265350341796875
1667825241991016200,2.39201611328125,-0.872528076171875,0.111663818359375,-0.535125732421875
1667825242001024000,2.40202392578125,-0.87030029296875,0.128448486328125,-0.5449981689453125
1667825242011031000,2.412031005859375,-0.853912353515625,0.14837646484375,-0.546600341796875
1667825242021039000,2.4220390625,-0.831878662109375,0.1567230224609375,-0.541717529296875
1667825242031046100,2.432046142578125,-0.81048583984375,0.1593780517578125,-0.5381927490234375
1667825242041054000,2.442053955078125,-0.7849578857421875,0.16290283203125,-0.5264892578125
1667825242051061200,2.452061279296875,-0.7580413818359375,0.163726806640625,-0.509979248046875
1667825242061069000,2.462069091796875,-0.7352294921875,0.149993896484375,-0.4994049072265625
1667825242071076000,2.472076171875,-0.7289276123046875,0.130279541015625,-0.49969482421875
1667825242081084000,2.482083984375,-0.738037109375,0.1188201904296875,-0.5037384033203125
1667825242091091200,2.49209130859375,-0.7594451904296875,0.118438720703125,-0.5103302001953125
1667825242101099000,2.50209912109375,-0.778778076171875,0.1259613037109375,-0.520751953125
1667825242111106000,2.51210595703125,-0.8012847900390625,0.13690185546875,-0.535858154296875
1667825242121113000,2.522113037109375,-0.8244476318359375,0.1429595947265625,-0.5487060546875
1667825242131121200,2.53212109375,-0.847564697265625,0.143829345703125,-0.5606842041015625
1667825242141128000,2.5421279296875,-0.8715972900390625,0.1542816162109375,-0.5706634521484375
1667825242151136300,2.55213623046875,-0.8975830078125,0.1741790771484375,-0.58599853515625
1667825242161143000,2.56214306640625,-0.92449951171875,0.1931915283203125,-0.5973663330078125
1667825242171151000,2.572151123046875,-0.9524688720703125,0.201385498046875,-0.5991363525390625
1667825242181158100,2.582158203125,-0.9691619873046875,0.20050048828125,-0.5867156982421875
1667825242191166200,2.592166259765625,-0.9709930419921875,0.1959686279296875,-0.5716400146484375
1667825242201173000,2.602173095703125,-0.9625244140625,0.1873779296875,-0.5563201904296875
1667825242211181000,2.61218115234375,-0.95068359375,0.1711883544921875,-0.536529541015625
1667825242221188000,2.62218798828125,-0.931182861328125,0.1453094482421875,-0.5063323974609375
1667825242231196200,2.632196044921875,-0.91156005859375,0.116607666015625,-0.4770355224609375
1667825242241203000,2.642202880859375,-0.895416259765625,0.0944366455078125,-0.455047607421875
1667825242251211300,2.652211181640625,-0.8798828125,0.0830841064453125,-0.442657470703125
1667825242261218000,2.662218017578125,-0.8683013916015625,0.0780792236328125,-0.4351806640625
1667825242271226000,2.67222607421875,-0.853668212890625,0.0692596435546875,-0.4237060546875
1667825242281233200,2.682233154296875,-0.8367919921875,0.0496978759765625,-0.4110260009765625
1667825242291241200,2.6922412109375,-0.821929931640625,0.02996826171875,-0.4004974365234375
1667825242301248000,2.702248046875,-0.8123779296875,0.0128021240234375,-0.392333984375
1667825242311256000,2.712256103515625,-0.804931640625,-0.0057830810546875,-0.3823394775390625
1667825242321263000,2.72226318359375,-0.805267333984375,-0.0228118896484375,-0.3797149658203125
1667825242331271200,2.732271240234375,-0.8105621337890625,-0.0337677001953125,-0.380096435546875
1667825242341278000,2.74227783203125,-0.8159027099609375,-0.0382537841796875,-0.3868560791015625
1667825242351286300,2.752286376953125,-0.8230438232421875,-0.0418701171875,-0.3936004638671875
1667825242361293000,2.76229296875,-0.8269195556640625,-0.0499725341796875,-0.4025726318359375
1667825242371301000,2.772301025390625,-0.837371826171875,-0.058258056640625,-0.408233642578125
1667825242381308200,2.78230810546875,-0.848541259765625,-0.06097412109375,-0.407501220703125
1667825242391316200,2.792316162109375,-0.8562164306640625,-0.0565643310546875,-0.400390625
1667825242401323000,2.802322998046875,-0.8654022216796875,-0.043243408203125,-0.3919830322265625
1667825242411331000,2.8123310546875,-0.8720245361328125,-0.0308074951171875,-0.384735107421875
1667825242421338000,2.822338134765625,-0.8732757568359375,-0.0230865478515625,-0.3792724609375
1667825242431346200,2.83234619140625,-0.87530517578125,-0.0133209228515625,-0.3737030029296875
1667825242441353000,2.84235302734375,-0.876922607421875,0.0004119873046875,-0.3690948486328125
1667825242451361300,2.852361328125,-0.878082275390625,0.0142059326171875,-0.3657073974609375
1667825242461368000,2.8623681640625,-0.8836822509765625,0.0169677734375,-0.3567352294921875
1667825242471376100,2.872376220703125,-0.8897552490234375,0.0106201171875,-0.3468017578125
1667825242481383200,2.882383056640625,-0.9010772705078125,0.0080108642578125,-0.34393310546875
1667825242491391200,2.89239111328125,-0.910675048828125,0.01361083984375,-0.3517608642578125
1667825242501398000,2.90239794921875,-0.925933837890625,0.0288848876953125,-0.3681640625
1667825242511406000,2.912406005859375,-0.9392852783203125,0.0417633056640625,-0.3751678466796875
1667825242521413000,2.9224130859375,-0.95281982421875,0.0405120849609375,-0.3719635009765625
1667825242531421200,2.932421142578125,-0.975006103515625,0.0318450927734375,-0.370880126953125
1667825242541428000,2.942427978515625,-0.993133544921875,0.032806396484375,-0.37615966796875
1667825242551436300,2.952436279296875,-1.010162353515625,0.0526123046875,-0.3937530517578125
1667825242561443000,2.962443115234375,-1.0212860107421875,0.0909423828125,-0.4176788330078125
1667825242571451100,2.972451171875,-1.01605224609375,0.129486083984375,-0.4383544921875
1667825242581458200,2.982458251953125,-1.00689697265625,0.1561737060546875,-0.450836181640625
1667825242591465200,2.99246533203125,-0.980499267578125,0.1558685302734375,-0.436767578125
1667825242601473000,3.00247314453125,-0.9461669921875,0.1251068115234375,-0.4016571044921875
1667825242611480300,3.012480224609375,-0.9382476806640625,0.0822296142578125,-0.3513031005859375
1667825242621488000,3.022488037109375,-0.9571380615234375,0.0473175048828125,-0.3141326904296875
1667825242631495200,3.0324951171875,-0.9969635009765625,0.035797119140625,-0.314849853515625
1667825242641503000,3.0425029296875,-1.04083251953125,0.05426025390625,-0.3610076904296875
1667825242651510300,3.05251025390625,-1.073089599609375,0.112548828125,-0.4561309814453125
1667825242661518000,3.06251806640625,-1.084686279296875,0.188995361328125,-0.5602264404296875
1667825242671525000,3.072525146484375,-1.0958709716796875,0.236572265625,-0.6343841552734375
1667825242681533200,3.082533203125,-1.1151123046875,0.2438812255859375,-0.6826019287109375
1667825242691540200,3.092540283203125,-1.1078948974609375,0.2317352294921875,-0.7046966552734375
1667825242701548000,3.102548095703125,-1.0596923828125,0.219024658203125,-0.7099761962890625
1667825242711555300,3.112555419921875,-1.007232666015625,0.2127227783203125,-0.699920654296875
1667825242721563100,3.122563232421875,-0.940826416015625,0.191253662109375,-0.6679840087890625
1667825242731570200,3.132570068359375,-0.8673248291015625,0.1413116455078125,-0.6229248046875
1667825242741578000,3.142577880859375,-0.800506591796875,0.0845184326171875,-0.5742034912109375
1667825242751585300,3.152585205078125,-0.7554473876953125,0.0410308837890625,-0.5561370849609375
1667825242761593000,3.162593017578125,-0.7358551025390625,0.0129547119140625,-0.5554351806640625
1667825242771600100,3.17260009765625,-0.712890625,-0.0106048583984375,-0.559051513671875
1667825242781608200,3.182608154296875,-0.6952667236328125,-0.0372161865234375,-0.5443115234375
1667825242791615200,3.192615234375,-0.6960906982421875,-0.06829833984375,-0.5165557861328125
1667825242801623000,3.202623046875,-0.709442138671875,-0.095733642578125,-0.497467041015625
1667825242811630300,3.21263037109375,-0.7127685546875,-0.115447998046875,-0.47393798828125
1667825242821638100,3.22263818359375,-0.7107696533203125,-0.1268157958984375,-0.4556427001953125
1667825242831645200,3.232645263671875,-0.715850830078125,-0.137847900390625,-0.4561767578125
1667825242841653000,3.242653076171875,-0.7278900146484375,-0.155792236328125,-0.471893310546875
1667825242851660300,3.252660400390625,-0.7322540283203125,-0.180938720703125,-0.48779296875
1667825242861668000,3.262668212890625,-0.7374114990234375,-0.1954803466796875,-0.5048675537109375
1667825242871675100,3.272675048828125,-0.751495361328125,-0.1946563720703125,-0.5239410400390625
1667825242881683200,3.28268310546875,-0.767608642578125,-0.18548583984375,-0.538299560546875
1667825242891690200,3.292690185546875,-0.7791748046875,-0.1704864501953125,-0.5423583984375
1667825242901698000,3.302697998046875,-0.7893218994140625,-0.150543212890625,-0.5439453125
1667825242911705300,3.312705322265625,-0.8040618896484375,-0.133026123046875,-0.5502166748046875
1667825242921713200,3.322713134765625,-0.823944091796875,-0.1168212890625,-0.5604095458984375
1667825242931720200,3.33272021484375,-0.845672607421875,-0.0985260009765625,-0.5717315673828125
1667825242941728000,3.34272802734375,-0.868316650390625,-0.074615478515625,-0.580291748046875
1667825242951735300,3.3527353515625,-0.884185791015625,-0.0495758056640625,-0.5878753662109375
1667825242961743000,3.3627431640625,-0.892974853515625,-0.0284423828125,-0.5971527099609375
1667825242971750100,3.372750244140625,-0.90472412109375,-0.0097503662109375,-0.6008453369140625
1667825242981758200,3.38275830078125,-0.91497802734375,0.0082550048828125,-0.6067962646484375
1667825242991765200,3.39276513671875,-0.918060302734375,0.0316925048828125,-0.61834716796875
1667825243001773000,3.40277294921875,-0.9125518798828125,0.0567474365234375,-0.6196746826171875
1667825243011780400,3.4127802734375,-0.901763916015625,0.077545166015625,-0.6110382080078125
1667825243021788200,3.4227880859375,-0.8944091796875,0.097869873046875,-0.6039276123046875
1667825243031795200,3.432795166015625,-0.87884521484375,0.1207275390625,-0.5928955078125
1667825243041803000,3.442802978515625,-0.8556671142578125,0.1404571533203125,-0.5800628662109375
1667825243051810300,3.452810302734375,-0.8281707763671875,0.1590576171875,-0.5702667236328125
1667825243061818000,3.462818115234375,-0.787841796875,0.17010498046875,-0.5570068359375
1667825243071825200,3.4728251953125,-0.7434539794921875,0.1676788330078125,-0.5406341552734375
1667825243081833200,3.482833251953125,-0.700286865234375,0.158447265625,-0.517608642578125
1667825243091840300,3.49284033203125,-0.662567138671875,0.1435394287109375,-0.49298095703125
1667825243101848000,3.50284814453125,-0.634124755859375,0.134429931640625,-0.475616455078125
1667825243111855400,3.51285546875,-0.6111297607421875,0.13092041015625,-0.4652557373046875
1667825243121863200,3.52286328125,-0.59100341796875,0.129638671875,-0.46148681640625
1667825243131870200,3.5328701171875,-0.5796966552734375,0.124176025390625,-0.4622802734375
1667825243141878000,3.5428779296875,-0.58612060546875,0.1107940673828125,-0.4580535888671875
1667825243151885300,3.55288525390625,-0.6089019775390625,0.0872039794921875,-0.4506683349609375
1667825243161893000,3.56289306640625,-0.64385986328125,0.058258056640625,-0.44415283203125
1667825243171900200,3.572900146484375,-0.674652099609375,0.037261962890625,-0.4512939453125
1667825243181908200,3.582908203125,-0.718994140625,0.043212890625,-0.4867401123046875
1667825243191915300,3.592915283203125,-0.773162841796875,0.0733642578125,-0.5319976806640625
1667825243201922300,3.60292236328125,-0.8294525146484375,0.1156768798828125,-0.5784759521484375
1667825243211930400,3.612930419921875,-0.8824005126953125,0.1506500244140625,-0.624114990234375
1667825243221937200,3.622937255859375,-0.922607421875,0.170745849609375,-0.659912109375
1667825243231945200,3.6329453125,-0.945343017578125,0.1800384521484375,-0.673583984375
1667825243241952300,3.6429521484375,-0.9564208984375,0.18133544921875,-0.6708221435546875
1667825243251960300,3.652960205078125,-0.961761474609375,0.172393798828125,-0.6547698974609375
1667825243261967000,3.662967041015625,-0.956085205078125,0.1579132080078125,-0.6171875
1667825243271975200,3.67297509765625,-0.941680908203125,0.14227294921875,-0.57720947265625
1667825243281982200,3.682982177734375,-0.9219818115234375,0.132781982421875,-0.541656494140625
1667825243291990300,3.692990234375,-0.901123046875,0.118316650390625,-0.5006256103515625
1667825243301997300,3.702997314453125,-0.8922119140625,0.0989227294921875,-0.4687347412109375
1667825243312005400,3.71300537109375,-0.8917999267578125,0.0836944580078125,-0.4434814453125
1667825243322012200,3.72301220703125,-0.89093017578125,0.069427490234375,-0.4214630126953125
1667825243332020200,3.733020263671875,-0.888153076171875,0.0543365478515625,-0.4034423828125
1667825243342027300,3.74302734375,-0.8838653564453125,0.044464111328125,-0.395416259765625
1667825243352035300,3.753035400390625,-0.8831939697265625,0.0372314453125,-0.3931121826171875
1667825243362042000,3.7630419921875,-0.89190673828125,0.026611328125,-0.3875579833984375
1667825243372050200,3.77305029296875,-0.904998779296875,0.0125579833984375,-0.3880615234375
1667825243382057200,3.78305712890625,-0.915374755859375,0.0008697509765625,-0.3963470458984375
1667825243392065300,3.793065185546875,-0.927978515625,0.003509521484375,-0.40478515625
1667825243402072000,3.803072021484375,-0.934112548828125,0.0108795166015625,-0.409698486328125
1667825243412080400,3.813080322265625,-0.938323974609375,0.015594482421875,-0.418365478515625
1667825243422087200,3.823087158203125,-0.94427490234375,0.022796630859375,-0.4300994873046875
1667825243432095200,3.83309521484375,-0.947967529296875,0.0262298583984375,-0.4317779541015625
1667825243442102300,3.843102294921875,-0.9472808837890625,0.02178955078125,-0.436553955078125
1667825243452110300,3.8531103515625,-0.94219970703125,0.0123138427734375,-0.4352874755859375
1667825243462117000,3.8631171875,-0.9364776611328125,0.005157470703125,-0.4229736328125
1667825243472125000,3.873125,-0.92852783203125,0.002044677734375,-0.4168243408203125
1667825243482132200,3.88313232421875,-0.91162109375,-0.0023651123046875,-0.4098663330078125
1667825243492140000,3.89314013671875,-0.8973541259765625,-0.00689697265625,-0.39678955078125
1667825243502150700,3.903150634765625,-0.894134521484375,-0.0139007568359375,-0.389190673828125
1667825243512159000,3.913158935546875,-0.8903961181640625,-0.025146484375,-0.3867340087890625
1667825243522165800,3.923165771484375,-0.8915252685546875,-0.0360260009765625,-0.3902435302734375
1667825243532173800,3.933173828125,-0.9035186767578125,-0.0357208251953125,-0.4014129638671875
1667825243542180900,3.943180908203125,-0.920013427734375,-0.0290069580078125,-0.4109649658203125
1667825243552189000,3.95318896484375,-0.9361114501953125,-0.027740478515625,-0.418670654296875
1667825243562195700,3.96319580078125,-0.95709228515625,-0.03253173828125,-0.43096923828125
1667825243572203800,3.973203857421875,-0.9742889404296875,-0.03045654296875,-0.4471893310546875
1667825243582210800,3.9832109375,-0.984344482421875,-0.0156402587890625,-0.4587249755859375
1667825243592219000,3.993218994140625,-0.99432373046875,0.011627197265625,-0.4760589599609375
1667825243602225700,4.0032255859375,-0.99090576171875,0.0425567626953125,-0.4942779541015625
1667825243612234000,4.01323388671875,-0.9746856689453125,0.0633544921875,-0.4971160888671875
1667825243622240800,4.02324072265625,-0.956573486328125,0.0645294189453125,-0.487762451171875
1667825243632248800,4.033248779296875,-0.9365386962890625,0.055511474609375,-0.4736480712890625
1667825243642256000,4.043255859375,-0.919158935546875,0.0464935302734375,-0.448974609375
1667825243652264000,4.053263916015625,-0.908050537109375,0.0290069580078125,-0.4297637939453125
1667825243662270700,4.063270751953125,-0.9169769287109375,0.0196075439453125,-0.4331512451171875
1667825243672278800,4.07327880859375,-0.940155029296875,0.036834716796875,-0.4643096923828125
1667825243682285800,4.083285888671875,-0.9723358154296875,0.08447265625,-0.5229034423828125
1667825243692294000,4.0932939453125,-1.0042572021484375,0.14788818359375,-0.6013336181640625
1667825243702300700,4.10330078125,-1.026458740234375,0.204254150390625,-0.6792755126953125
1667825243712309000,4.11330908203125,-1.03912353515625,0.22821044921875,-0.7323455810546875
1667825243722315800,4.123315673828125,-1.042266845703125,0.2277374267578125,-0.7470550537109375
1667825243732323800,4.13332373046875,-1.01226806640625,0.2196197509765625,-0.73248291015625
1667825243742331000,4.143330810546875,-0.9697265625,0.21575927734375,-0.6865234375
1667825243752339000,4.1533388671875,-0.9135894775390625,0.20489501953125,-0.63848876953125
1667825243762345700,4.163345703125,-0.8602447509765625,0.184234619140625,-0.6099395751953125
1667825243772353800,4.173353759765625,-0.7987823486328125,0.163848876953125,-0.5777740478515625
1667825243782360800,4.18336083984375,-0.7481689453125,0.1416473388671875,-0.56390380859375
1667825243792369000,4.193368896484375,-0.73529052734375,0.1120452880859375,-0.5755767822265625
1667825243802375700,4.203375732421875,-0.70709228515625,0.067413330078125,-0.5863037109375
1667825243812384000,4.213384033203125,-0.679443359375,0.0133819580078125,-0.5862274169921875
1667825243822390800,4.223390869140625,-0.67926025390625,-0.0380859375,-0.5795745849609375
1667825243832398800,4.23339892578125,-0.6887969970703125,-0.08251953125,-0.5815887451171875
1667825243842406000,4.243406005859375,-0.6925048828125,-0.1217803955078125,-0.5795745849609375
1667825243852414000,4.2534140625,-0.7061920166015625,-0.1395263671875,-0.5750885009765625
1667825243862420700,4.263420654296875,-0.716461181640625,-0.131561279296875,-0.565185546875
1667825243872428800,4.2734287109375,-0.7294769287109375,-0.111419677734375,-0.562408447265625
1667825243882435800,4.283435791015625,-0.7456207275390625,-0.0908966064453125,-0.55938720703125
1667825243892444000,4.29344384765625,-0.7628326416015625,-0.080413818359375,-0.5511474609375
1667825243902450700,4.30345068359375,-0.782958984375,-0.085662841796875,-0.5427398681640625
1667825243912459000,4.313458984375,-0.8010711669921875,-0.0988616943359375,-0.5326690673828125
1667825243922465800,4.3234658203125,-0.8053131103515625,-0.103851318359375,-0.5108489990234375
1667825243932473900,4.333473876953125,-0.804595947265625,-0.0934906005859375,-0.4945526123046875
1667825243942481000,4.34348095703125,-0.8065338134765625,-0.084991455078125,-0.480865478515625
1667825243952489000,4.353489013671875,-0.8134765625,-0.0679473876953125,-0.463775634765625
1667825243962495700,4.363495849609375,-0.8231201171875,-0.0474700927734375,-0.4502716064453125
1667825243972503800,4.37350390625,-0.8341827392578125,-0.0290374755859375,-0.447509765625
1667825243982510800,4.3835107421875,-0.8443450927734375,-0.0166015625,-0.4537353515625
1667825243992519000,4.393518798828125,-0.851776123046875,-0.0122528076171875,-0.4661407470703125
1667825244002525700,4.403525634765625,-0.85595703125,-0.0128021240234375,-0.475433349609375
1667825244012534000,4.413533935546875,-0.8601226806640625,-0.014495849609375,-0.4746856689453125
1667825244022540800,4.423540771484375,-0.860748291015625,-0.01568603515625,-0.47509765625
1667825244032548900,4.433548828125,-0.8631439208984375,-0.0117034912109375,-0.479583740234375
1667825244042556000,4.443555908203125,-0.8647308349609375,0.0008697509765625,-0.4860992431640625
1667825244052564000,4.45356396484375,-0.870880126953125,0.017852783203125,-0.4982452392578125
1667825244062570800,4.46357080078125,-0.8865966796875,0.0448455810546875,-0.5178985595703125
1667825244072578800,4.473578857421875,-0.8943634033203125,0.0756988525390625,-0.541229248046875
1667825244082585900,4.4835859375,-0.90673828125,0.11151123046875,-0.5656890869140625
1667825244092594000,4.493593994140625,-0.9132843017578125,0.1484222412109375,-0.58514404296875
1667825244102600700,4.5036005859375,-0.89984130859375,0.180572509765625,-0.5964202880859375
1667825244112609000,4.513609130859375,-0.8722991943359375,0.2020721435546875,-0.59490966796875
1667825244122615800,4.52361572265625,-0.8414459228515625,0.2133331298828125,-0.5809173583984375
1667825244132624000,4.533623779296875,-0.7969512939453125,0.2098388671875,-0.555267333984375
1667825244142631000,4.543630859375,-0.7566070556640625,0.1982421875,-0.526947021484375
1667825244152639000,4.553638916015625,-0.7366485595703125,0.189422607421875,-0.5128021240234375
1667825244162645800,4.563645751953125,-0.74774169921875,0.1833343505859375,-0.5312957763671875
1667825244172653800,4.57365380859375,-0.773193359375,0.1896820068359375,-0.5588226318359375
1667825244182660900,4.583660888671875,-0.7759552001953125,0.1955108642578125,-0.5750732421875
1667825244192667600,4.593667724609375,-0.772247314453125,0.192230224609375,-0.58416748046875
1667825244202675700,4.60367578125,-0.786407470703125,0.183013916015625,-0.592620849609375
1667825244212682800,4.613682861328125,-0.79730224609375,0.1790313720703125,-0.6008453369140625
1667825244222690800,4.62369091796875,-0.8040618896484375,0.185546875,-0.6048126220703125
1667825244232697600,4.633697509765625,-0.803497314453125,0.195556640625,-0.605224609375
1667825244242706000,4.643705810546875,-0.8032684326171875,0.19793701171875,-0.60650634765625
1667825244252712700,4.653712646484375,-0.8149566650390625,0.1970977783203125,-0.6000518798828125
1667825244262720800,4.663720703125,-0.8255767822265625,0.1888427734375,-0.583404541015625
1667825244272727800,4.673727783203125,-0.8262786865234375,0.169830322265625,-0.5693817138671875
1667825244282735900,4.68373583984375,-0.8292236328125,0.14935302734375,-0.55694580078125
1667825244292742700,4.69374267578125,-0.8322906494140625,0.1294097900390625,-0.5350189208984375
1667825244302750700,4.703750732421875,-0.83563232421875,0.1104583740234375,-0.5186309814453125
1667825244312757800,4.7137578125,-0.841552734375,0.1014251708984375,-0.508270263671875
1667825244322765800,4.723765869140625,-0.8433074951171875,0.10064697265625,-0.4984588623046875
1667825244332772600,4.733772705078125,-0.83929443359375,0.0953521728515625,-0.4825286865234375
1667825244342781000,4.743781005859375,-0.8392181396484375,0.0900726318359375,-0.462799072265625
1667825244352787700,4.75378759765625,-0.836334228515625,0.0852508544921875,-0.4432830810546875
1667825244362795800,4.763795654296875,-0.830413818359375,0.082550048828125,-0.4246063232421875
1667825244372802800,4.773802734375,-0.82904052734375,0.073944091796875,-0.4095916748046875
1667825244382811000,4.783810791015625,-0.832427978515625,0.06439208984375,-0.3949432373046875
1667825244392817700,4.793817626953125,-0.8327178955078125,0.05377197265625,-0.378448486328125
1667825244402825700,4.80382568359375,-0.8413848876953125,0.045867919921875,-0.3708343505859375
1667825244412832800,4.813832763671875,-0.8525390625,0.043792724609375,-0.3700408935546875
1667825244422840800,4.8238408203125,-0.858428955078125,0.0417938232421875,-0.37835693359375
1667825244432847600,4.83384765625,-0.8647308349609375,0.037933349609375,-0.38714599609375
1667825244442856000,4.84385595703125,-0.866912841796875,0.0277099609375,-0.3930816650390625
1667825244452862700,4.85386279296875,-0.870758056640625,0.0134124755859375,-0.402374267578125
1667825244462870800,4.863870849609375,-0.868316650390625,0.001617431640625,-0.4037628173828125
1667825244472877800,4.8738779296875,-0.85888671875,-0.0077362060546875,-0.392120361328125
1667825244482886000,4.883885986328125,-0.8589019775390625,-0.015411376953125,-0.38348388671875
1667825244492892700,4.893892578125,-0.85272216796875,-0.0204010009765625,-0.3732147216796875
1667825244502897000,4.90389697265625,-0.8410186767578125,-0.0279388427734375,-0.360260009765625
1667825244512903700,4.913903564453125,-0.839324951171875,-0.0353851318359375,-0.3580474853515625
1667825244522911700,4.923911865234375,-0.83746337890625,-0.040435791015625,-0.357391357421875
1667825244532918800,4.933918701171875,-0.840301513671875,-0.047027587890625,-0.3597412109375
1667825244542926800,4.9439267578125,-0.8602752685546875,-0.0493011474609375,-0.3729248046875
1667825244552933600,4.95393359375,-0.88006591796875,-0.042266845703125,-0.3844146728515625
1667825244562941700,4.963941650390625,-0.904144287109375,-0.0421600341796875,-0.393310546875
1667825244572948700,4.97394873046875,-0.9366302490234375,-0.0416259765625,-0.41455078125
1667825244582956800,4.983956787109375,-0.9658660888671875,-0.02703857421875,-0.4373779296875
1667825244592963600,4.993963623046875,-0.9939727783203125,-0.0060577392578125,-0.4547271728515625
1667825244602972000,5.003971923828125,-1.03033447265625,0.0207977294921875,-0.475006103515625
1667825244612978700,5.013978759765625,-1.0634613037109375,0.0540618896484375,-0.493377685546875
1667825244622986800,5.02398681640625,-1.0819549560546875,0.0877838134765625,-0.507537841796875
1667825244632993800,5.033993896484375,-1.09637451171875,0.116912841796875,-0.5198516845703125
1667825244643001900,5.044001953125,-1.09075927734375,0.134368896484375,-0.52001953125
1667825244653008600,5.054008544921875,-1.0716094970703125,0.1348876953125,-0.49932861328125
1667825244663016700,5.0640166015625,-1.051849365234375,0.1238555908203125,-0.47265625
1667825244673023700,5.074023681640625,-1.0422515869140625,0.108673095703125,-0.4427642822265625
1667825244683031800,5.08403173828125,-1.0413665771484375,0.0827484130859375,-0.42059326171875
1667825244693038600,5.09403857421875,-1.0653076171875,0.05145263671875,-0.4169158935546875
1667825244703047000,5.104046875,-1.1084442138671875,0.0521392822265625,-0.4574432373046875
1667825244713053700,5.1140537109375,-1.1411895751953125,0.105072021484375,-0.553375244140625
1667825244723061800,5.124061767578125,-1.159637451171875,0.18768310546875,-0.67108154296875
1667825244733068800,5.13406884765625,-1.166839599609375,0.2458953857421875,-0.76348876953125
1667825244743076900,5.144076904296875,-1.1716156005859375,0.26416015625,-0.81378173828125
1667825244753083600,5.154083740234375,-1.160186767578125,0.2548980712890625,-0.8251190185546875
1667825244763091700,5.164091796875,-1.119354248046875,0.243408203125,-0.801971435546875
1667825244773098800,5.1740986328125,-1.067962646484375,0.2354278564453125,-0.7715606689453125
1667825244783106800,5.18410693359375,-1.0037689208984375,0.21966552734375,-0.743377685546875
1667825244793113600,5.194113525390625,-0.913970947265625,0.204315185546875,-0.697845458984375
1667825244803122000,5.204121826171875,-0.809814453125,0.184326171875,-0.6451416015625
1667825244813128700,5.214128662109375,-0.741851806640625,0.1497802734375,-0.62762451171875
1667825244823136800,5.22413671875,-0.6859893798828125,0.107452392578125,-0.6075592041015625
1667825244833143800,5.234143798828125,-0.6251983642578125,0.0647125244140625,-0.5853424072265625
1667825244843152000,5.24415185546875,-0.582275390625,0.023193359375,-0.5678863525390625
1667825244853158700,5.25415869140625,-0.55712890625,-0.0195159912109375,-0.552459716796875
1667825244863166700,5.264166748046875,-0.5426788330078125,-0.061981201171875,-0.540924072265625
1667825244873173800,5.274173828125,-0.5394134521484375,-0.1023712158203125,-0.53570556640625
1667825244883181800,5.284181884765625,-0.54730224609375,-0.1332550048828125,-0.53179931640625
1667825244893188600,5.294188720703125,-0.5628814697265625,-0.15350341796875,-0.523223876953125
1667825244903197000,5.304197021484375,-0.576812744140625,-0.1650543212890625,-0.515594482421875
1667825244913203700,5.31420361328125,-0.59796142578125,-0.174652099609375,-0.517486572265625
1667825244923211800,5.324211669921875,-0.6208038330078125,-0.184326171875,-0.5169219970703125
1667825244933218800,5.33421875,-0.639892578125,-0.19146728515625,-0.52081298828125
1667825244943227000,5.344226806640625,-0.6662750244140625,-0.185211181640625,-0.534149169921875
1667825244953233700,5.354233642578125,-0.693756103515625,-0.160247802734375,-0.551116943359375
1667825244963241700,5.36424169921875,-0.7127685546875,-0.129364013671875,-0.5610504150390625
1667825244973248800,5.374248779296875,-0.7342987060546875,-0.09820556640625,-0.5616912841796875
1667825244983256800,5.3842568359375,-0.75750732421875,-0.05902099609375,-0.5620269775390625
1667825244993263600,5.394263671875,-0.774658203125,-0.0156707763671875,-0.56243896484375
1667825245003272000,5.40427197265625,-0.7894134521484375,0.016326904296875,-0.56427001953125
1667825245013278700,5.41427880859375,-0.8078155517578125,0.0263824462890625,-0.5616455078125
1667825245023286800,5.424286865234375,-0.822357177734375,0.0281829833984375,-0.5606842041015625
1667825245033293800,5.4342939453125,-0.8295440673828125,0.0341339111328125,-0.55670166015625
1667825245043302000,5.444302001953125,-0.8309173583984375,0.0414886474609375,-0.5466766357421875
1667825245053308700,5.45430859375,-0.8268280029296875,0.0440673828125,-0.53619384765625
1667825245063316700,5.464316650390625,-0.8155975341796875,0.0409088134765625,-0.529388427734375
1667825245073323800,5.47432373046875,-0.8008575439453125,0.0417327880859375,-0.5235137939453125
1667825245083330800,5.484330810546875,-0.7863922119140625,0.0411529541015625,-0.5195465087890625
1667825245093338600,5.494338623046875,-0.771759033203125,0.030517578125,-0.5155487060546875
1667825245103347000,5.504346923828125,-0.7603912353515625,0.00970458984375,-0.5175018310546875
1667825245113353700,5.514353759765625,-0.7603912353515625,-0.0071868896484375,-0.532501220703125
1667825245123360800,5.52436083984375,-0.761932373046875,-0.010894775390625,-0.54852294921875
1667825245133368800,5.534368896484375,-0.759246826171875,-0.009368896484375,-0.55975341796875
1667825245143376000,5.5443759765625,-0.748016357421875,-0.01275634765625,-0.574432373046875
1667825245153383700,5.5543837890625,-0.7292327880859375,-0.0145263671875,-0.586029052734375
1667825245163391000,5.564390869140625,-0.7030181884765625,-0.0131072998046875,-0.587005615234375
1667825245173398800,5.574398681640625,-0.6809539794921875,0.0009613037109375,-0.590667724609375
1667825245183405800,5.58440576171875,-0.6732025146484375,0.03143310546875,-0.5969085693359375
1667825245193413600,5.59441357421875,-0.681640625,0.069610595703125,-0.6137542724609375
1667825245203421000,5.6044208984375,-0.691009521484375,0.0979766845703125,-0.6259307861328125
1667825245213428700,5.6144287109375,-0.6988372802734375,0.106048583984375,-0.6229248046875
1667825245223435800,5.624435791015625,-0.7034149169921875,0.0987396240234375,-0.612091064453125
1667825245233443800,5.63444384765625,-0.6946258544921875,0.087799072265625,-0.5953826904296875
1667825245243451000,5.644450927734375,-0.68109130859375,0.0810699462890625,-0.5810089111328125
1667825245253458700,5.654458740234375,-0.67877197265625,0.073883056640625,-0.5719757080078125
1667825245263466000,5.664466064453125,-0.69952392578125,0.067626953125,-0.5769805908203125
1667825245273473800,5.674473876953125,-0.73358154296875,0.070343017578125,-0.5859527587890625
1667825245283480800,5.684480712890625,-0.7632293701171875,0.086883544921875,-0.6006927490234375
1667825245293488600,5.694488525390625,-0.794586181640625,0.1178436279296875,-0.6268310546875
1667825245303496000,5.704495849609375,-0.824737548828125,0.154083251953125,-0.6432952880859375
1667825245313503700,5.714503662109375,-0.853179931640625,0.180267333984375,-0.65301513671875
1667825245323510800,5.7245107421875,-0.8749847412109375,0.1950225830078125,-0.6623382568359375
1667825245333518800,5.734518798828125,-0.8864288330078125,0.2082366943359375,-0.65509033203125
1667825245343526000,5.74452587890625,-0.892608642578125,0.2100982666015625,-0.641937255859375
1667825245353533700,5.75453369140625,-0.896026611328125,0.19854736328125,-0.6217803955078125
1667825245363541000,5.764541015625,-0.886749267578125,0.183074951171875,-0.586151123046875
1667825245373548800,5.774548828125,-0.8662109375,0.1651611328125,-0.5518951416015625
1667825245383555800,5.784555908203125,-0.8518829345703125,0.143585205078125,-0.5214691162109375
1667825245393563600,5.794563720703125,-0.8386993408203125,0.1178741455078125,-0.4904327392578125
1667825245403571000,5.804571044921875,-0.8336944580078125,0.0944976806640625,-0.4671173095703125
1667825245413578800,5.814578857421875,-0.8379364013671875,0.0806427001953125,-0.4604339599609375
1667825245423585800,5.824585693359375,-0.8497161865234375,0.07586669921875,-0.462799072265625
1667825245433593900,5.83459375,-0.8582305908203125,0.066650390625,-0.46343994140625
1667825245443601000,5.844600830078125,-0.86822509765625,0.0561370849609375,-0.4676971435546875
1667825245453608700,5.854608642578125,-0.88140869140625,0.0515899658203125,-0.4693756103515625
1667825245463616000,5.864615966796875,-0.8878021240234375,0.046234130859375,-0.4737701416015625
1667825245473623800,5.874623779296875,-0.901580810546875,0.04095458984375,-0.470794677734375
1667825245483630800,5.884630859375,-0.910736083984375,0.0336456298828125,-0.470458984375
1667825245493638700,5.894638671875,-0.9146575927734375,0.0258941650390625,-0.4677581787109375
1667825245503650000,5.904650146484375,-0.9228515625,0.024627685546875,-0.461669921875
1667825245513658000,5.914658203125,-0.92889404296875,0.02606201171875,-0.461456298828125
1667825245523665000,5.924664794921875,-0.9300384521484375,0.026702880859375,-0.4661102294921875
1667825245533673000,5.9346728515625,-0.9254913330078125,0.0252532958984375,-0.471343994140625
1667825245543680000,5.944679931640625,-0.9167327880859375,0.021087646484375,-0.481536865234375
1667825245553688000,5.95468798828125,-0.902313232421875,0.011871337890625,-0.4866180419921875
1667825245563694800,5.96469482421875,-0.885040283203125,-0.0030975341796875,-0.478973388671875
1667825245573703200,5.974703125,-0.869415283203125,-0.0255279541015625,-0.462554931640625
1667825245583710000,5.9847099609375,-0.8535003662109375,-0.048614501953125,-0.4509429931640625
1667825245593718000,5.994718017578125,-0.8397979736328125,-0.062255859375,-0.44622802734375
1667825245603725000,6.00472509765625,-0.823333740234375,-0.0640106201171875,-0.4439849853515625
1667825245613733000,6.014733154296875,-0.8134002685546875,-0.0607147216796875,-0.44097900390625
1667825245623740000,6.024739990234375,-0.8044281005859375,-0.0641937255859375,-0.4292755126953125
1667825245633748000,6.034748046875,-0.8022918701171875,-0.0742645263671875,-0.4182891845703125
1667825245643755000,6.044755126953125,-0.8067169189453125,-0.081512451171875,-0.4138641357421875
1667825245653763000,6.05476318359375,-0.81646728515625,-0.0807037353515625,-0.414886474609375
1667825245663769900,6.064769775390625,-0.83349609375,-0.0733795166015625,-0.422210693359375
1667825245673778200,6.074778076171875,-0.8524627685546875,-0.0638275146484375,-0.4351806640625
1667825245683785000,6.084784912109375,-0.873565673828125,-0.044830322265625,-0.45556640625
1667825245693793000,6.09479296875,-0.8920135498046875,-0.0148468017578125,-0.4833221435546875
1667825245703800000,6.104800048828125,-0.90447998046875,0.0238800048828125,-0.51019287109375
1667825245713808100,6.11480810546875,-0.91033935546875,0.067047119140625,-0.5316925048828125
1667825245723815000,6.12481494140625,-0.9144744873046875,0.0984649658203125,-0.5398406982421875
1667825245733823000,6.134822998046875,-0.9127655029296875,0.1111602783203125,-0.535919189453125
1667825245743830000,6.144830078125,-0.902435302734375,0.1077728271484375,-0.5251617431640625
1667825245753838000,6.154838134765625,-0.8930511474609375,0.1004638671875,-0.51580810546875
1667825245763844900,6.164844970703125,-0.8944549560546875,0.0941619873046875,-0.5015106201171875
1667825245773853200,6.174853271484375,-0.906707763671875,0.085479736328125,-0.5023956298828125
1667825245783860000,6.18485986328125,-0.9191741943359375,0.0823974609375,-0.5267791748046875
1667825245793868000,6.194867919921875,-0.932037353515625,0.1026611328125,-0.585540771484375
1667825245803875000,6.204875,-0.9560394287109375,0.1484832763671875,-0.6627960205078125
1667825245813883100,6.214883056640625,-0.982635498046875,0.186004638671875,-0.7189178466796875
1667825245823890000,6.224889892578125,-1.00927734375,0.1896820068359375,-0.7641143798828125
1667825245833898000,6.23489794921875,-1.026458740234375,0.1831817626953125,-0.7954864501953125
1667825245843905000,6.244905029296875,-1.0145111083984375,0.176666259765625,-0.7967071533203125
1667825245853913000,6.2549130859375,-0.9893951416015625,0.1607666015625,-0.791015625
1667825245863919900,6.264919921875,-0.961181640625,0.1421051025390625,-0.77325439453125
1667825245873928200,6.27492822265625,-0.9181671142578125,0.1201019287109375,-0.74261474609375
1667825245883935000,6.28493505859375,-0.872161865234375,0.0976409912109375,-0.7183074951171875
1667825245893943000,6.294943115234375,-0.8314361572265625,0.0819854736328125,-0.688232421875
1667825245903950000,6.3049501953125,-0.7997894287109375,0.059356689453125,-0.6649932861328125
1667825245913958100,6.314958251953125,-0.7845458984375,0.0242462158203125,-0.646240234375
1667825245923965000,6.32496484375,-0.773681640625,-0.0111541748046875,-0.6272125244140625
1667825245933973000,6.334972900390625,-0.7545166015625,-0.034820556640625,-0.606201171875
1667825245943980000,6.34497998046875,-0.73809814453125,-0.0496673583984375,-0.5976104736328125
1667825245953988000,6.354988037109375,-0.7272491455078125,-0.063446044921875,-0.5881500244140625
1667825245963995000,6.364994873046875,-0.718475341796875,-0.0799407958984375,-0.5697174072265625
1667825245974003200,6.375003173828125,-0.71685791015625,-0.0966796875,-0.55145263671875
1667825245984010000,6.385010009765625,-0.7150726318359375,-0.1125030517578125,-0.5258636474609375
1667825245994018000,6.39501806640625,-0.710113525390625,-0.12725830078125,-0.49676513671875
1667825246004025000,6.405025146484375,-0.701751708984375,-0.13507080078125,-0.4769134521484375
1667825246014033200,6.415033203125,-0.69390869140625,-0.13433837890625,-0.4648590087890625
1667825246024040000,6.4250400390625,-0.6912384033203125,-0.1331634521484375,-0.453521728515625
1667825246034048000,6.435048095703125,-0.6949462890625,-0.130859375,-0.444427490234375
1667825246044055000,6.445054931640625,-0.700836181640625,-0.122589111328125,-0.443572998046875
1667825246054063000,6.45506298828125,-0.711578369140625,-0.10662841796875,-0.4559173583984375
1667825246064070000,6.46506982421875,-0.72509765625,-0.09100341796875,-0.4781646728515625
1667825246074078200,6.475078125,-0.74560546875,-0.087860107421875,-0.497528076171875
1667825246084085000,6.4850849609375,-0.7714996337890625,-0.091766357421875,-0.5106201171875
1667825246094093000,6.495093017578125,-0.7975006103515625,-0.10009765625,-0.517303466796875
1667825246104100000,6.50510009765625,-0.828582763671875,-0.1002960205078125,-0.5261993408203125
1667825246114108200,6.515108154296875,-0.8641357421875,-0.0768890380859375,-0.5506744384765625
1667825246124115000,6.525114990234375,-0.895660400390625,-0.0329132080078125,-0.5829925537109375
1667825246134123000,6.535123046875,-0.92156982421875,0.01483154296875,-0.606719970703125
1667825246144130000,6.545130126953125,-0.9454498291015625,0.0528411865234375,-0.627777099609375
1667825246154138000,6.55513818359375,-0.962158203125,0.083343505859375,-0.6396942138671875
1667825246164145000,6.565144775390625,-0.9616546630859375,0.1133880615234375,-0.64154052734375
1667825246174153200,6.5751533203125,-0.947296142578125,0.1427154541015625,-0.6434783935546875
1667825246184160000,6.585159912109375,-0.9164276123046875,0.1683197021484375,-0.637451171875
1667825246194168000,6.59516796875,-0.877685546875,0.1870574951171875,-0.62481689453125
1667825246204175000,6.605175048828125,-0.8345947265625,0.195831298828125,-0.6018524169921875
1667825246214183200,6.61518310546875,-0.7852325439453125,0.18890380859375,-0.5682830810546875
1667825246224190000,6.62518994140625,-0.7413330078125,0.1748504638671875,-0.53936767578125
1667825246234198000,6.635197998046875,-0.7013702392578125,0.1605377197265625,-0.517730712890625
1667825246244205000,6.645205078125,-0.674591064453125,0.1449737548828125,-0.5080718994140625
1667825246254213000,6.655213134765625,-0.6734619140625,0.1311187744140625,-0.5036773681640625
1667825246264220000,6.665219970703125,-0.6845703125,0.11590576171875,-0.5001373291015625
1667825246274228200,6.675228271484375,-0.70953369140625,0.1013641357421875,-0.5087127685546875
1667825246284235000,6.685235107421875,-0.7380828857421875,0.094970703125,-0.52703857421875
1667825246294243000,6.6952431640625,-0.75860595703125,0.0992279052734375,-0.5482635498046875
1667825246304250000,6.70525,-0.7824859619140625,0.116363525390625,-0.57452392578125
1667825246314258200,6.715258056640625,-0.816192626953125,0.1482696533203125,-0.5958404541015625
1667825246324265000,6.725264892578125,-0.8480377197265625,0.1833953857421875,-0.616607666015625
1667825246334272300,6.735272216796875,-0.8762054443359375,0.211761474609375,-0.635650634765625
1667825246344280000,6.745280029296875,-0.8983917236328125,0.2331695556640625,-0.643402099609375
1667825246354288000,6.7552880859375,-0.9096832275390625,0.243682861328125,-0.63525390625
1667825246364295000,6.765294921875,-0.902679443359375,0.23614501953125,-0.61187744140625
1667825246374303000,6.775302978515625,-0.881011962890625,0.204833984375,-0.5652313232421875
1667825246384310000,6.78531005859375,-0.8612518310546875,0.166900634765625,-0.518768310546875
1667825246394317000,6.795317138671875,-0.84332275390625,0.134674072265625,-0.47259521484375
1667825246404325000,6.8053251953125,-0.823699951171875,0.1056365966796875,-0.4407196044921875
1667825246414332200,6.815332275390625,-0.8106842041015625,0.0861663818359375,-0.4202423095703125
1667825246424340000,6.825340087890625,-0.8011932373046875,0.073638916015625,-0.4072113037109375
1667825246434347300,6.83534716796875,-0.7946319580078125,0.067840576171875,-0.398193359375
1667825246444355000,6.84535498046875,-0.786651611328125,0.062652587890625,-0.3842620849609375
1667825246454362000,6.855362060546875,-0.7837371826171875,0.0467681884765625,-0.3697967529296875
1667825246464370000,6.865369873046875,-0.79425048828125,0.0213775634765625,-0.35992431640625
1667825246474377200,6.875377197265625,-0.80413818359375,0.0037078857421875,-0.359161376953125
1667825246484385000,6.885385009765625,-0.816253662109375,0.0018768310546875,-0.36419677734375
1667825246494392000,6.89539208984375,-0.829620361328125,0.009735107421875,-0.3697662353515625
1667825246504396800,6.905396728515625,-0.852264404296875,0.01397705078125,-0.37872314453125
1667825246514403800,6.91540380859375,-0.87298583984375,0.0124359130859375,-0.382293701171875
1667825246524412000,6.925411865234375,-0.8859405517578125,0.004913330078125,-0.38128662109375
1667825246534419000,6.9354189453125,-0.89837646484375,0.001251220703125,-0.382781982421875
1667825246544426800,6.9454267578125,-0.9067840576171875,0.0081024169921875,-0.3843231201171875
1667825246554433800,6.955433837890625,-0.918182373046875,0.018218994140625,-0.3845367431640625
1667825246564441600,6.965441650390625,-0.924896240234375,0.0210723876953125,-0.3859100341796875
1667825246574449000,6.975448974609375,-0.93353271484375,0.0200958251953125,-0.3900604248046875
1667825246584456700,6.985456787109375,-0.9459075927734375,0.0191497802734375,-0.39520263671875
1667825246594463700,6.995463623046875,-0.9555206298828125,0.0089111328125,-0.3897857666015625
1667825246604471800,7.005471923828125,-0.96044921875,-0.0093841552734375,-0.385345458984375
1667825246614478800,7.015478759765625,-0.95941162109375,-0.024627685546875,-0.37744140625
1667825246624486700,7.025486572265625,-0.9484405517578125,-0.033660888671875,-0.3713531494140625
1667825246634494000,7.035493896484375,-0.940704345703125,-0.0342254638671875,-0.36199951171875
1667825246644501800,7.045501708984375,-0.9322662353515625,-0.0394134521484375,-0.3522186279296875
1667825246654508800,7.0555087890625,-0.92919921875,-0.04791259765625,-0.3501739501953125
1667825246664516600,7.0655166015625,-0.930694580078125,-0.0517425537109375,-0.3552703857421875
1667825246674524000,7.07552392578125,-0.9413604736328125,-0.0422821044921875,-0.3724822998046875
1667825246684531700,7.08553173828125,-0.952789306640625,-0.020782470703125,-0.394683837890625
1667825246694538800,7.095538818359375,-0.960479736328125,-0.0004425048828125,-0.412445068359375
1667825246704546800,7.105546875,-0.966888427734375,0.009185791015625,-0.42169189453125
1667825246714553900,7.115553955078125,-0.9665374755859375,0.0112152099609375,-0.43316650390625
1667825246724561700,7.125561767578125,-0.9624176025390625,0.028350830078125,-0.4458160400390625
1667825246734569000,7.13556884765625,-0.939300537109375,0.0577392578125,-0.45751953125
1667825246744576800,7.14557666015625,-0.90869140625,0.0813446044921875,-0.463592529296875
1667825246754583800,7.155583740234375,-0.8833465576171875,0.0765838623046875,-0.4490814208984375
1667825246764591600,7.165591552734375,-0.8781280517578125,0.0458831787109375,-0.4160003662109375
1667825246774599000,7.175598876953125,-0.89794921875,0.0120697021484375,-0.401092529296875
1667825246784606700,7.185606689453125,-0.9350128173828125,0.0061492919921875,-0.4246063232421875
1667825246794613800,7.19561376953125,-0.9588165283203125,0.0345306396484375,-0.4913330078125
1667825246804621800,7.205621826171875,-0.980133056640625,0.097198486328125,-0.5953369140625
1667825246814628900,7.21562890625,-0.994598388671875,0.168365478515625,-0.70269775390625
1667825246824636700,7.22563671875,-1.0145263671875,0.2135009765625,-0.7931976318359375
1667825246834644000,7.23564404296875,-1.0428466796875,0.229644775390625,-0.843902587890625
1667825246844651800,7.24565185546875,-1.0412445068359375,0.2212982177734375,-0.86376953125
1667825246854658800,7.255658935546875,-1.01409912109375,0.20709228515625,-0.8671112060546875
1667825246864666600,7.26566650390625,-0.9793243408203125,0.1992034912109375,-0.8596954345703125
1667825246874674000,7.275673828125,-0.933807373046875,0.191497802734375,-0.84490966796875
1667825246884681700,7.285681640625,-0.88153076171875,0.1705322265625,-0.8206634521484375
1667825246894688800,7.295688720703125,-0.8300933837890625,0.1394500732421875,-0.79107666015625
1667825246904696600,7.305696533203125,-0.7805023193359375,0.1007232666015625,-0.7584075927734375
1667825246914704000,7.315703857421875,-0.752105712890625,0.063690185546875,-0.738525390625
1667825246924711700,7.325711669921875,-0.7359161376953125,0.0328826904296875,-0.72100830078125
1667825246934718700,7.33571875,-0.715087890625,0.005035400390625,-0.6965179443359375
1667825246944726800,7.345726806640625,-0.707550048828125,-0.0169219970703125,-0.68084716796875
1667825246954733800,7.35573388671875,-0.7148590087890625,-0.037353515625,-0.6725006103515625
1667825246964741600,7.36574169921875,-0.716339111328125,-0.0513458251953125,-0.6590118408203125
1667825246974749000,7.3757490234375,-0.7173614501953125,-0.055938720703125,-0.644287109375
1667825246984756700,7.3857568359375,-0.7149658203125,-0.0589599609375,-0.625823974609375
1667825246994763800,7.395763671875,-0.71221923828125,-0.0591278076171875,-0.6093292236328125
1667825247004771600,7.405771484375,-0.712127685546875,-0.058013916015625,-0.6013641357421875
1667825247014779000,7.41577880859375,-0.7152252197265625,-0.05584716796875,-0.5962982177734375
1667825247024786700,7.42578662109375,-0.7167816162109375,-0.049896240234375,-0.5911407470703125
1667825247034793700,7.435793701171875,-0.7140655517578125,-0.041229248046875,-0.5770263671875
1667825247044801800,7.4458017578125,-0.708770751953125,-0.0331573486328125,-0.56329345703125
1667825247054808800,7.455808837890625,-0.7048187255859375,-0.0220947265625,-0.5514068603515625
1667825247064816600,7.465816650390625,-0.6969146728515625,-0.0086212158203125,-0.5380706787109375
1667825247074824000,7.475823974609375,-0.694427490234375,-0.0019378662109375,-0.5345458984375
1667825247084831700,7.485831787109375,-0.6919708251953125,0.00006103515625,-0.5247802734375
1667825247094838800,7.4958388671875,-0.6856689453125,-0.0005035400390625,-0.5134429931640625
1667825247104846600,7.5058466796875,-0.6766357421875,0.0003204345703125,-0.5079803466796875
1667825247114854000,7.51585400390625,-0.6673583984375,0.01019287109375,-0.511474609375
1667825247124861700,7.52586181640625,-0.6605377197265625,0.0267486572265625,-0.5126495361328125
1667825247134868700,7.53586865234375,-0.6557159423828125,0.0379180908203125,-0.512939453125
1667825247144876800,7.545876708984375,-0.6610565185546875,0.0410003662109375,-0.519500732421875
1667825247154883800,7.5558837890625,-0.6753997802734375,0.0483856201171875,-0.538970947265625
1667825247164891600,7.5658916015625,-0.687530517578125,0.065521240234375,-0.566436767578125
1667825247174899000,7.57589892578125,-0.6876220703125,0.08209228515625,-0.5810699462890625
1667825247184906800,7.58590673828125,-0.67803955078125,0.0871124267578125,-0.5808563232421875
1667825247194913800,7.595913818359375,-0.668487548828125,0.088897705078125,-0.57684326171875
1667825247204921600,7.605921630859375,-0.6539154052734375,0.101715087890625,-0.5704803466796875
1667825247214929000,7.615928955078125,-0.6398773193359375,0.1202239990234375,-0.5578155517578125
1667825247224936700,7.625936767578125,-0.6277923583984375,0.124969482421875,-0.5517120361328125
1667825247234943700,7.63594384765625,-0.6240692138671875,0.121429443359375,-0.5450439453125
1667825247244951800,7.645951904296875,-0.6290283203125,0.1119232177734375,-0.539764404296875
1667825247254958800,7.655958740234375,-0.6551055908203125,0.1118011474609375,-0.5453948974609375
1667825247264966700,7.665966552734375,-0.68701171875,0.1175994873046875,-0.555206298828125
1667825247274974000,7.675973876953125,-0.7190399169921875,0.1259765625,-0.5841522216796875
1667825247284981800,7.685981689453125,-0.7600860595703125,0.1500396728515625,-0.61932373046875
1667825247294988800,7.69598876953125,-0.800445556640625,0.182373046875,-0.65118408203125
1667825247304996600,7.70599658203125,-0.831298828125,0.2109375,-0.6838836669921875
1667825247315004000,7.71600390625,-0.8652191162109375,0.230804443359375,-0.7029876708984375
1667825247325011700,7.72601171875,-0.89666748046875,0.240386962890625,-0.713653564453125
1667825247335018800,7.736018798828125,-0.9171600341796875,0.2395782470703125,-0.7135162353515625
1667825247345026800,7.74602685546875,-0.93701171875,0.2346649169921875,-0.7019195556640625
1667825247355033900,7.756033935546875,-0.94970703125,0.2268218994140625,-0.682464599609375
1667825247365041700,7.766041748046875,-0.9593963623046875,0.2145843505859375,-0.6703948974609375
1667825247375049000,7.776049072265625,-0.9637908935546875,0.2046966552734375,-0.65826416015625
1667825247385056800,7.786056884765625,-0.9684600830078125,0.1943359375,-0.64422607421875
1667825247395063800,7.796063720703125,-0.96905517578125,0.1774749755859375,-0.6295166015625
1667825247405071600,7.806071533203125,-0.9554901123046875,0.1622772216796875,-0.607269287109375
1667825247415079000,7.816078857421875,-0.93914794921875,0.150634765625,-0.5923004150390625
1667825247425086700,7.826086669921875,-0.9257965087890625,0.1374969482421875,-0.57525634765625
1667825247435093800,7.83609375,-0.9155731201171875,0.1129608154296875,-0.5528106689453125
1667825247445101800,7.846101806640625,-0.9000091552734375,0.083740234375,-0.5325469970703125
1667825247455108900,7.85610888671875,-0.8879241943359375,0.064239501953125,-0.5142364501953125
1667825247465116700,7.86611669921875,-0.874237060546875,0.0508270263671875,-0.5048370361328125
1667825247475124000,7.8761240234375,-0.855133056640625,0.044708251953125,-0.502593994140625
1667825247485131800,7.8861318359375,-0.832672119140625,0.0388031005859375,-0.5000457763671875
1667825247495138800,7.896138916015625,-0.8118896484375,0.0289459228515625,-0.488677978515625
1667825247505145900,7.906145751953125,-0.792144775390625,0.017425537109375,-0.4780731201171875
1667825247515152600,7.916152587890625,-0.771636962890625,0.0098724365234375,-0.4662322998046875
1667825247525160700,7.92616064453125,-0.7533416748046875,0.0052642822265625,-0.447021484375
1667825247535167700,7.936167724609375,-0.729034423828125,-0.0057220458984375,-0.42694091796875
1667825247545175800,7.94617578125,-0.7047271728515625,-0.0163116455078125,-0.4043731689453125
1667825247555182600,7.9561826171875,-0.677001953125,-0.0252685546875,-0.3780364990234375
1667825247565190700,7.966190673828125,-0.658782958984375,-0.0408782958984375,-0.3523712158203125
1667825247575197700,7.97619775390625,-0.6457366943359375,-0.063018798828125,-0.331024169921875
1667825247585205500,7.98620556640625,-0.6374359130859375,-0.0829315185546875,-0.3177337646484375
1667825247595212800,7.996212890625,-0.6467437744140625,-0.0909271240234375,-0.307769775390625
1667825247605220600,8.006220703125,-0.6690216064453125,-0.1014404296875,-0.30621337890625
1667825247615227600,8.0162275390625,-0.6986083984375,-0.1159210205078125,-0.3152313232421875
1667825247625235500,8.0262353515625,-0.73779296875,-0.1305389404296875,-0.3398284912109375
1667825247635242800,8.03624267578125,-0.785888671875,-0.123748779296875,-0.3818511962890625
1667825247645250600,8.04625048828125,-0.832733154296875,-0.085540771484375,-0.435638427734375
1667825247655257600,8.056257568359374,-0.8739471435546875,-0.032745361328125,-0.4884490966796875
1667825247665265700,8.066265625,-0.9134979248046875,0.01800537109375,-0.52764892578125
1667825247675272700,8.076272705078125,-0.9527435302734375,0.0451507568359375,-0.5471343994140625
1667825247685280500,8.086280517578125,-0.9997100830078125,0.0395660400390625,-0.5418548583984375
1667825247695287800,8.096287841796874,-1.07476806640625,0.0306854248046875,-0.542816162109375
1667825247705295600,8.106295654296876,-1.1461639404296875,0.05865478515625,-0.5792083740234375
1667825247715302700,8.116302734375,-1.178741455078125,0.1370391845703125,-0.6414337158203125
1667825247725310500,8.126310546875,-1.196746826171875,0.2235107421875,-0.687774658203125
1667825247735317800,8.13631787109375,-1.212127685546875,0.262969970703125,-0.704193115234375
1667825247745325600,8.14632568359375,-1.233245849609375,0.254913330078125,-0.703582763671875
1667825247755332600,8.15633251953125,-1.2391510009765625,0.247222900390625,-0.70379638671875
1667825247765340700,8.166340576171875,-1.2121124267578125,0.2600860595703125,-0.7119903564453125
1667825247775347700,8.17634765625,-1.15948486328125,0.2750244140625,-0.7140960693359375
1667825247785355500,8.18635546875,-1.1009521484375,0.26934814453125,-0.706146240234375
1667825247795362800,8.19636279296875,-1.0498504638671875,0.246307373046875,-0.6939239501953125
1667825247805370600,8.20637060546875,-1.00030517578125,0.2176513671875,-0.6970977783203125
1667825247815377700,8.216377685546876,-0.955596923828125,0.1929931640625,-0.7209320068359375
1667825247825385500,8.226385498046875,-0.9134063720703125,0.17138671875,-0.736724853515625
1667825247835392800,8.236392822265625,-0.8695831298828125,0.140960693359375,-0.749359130859375
1667825247845400600,8.246400634765624,-0.839385986328125,0.10382080078125,-0.75103759765625
1667825247855407600,8.25640771484375,-0.81634521484375,0.06976318359375,-0.7428131103515625
1667825247865415700,8.266415771484375,-0.784698486328125,0.0434417724609375,-0.7329559326171875
1667825247875422700,8.276422607421875,-0.75653076171875,0.027740478515625,-0.7211761474609375
1667825247885430500,8.286430419921874,-0.7354278564453125,0.0181121826171875,-0.6994171142578125
1667825247895437800,8.296437744140626,-0.7209625244140625,0.0065460205078125,-0.668792724609375
1667825247905445600,8.306445556640625,-0.71209716796875,-0.0091552734375,-0.63946533203125
1667825247915452700,8.31645263671875,-0.704376220703125,-0.0262908935546875,-0.614013671875
1667825247925460500,8.32646044921875,-0.687713623046875,-0.040679931640625,-0.589691162109375
1667825247935467800,8.3364677734375,-0.6716461181640625,-0.04541015625,-0.559814453125
1667825247945475600,8.3464755859375,-0.6632232666015625,-0.052093505859375,-0.5410614013671875
1667825247955482600,8.356482666015625,-0.6636505126953125,-0.064422607421875,-0.5246734619140625
1667825247965490700,8.36649072265625,-0.6595001220703125,-0.0745849609375,-0.5099029541015625
1667825247975497700,8.376497802734375,-0.6596832275390625,-0.0777740478515625,-0.507568359375
1667825247985505500,8.386505615234375,-0.6665496826171875,-0.0706939697265625,-0.516448974609375
1667825247995512800,8.396512939453125,-0.67779541015625,-0.0569610595703125,-0.5309906005859375
1667825248005520600,8.406520751953124,-0.700103759765625,-0.0446319580078125,-0.54107666015625
1667825248015527700,8.416527587890625,-0.716094970703125,-0.044189453125,-0.5505828857421875
1667825248025535500,8.426535400390625,-0.7245635986328125,-0.045745849609375,-0.5626068115234375
1667825248035542800,8.436542724609374,-0.7369232177734375,-0.043487548828125,-0.567779541015625
1667825248045550600,8.446550537109376,-0.7572174072265625,-0.0333099365234375,-0.5652923583984375
1667825248055557600,8.4565576171875,-0.787506103515625,-0.010406494140625,-0.5618438720703125
1667825248065565700,8.466565673828125,-0.8192291259765625,0.0151519775390625,-0.573333740234375
1667825248075572700,8.47657275390625,-0.8493499755859375,0.0422515869140625,-0.5932464599609375
1667825248085580500,8.48658056640625,-0.879608154296875,0.068878173828125,-0.6081085205078125
1667825248095587800,8.496587890625,-0.9088287353515625,0.086639404296875,-0.610443115234375
1667825248105595600,8.506595703125,-0.9339447021484375,0.091339111328125,-0.6059722900390625
1667825248115602700,8.516602783203124,-0.951324462890625,0.097991943359375,-0.608551025390625
1667825248125610500,8.526610595703126,-0.94927978515625,0.1186370849609375,-0.6221160888671875
1667825248135617800,8.53661767578125,-0.928619384765625,0.152557373046875,-0.6412200927734375
1667825248145625600,8.54662548828125,-0.9046783447265625,0.1854400634765625,-0.6483154296875
1667825248155632600,8.556632568359374,-0.8773193359375,0.1956787109375,-0.64410400390625
1667825248165640700,8.566640625,-0.8554229736328125,0.187652587890625,-0.6299896240234375
1667825248175647700,8.576647705078125,-0.8266143798828125,0.174072265625,-0.6055450439453125
1667825248185655600,8.586655517578125,-0.7955169677734375,0.162261962890625,-0.5889739990234375
1667825248195662800,8.596662841796874,-0.7635345458984375,0.1495819091796875,-0.5774078369140625
1667825248205670700,8.606670654296876,-0.7389068603515625,0.1305694580078125,-0.56768798828125
1667825248215677700,8.616677734375,-0.732666015625,0.11065673828125,-0.5675201416015625
1667825248225685500,8.626685546875,-0.7370758056640625,0.09906005859375,-0.576019287109375
1667825248235692800,8.63669287109375,-0.746429443359375,0.09735107421875,-0.5845794677734375
1667825248245700600,8.64670068359375,-0.7563934326171875,0.0968475341796875,-0.594879150390625
1667825248255707600,8.656707763671875,-0.7589263916015625,0.0964202880859375,-0.5969696044921875
1667825248265715700,8.6667158203125,-0.7528839111328125,0.10113525390625,-0.5943145751953125
1667825248275722800,8.67672265625,-0.7484893798828125,0.1133270263671875,-0.5795135498046875
1667825248285730600,8.68673046875,-0.7462158203125,0.12322998046875,-0.55517578125
1667825248295737900,8.69673779296875,-0.740203857421875,0.11993408203125,-0.5248565673828125
1667825248305745700,8.70674560546875,-0.739959716796875,0.1074981689453125,-0.506561279296875
1667825248315752700,8.716752685546876,-0.7445526123046875,0.1035919189453125,-0.4860382080078125
1667825248325760500,8.726760498046875,-0.7473602294921875,0.10467529296875,-0.4592437744140625
1667825248335767800,8.736767822265625,-0.7513275146484375,0.0981903076171875,-0.4473419189453125
1667825248345775600,8.746775634765624,-0.7472686767578125,0.081787109375,-0.4337615966796875
1667825248355782700,8.75678271484375,-0.7429046630859375,0.059539794921875,-0.419952392578125
1667825248365790700,8.766790771484375,-0.7367095947265625,0.0337371826171875,-0.4058074951171875
1667825248375797800,8.7767978515625,-0.7273101806640625,0.0120391845703125,-0.3974761962890625
1667825248385805600,8.7868056640625,-0.7285614013671875,-0.000946044921875,-0.3953857421875
1667825248395812900,8.796812744140626,-0.7332763671875,-0.0085601806640625,-0.3972930908203125
1667825248405820700,8.806820556640625,-0.7459564208984375,-0.0172882080078125,-0.4068603515625
1667825248415827700,8.81682763671875,-0.7657470703125,-0.0264892578125,-0.4237213134765625
1667825248425835500,8.82683544921875,-0.7812042236328125,-0.036163330078125,-0.4384002685546875
1667825248435842800,8.8368427734375,-0.7928009033203125,-0.041748046875,-0.4439239501953125
1667825248445850600,8.8468505859375,-0.81005859375,-0.05474853515625,-0.4516143798828125
1667825248455857700,8.856857666015625,-0.82470703125,-0.06683349609375,-0.464111328125
1667825248465865700,8.86686572265625,-0.83245849609375,-0.0662841796875,-0.4727325439453125
1667825248475872800,8.876872802734376,-0.8389892578125,-0.0555267333984375,-0.475250244140625
1667825248485880600,8.886880615234375,-0.8381500244140625,-0.0444183349609375,-0.475128173828125
1667825248495888000,8.896887939453125,-0.831573486328125,-0.037445068359375,-0.4671630859375
1667825248505895400,8.9068955078125,-0.829132080078125,-0.0308074951171875,-0.4496002197265625
1667825248515902500,8.91690234375,-0.8196563720703125,-0.02825927734375,-0.426300048828125
1667825248525910300,8.92691015625,-0.8071746826171875,-0.0316925048828125,-0.396240234375
1667825248535917600,8.93691748046875,-0.793304443359375,-0.0451507568359375,-0.362396240234375
1667825248545925400,8.94692529296875,-0.778076171875,-0.0639495849609375,-0.339508056640625
1667825248555932400,8.956932373046875,-0.7702178955078125,-0.0764923095703125,-0.321319580078125
1667825248565940500,8.9669404296875,-0.7678070068359375,-0.0830841064453125,-0.30865478515625
1667825248575947500,8.976947509765624,-0.7694549560546875,-0.09259033203125,-0.3040618896484375
1667825248585955300,8.986955322265626,-0.7837677001953125,-0.1015472412109375,-0.3165283203125
1667825248595962600,8.996962646484375,-0.80230712890625,-0.1021881103515625,-0.3316497802734375
1667825248605970400,9.006970458984375,-0.8184967041015625,-0.1027374267578125,-0.3430023193359375
1667825248615977500,9.0169775390625,-0.837799072265625,-0.10589599609375,-0.3584747314453125
1667825248625985300,9.0269853515625,-0.86602783203125,-0.099761962890625,-0.3907928466796875
1667825248635992600,9.03699267578125,-0.8983306884765625,-0.07440185546875,-0.4292449951171875
1667825248646000400,9.04700048828125,-0.93316650390625,-0.037322998046875,-0.46673583984375
1667825248656007400,9.05700732421875,-0.9675445556640625,0.0030975341796875,-0.5026092529296875
1667825248666015500,9.067015380859376,-0.9881439208984375,0.0416107177734375,-0.5322418212890625
1667825248676022500,9.0770224609375,-1.00177001953125,0.0698699951171875,-0.5585174560546875
1667825248686030300,9.0870302734375,-1.023223876953125,0.082183837890625,-0.5675201416015625
1667825248696037600,9.09703759765625,-1.053680419921875,0.0780181884765625,-0.5610809326171875
1667825248706045400,9.10704541015625,-1.087158203125,0.0726165771484375,-0.565521240234375
1667825248716052500,9.117052490234375,-1.12078857421875,0.0849761962890625,-0.5887451171875
1667825248726060300,9.127060302734375,-1.15814208984375,0.1110076904296875,-0.612060546875
1667825248736067600,9.137067626953124,-1.1932220458984375,0.13677978515625,-0.6370086669921875
1667825248746075400,9.147075439453126,-1.22125244140625,0.1692657470703125,-0.675628662109375
1667825248756082400,9.15708251953125,-1.2371063232421875,0.21759033203125,-0.7248382568359375
1667825248766090500,9.167090576171875,-1.2393798828125,0.2700653076171875,-0.7706146240234375
1667825248776097500,9.17709765625,-1.2209320068359375,0.3072662353515625,-0.7892608642578125
1667825248786105300,9.187105224609375,-1.19805908203125,0.3114776611328125,-0.794342041015625
1667825248796112600,9.197112548828125,-1.1611480712890625,0.295806884765625,-0.7966766357421875
1667825248806120400,9.207120361328125,-1.100067138671875,0.286590576171875,-0.7877655029296875
1667825248816127500,9.21712744140625,-1.0289154052734375,0.2810821533203125,-0.770538330078125
1667825248826135300,9.22713525390625,-0.9609222412109375,0.258575439453125,-0.7568359375
1667825248836142600,9.237142578125,-0.899932861328125,0.2165374755859375,-0.7423553466796875
1667825248846150400,9.247150390625,-0.8401641845703125,0.1724700927734375,-0.7182464599609375
1667825248856157400,9.257157470703126,-0.7843017578125,0.1321258544921875,-0.698760986328125
1667825248866165500,9.26716552734375,-0.736968994140625,0.09375,-0.687744140625
1667825248876172300,9.27717236328125,-0.69854736328125,0.0555419921875,-0.6778564453125
1667825248886180400,9.287180419921874,-0.669189453125,0.023040771484375,-0.65802001953125
1667825248896187400,9.2971875,-0.645477294921875,-0.005645751953125,-0.6346435546875
1667825248906195500,9.307195556640625,-0.62969970703125,-0.035797119140625,-0.6125335693359375
1667825248916202200,9.3172021484375,-0.615478515625,-0.0654296875,-0.5873565673828125
1667825248926210300,9.327210205078124,-0.60528564453125,-0.0925140380859375,-0.559478759765625
1667825248936217300,9.33721728515625,-0.600677490234375,-0.118988037109375,-0.5442657470703125
1667825248946225400,9.347225341796875,-0.593780517578125,-0.13629150390625,-0.5377960205078125
1667825248956232200,9.357232177734375,-0.58343505859375,-0.13720703125,-0.528900146484375
1667825248966240500,9.367240478515624,-0.5728302001953125,-0.12750244140625,-0.5139312744140625
1667825248976247300,9.377247314453125,-0.57086181640625,-0.127685546875,-0.4986114501953125
1667825248986255400,9.38725537109375,-0.5769500732421875,-0.1376190185546875,-0.4887237548828125
1667825248996262400,9.397262451171875,-0.5765838623046875,-0.1376800537109375,-0.468353271484375
1667825249006270500,9.4072705078125,-0.5813140869140625,-0.131561279296875,-0.451812744140625
1667825249016277200,9.41727734375,-0.5950469970703125,-0.14190673828125,-0.457305908203125
1667825249026285300,9.427285400390625,-0.6074676513671875,-0.1558074951171875,-0.4750213623046875
1667825249036292400,9.437292236328124,-0.629364013671875,-0.149658203125,-0.4887542724609375
1667825249046300400,9.447300537109374,-0.665740966796875,-0.130218505859375,-0.51300048828125
1667825249056307200,9.45730712890625,-0.71307373046875,-0.1079254150390625,-0.559417724609375
1667825249066315500,9.4673154296875,-0.7723846435546875,-0.0845794677734375,-0.608642578125
1667825249076322300,9.477322265625,-0.8199310302734375,-0.0582733154296875,-0.651397705078125
1667825249086330400,9.487330322265626,-0.856414794921875,-0.0285186767578125,-0.6850128173828125
1667825249096337400,9.49733740234375,-0.8917388916015625,0.007568359375,-0.7063446044921875
1667825249106345500,9.507345458984375,-0.9015960693359375,0.049896240234375,-0.720672607421875
1667825249116352300,9.517352294921874,-0.89739990234375,0.10052490234375,-0.73236083984375
1667825249126360300,9.5273603515625,-0.895111083984375,0.150665283203125,-0.73284912109375
1667825249136367400,9.537367431640625,-0.8787841796875,0.18157958984375,-0.72674560546875
1667825249146375400,9.54737548828125,-0.857330322265625,0.1942138671875,-0.7220916748046875
1667825249156382200,9.55738232421875,-0.842987060546875,0.194549560546875,-0.7149200439453125
1667825249166390500,9.567390625,-0.832550048828125,0.18304443359375,-0.7092742919921875
1667825249176397300,9.577397216796875,-0.8239593505859375,0.1717529296875,-0.71051025390625
1667825249186405400,9.5874052734375,-0.8245391845703125,0.1681060791015625,-0.712066650390625
1667825249196412400,9.597412353515624,-0.8196868896484375,0.1680450439453125,-0.7135772705078125
1667825249206420500,9.60742041015625,-0.8158416748046875,0.169525146484375,-0.719451904296875
1667825249216427300,9.61742724609375,-0.820648193359375,0.180023193359375,-0.72332763671875
1667825249226435300,9.627435302734375,-0.824493408203125,0.1929168701171875,-0.7180938720703125
1667825249236442400,9.6374423828125,-0.83642578125,0.1990509033203125,-0.7152252197265625
1667825249246450400,9.647450439453126,-0.84637451171875,0.1992950439453125,-0.7084197998046875
1667825249256457200,9.657457275390625,-0.85797119140625,0.1924896240234375,-0.6952667236328125
1667825249266465500,9.667465576171875,-0.8634490966796875,0.1826934814453125,-0.6809844970703125
1667825249276472300,9.677472412109376,-0.8586273193359375,0.170806884765625,-0.6607208251953125
1667825249286480400,9.68748046875,-0.8465423583984375,0.164886474609375,-0.6354522705078125
1667825249296487400,9.6974873046875,-0.82366943359375,0.1629486083984375,-0.60736083984375
1667825249306495500,9.70749560546875,-0.800048828125,0.15869140625,-0.5740814208984375
1667825249316502300,9.717502197265626,-0.7794036865234375,0.145965576171875,-0.5438690185546875
1667825249326510300,9.72751025390625,-0.759368896484375,0.1263427734375,-0.51422119140625
1667825249336517400,9.737517333984375,-0.738922119140625,0.100677490234375,-0.485443115234375
1667825249346525400,9.747525390625,-0.7205963134765625,0.072601318359375,-0.458953857421875
1667825249356532200,9.7575322265625,-0.6974029541015625,0.051483154296875,-0.4342041015625
1667825249366540500,9.76754052734375,-0.6771392822265625,0.042724609375,-0.416168212890625
1667825249376547300,9.77754736328125,-0.6695556640625,0.0356597900390625,-0.412017822265625
1667825249386555400,9.787555419921874,-0.66644287109375,0.0188751220703125,-0.402374267578125
1667825249396562400,9.7975625,-0.65789794921875,-0.0036163330078125,-0.39154052734375
1667825249406570500,9.807570556640625,-0.65740966796875,-0.0170745849609375,-0.390380859375
1667825249416577300,9.817577392578125,-0.6485595703125,-0.0237274169921875,-0.3866424560546875
1667825249426585300,9.82758544921875,-0.6346893310546875,-0.0298004150390625,-0.3791046142578125
1667825249436592400,9.83759228515625,-0.6318817138671875,-0.0325775146484375,-0.3681488037109375
1667825249446600400,9.847600341796875,-0.6288604736328125,-0.0337982177734375,-0.3553619384765625
1667825249456607200,9.857607177734375,-0.6205902099609375,-0.0366668701171875,-0.347625732421875
1667825249466615600,9.867615478515624,-0.622833251953125,-0.0321807861328125,-0.345489501953125
1667825249476622300,9.877622314453125,-0.6240234375,-0.0264739990234375,-0.3422088623046875
1667825249486630400,9.88763037109375,-0.6272430419921875,-0.033111572265625,-0.3429718017578125
1667825249496637400,9.897637451171875,-0.6457366943359375,-0.0463714599609375,-0.3527374267578125
1667825249506646300,9.907646240234374,-0.6631622314453125,-0.0606231689453125,-0.35430908203125
1667825249516653600,9.917653564453126,-0.6845703125,-0.075164794921875,-0.3565521240234375
1667825249526661400,9.927661376953125,-0.722930908203125,-0.071746826171875,-0.38372802734375
1667825249536668400,9.93766845703125,-0.759002685546875,-0.0384368896484375,-0.424835205078125
1667825249546676500,9.947676513671874,-0.788482666015625,0.01373291015625,-0.466705322265625
1667825249556683500,9.95768359375,-0.8241119384765625,0.0618743896484375,-0.498779296875
1667825249566691300,9.96769140625,-0.85626220703125,0.0991363525390625,-0.52496337890625
1667825249576698600,9.97769873046875,-0.886688232421875,0.1257171630859375,-0.5391693115234375
1667825249586706400,9.98770654296875,-0.906646728515625,0.1452484130859375,-0.54449462890625
1667825249596713200,9.997713134765625,-0.93255615234375,0.16082763671875,-0.542877197265625
1667825249606721300,10.00772119140625,-0.9697265625,0.1698455810546875,-0.5401763916015625
1667825249616728300,10.017728271484375,-1.0140228271484375,0.181671142578125,-0.54443359375
1667825249626736400,10.027736328125,-1.060272216796875,0.1998443603515625,-0.5526123046875
1667825249636743400,10.037743408203125,-1.1085968017578125,0.21893310546875,-0.58441162109375
1667825249646751500,10.04775146484375,-1.1595458984375,0.2406768798828125,-0.629547119140625
1667825249656758300,10.05775830078125,-1.199981689453125,0.2667694091796875,-0.6911163330078125
1667825249666766300,10.067766357421876,-1.229217529296875,0.3018341064453125,-0.7622833251953125
1667825249676773400,10.0777734375,-1.2435302734375,0.327789306640625,-0.8173980712890625
1667825249686781400,10.087781494140625,-1.2426605224609375,0.323638916015625,-0.84820556640625
1667825249696788200,10.097788330078124,-1.2310943603515625,0.2967376708984375,-0.85369873046875
1667825249706796300,10.10779638671875,-1.2089080810546875,0.267578125,-0.8484954833984375
1667825249716803300,10.11780322265625,-1.1749420166015625,0.2530364990234375,-0.8489532470703125
1667825249726811400,10.127811279296875,-1.1277923583984375,0.24542236328125,-0.85687255859375
1667825249736818400,10.137818359375,-1.07769775390625,0.2209320068359375,-0.85504150390625
1667825249746826500,10.147826416015626,-1.026580810546875,0.1791534423828125,-0.8442840576171875
1667825249756833300,10.157833251953125,-0.97723388671875,0.1287689208984375,-0.8135986328125
1667825249766841300,10.16784130859375,-0.93804931640625,0.0796661376953125,-0.787933349609375
1667825249776848400,10.177848388671874,-0.88531494140625,0.0403594970703125,-0.7704315185546875
1667825249786856400,10.1878564453125,-0.836212158203125,0.0112457275390625,-0.7447967529296875
1667825249796863200,10.19786328125,-0.792205810546875,-0.0128936767578125,-0.7137908935546875
1667825249806871300,10.207871337890625,-0.74884033203125,-0.032012939453125,-0.6776885986328125
1667825249816878300,10.21787841796875,-0.7234039306640625,-0.0489349365234375,-0.6381378173828125
1667825249826886400,10.227886474609376,-0.7001190185546875,-0.0723419189453125,-0.5997161865234375
1667825249836893400,10.2378935546875,-0.676605224609375,-0.1105499267578125,-0.5727081298828125
1667825249846901500,10.247901611328125,-0.6739959716796875,-0.152587890625,-0.567474365234375
1667825249856908300,10.257908203125,-0.6724700927734375,-0.176361083984375,-0.56024169921875
1667825249866916400,10.267916259765625,-0.67828369140625,-0.1865692138671875,-0.5560760498046875
1667825249876923400,10.27792333984375,-0.6922760009765625,-0.1969757080078125,-0.567230224609375
1667825249886931500,10.287931396484375,-0.712005615234375,-0.2010345458984375,-0.5785980224609375
1667825249896938200,10.297938232421876,-0.730072021484375,-0.2049407958984375,-0.5793609619140625
1667825249906946300,10.3079462890625,-0.752716064453125,-0.207977294921875,-0.5805816650390625
1667825249916953300,10.317953369140625,-0.77764892578125,-0.205413818359375,-0.5701751708984375
1667825249926961400,10.32796142578125,-0.8002166748046875,-0.19781494140625,-0.55694580078125
1667825249936968400,10.337968505859376,-0.8359222412109375,-0.192352294921875,-0.5609893798828125
1667825249946976500,10.3479765625,-0.8812408447265625,-0.1911468505859375,-0.5794525146484375
1667825249956983300,10.3579833984375,-0.9250640869140625,-0.1710205078125,-0.6086883544921875
1667825249966991400,10.367991455078124,-0.97906494140625,-0.1096343994140625,-0.64312744140625
1667825249976998400,10.377998291015626,-1.033843994140625,-0.0238189697265625,-0.666412353515625
1667825249987006500,10.38800634765625,-1.0757598876953125,0.040557861328125,-0.6749267578125
1667825249997013200,10.39801318359375,-1.122589111328125,0.058197021484375,-0.67852783203125
1667825250007021300,10.408021240234374,-1.162200927734375,0.0641632080078125,-0.669677734375
1667825250017028400,10.4180283203125,-1.190643310546875,0.07806396484375,-0.657379150390625
1667825250027036400,10.428036376953125,-1.212066650390625,0.104156494140625,-0.66461181640625
1667825250037043500,10.43804345703125,-1.2375640869140625,0.1549835205078125,-0.7051849365234375
1667825250047051500,10.448051513671874,-1.2442626953125,0.2082977294921875,-0.7415924072265625
1667825250057058300,10.458058349609376,-1.26251220703125,0.2398529052734375,-0.768524169921875
1667825250067066400,10.46806640625,-1.287628173828125,0.24761962890625,-0.80084228515625
1667825250077073400,10.478073486328125,-1.2988128662109375,0.2507781982421875,-0.82550048828125
1667825250087081500,10.48808154296875,-1.3044891357421875,0.2667236328125,-0.8498992919921875
1667825250097088300,10.498088134765625,-1.274627685546875,0.2824249267578125,-0.862701416015625
1667825250107096300,10.508096435546875,-1.2025909423828125,0.2860260009765625,-0.81396484375
1667825250117103400,10.518103271484375,-1.2205047607421875,0.2939605712890625,-0.7696685791015625
1667825250127111400,10.528111328125,-1.1990814208984375,0.2589263916015625,-0.752288818359375
1667825250137118500,10.538118408203125,-1.0868988037109375,0.1774444580078125,-0.7275848388671875
1667825250147126500,10.54812646484375,-1.076324462890625,0.148773193359375,-0.67425537109375
1667825250157133300,10.55813330078125,-1.1449737548828125,0.1993408203125,-0.6132354736328125
1667825250167141400,10.568141357421876,-1.0709075927734375,0.218475341796875,-0.5493927001953125
1667825250177148400,10.5781484375,-0.9798431396484375,0.1982421875,-0.4904937744140625
1667825250187156500,10.588156494140625,-0.9519500732421875,0.181732177734375,-0.46710205078125
1667825250197163300,10.598163330078124,-0.888336181640625,0.154022216796875,-0.4623870849609375
1667825250207171300,10.60817138671875,-0.8056182861328125,0.1266021728515625,-0.44403076171875
1667825250217178400,10.618178466796875,-0.74884033203125,0.1089019775390625,-0.394378662109375
1667825250227186400,10.6281865234375,-0.7082366943359375,0.098175048828125,-0.3286895751953125
1667825250237193500,10.638193359375,-0.6870269775390625,0.09808349609375,-0.253265380859375
1667825250247201500,10.648201416015626,-0.6919403076171875,0.124725341796875,-0.189117431640625
1667825250257208300,10.658208251953125,-0.7264404296875,0.1009368896484375,-0.22119140625
1667825250267216400,10.66821630859375,-0.7689666748046875,0.055145263671875,-0.2498016357421875
1667825250277223400,10.678223388671874,-0.7670440673828125,0.0126953125,-0.2434234619140625
1667825250287231500,10.6882314453125,-0.728912353515625,-0.013519287109375,-0.2228240966796875
1667825250297238300,10.69823828125,-0.6925048828125,-0.0234222412109375,-0.200531005859375
1667825250307246300,10.708246337890625,-0.685943603515625,-0.0291900634765625,-0.1852569580078125
1667825250317253400,10.71825341796875,-0.7010650634765625,-0.02685546875,-0.2279510498046875
1667825250327261400,10.728261474609376,-0.8775177001953125,-0.050994873046875,-0.240997314453125
1667825250337268500,10.7382685546875,-0.78216552734375,-0.0611724853515625,-0.2120513916015625
1667825250347276500,10.748276611328125,-0.769287109375,-0.0663909912109375,-0.1499786376953125
1667825250357283300,10.758283447265624,-0.902374267578125,-0.06011962890625,-0.0941619873046875
1667825250367291400,10.76829150390625,-0.90936279296875,-0.070404052734375,-0.0482177734375
1667825250377298400,10.77829833984375,-0.8704986572265625,-0.1360321044921875,0.05462646484375
1667825250387306500,10.788306396484375,-0.88348388671875,-0.2050018310546875,0.186065673828125
1667825250397313300,10.798313232421876,-0.965972900390625,-0.2236480712890625,0.2927398681640625
1667825250407321300,10.8083212890625,-1.0412750244140625,-0.200592041015625,0.3014373779296875
1667825250417328400,10.818328369140625,-1.101470947265625,-0.1551361083984375,0.2727508544921875
1667825250427336400,10.82833642578125,-1.10089111328125,-0.12152099609375,0.2501373291015625
1667825250437343200,10.83834326171875,-1.0402679443359375,-0.107574462890625,0.225555419921875
1667825250447351600,10.8483515625,-0.9942779541015625,-0.080902099609375,0.1860504150390625
1667825250457358300,10.8583583984375,-0.988372802734375,-0.0273895263671875,0.1224212646484375
1667825250467366400,10.868366455078124,-1.021331787109375,0.040191650390625,0.0756072998046875
1667825250477373400,10.87837353515625,-1.0670928955078125,0.0883636474609375,0.0630645751953125
1667825250487381500,10.888381591796875,-1.1415252685546875,0.1002960205078125,0.0799407958984375
1667825250497388300,10.89838818359375,-1.1571044921875,0.0627593994140625,0.087677001953125
1667825250507396000,10.90839599609375,-1.137908935546875,-0.011260986328125,0.0808868408203125
1667825250517403000,10.91840283203125,-1.100799560546875,-0.10614013671875,0.0633392333984375
1667825250527411000,10.928410888671875,-1.03582763671875,-0.1712493896484375,0.02264404296875
1667825250537418000,10.93841796875,-1.015350341796875,-0.191009521484375,-0.0408172607421875
1667825250547426000,10.948426025390624,-1.0356903076171875,-0.185760498046875,-0.0772705078125
1667825250557432800,10.958432861328125,-1.0286102294921875,-0.1811370849609375,-0.0987701416015625
1667825250567441000,10.96844091796875,-0.9423675537109375,-0.1796722412109375,-0.1135101318359375
1667825250577448000,10.978447998046875,-0.8726043701171875,-0.1656951904296875,-0.0894622802734375
1667825250587456000,10.9884560546875,-0.83648681640625,-0.1531524658203125,-0.0569610595703125
1667825250597462800,10.998462890625,-0.8050079345703125,-0.1334228515625,-0.05572509765625
1667825250607471000,11.00847119140625,-0.7984619140625,-0.1083526611328125,-0.0413665771484375
1667825250617478000,11.018477783203124,-0.8089599609375,-0.0823822021484375,-0.002349853515625
1667825250627486000,11.02848583984375,-0.853424072265625,-0.0651397705078125,0.0717010498046875
1667825250637493000,11.038492919921875,-0.9002532958984375,-0.1028900146484375,0.12890625
1667825250647501000,11.0485009765625,-0.934234619140625,-0.2059478759765625,0.1273956298828125
1667825250657507800,11.0585078125,-0.96942138671875,-0.2956390380859375,0.1141357421875
1667825250667516000,11.068515869140626,-1.0024871826171875,-0.3155670166015625,0.1160430908203125
1667825250677523000,11.07852294921875,-1.017730712890625,-0.2810211181640625,0.095458984375
1667825250687531000,11.088531005859375,-1.0142059326171875,-0.227813720703125,0.0656890869140625
1667825250697537800,11.098537841796874,-1.019500732421875,-0.1871795654296875,0.0454864501953125
1667825250707546000,11.108546142578126,-1.023284912109375,-0.177825927734375,0.03070068359375
1667825250717553000,11.118552978515625,-1.008880615234375,-0.19091796875,0.017974853515625
1667825250727561000,11.12856103515625,-0.98309326171875,-0.2124176025390625,0.0040283203125
1667825250737568000,11.138568115234374,-0.959197998046875,-0.231414794921875,0.0047607421875
1667825250747576000,11.148576171875,-0.9418182373046875,-0.2504425048828125,0.0182647705078125
1667825250757582800,11.158582763671875,-0.9282073974609375,-0.271026611328125,0.0287017822265625
1667825250767591000,11.1685908203125,-0.917449951171875,-0.2873992919921875,0.035064697265625
1667825250777598000,11.178597900390624,-0.92144775390625,-0.30377197265625,0.04718017578125
1667825250787606000,11.18860595703125,-0.905792236328125,-0.324310302734375,0.059326171875
1667825250797612800,11.19861279296875,-0.8843231201171875,-0.3468475341796875,0.07525634765625
1667825250807621000,11.20862109375,-0.80108642578125,-0.36444091796875,0.0907745361328125
1667825250817628000,11.2186279296875,-0.8356170654296875,-0.3838043212890625,0.12158203125
1667825250827636000,11.228635986328126,-0.8812103271484375,-0.413787841796875,0.1182403564453125
1667825250837643000,11.23864306640625,-0.839630126953125,-0.44378662109375,0.1114654541015625
1667825250847651000,11.248651123046875,-0.8441619873046875,-0.463226318359375,0.1213226318359375
1667825250857657900,11.258657958984376,-0.8321380615234375,-0.477935791015625,0.107666015625
1667825250867666000,11.268666015625,-0.833984375,-0.48394775390625,0.0895843505859375
1667825250877673000,11.2786728515625,-0.8306121826171875,-0.4694366455078125,0.0876617431640625
