time,seconds_elapsed,z,y,x
1667825239627998500,0.02899853515625,-0.7128459215164185,-0.6564150452613831,0.9389045238494873
1667825239638006800,0.0390068359375,-0.7465607523918152,-0.4899408519268036,0.7845080494880676
1667825239648013600,0.049013671875,-0.7233659029006958,-0.3992048501968384,0.663750410079956
1667825239658020600,0.0590205078125,-0.6818211078643799,-0.4202781617641449,0.6074133515357971
1667825239668028700,0.069028564453125,-0.6711849570274353,-0.5927830338478088,0.5938404202461243
1667825239678035500,0.079035400390625,-0.7134312391281128,-0.9057404398918152,0.6079956293106079
1667825239688043500,0.08904345703125,-0.8073703050613403,-1.241835117340088,0.6047723889350891
1667825239698050600,0.099050537109375,-0.9469383358955383,-1.5411664247512817,0.5700767040252686
1667825239708058600,0.10905859375,-1.09550142288208,-1.8117108345031738,0.5033305883407593
1667825239718065400,0.1190654296875,-1.2265005111694336,-1.993573546409607,0.41834720969200134
1667825239728073500,0.129073486328125,-1.3108769655227661,-1.9879268407821655,0.3583729565143585
1667825239738080500,0.13908056640625,-1.3623803853988647,-1.8591697216033936,0.31174686551094055
1667825239748088600,0.149088623046875,-1.3862125873565674,-1.5325227975845337,0.24073199927806854
1667825239758095600,0.159095703125,-1.3727558851242065,-1.0856103897094727,0.14787502586841583
1667825239768103700,0.169103759765625,-1.3144043684005737,-0.9160835146903992,0.08430571854114532
1667825239778110500,0.1791103515625,-1.2427538633346558,-0.7586038708686829,0.034224703907966614
1667825239788118500,0.189118408203125,-1.1645256280899048,-0.6145256757736206,-0.013090809807181358
1667825239798125600,0.19912548828125,-1.068954586982727,-0.5443466305732727,-0.06500247865915298
1667825239808133600,0.209133544921875,-0.9502947926521301,-0.6192772388458252,-0.1322551667690277
1667825239818140400,0.219140380859375,-0.8431664705276489,-0.7649356722831726,-0.2325543314218521
1667825239828148500,0.2291484375,-0.7819812297821045,-0.9037215709686279,-0.39509519934654236
1667825239838155500,0.239155517578125,-0.7618911862373352,-1.0689911842346191,-0.6323325037956238
1667825239848163600,0.24916357421875,-0.7604203224182129,-1.1856732368469238,-0.9522061347961426
1667825239858170600,0.259170654296875,-0.7586562037467957,-1.2225937843322754,-1.3167973756790161
1667825239868178700,0.2691787109375,-0.7202435731887817,-1.2027833461761475,-1.7050330638885498
1667825239878185500,0.279185546875,-0.6415181159973145,-1.170630931854248,-2.1085357666015625
1667825239888193500,0.289193603515625,-0.4975466728210449,-1.129099726676941,-2.4890267848968506
1667825239898200600,0.29920068359375,-0.260079562664032,-1.0996994972229004,-2.845259666442871
1667825239908208600,0.309208740234375,0.033678192645311356,-1.0934005975723267,-3.1642184257507324
1667825239918215400,0.31921533203125,0.3115662634372711,-1.1580027341842651,-3.454315423965454
1667825239928223500,0.329223388671875,0.512758195400238,-1.2939326763153076,-3.693673610687256
1667825239938230500,0.33923046875,0.6328015327453613,-1.460602879524231,-3.8788366317749023
1667825239948238600,0.349238525390625,0.6990947127342224,-1.5822592973709106,-3.981090545654297
1667825239958245600,0.35924560546875,0.6874268651008606,-1.4709564447402954,-3.955038547515869
1667825239968252700,0.369252685546875,0.5816643834114075,-1.0563666820526123,-3.811641216278076
1667825239978260500,0.379260498046875,0.4030288755893707,-0.4319002032279968,-3.5668039321899414
1667825239988267800,0.389267822265625,0.1474718600511551,0.1352132111787796,-3.29304575920105
1667825239998275600,0.399275634765625,-0.16785812377929688,0.6014309525489807,-3.0212244987487793
1667825240008282600,0.40928271484375,-0.49636369943618774,0.9637331366539001,-2.7406868934631348
1667825240018290400,0.41929052734375,-0.7895212769508362,1.2201780080795288,-2.442304849624634
1667825240028297700,0.429297607421875,-1.0056118965148926,1.3552465438842773,-2.163135051727295
1667825240038305500,0.439305419921875,-1.0999858379364014,1.2997808456420898,-1.9003288745880127
1667825240048312600,0.4493125,-1.0844011306762695,1.1075268983840942,-1.6771479845046997
1667825240058320600,0.459320556640625,-0.9988963603973389,0.830927848815918,-1.5018481016159058
1667825240068327700,0.46932763671875,-0.8835851550102234,0.5030903816223145,-1.384765863418579
1667825240078335500,0.47933544921875,-0.777885913848877,0.16220739483833313,-1.3181625604629517
1667825240088342800,0.4893427734375,-0.6798154711723328,-0.08906399458646774,-1.2764837741851807
1667825240098350600,0.4993505859375,-0.604929506778717,-0.19228465855121613,-1.2261584997177124
1667825240108357600,0.509357666015625,-0.5543777942657471,-0.1753445416688919,-1.1446514129638672
1667825240118365400,0.519365478515625,-0.5394589900970459,-0.0970233753323555,-1.0298129320144653
1667825240128372700,0.529372802734375,-0.5533227324485779,-0.0006040974985808134,-0.9079545736312866
1667825240138380500,0.539380615234375,-0.5737992525100708,0.059381209313869476,-0.7892242074012756
1667825240148387600,0.5493876953125,-0.5818659663200378,0.0625322014093399,-0.681330144405365
1667825240158395600,0.559395751953125,-0.5631958842277527,0.02134641818702221,-0.5833287835121155
1667825240168402700,0.569402587890625,-0.5084350109100342,-0.031922243535518646,-0.48652514815330505
1667825240178410500,0.579410400390625,-0.4475056231021881,-0.1077328473329544,-0.3908390998840332
1667825240188417800,0.589417724609375,-0.3919179141521454,-0.20374451577663422,-0.30164533853530884
1667825240198425600,0.599425537109375,-0.3480822741985321,-0.3119407296180725,-0.24478179216384888
1667825240208432600,0.6094326171875,-0.3190543055534363,-0.42828088998794556,-0.23847520351409912
1667825240218440400,0.6194404296875,-0.3013160526752472,-0.5361849665641785,-0.2754206955432892
1667825240228447700,0.62944775390625,-0.2976890206336975,-0.6051273345947266,-0.33726587891578674
1667825240238455600,0.63945556640625,-0.30871957540512085,-0.6357036232948303,-0.4155809283256531
1667825240248462600,0.649462646484375,-0.3206034004688263,-0.6107207536697388,-0.4899083971977234
1667825240258469600,0.6594697265625,-0.34246739745140076,-0.5364691615104675,-0.5638076066970825
1667825240268477700,0.669477783203125,-0.3677239716053009,-0.4338725507259369,-0.6399156451225281
1667825240278484500,0.679484375,-0.3869224190711975,-0.34297436475753784,-0.6976521611213684
1667825240288492800,0.689492919921875,-0.39505019783973694,-0.2564944922924042,-0.7388355731964111
1667825240298499600,0.69949951171875,-0.3992167115211487,-0.16264790296554565,-0.7484315037727356
1667825240308507600,0.709507568359375,-0.4009793698787689,-0.07997247576713562,-0.7203583121299744
1667825240318514700,0.7195146484375,-0.39421600103378296,-0.020064394921064377,-0.6628910303115845
1667825240328522800,0.729522705078125,-0.3812299072742462,0.005690700374543667,-0.5712727904319763
1667825240338529500,0.739529541015625,-0.36307963728904724,0.02000439167022705,-0.46341580152511597
1667825240348537600,0.74953759765625,-0.350430428981781,0.02428622357547283,-0.3442087173461914
1667825240358544600,0.759544677734375,-0.3489755392074585,0.026548044756054878,-0.2245742231607437
1667825240368552700,0.769552734375,-0.35457074642181396,0.026133427396416664,-0.10927680879831314
1667825240378559500,0.7795595703125,-0.3636731505393982,0.05019056051969528,-0.00883382186293602
1667825240388567800,0.78956787109375,-0.3788258731365204,0.09889816492795944,0.09273586422204971
1667825240398574600,0.79957470703125,-0.38911792635917664,0.13660559058189392,0.18869701027870178
1667825240408582700,0.809582763671875,-0.4015035629272461,0.1686147153377533,0.281690388917923
1667825240418589700,0.819589599609375,-0.4105444550514221,0.22385932505130768,0.37622329592704773
1667825240428597800,0.82959765625,-0.4111831486225128,0.2939786911010742,0.4666096270084381
1667825240438604500,0.8396044921875,-0.4091508984565735,0.37251824140548706,0.5678987503051758
1667825240448612600,0.849612548828125,-0.4065278172492981,0.46017712354660034,0.6813335418701172
1667825240458619600,0.85961962890625,-0.4050966203212738,0.5315195322036743,0.7979802489280701
1667825240468627700,0.869627685546875,-0.4045006334781647,0.5686798095703125,0.9202861189842224
1667825240478634500,0.879634521484375,-0.40793636441230774,0.5658779144287109,1.0457239151000977
1667825240488642800,0.889642822265625,-0.41538920998573303,0.5267387628555298,1.175611972808838
1667825240498650400,0.899650390625,-0.42674997448921204,0.44466036558151245,1.3042011260986328
1667825240508658400,0.909658447265625,-0.4398629367351532,0.3172263503074646,1.4233194589614868
1667825240518665200,0.919665283203125,-0.4547542631626129,0.16520166397094727,1.519852876663208
1667825240528673500,0.929673583984375,-0.46266263723373413,-0.0039808182045817375,1.5863609313964844
1667825240538680300,0.939680419921875,-0.4782930016517639,-0.182240292429924,1.6132527589797974
1667825240548687000,0.94968701171875,-0.4849414825439453,-0.3652973771095276,1.584391474723816
1667825240558695400,0.9596953125,-0.4895032048225403,-0.5311135053634644,1.4883307218551636
1667825240568702200,0.9697021484375,-0.48940718173980713,-0.6641578674316406,1.323311448097229
1667825240578710300,0.979710205078125,-0.48443904519081116,-0.7445940971374512,1.1012152433395386
1667825240588717300,0.98971728515625,-0.480133593082428,-0.7678782343864441,0.8360617756843567
1667825240598725400,0.999725341796875,-0.47482165694236755,-0.7312059998512268,0.5578418374061584
1667825240608732200,1.009732177734375,-0.4727892577648163,-0.6336684823036194,0.2912907898426056
1667825240618740200,1.019740234375,-0.4824666380882263,-0.4896732568740845,0.05889347940683365
1667825240628747300,1.029747314453125,-0.49533456563949585,-0.3411601781845093,-0.14142535626888275
1667825240638755300,1.03975537109375,-0.4837881624698639,-0.19760194420814514,-0.29668283462524414
1667825240648762000,1.04976220703125,-0.44225117564201355,-0.08480750769376755,-0.3918111324310303
1667825240658770400,1.0597705078125,-0.3588244616985321,-0.002763504395261407,-0.4379413425922394
1667825240668777200,1.069777099609375,-0.24604852497577667,0.03001396730542183,-0.443961501121521
1667825240678785300,1.079785400390625,-0.10436223447322845,0.02784482203423977,-0.4270341694355011
1667825240688792300,1.089792236328125,0.05892368406057358,0.002930146874859929,-0.4038706421852112
1667825240698800400,1.09980029296875,0.22888821363449097,-0.03186298534274101,-0.37049034237861633
1667825240708807200,1.10980712890625,0.39263278245925903,-0.07487282902002335,-0.3379366993904114
1667825240718815200,1.119815185546875,0.5256339907646179,-0.11647327244281769,-0.30475395917892456
1667825240728822300,1.129822265625,0.6159331202507019,-0.1466478854417801,-0.27026626467704773
1667825240738830300,1.139830322265625,0.6701753735542297,-0.14878107607364655,-0.23893070220947266
1667825240748837000,1.149837158203125,0.6960992217063904,-0.12022564560174942,-0.22053983807563782
1667825240758845400,1.159845458984375,0.7041835188865662,-0.06363692879676819,-0.21858453750610352
1667825240768852200,1.169852294921875,0.6924026012420654,0.03006185032427311,-0.24291567504405975
1667825240778860300,1.1798603515625,0.6601672172546387,0.14825400710105896,-0.27681079506874084
1667825240788867300,1.189867431640625,0.6004663109779358,0.2875455617904663,-0.302692711353302
1667825240798875400,1.19987548828125,0.5163317322731018,0.41706469655036926,-0.3075428605079651
1667825240808882200,1.209882080078125,0.4080306887626648,0.5009701251983643,-0.2619302272796631
1667825240818889500,1.219889404296875,0.30187496542930603,0.5265268683433533,-0.16567052900791168
1667825240828897300,1.229897216796875,0.2123400866985321,0.5071170926094055,-0.038299836218357086
1667825240838904300,1.239904296875,0.15329886972904205,0.4723138213157654,0.10146818310022354
1667825240848912100,1.249912109375,0.14453798532485962,0.4099803864955902,0.22922185063362122
1667825240858919400,1.25991943359375,0.1702425479888916,0.30322277545928955,0.33606386184692383
1667825240868927200,1.26992724609375,0.21339048445224762,0.15329405665397644,0.39999833703041077
1667825240878934300,1.279934326171875,0.2604900896549225,-0.035616204142570496,0.41640153527259827
1667825240888942300,1.2899423828125,0.30059337615966797,-0.2302216738462448,0.38019466400146484
1667825240898949400,1.299949462890625,0.32967615127563477,-0.3957693576812744,0.2856687009334564
1667825240908957200,1.309957275390625,0.34428465366363525,-0.554041862487793,0.13134771585464478
1667825240918964500,1.319964599609375,0.33658280968666077,-0.691757082939148,-0.07736209034919739
1667825240928972300,1.32997216796875,0.3011220395565033,-0.8125407099723816,-0.3437625765800476
1667825240938979300,1.339979248046875,0.23800966143608093,-0.8918040990829468,-0.641483724117279
1667825240948987100,1.349987060546875,0.15063442289829254,-0.896369218826294,-0.9227966070175171
1667825240958994400,1.359994384765625,0.0433921255171299,-0.7792748212814331,-1.1536651849746704
1667825240969002200,1.370002197265625,-0.05842451751232147,-0.5284852385520935,-1.3027050495147705
1667825240979009300,1.38000927734375,-0.1314087212085724,-0.20505550503730774,-1.3461827039718628
1667825240989017300,1.390017333984375,-0.15374943614006042,0.10418318957090378,-1.2933082580566406
1667825240999024400,1.4000244140625,-0.1171988770365715,0.35242682695388794,-1.1436623334884644
1667825241009032200,1.4100322265625,-0.0346052460372448,0.5384653806686401,-0.9037420749664307
1667825241019039500,1.42003955078125,0.09587952494621277,0.6554207801818848,-0.6063476800918579
1667825241029047300,1.43004736328125,0.2540024220943451,0.694399356842041,-0.2711300253868103
1667825241039054300,1.440054443359375,0.4262178838253021,0.6597788333892822,0.0415908508002758
1667825241049062100,1.450062255859375,0.5807445049285889,0.5882262587547302,0.3183777332305908
1667825241059069400,1.4600693359375,0.7040954828262329,0.5337973833084106,0.5514453649520874
1667825241069077200,1.4700771484375,0.7771556973457336,0.49574384093284607,0.742268443107605
1667825241079084300,1.480084228515625,0.8017124533653259,0.46823233366012573,0.8849635124206543
1667825241089092400,1.49009228515625,0.7767816185951233,0.46580803394317627,0.988524317741394
1667825241099099400,1.500099365234375,0.720767617225647,0.490740031003952,1.0715234279632568
1667825241109107200,1.510107177734375,0.6437037587165833,0.5169426202774048,1.1275317668914795
1667825241119114500,1.520114501953125,0.5621439218521118,0.5202041864395142,1.1637758016586304
1667825241129122300,1.530122314453125,0.47023287415504456,0.503352701663971,1.1770957708358765
1667825241139129300,1.54012939453125,0.36816295981407166,0.4607416093349457,1.1798205375671387
1667825241149136400,1.550136474609375,0.2694112956523895,0.41048169136047363,1.17393159866333
1667825241159144400,1.56014453125,0.174037903547287,0.3430808186531067,1.1518516540527344
1667825241169151200,1.570151123046875,0.06995285302400589,0.2664799690246582,1.1167367696762085
1667825241179159300,1.5801591796875,-0.03591686114668846,0.20767952501773834,1.0688552856445312
1667825241189166300,1.590166259765625,-0.13803422451019287,0.1888008862733841,1.0170633792877197
1667825241199174400,1.60017431640625,-0.24101600050926208,0.19074445962905884,0.9721075296401978
1667825241209181200,1.61018115234375,-0.35089045763015747,0.19559405744075775,0.9372225403785706
1667825241219189500,1.620189453125,-0.4716493487358093,0.18905547261238098,0.9096383452415466
1667825241229196300,1.6301962890625,-0.6197196245193481,0.1863015592098236,0.8856664896011353
1667825241239204400,1.640204345703125,-0.7793614864349365,0.18831516802310944,0.8548923134803772
1667825241249211400,1.65021142578125,-0.9504091739654541,0.16699428856372833,0.8097195029258728
1667825241259219500,1.660219482421875,-1.1167539358139038,0.12569265067577362,0.7511991858482361
1667825241269226200,1.670226318359375,-1.2655205726623535,0.06392774730920792,0.6912630200386047
1667825241279234300,1.680234375,-1.397289514541626,-0.03449709340929985,0.6286312937736511
1667825241289241300,1.690241455078125,-1.5135334730148315,-0.1676565259695053,0.5535850524902344
1667825241299249400,1.70024951171875,-1.610775113105774,-0.30562928318977356,0.4748193919658661
1667825241309256200,1.710256103515625,-1.700629472732544,-0.4335465729236603,0.3738214373588562
1667825241319264500,1.720264404296875,-1.7694774866104126,-0.5396218299865723,0.2465689480304718
1667825241329271300,1.730271240234375,-1.8259931802749634,-0.5958616733551025,0.10421440005302429
1667825241339279400,1.740279296875,-1.8625578880310059,-0.6074895858764648,-0.028752438724040985
1667825241349286400,1.750286376953125,-1.886853814125061,-0.5949481725692749,-0.14331793785095215
1667825241359294500,1.76029443359375,-1.895246982574463,-0.5874987840652466,-0.2339296042919159
1667825241369301200,1.77030126953125,-1.8862950801849365,-0.6029443144798279,-0.32404881715774536
1667825241379309300,1.780309326171875,-1.8709536790847778,-0.6273643970489502,-0.4212278425693512
1667825241389316400,1.79031640625,-1.8335117101669312,-0.657240629196167,-0.5161164402961731
1667825241399324200,1.80032421875,-1.7664167881011963,-0.6869260668754578,-0.6012470722198486
1667825241409331200,1.810331298828125,-1.679077386856079,-0.7197186350822449,-0.6715832352638245
1667825241419339300,1.82033935546875,-1.5775611400604248,-0.7471811771392822,-0.7399955987930298
1667825241429346300,1.83034619140625,-1.4724231958389282,-0.7594804167747498,-0.8021381497383118
1667825241439354000,1.84035400390625,-1.3577579259872437,-0.7299805879592896,-0.8482808470726013
1667825241449361400,1.850361328125,-1.2358489036560059,-0.6719265580177307,-0.8686658143997192
1667825241459369200,1.860369140625,-1.1108733415603638,-0.6027365922927856,-0.8735952973365784
1667825241469376300,1.870376220703125,-0.9848356246948242,-0.4985910654067993,-0.8515413403511047
1667825241479383300,1.88038330078125,-0.8463123440742493,-0.3897250294685364,-0.7900292873382568
1667825241489391400,1.890391357421875,-0.6826305985450745,-0.32899153232574463,-0.70941162109375
1667825241499398000,1.90039794921875,-0.5040688514709473,-0.3208755552768707,-0.6202710866928101
1667825241509406200,1.91040625,-0.3055168092250824,-0.3662464916706085,-0.5483154654502869
1667825241519413000,1.9204130859375,-0.07407506555318832,-0.47466298937797546,-0.5081552863121033
1667825241529421000,1.930421142578125,0.19299684464931488,-0.6229483485221863,-0.5123639106750488
1667825241539428000,1.940427978515625,0.47375503182411194,-0.757230281829834,-0.5599148869514465
1667825241549436200,1.950436279296875,0.7469263076782227,-0.8589720726013184,-0.6268041133880615
1667825241559443000,1.96044287109375,0.9856917262077332,-0.8909105658531189,-0.6859678030014038
1667825241569451000,1.970450927734375,1.1719446182250977,-0.846332311630249,-0.7141463160514832
1667825241579458000,1.9804580078125,1.3064593076705933,-0.7012408971786499,-0.6893373727798462
1667825241589466000,1.990466064453125,1.394415259361267,-0.4310372471809387,-0.6017348170280457
1667825241599473000,2.000472900390625,1.4521592855453491,-0.07513505965471268,-0.44240885972976685
1667825241609481200,2.010481201171875,1.5117474794387817,0.2730165123939514,-0.2229635864496231
1667825241619488000,2.020488037109375,1.5904120206832886,0.5322980880737305,0.03683718666434288
1667825241629496000,2.03049609375,1.7036035060882568,0.6872469186782837,0.3053095042705536
1667825241639503000,2.040503173828125,1.8502819538116455,0.7300484776496887,0.5464299917221069
1667825241649511200,2.05051123046875,2.011261463165283,0.6739844083786011,0.7591454386711121
1667825241659518000,2.06051806640625,2.1404621601104736,0.5511167645454407,0.9345628023147583
1667825241669526000,2.070526123046875,2.1943063735961914,0.4192676842212677,1.0885988473892212
1667825241679533000,2.080532958984375,2.1487154960632324,0.27296534180641174,1.2132501602172852
1667825241689541000,2.090541015625,2.003148078918457,0.09501633048057556,1.3040813207626343
1667825241699548000,2.1005478515625,1.7689486742019653,-0.08187614381313324,1.3497648239135742
1667825241709556200,2.11055615234375,1.455590844154358,-0.24843360483646393,1.3509869575500488
1667825241719563000,2.12056298828125,1.0868191719055176,-0.4003722667694092,1.3049012422561646
1667825241729571000,2.130571044921875,0.6915649771690369,-0.5436660647392273,1.2173607349395752
1667825241739578000,2.140578125,0.3084317147731781,-0.6662769317626953,1.096553921699524
1667825241749586200,2.150586181640625,-0.015286579728126526,-0.7439219951629639,0.9353591203689575
1667825241759593000,2.160593017578125,-0.24091091752052307,-0.7797497510910034,0.7574000358581543
1667825241769601000,2.17060107421875,-0.3643094599246979,-0.7897195219993591,0.5954525470733643
1667825241779608000,2.180608154296875,-0.41568103432655334,-0.7900806069374084,0.4771674573421478
1667825241789616000,2.1906162109375,-0.4311121702194214,-0.7719892263412476,0.40244048833847046
1667825241799623000,2.200622802734375,-0.4316381514072418,-0.7115208506584167,0.36456847190856934
1667825241809631200,2.21063134765625,-0.41454052925109863,-0.6001240015029907,0.34401771426200867
1667825241819638000,2.220637939453125,-0.37562963366508484,-0.41918858885765076,0.33781200647354126
1667825241829646000,2.23064599609375,-0.31508970260620117,-0.1952650099992752,0.3376707136631012
1667825241839653000,2.240653076171875,-0.22505328059196472,0.01768695004284382,0.34319597482681274
1667825241849661200,2.2506611328125,-0.11330188065767288,0.19768394529819489,0.3441213071346283
1667825241859668000,2.26066796875,0.01054762490093708,0.3520636558532715,0.34957972168922424
1667825241869676000,2.270676025390625,0.13232950866222382,0.4720609486103058,0.36373674869537354
1667825241879683000,2.28068310546875,0.25071048736572266,0.5451743006706238,0.3834388256072998
1667825241889690000,2.290690185546875,0.34495338797569275,0.5884184837341309,0.41520148515701294
1667825241899698000,2.300697998046875,0.4029996693134308,0.5855174660682678,0.4580588936805725
1667825241909705200,2.310705322265625,0.41991472244262695,0.5283952951431274,0.5068578720092773
1667825241919713000,2.320713134765625,0.4202425479888916,0.44142043590545654,0.5532269477844238
1667825241929720000,2.330719970703125,0.39894452691078186,0.35124602913856506,0.5946077704429626
1667825241939728100,2.34072802734375,0.3685820996761322,0.2512616515159607,0.6195901036262512
1667825241949735200,2.350735107421875,0.3288167715072632,0.16292808949947357,0.61667799949646
1667825241959743000,2.360742919921875,0.283733993768692,0.1170431524515152,0.5866609811782837
1667825241969750300,2.370750244140625,0.23651130497455597,0.11910471320152283,0.5486485362052917
1667825241979758000,2.380758056640625,0.19247913360595703,0.1592704951763153,0.522491455078125
1667825241989765000,2.39076513671875,0.15721434354782104,0.20200228691101074,0.5050880312919617
1667825241999773000,2.40077294921875,0.12924982607364655,0.24745126068592072,0.4849342703819275
1667825242009780200,2.4107802734375,0.11100712418556213,0.3130158483982086,0.48579105734825134
1667825242019788000,2.4207880859375,0.0992913469672203,0.3784305453300476,0.5148602724075317
1667825242029795000,2.430795166015625,0.08996980637311935,0.42973068356513977,0.5772891044616699
1667825242039803100,2.44080322265625,0.07474052160978317,0.4601801931858063,0.6524006128311157
1667825242049810200,2.45081005859375,0.06388157606124878,0.4761398732662201,0.7276434898376465
1667825242059818000,2.46081787109375,0.07584848999977112,0.44278112053871155,0.7894160151481628
1667825242069825300,2.4708251953125,0.11096935719251633,0.33444157242774963,0.8138317465782166
1667825242079833000,2.4808330078125,0.1498565673828125,0.13487385213375092,0.7832463979721069
1667825242089840000,2.490840087890625,0.1673627495765686,-0.12001440674066544,0.6772750616073608
1667825242099848000,2.500847900390625,0.14565160870552063,-0.351319819688797,0.5061299800872803
1667825242109855200,2.510855224609375,0.0854271948337555,-0.532109260559082,0.2813205420970917
1667825242119863000,2.520863037109375,-0.015735913068056107,-0.6345198154449463,0.026263484731316566
1667825242129870000,2.5308701171875,-0.15632173418998718,-0.6565758585929871,-0.23835690319538116
1667825242139878100,2.540878173828125,-0.31772977113723755,-0.6025773882865906,-0.49645158648490906
1667825242149885200,2.55088525390625,-0.47701242566108704,-0.49265673756599426,-0.7459196448326111
1667825242159893000,2.56089306640625,-0.6226375699043274,-0.39026057720184326,-0.9562544822692871
1667825242169900300,2.570900390625,-0.743149995803833,-0.3116127848625183,-1.1200714111328125
1667825242179908000,2.580908203125,-0.8281360268592834,-0.23996601998806,-1.2223243713378906
1667825242189915100,2.5909150390625,-0.8620163202285767,-0.15905532240867615,-1.2575536966323853
1667825242199923000,2.6009228515625,-0.8386029005050659,-0.062337297946214676,-1.237346887588501
1667825242209930200,2.61093017578125,-0.76258784532547,0.038170669227838516,-1.1584919691085815
1667825242219938000,2.62093798828125,-0.6463469862937927,0.13813216984272003,-1.0385500192642212
1667825242229945000,2.630945068359375,-0.4914739429950714,0.21881183981895447,-0.9034181237220764
1667825242239953200,2.640953125,-0.30920931696891785,0.2499745488166809,-0.7725222110748291
1667825242249960200,2.650960205078125,-0.11585622280836105,0.24616435170173645,-0.6606900095939636
1667825242259968000,2.660968017578125,0.06033478304743767,0.20883803069591522,-0.5802547931671143
1667825242269975300,2.670975341796875,0.1909770518541336,0.16295094788074493,-0.5155870914459229
1667825242279983000,2.680983154296875,0.2620350122451782,0.12541848421096802,-0.45879653096199036
1667825242289990100,2.690990234375,0.28028544783592224,0.08862467110157013,-0.3855217695236206
1667825242299998000,2.700998046875,0.24981890618801117,0.06494544446468353,-0.3078000843524933
1667825242310005200,2.711005126953125,0.19167283177375793,0.04992607235908508,-0.21985775232315063
1667825242320013000,2.721012939453125,0.12011607736349106,0.025643102824687958,-0.1412375122308731
1667825242330020000,2.73102001953125,0.04410308599472046,-0.018673164770007133,-0.08199842274188995
1667825242340028200,2.741028076171875,-0.024597415700554848,-0.07456039637327194,-0.05124690756201744
1667825242350035200,2.75103515625,-0.08477015793323517,-0.12401498854160309,-0.04254213348031044
1667825242360042000,2.7610419921875,-0.13885575532913208,-0.15655295550823212,-0.0528847873210907
1667825242370050300,2.77105029296875,-0.19446955621242523,-0.1774507462978363,-0.07871223986148834
1667825242380057000,2.78105712890625,-0.27992504835128784,-0.18956147134304047,-0.1107063889503479
1667825242390065200,2.791065185546875,-0.4074290990829468,-0.20927627384662628,-0.14692339301109314
1667825242400072200,2.801072265625,-0.5701802372932434,-0.23644745349884033,-0.18679916858673096
1667825242410080300,2.811080322265625,-0.7383373975753784,-0.27012452483177185,-0.2230815887451172
1667825242420087000,2.821087158203125,-0.8925179243087769,-0.2996251583099365,-0.2470388561487198
1667825242430095000,2.83109521484375,-1.0107837915420532,-0.32609492540359497,-0.25338152050971985
1667825242440102100,2.84110205078125,-1.0908969640731812,-0.35214224457740784,-0.25515997409820557
1667825242450110200,2.851110107421875,-1.1404918432235718,-0.37858203053474426,-0.24580349028110504
1667825242460117000,2.861116943359375,-1.165284514427185,-0.4073273837566376,-0.2266518920660019
1667825242470125300,2.871125244140625,-1.1711359024047852,-0.4493045508861542,-0.20855465531349182
1667825242480132000,2.881132080078125,-1.1597330570220947,-0.4798182547092438,-0.1998911201953888
1667825242490140200,2.89114013671875,-1.1270618438720703,-0.4832530915737152,-0.23085273802280426
1667825242500147200,2.901147216796875,-1.09332275390625,-0.45433011651039124,-0.3069547116756439
1667825242510155300,2.9111552734375,-1.0726542472839355,-0.37892627716064453,-0.41294053196907043
1667825242520162000,2.921162109375,-1.058786153793335,-0.2795967757701874,-0.5443279147148132
1667825242530170000,2.931170166015625,-1.0407816171646118,-0.18782620131969452,-0.6771026849746704
1667825242540177200,2.94117724609375,-1.0116230249404907,-0.10220131278038025,-0.8123574256896973
1667825242550185200,2.951185302734375,-0.9770545363426208,-0.03399290144443512,-0.9415739178657532
1667825242560192000,2.96119189453125,-0.9413609504699707,0.03429054841399193,-1.0425066947937012
1667825242570200300,2.971200439453125,-0.9125016331672668,0.11755981296300888,-1.0828285217285156
1667825242580207000,2.98120703125,-0.8816797733306885,0.2136266976594925,-1.032340407371521
1667825242590215200,2.991215087890625,-0.8402560949325562,0.3414967358112335,-0.8676432371139526
1667825242600222200,3.00122216796875,-0.7750102281570435,0.44265052676200867,-0.6236838698387146
1667825242610230300,3.011230224609375,-0.6685859560966492,0.41836652159690857,-0.3661156892776489
1667825242620237000,3.021237060546875,-0.506381094455719,0.22098341584205627,-0.17662537097930908
1667825242630245000,3.0312451171875,-0.26903146505355835,-0.10756803303956985,-0.10822922736406326
1667825242640252200,3.041252197265625,0.059343498200178146,-0.4603798985481262,-0.1622714251279831
1667825242650260200,3.05126025390625,0.44084975123405457,-0.7329787611961365,-0.28560400009155273
1667825242660267000,3.06126708984375,0.8221119046211243,-0.8722969889640808,-0.43115535378456116
1667825242670275300,3.071275390625,1.1647348403930664,-0.8785974383354187,-0.5545740127563477
1667825242680282000,3.0812822265625,1.4460657835006714,-0.7885756492614746,-0.6292057037353516
1667825242690290200,3.091290283203125,1.6478804349899292,-0.4913645088672638,-0.5927279591560364
1667825242700297200,3.101297119140625,1.7590007781982422,-0.024902530014514923,-0.4229363203048706
1667825242710305300,3.11130517578125,1.8052928447723389,0.5000084042549133,-0.13838200271129608
1667825242720312000,3.12131201171875,1.849452018737793,0.9515928626060486,0.2548121511936188
1667825242730320100,3.131320068359375,1.9454962015151978,1.2393091917037964,0.6995567679405212
1667825242740327200,3.1413271484375,2.107558488845825,1.3590606451034546,1.108963966369629
1667825242750335200,3.151335205078125,2.313382148742676,1.2604796886444092,1.4284605979919434
1667825242760342000,3.161342041015625,2.5317654609680176,0.9827929735183716,1.644882082939148
1667825242770350300,3.171350341796875,2.6983373165130615,0.6128153800964355,1.775757074356079
1667825242780357000,3.181357177734375,2.743795394897461,0.24216406047344208,1.812816858291626
1667825242790365200,3.191365234375,2.6369762420654297,-0.11184245347976685,1.7639116048812866
1667825242800372200,3.201372314453125,2.381434440612793,-0.43128329515457153,1.6508228778839111
1667825242810380300,3.21138037109375,1.980928897857666,-0.66171795129776,1.4998468160629272
1667825242820387000,3.221386962890625,1.5015666484832764,-0.7959935069084167,1.3269362449645996
1667825242830395100,3.23139501953125,1.0067217350006104,-0.8791508674621582,1.151465892791748
1667825242840402200,3.241402099609375,0.5757173299789429,-0.902633547782898,0.9858508706092834
1667825242850410200,3.25141015625,0.24294251203536987,-0.842788815498352,0.8564552068710327
1667825242860417000,3.2614169921875,0.02112303487956524,-0.7597898244857788,0.7515136003494263
1667825242870424300,3.27142431640625,-0.11854302883148193,-0.7159609198570251,0.6782881021499634
1667825242880432000,3.28143212890625,-0.21752579510211945,-0.7064944505691528,0.6389876008033752
1667825242890439200,3.291439208984375,-0.30128154158592224,-0.7122976183891296,0.6232686638832092
1667825242900447200,3.301447265625,-0.38663211464881897,-0.6986784934997559,0.6180041432380676
1667825242910454300,3.311454345703125,-0.46815454959869385,-0.6536687016487122,0.6048590540885925
1667825242920462000,3.321462158203125,-0.5425385236740112,-0.5798389911651611,0.5786167979240417
1667825242930469400,3.331469482421875,-0.6038669347763062,-0.4787616431713104,0.526940643787384
1667825242940477200,3.341477294921875,-0.6513904929161072,-0.3460845649242401,0.4453701674938202
1667825242950484200,3.351484130859375,-0.6829085946083069,-0.16526013612747192,0.35201603174209595
1667825242960492000,3.361491943359375,-0.6847048997879028,0.0642276406288147,0.2530795931816101
1667825242970499300,3.371499267578125,-0.6520329117774963,0.318031370639801,0.13809627294540405
1667825242980507100,3.381507080078125,-0.5874448418617249,0.5618405938148499,0.027759648859500885
1667825242990514200,3.39151416015625,-0.4918445646762848,0.7753880620002747,-0.06616414338350296
1667825243000522200,3.401522216796875,-0.3975585401058197,0.9421964883804321,-0.12449190020561218
1667825243010529300,3.411529296875,-0.329496830701828,1.0324249267578125,-0.1363750845193863
1667825243020537000,3.421537109375,-0.29525893926620483,1.0369163751602173,-0.11409533768892288
1667825243030544400,3.43154443359375,-0.3002167046070099,0.9878683686256409,-0.04627056047320366
1667825243040552200,3.44155224609375,-0.34179583191871643,0.9065210223197937,0.051292747259140015
1667825243050559200,3.451559326171875,-0.40349140763282776,0.8318539261817932,0.17134343087673187
1667825243060567000,3.461567138671875,-0.46343037486076355,0.7942274212837219,0.3216274678707123
1667825243070574300,3.47157421875,-0.504780113697052,0.7840241193771362,0.4926755130290985
1667825243080582100,3.48158203125,-0.5132841467857361,0.7879751920700073,0.6749718189239502
1667825243090589200,3.491589111328125,-0.4943326413631439,0.7708558440208435,0.8445248603820801
1667825243100597200,3.50159716796875,-0.4430321753025055,0.7092745304107666,0.9847637414932251
1667825243110604300,3.511604248046875,-0.3619244694709778,0.6033226251602173,1.0967541933059692
1667825243120612000,3.521612060546875,-0.2683332860469818,0.4639471769332886,1.1699525117874146
1667825243130619400,3.531619384765625,-0.1626092940568924,0.2743697464466095,1.208672285079956
1667825243140627200,3.541627197265625,-0.06795442849397659,0.01837523654103279,1.186471700668335
1667825243150634200,3.55163427734375,0.0187489353120327,-0.2987087666988373,1.0849782228469849
1667825243160642000,3.56164208984375,0.07231442630290985,-0.6198857426643372,0.9102462530136108
1667825243170649300,3.5716494140625,0.09961544722318649,-0.9389356374740601,0.6763506531715393
1667825243180657200,3.5816572265625,0.08654545247554779,-1.2423830032348633,0.38593804836273193
1667825243190664200,3.591664306640625,0.025580421090126038,-1.525707483291626,0.030072836205363274
1667825243200672300,3.60167236328125,-0.08397803455591202,-1.7312421798706055,-0.3751998245716095
1667825243210679000,3.611678955078125,-0.23118485510349274,-1.821694254875183,-0.7997149229049683
1667825243220687000,3.62168701171875,-0.4098193049430847,-1.764025092124939,-1.1990894079208374
1667825243230694100,3.631694091796875,-0.6231906414031982,-1.5116878747940063,-1.5103191137313843
1667825243240702200,3.6417021484375,-0.8578486442565918,-1.1136001348495483,-1.71042001247406
1667825243250709000,3.651708984375,-1.0654605627059937,-0.6419782638549805,-1.7786462306976318
1667825243260717000,3.661717041015625,-1.207457423210144,-0.21256399154663086,-1.7289799451828003
1667825243270724000,3.67172412109375,-1.2460469007492065,0.13028761744499207,-1.606033444404602
1667825243280732200,3.681732177734375,-1.1785285472869873,0.35305413603782654,-1.4726171493530273
1667825243290739000,3.691739013671875,-1.001114845275879,0.4636465907096863,-1.3583247661590576
1667825243300747300,3.701747314453125,-0.7388129830360413,0.4444204270839691,-1.2864274978637695
1667825243310754000,3.711754150390625,-0.4371849298477173,0.2972472310066223,-1.254262089729309
1667825243320762000,3.72176220703125,-0.14819999039173126,0.07849838584661484,-1.2358311414718628
1667825243330769200,3.73176904296875,0.08473066985607147,-0.1418067365884781,-1.2116554975509644
1667825243340777200,3.741777099609375,0.22748860716819763,-0.27715152502059937,-1.178786277770996
1667825243350784000,3.751783935546875,0.2783975303173065,-0.32413050532341003,-1.1312005519866943
1667825243360792000,3.7617919921875,0.2634340524673462,-0.3206409513950348,-1.0794745683670044
1667825243370799000,3.771799072265625,0.2002272605895996,-0.27827292680740356,-1.021825909614563
1667825243380807200,3.78180712890625,0.11911537498235703,-0.20538330078125,-0.9660702347755432
1667825243390814000,3.79181396484375,0.02847607433795929,-0.124593585729599,-0.9256916642189026
1667825243400822300,3.801822265625,-0.05101475492119789,-0.03969068080186844,-0.8853703737258911
1667825243410829000,3.8118291015625,-0.09982633590698242,0.02014671452343464,-0.8384246230125427
1667825243420837000,3.821837158203125,-0.11944344639778137,0.03664419800043106,-0.7842391133308411
1667825243430844200,3.83184423828125,-0.111771360039711,0.03538081794977188,-0.7066597938537598
1667825243440852200,3.841852294921875,-0.08774539083242416,0.02086552418768406,-0.5926812887191772
1667825243450859000,3.85185888671875,-0.07853181660175323,-0.007397815585136414,-0.4443788230419159
1667825243460867000,3.8618671875,-0.09596726298332214,-0.052238259464502335,-0.27094072103500366
1667825243470874000,3.8718740234375,-0.1542932689189911,-0.10927566885948181,-0.09023858606815338
1667825243480882200,3.881882080078125,-0.235538050532341,-0.15518830716609955,0.07472053915262222
1667825243490889000,3.891888916015625,-0.3198149502277374,-0.20934337377548218,0.2060798853635788
1667825243500899800,3.90189990234375,-0.38507917523384094,-0.26159992814064026,0.2694607377052307
1667825243510908000,3.911907958984375,-0.4170318841934204,-0.3050253987312317,0.2765255272388458
1667825243520914700,3.921914794921875,-0.4247409403324127,-0.3433091342449188,0.22193153202533722
1667825243530923000,3.931923095703125,-0.4156434237957001,-0.35827383399009705,0.112291119992733
1667825243540929800,3.9419296875,-0.4046056866645813,-0.32469695806503296,-0.03392627462744713
1667825243550937900,3.951937744140625,-0.3955855667591095,-0.2563633918762207,-0.19620458781719208
1667825243560945000,3.96194482421875,-0.3820284605026245,-0.1555749773979187,-0.3475102186203003
1667825243570953000,3.971952880859375,-0.3750177025794983,-0.02649405039846897,-0.4638923406600952
1667825243580959700,3.981959716796875,-0.3787890076637268,0.11348675936460495,-0.5366922616958618
1667825243590967800,3.9919677734375,-0.3892399072647095,0.24677756428718567,-0.555916428565979
1667825243600974800,4.001974853515625,-0.39489591121673584,0.3930594027042389,-0.5197006464004517
1667825243610983000,4.01198291015625,-0.38954636454582214,0.5247083306312561,-0.42767009139060974
1667825243620989700,4.02198974609375,-0.362808495759964,0.6145839095115662,-0.2848690152168274
1667825243630998000,4.031998046875,-0.3097390830516815,0.6495880484580994,-0.1241014376282692
1667825243641004800,4.0420048828125,-0.2354600578546524,0.6079298257827759,0.03284743055701256
1667825243651012900,4.052012939453125,-0.13051803410053253,0.46971970796585083,0.1464812308549881
1667825243661020000,4.06202001953125,0.009557835757732391,0.225755512714386,0.18042269349098206
1667825243671028000,4.072028076171875,0.17635683715343475,-0.10060033202171326,0.1182074099779129
1667825243681034800,4.08203466796875,0.34018170833587646,-0.4243493676185608,-0.04060620069503784
1667825243691042800,4.092042724609375,0.49655961990356445,-0.6441934704780579,-0.2578742206096649
1667825243701049900,4.1020498046875,0.6255444884300232,-0.681772768497467,-0.4612624943256378
1667825243711058000,4.112057861328125,0.7081664204597473,-0.5488434433937073,-0.6080713272094727
1667825243721064700,4.122064697265625,0.7391451001167297,-0.25351881980895996,-0.6410524249076843
1667825243731073000,4.132072998046875,0.7163750529289246,0.14946267008781433,-0.5229942798614502
1667825243741079800,4.142079833984375,0.6702362895011902,0.536777913570404,-0.27487847208976746
1667825243751087900,4.152087890625,0.6934298872947693,0.8027222752571106,0.07505084574222565
1667825243761095000,4.162094970703125,0.8048491477966309,0.8858240842819214,0.46985915303230286
1667825243771103000,4.17210302734375,0.9817476868629456,0.8344287276268005,0.8563244342803955
1667825243781109800,4.18210986328125,1.2333709001541138,0.6188708543777466,1.1805193424224854
1667825243791117800,4.192117919921875,1.5447131395339966,0.2905177175998688,1.4149091243743896
1667825243801124900,4.202124755859375,1.8695048093795776,-0.02182365208864212,1.567598581314087
1667825243811133000,4.2121328125,2.140343189239502,-0.2594768702983856,1.6378133296966553
1667825243821139700,4.2221396484375,2.3097293376922607,-0.4684197008609772,1.6143825054168701
1667825243831148000,4.23214794921875,2.352937698364258,-0.6072710752487183,1.516829490661621
1667825243841154800,4.24215478515625,2.251159429550171,-0.6792289018630981,1.3613224029541016
1667825243851163000,4.252162841796875,2.0018861293792725,-0.6941801309585571,1.1505217552185059
1667825243861170000,4.262169921875,1.6186295747756958,-0.6388348340988159,0.89653080701828
1667825243871178000,4.272177978515625,1.1522537469863892,-0.53713458776474,0.6016390323638916
1667825243881184800,4.282184814453125,0.6664960980415344,-0.39313748478889465,0.2940998673439026
1667825243891192800,4.29219287109375,0.24128815531730652,-0.22610247135162354,0.020862556993961334
1667825243901200000,4.302199951171875,-0.05932040512561798,-0.0713464543223381,-0.17257347702980042
1667825243911208000,4.3122080078125,-0.2429305613040924,0.06953725963830948,-0.25864648818969727
1667825243921214700,4.322214599609375,-0.3322599232196808,0.20757049322128296,-0.24091225862503052
1667825243931223000,4.33222314453125,-0.34775933623313904,0.30638182163238525,-0.13335302472114563
1667825243941229800,4.342229736328125,-0.3183836042881012,0.33879807591438293,0.033769916743040085
1667825243951237600,4.352237548828125,-0.28171297907829285,0.3009997308254242,0.2190587818622589
1667825243961245000,4.362244873046875,-0.22906337678432465,0.22179943323135376,0.38540220260620117
1667825243971252700,4.372252685546875,-0.1635075807571411,0.14833053946495056,0.5053141117095947
1667825243981259800,4.382259765625,-0.09243606775999069,0.13092119991779327,0.5794863104820251
1667825243991267600,4.392267578125,-0.02845058962702751,0.1837700754404068,0.6128931045532227
1667825244001275000,4.40227490234375,0.009694131091237068,0.2947480082511902,0.6322678327560425
1667825244011282700,4.41228271484375,0.016889464110136032,0.43886327743530273,0.6400284767150879
1667825244021289700,4.422289794921875,0.005095122382044792,0.5765827894210815,0.6419739127159119
1667825244031297800,4.4322978515625,-0.019931193441152573,0.6794401407241821,0.6358271837234497
1667825244041304800,4.442304931640625,-0.03825560584664345,0.7059667706489563,0.6122294664382935
1667825244051312600,4.452312744140625,-0.05340563505887985,0.6463736295700073,0.5760997533798218
1667825244061320000,4.46231982421875,-0.0694945901632309,0.5318566560745239,0.5154291987419128
1667825244071327700,4.47232763671875,-0.10274016857147217,0.4094599187374115,0.4488946199417114
1667825244081334800,4.482334716796875,-0.15673841536045074,0.3123258948326111,0.38493987917900085
1667825244091342600,4.492342529296875,-0.22957709431648254,0.28946390748023987,0.3426176607608795
1667825244101350000,4.502349853515625,-0.31302350759506226,0.36739492416381836,0.3495250940322876
1667825244111357700,4.512357666015625,-0.3869513273239136,0.4941306412220001,0.41939714550971985
1667825244121364700,4.52236474609375,-0.4506722390651703,0.5743823647499084,0.565048098564148
1667825244131372800,4.532372802734375,-0.497432142496109,0.5965640544891357,0.7612276077270508
1667825244141379800,4.5423798828125,-0.5153735876083374,0.5422760844230652,0.9655698537826538
1667825244151387600,4.5523876953125,-0.47993984818458557,0.3951537311077118,1.1052464246749878
1667825244161395000,4.56239501953125,-0.38829168677330017,0.13014790415763855,1.129241943359375
1667825244171402800,4.57240283203125,-0.26671892404556274,-0.16108527779579163,1.0391288995742798
1667825244181409800,4.582409912109375,-0.16373944282531738,-0.362184077501297,0.8796645998954773
1667825244191417600,4.59241748046875,-0.09675577282905579,-0.4801091253757477,0.6815934181213379
1667825244201425000,4.6024248046875,-0.08575931191444397,-0.5562374591827393,0.48644307255744934
1667825244211432700,4.6124326171875,-0.13510459661483765,-0.5745645761489868,0.3168954849243164
1667825244221439700,4.622439697265625,-0.24089254438877106,-0.5375101566314697,0.16879761219024658
1667825244231447800,4.63244775390625,-0.37487271428108215,-0.43506306409835815,0.047824401408433914
1667825244241454800,4.642454833984375,-0.5055734515190125,-0.3296620547771454,-0.05649854242801666
1667825244251462700,4.652462646484375,-0.6081057786941528,-0.28312015533447266,-0.18407027423381805
1667825244261470000,4.662469970703125,-0.652096152305603,-0.2859787940979004,-0.3315763771533966
1667825244271477800,4.672477783203125,-0.6301010847091675,-0.3109080493450165,-0.4958391487598419
1667825244281484800,4.68248486328125,-0.561620831489563,-0.362316370010376,-0.658170223236084
1667825244291492600,4.69249267578125,-0.48610416054725647,-0.4116728901863098,-0.8171659708023071
1667825244301500000,4.7025,-0.42142394185066223,-0.46165376901626587,-0.9637050628662109
1667825244311506700,4.712506591796875,-0.3758993446826935,-0.45070406794548035,-1.1127707958221436
1667825244321514800,4.7225146484375,-0.35736507177352905,-0.37059006094932556,-1.2497435808181763
1667825244331521800,4.732521728515625,-0.36016449332237244,-0.24333739280700684,-1.3602166175842285
1667825244341529900,4.74252978515625,-0.3698967695236206,-0.1187238097190857,-1.428102970123291
1667825244351536600,4.75253662109375,-0.36566388607025146,-0.037378571927547455,-1.440888524055481
1667825244361545000,4.762544921875,-0.3442283570766449,0.009020617231726646,-1.3989930152893066
1667825244371551700,4.7725517578125,-0.3021540939807892,-0.00658684317022562,-1.3032612800598145
1667825244381559800,4.782559814453125,-0.24880459904670715,-0.08909450471401215,-1.160223126411438
1667825244391566800,4.79256689453125,-0.20288151502609253,-0.21582025289535522,-0.9852291941642761
1667825244401575000,4.802574951171875,-0.1612379252910614,-0.3676427900791168,-0.8137301206588745
1667825244411581700,4.812581787109375,-0.12794432044029236,-0.503359317779541,-0.645627498626709
1667825244421589800,4.82258984375,-0.10881297290325165,-0.5827750563621521,-0.4954196810722351
1667825244431596800,4.8325966796875,-0.10974831879138947,-0.5946435332298279,-0.3700319826602936
1667825244441604900,4.84260498046875,-0.1155042052268982,-0.5741510391235352,-0.2616005837917328
1667825244451611600,4.852611572265625,-0.12819381058216095,-0.5274348258972168,-0.17083053290843964
1667825244461620000,4.862619873046875,-0.15228448808193207,-0.46026644110679626,-0.10294175148010254
1667825244471626800,4.872626708984375,-0.189692422747612,-0.39860889315605164,-0.05025160312652588
1667825244481634800,4.882634765625,-0.23265346884727478,-0.3723871409893036,-0.027429906651377678
1667825244491641900,4.892641845703125,-0.28629130125045776,-0.36601635813713074,-0.020069198682904243
1667825244501645800,4.902645751953125,-0.33093252778053284,-0.37548041343688965,-0.03563857078552246
1667825244511652600,4.912652587890625,-0.3645282983779907,-0.405200332403183,-0.05889234319329262
1667825244521661000,4.922660888671875,-0.383072167634964,-0.42554953694343567,-0.0986272394657135
1667825244531667700,4.932667724609375,-0.3905245363712311,-0.4546317458152771,-0.1585862934589386
1667825244541675800,4.94267578125,-0.3848291039466858,-0.4898326098918915,-0.2555338740348816
1667825244551682800,4.952682861328125,-0.3842619061470032,-0.4995858371257782,-0.38402214646339417
1667825244561691000,4.96269091796875,-0.38493648171424866,-0.4918363094329834,-0.5287226438522339
1667825244571697700,4.97269775390625,-0.3852058947086334,-0.459915429353714,-0.6864120960235596
1667825244581705700,4.982705810546875,-0.40326663851737976,-0.3964887857437134,-0.8338758945465088
1667825244591712800,4.992712646484375,-0.43449926376342773,-0.3167300224304199,-0.9668149948120117
1667825244601720800,5.002720947265625,-0.48190513253211975,-0.24285870790481567,-1.0817610025405884
1667825244611727600,5.0127275390625,-0.5327098965644836,-0.15250921249389648,-1.1725740432739258
1667825244621736000,5.02273583984375,-0.5800201296806335,-0.025946205481886864,-1.2223546504974365
1667825244631742700,5.03274267578125,-0.6034365296363831,0.11008814722299576,-1.205405831336975
1667825244641750800,5.042750732421875,-0.6015124320983887,0.26202067732810974,-1.0911681652069092
1667825244651757800,5.0527578125,-0.5633895397186279,0.40506216883659363,-0.8789230585098267
1667825244661766000,5.062765869140625,-0.4851243495941162,0.47848817706108093,-0.6004538536071777
1667825244671772700,5.072772705078125,-0.3631020486354828,0.45230215787887573,-0.29865700006484985
1667825244681780700,5.08278076171875,-0.18526224792003632,0.3037097454071045,-0.02618473209440708
1667825244691787800,5.092787841796875,0.05686989799141884,0.020244793966412544,0.14508357644081116
1667825244701795800,5.1027958984375,0.35256946086883545,-0.3287464678287506,0.18375374376773834
1667825244711802600,5.112802734375,0.6666189432144165,-0.603688657283783,0.11093626916408539
1667825244721811000,5.12281103515625,0.937870979309082,-0.739071786403656,-0.019412951543927193
1667825244731817700,5.132817626953125,1.1377760171890259,-0.6994418501853943,-0.14265108108520508
1667825244741825800,5.14282568359375,1.2410646677017212,-0.5211767554283142,-0.21684780716896057
1667825244751832800,5.152832763671875,1.2218279838562012,-0.16585156321525574,-0.18885543942451477
1667825244761841000,5.1628408203125,1.1284546852111816,0.3143419325351715,-0.048132143914699554
1667825244771847700,5.17284765625,1.0330657958984375,0.7446619272232056,0.20895683765411377
1667825244781855700,5.182855712890625,0.9964101910591125,1.021704912185669,0.5635008215904236
1667825244791862800,5.19286279296875,1.0279220342636108,1.1825551986694336,0.9749040603637695
1667825244801870800,5.202870849609375,1.1448310613632202,1.2223260402679443,1.4023332595825195
1667825244811877600,5.212877685546875,1.3382377624511719,1.077939748764038,1.7935291528701782
1667825244821886000,5.222885986328125,1.567680835723877,0.8299655318260193,2.131758689880371
1667825244831892700,5.232892822265625,1.7845118045806885,0.5391365885734558,2.4023220539093018
1667825244841900800,5.24290087890625,1.9681532382965088,0.21641680598258972,2.6065282821655273
1667825244851907800,5.252907958984375,2.0621707439422607,-0.07802855968475342,2.710111618041992
1667825244861916000,5.262916015625,2.048325538635254,-0.3249611258506775,2.715087413787842
1667825244871922700,5.272922607421875,1.9204550981521606,-0.529510498046875,2.62345552444458
1667825244881930800,5.2829306640625,1.6923506259918213,-0.700385570526123,2.426957368850708
1667825244891937800,5.292937744140625,1.386639952659607,-0.8205740451812744,2.126890182495117
1667825244901945900,5.30294580078125,1.0300788879394531,-0.8816972970962524,1.756697416305542
1667825244911952600,5.31295263671875,0.6702064871788025,-0.8680769205093384,1.3315420150756836
1667825244921960700,5.322960693359375,0.33808156847953796,-0.7617566585540771,0.908679187297821
1667825244931967700,5.3329677734375,0.07046613842248917,-0.5806880593299866,0.5113868117332458
1667825244941975800,5.342975830078125,-0.12022658437490463,-0.37789368629455566,0.15907807648181915
1667825244951982800,5.35298291015625,-0.2459971308708191,-0.19590036571025848,-0.11600383371114731
1667825244961991000,5.362990966796875,-0.3341626822948456,-0.0680241584777832,-0.2988053560256958
1667825244971997700,5.372997802734375,-0.41293662786483765,0.01602151244878769,-0.4088352620601654
1667825244982005800,5.383005859375,-0.4827524721622467,0.06325826793909073,-0.4763573110103607
1667825244992012800,5.3930126953125,-0.5357847809791565,0.12591899931430817,-0.505862832069397
1667825245002020900,5.403020751953125,-0.558082640171051,0.2006331980228424,-0.5167149901390076
1667825245012027600,5.413027587890625,-0.5369199514389038,0.288994699716568,-0.49988222122192383
1667825245022035700,5.42303564453125,-0.481395959854126,0.39609983563423157,-0.4608733057975769
1667825245032042800,5.433042724609375,-0.3937323987483978,0.5278002619743347,-0.40419045090675354
1667825245042050800,5.44305078125,-0.2894454002380371,0.6635833978652954,-0.31557509303092957
1667825245052057900,5.453057861328125,-0.1719559282064438,0.7710460424423218,-0.1966816484928131
1667825245062066000,5.46306591796875,-0.04055263102054596,0.8308281302452087,-0.04679759964346886
1667825245072072700,5.47307275390625,0.08349522203207016,0.8120597004890442,0.13960453867912292
1667825245082080000,5.483080078125,0.19705374538898468,0.7100592851638794,0.32730627059936523
1667825245092087800,5.493087890625,0.28798845410346985,0.5534002780914307,0.4989287555217743
1667825245102096000,5.503095947265625,0.3559477925300598,0.3658091127872467,0.6205268502235413
1667825245112102700,5.5131025390625,0.40741315484046936,0.16782255470752716,0.6734509468078613
1667825245122110000,5.52310986328125,0.40724191069602966,-0.018401123583316803,0.6427257657051086
1667825245132117800,5.53311767578125,0.36760422587394714,-0.144074946641922,0.5441927909851074
1667825245142124800,5.543124755859375,0.2968035638332367,-0.16980215907096863,0.41932275891304016
1667825245152132900,5.5531328125,0.19415819644927979,-0.11108372360467911,0.29177558422088623
1667825245162140000,5.563139892578125,0.07058858871459961,0.003371752332895994,0.1990581750869751
1667825245172147700,5.573147705078125,-0.06044090911746025,0.09938623011112213,0.13922177255153656
1667825245182155000,5.583155029296875,-0.1707889884710312,0.1300770342350006,0.09575419127941132
1667825245192162800,5.593162841796875,-0.23325209319591522,0.09650005400180817,0.04003990441560745
1667825245202169900,5.603169921875,-0.2600821256637573,0.04009190574288368,-0.026123937219381332
1667825245212177700,5.613177734375,-0.268176794052124,-0.0074987271800637245,-0.08774860203266144
1667825245222185000,5.62318505859375,-0.2795567512512207,-0.025901969522237778,-0.1122286468744278
1667825245232192800,5.63319287109375,-0.3014794588088989,0.0011083839926868677,-0.06634344905614853
1667825245242199800,5.64319970703125,-0.3348160982131958,0.03485835716128349,0.028019538149237633
1667825245252207900,5.653207763671875,-0.3490728437900543,0.023602722212672234,0.13278619945049286
1667825245262215000,5.66321484375,-0.33894166350364685,-0.10340476036071777,0.19678489863872528
1667825245272222700,5.67322265625,-0.3231583833694458,-0.310873419046402,0.18611280620098114
1667825245282230000,5.68322998046875,-0.3311814069747925,-0.5436851382255554,0.09858402609825134
1667825245292237800,5.69323779296875,-0.38122811913490295,-0.7463567852973938,-0.05979013442993164
1667825245302244900,5.703244873046875,-0.4815025329589844,-0.8976842761039734,-0.2806239724159241
1667825245312252700,5.713252685546875,-0.6102811098098755,-0.9555748105049133,-0.5447227358818054
1667825245322260000,5.723260009765625,-0.7534441351890564,-0.9158064126968384,-0.8194535970687866
1667825245332267800,5.733267822265625,-0.9044669270515442,-0.792351484298706,-1.0396593809127808
1667825245342274800,5.74327490234375,-1.0321696996688843,-0.6368343234062195,-1.1636130809783936
1667825245352283000,5.753282958984375,-1.116709589958191,-0.4871652126312256,-1.186513066291809
1667825245362290000,5.7632900390625,-1.144670844078064,-0.3269211947917938,-1.1215705871582031
1667825245372297700,5.773297607421875,-1.101122498512268,-0.18386954069137573,-1.0002435445785522
1667825245382305000,5.783304931640625,-0.9863775372505188,-0.08647961914539337,-0.8668550848960876
1667825245392312800,5.793312744140625,-0.8108012676239014,-0.05126939341425896,-0.756012499332428
1667825245402320000,5.80331982421875,-0.588844358921051,-0.09304480254650116,-0.6864153146743774
1667825245412327700,5.81332763671875,-0.3435036540031433,-0.20105329155921936,-0.6876658201217651
1667825245422335000,5.8233349609375,-0.12256089597940445,-0.34061065316200256,-0.7500192523002625
1667825245432342800,5.8333427734375,0.033277858048677444,-0.4491548538208008,-0.8551569581031799
1667825245442349800,5.843349853515625,0.10328809916973114,-0.5214881300926208,-0.9733666777610779
1667825245452358000,5.85335791015625,0.10230081528425217,-0.5189509987831116,-1.064223051071167
1667825245462365000,5.863364990234375,0.04878006502985954,-0.45438265800476074,-1.1193896532058716
1667825245472372700,5.873372802734375,-0.029614711180329323,-0.35104861855506897,-1.1368454694747925
1667825245482380000,5.883380126953125,-0.099244125187397,-0.2216925024986267,-1.1081373691558838
1667825245492387800,5.893387939453125,-0.14261050522327423,-0.12700407207012177,-1.0130318403244019
1667825245502399000,5.90339892578125,-0.14990970492362976,-0.09930000454187393,-0.8767022490501404
1667825245512407000,5.913406982421875,-0.11575198918581009,-0.10266150534152985,-0.7221564650535583
1667825245522414000,5.9234140625,-0.0479244701564312,-0.12287808954715729,-0.548829972743988
1667825245532422100,5.933422119140625,0.03294576331973076,-0.1340603083372116,-0.37415069341659546
1667825245542429000,5.943428955078125,0.11361397802829742,-0.11547916382551193,-0.2022673487663269
1667825245552437000,5.95343701171875,0.15502725541591644,-0.06483951956033707,-0.0366639643907547
1667825245562444000,5.963444091796875,0.14631126821041107,-0.010696390643715858,0.09853459894657135
1667825245572452000,5.9734521484375,0.09020831435918808,0.0373733714222908,0.20819847285747528
1667825245582459000,5.983458984375,0.01656418666243553,0.06041450798511505,0.2805387079715729
1667825245592467000,5.993467041015625,-0.0674017071723938,0.06951795518398285,0.3057383596897125
1667825245602474000,6.003473876953125,-0.15423940122127533,0.05862349644303322,0.2970239520072937
1667825245612482000,6.01348193359375,-0.2538047730922699,0.006160418502986431,0.26683032512664795
1667825245622489000,6.023489013671875,-0.3580358326435089,-0.062132883816957474,0.2280813306570053
1667825245632497200,6.0334970703125,-0.4600459039211273,-0.1311069130897522,0.1781761646270752
1667825245642504000,6.04350390625,-0.5375432968139648,-0.18125928938388824,0.1130877137184143
1667825245652512000,6.053511962890625,-0.5869972705841064,-0.19456304609775543,0.02132747322320938
1667825245662519000,6.06351904296875,-0.6138430237770081,-0.17549853026866913,-0.1011345311999321
1667825245672527000,6.073527099609375,-0.6215746998786926,-0.12063292413949966,-0.23100414872169495
1667825245682534000,6.083533935546875,-0.6150691509246826,-0.04032237455248833,-0.3646343946456909
1667825245692542000,6.0935419921875,-0.602932870388031,0.05261955037713051,-0.4886026680469513
1667825245702549000,6.103549072265625,-0.6034095883369446,0.16057398915290833,-0.577716588973999
1667825245712557000,6.11355712890625,-0.6183384656906128,0.27170634269714355,-0.6114007234573364
1667825245722564000,6.123564208984375,-0.6350610256195068,0.3914252817630768,-0.5711488723754883
1667825245732572200,6.133572265625,-0.6374285221099854,0.4827272593975067,-0.4480784237384796
1667825245742579000,6.143578857421875,-0.6047086715698242,0.5547891855239868,-0.2563939392566681
1667825245752587000,6.1535869140625,-0.5262381434440613,0.5629234910011292,-0.02819180302321911
1667825245762594000,6.163593994140625,-0.3943738639354706,0.4792027473449707,0.18338249623775482
1667825245772602000,6.17360205078125,-0.2033212035894394,0.31106120347976685,0.3297373056411743
1667825245782609000,6.18360888671875,0.04382413625717163,0.11260668188333511,0.4035753309726715
1667825245792617000,6.193616943359375,0.31348952651023865,-0.059163663536310196,0.3851458728313446
1667825245802624000,6.2036240234375,0.5649033784866333,-0.19092461466789246,0.275724321603775
1667825245812632000,6.213632080078125,0.7609912753105164,-0.25359416007995605,0.10514232516288757
1667825245822639000,6.22363916015625,0.8922520875930786,-0.2404935657978058,-0.09355958551168442
1667825245832647200,6.233647216796875,0.9361525774002075,-0.11040781438350677,-0.2580361068248749
1667825245842654000,6.243654052734375,0.9046116471290588,0.1509380340576172,-0.32763969898223877
1667825245852662000,6.253662109375,0.8431693911552429,0.4828440845012665,-0.27255678176879883
1667825245862669000,6.2636689453125,0.8044619560241699,0.7897212505340576,-0.09019631147384644
1667825245872677000,6.273677001953125,0.8248128890991211,1.0075039863586426,0.1831279844045639
1667825245882684000,6.283683837890625,0.9189844131469727,1.0964879989624023,0.4765843451023102
1667825245892692000,6.29369189453125,1.0656776428222656,1.0837116241455078,0.721849262714386
1667825245902699000,6.303698974609375,1.2510645389556885,0.9615710377693176,0.891822874546051
1667825245912707000,6.31370703125,1.4263323545455933,0.7655911445617676,0.9753068685531616
1667825245922714000,6.323714111328125,1.5306422710418701,0.5575684309005737,0.9818137884140015
1667825245932722200,6.33372216796875,1.5357251167297363,0.3993503153324127,0.9499297142028809
1667825245942729000,6.34372900390625,1.446474313735962,0.275747150182724,0.908602237701416
1667825245952737000,6.353737060546875,1.2715423107147217,0.19204986095428467,0.870383620262146
1667825245962744000,6.363744140625,1.0367281436920166,0.1245104968547821,0.83356112241745
1667825245972752100,6.373752197265625,0.7811465263366699,0.07537281513214111,0.7914783954620361
1667825245982759000,6.383759033203125,0.5324333906173706,0.046606410294771194,0.737834095954895
1667825245992767000,6.39376708984375,0.3305622637271881,0.04038277640938759,0.6700232028961182
1667825246002774000,6.40377392578125,0.20943132042884827,0.04553013667464256,0.5884828567504883
1667825246012782000,6.413781982421875,0.16972273588180542,0.07670989632606506,0.5015581846237183
1667825246022789000,6.4237890625,0.18293309211730957,0.11184737831354141,0.41915464401245117
1667825246032797200,6.433797119140625,0.22092925012111664,0.11459847539663315,0.36362212896347046
1667825246042804000,6.443803955078125,0.26088863611221313,0.08955810219049454,0.34404176473617554
1667825246052812000,6.45381201171875,0.30133187770843506,0.06893961876630783,0.34004202485084534
1667825246062819000,6.463819091796875,0.33892640471458435,0.09758564829826355,0.3413831889629364
1667825246072827100,6.4738271484375,0.3653166890144348,0.16895174980163574,0.33358293771743774
1667825246082834000,6.483833984375,0.36680060625076294,0.23691001534461975,0.30998921394348145
1667825246092842000,6.493842041015625,0.34619227051734924,0.29656481742858887,0.27150702476501465
1667825246102849000,6.50384912109375,0.30134862661361694,0.30937328934669495,0.21359872817993164
1667825246112857000,6.513857177734375,0.23661069571971893,0.28024494647979736,0.1352744996547699
1667825246122864000,6.523864013671875,0.15307238698005676,0.2441609799861908,0.05671791359782219
1667825246132872200,6.5338720703125,0.05668683350086212,0.22840647399425507,-0.017340602353215218
1667825246142879000,6.54387890625,-0.05260716378688812,0.21646752953529358,-0.05370020493865013
1667825246152887000,6.553886962890625,-0.16923657059669495,0.22693483531475067,-0.04614691063761711
1667825246162894000,6.56389404296875,-0.27209851145744324,0.2687597870826721,0.015628837049007416
1667825246172902100,6.573902099609375,-0.3586587607860565,0.34035593271255493,0.12709103524684906
1667825246182909000,6.583908935546875,-0.4152440130710602,0.4359714090824127,0.2825131118297577
1667825246192917000,6.5939169921875,-0.437686949968338,0.5183014273643494,0.4587083160877228
1667825246202924000,6.603924072265625,-0.4418822228908539,0.5536375641822815,0.6432543992996216
1667825246212932000,6.61393212890625,-0.43347495794296265,0.5282939672470093,0.8206714391708374
1667825246222939100,6.623939208984375,-0.4132612943649292,0.4471279978752136,0.981859028339386
1667825246232947200,6.633947265625,-0.37648749351501465,0.3242097795009613,1.1154766082763672
1667825246242954000,6.6439541015625,-0.3240988552570343,0.1316288858652115,1.2025748491287231
1667825246252962000,6.653962158203125,-0.27670371532440186,-0.11937463283538818,1.204317331314087
1667825246262969000,6.663968994140625,-0.23930945992469788,-0.3952634632587433,1.1046441793441772
1667825246272977200,6.67397705078125,-0.2207772135734558,-0.654504120349884,0.9086878299713135
1667825246282984000,6.68398388671875,-0.2360701560974121,-0.8611257076263428,0.6426553726196289
1667825246292992000,6.693991943359375,-0.2996043264865875,-0.9775069355964661,0.34064748883247375
1667825246302999000,6.7039990234375,-0.41216015815734863,-1.0197299718856812,0.01410425640642643
1667825246313007000,6.714007080078125,-0.5587560534477234,-0.9912084341049194,-0.32891297340393066
1667825246323014100,6.72401416015625,-0.7080890536308289,-0.9018191695213318,-0.6599170565605164
1667825246333021200,6.734021240234375,-0.840599536895752,-0.7888264656066895,-0.9432950615882874
1667825246343029000,6.744029052734375,-0.9451440572738647,-0.6616197824478149,-1.1511105298995972
1667825246353037000,6.754037109375,-1.0126044750213623,-0.5014805197715759,-1.2537767887115479
1667825246363044000,6.764044189453125,-1.0292034149169922,-0.32224494218826294,-1.22806978225708
1667825246373052200,6.77405224609375,-0.9999290704727173,-0.12156794220209122,-1.091335654258728
1667825246383059000,6.784058837890625,-0.9238556027412415,0.02150292694568634,-0.8994260430335999
1667825246393066000,6.79406591796875,-0.8007911443710327,0.0932890996336937,-0.697483479976654
1667825246403074000,6.804073974609375,-0.6393340826034546,0.08322608470916748,-0.5456148386001587
1667825246413080800,6.814080810546875,-0.46311134099960327,-0.0051321894861757755,-0.4595395028591156
1667825246423089200,6.824089111328125,-0.31142860651016235,-0.15038073062896729,-0.43926191329956055
1667825246433096000,6.834095947265625,-0.22489525377750397,-0.3008335828781128,-0.47848477959632874
1667825246443104000,6.84410400390625,-0.21561627089977264,-0.4129404127597809,-0.5493301749229431
1667825246453111000,6.854111083984375,-0.26142647862434387,-0.49196553230285645,-0.6357174515724182
1667825246463119000,6.864119140625,-0.33558619022369385,-0.5378333926200867,-0.7238124012947083
1667825246473126000,6.8741259765625,-0.4211322069168091,-0.553185760974884,-0.8046163320541382
1667825246483134000,6.884134033203125,-0.50623619556427,-0.548625111579895,-0.8839523792266846
1667825246493141000,6.89414111328125,-0.5669050812721252,-0.5334666967391968,-0.9584862589836121
1667825246503145700,6.904145751953125,-0.5938568115234375,-0.5204076170921326,-1.0215458869934082
1667825246513152800,6.91415283203125,-0.5864591598510742,-0.4890328347682953,-1.0537657737731934
1667825246523160600,6.92416064453125,-0.5596203207969666,-0.4357911944389343,-1.0402880907058716
1667825246533167900,6.93416796875,-0.5230193734169006,-0.37186846137046814,-0.9863207340240479
1667825246543175700,6.94417578125,-0.488587349653244,-0.32592254877090454,-0.8934264779090881
1667825246553182700,6.9541826171875,-0.4605122208595276,-0.30773988366127014,-0.7865489721298218
1667825246563190800,6.964190673828125,-0.43348491191864014,-0.3023914396762848,-0.6695874333381653
1667825246573197800,6.97419775390625,-0.41251662373542786,-0.3214770555496216,-0.5629411935806274
1667825246583205600,6.98420556640625,-0.4049660265445709,-0.3318023979663849,-0.4911287724971771
1667825246593213000,6.994212890625,-0.4108181893825531,-0.3027384877204895,-0.44961830973625183
1667825246603220700,7.004220703125,-0.4216034710407257,-0.2611774504184723,-0.4306368827819824
1667825246613227800,7.014227783203125,-0.4335266649723053,-0.19952289760112762,-0.41443243622779846
1667825246623235600,7.024235595703125,-0.44209885597229004,-0.14383061230182648,-0.40416887402534485
1667825246633243000,7.034242919921875,-0.4435673952102661,-0.1140139102935791,-0.396643728017807
1667825246643250700,7.044250732421875,-0.42402833700180054,-0.11862463504076004,-0.4013977348804474
1667825246653257700,7.0542578125,-0.3784359395503998,-0.15171633660793304,-0.4153836965560913
1667825246663265800,7.064265869140625,-0.32183417677879333,-0.19468776881694794,-0.46052080392837524
1667825246673272800,7.07427294921875,-0.26130253076553345,-0.22944922745227814,-0.5360221862792969
1667825246683280600,7.08428076171875,-0.21919849514961243,-0.22148530185222626,-0.6345258355140686
1667825246693288000,7.094287841796875,-0.19109925627708435,-0.16169679164886475,-0.7255334258079529
1667825246703295700,7.104295654296875,-0.17116497457027435,-0.06710264086723328,-0.7630621790885925
1667825246713302800,7.114302734375,-0.14215271174907684,0.034201495349407196,-0.7403333187103271
1667825246723310600,7.124310546875,-0.1006992757320404,0.11172610521316528,-0.6347211599349976
1667825246733318000,7.13431787109375,-0.05138253793120384,0.19123408198356628,-0.455130934715271
1667825246743325700,7.14432568359375,0.020159555599093437,0.249816432595253,-0.20830968022346497
1667825246753332700,7.154332763671875,0.11059730499982834,0.2495696246623993,0.06398583948612213
1667825246763340800,7.1643408203125,0.22715827822685242,0.13486115634441376,0.3177941143512726
1667825246773347800,7.174347900390625,0.39917925000190735,-0.09743276983499527,0.4770340323448181
1667825246783355600,7.184355712890625,0.6290854215621948,-0.37968602776527405,0.5209947824478149
1667825246793363000,7.194363037109375,0.8840708136558533,-0.6158653497695923,0.47108519077301025
1667825246803370800,7.204370849609375,1.132735252380371,-0.7882096767425537,0.3679031431674957
1667825246813377800,7.214377685546875,1.3559527397155762,-0.8397669196128845,0.2540401220321655
1667825246823385600,7.224385498046875,1.5339832305908203,-0.7864091396331787,0.1467762440443039
1667825246833393000,7.234392822265625,1.6225334405899048,-0.6293984651565552,0.08842280507087708
1667825246843400700,7.244400634765625,1.6229861974716187,-0.35673388838768005,0.14811810851097107
1667825246853407700,7.25440771484375,1.557971477508545,0.020794395357370377,0.32346221804618835
1667825246863415800,7.264415771484375,1.4787676334381104,0.3934688866138458,0.5932260751724243
1667825246873422800,7.2744228515625,1.4485057592391968,0.6592026352882385,0.9014959931373596
1667825246883430700,7.2844306640625,1.4901975393295288,0.7755095362663269,1.193745732307434
1667825246893438000,7.29443798828125,1.5866972208023071,0.7612281441688538,1.428044080734253
1667825246903445800,7.30444580078125,1.6995166540145874,0.6709400415420532,1.58665931224823
1667825246913452800,7.314452880859375,1.8007618188858032,0.47025805711746216,1.67116117477417
1667825246923460600,7.324460693359375,1.8506971597671509,0.23165877163410187,1.6909130811691284
1667825246933468000,7.334468017578125,1.793398380279541,0.0315333791077137,1.661062240600586
1667825246943475700,7.344475830078125,1.6324914693832397,-0.1594458967447281,1.5775703191757202
1667825246953482800,7.354482666015625,1.3818275928497314,-0.291839599609375,1.4582446813583374
1667825246963490800,7.36449072265625,1.0715222358703613,-0.3602175712585449,1.302429437637329
1667825246973497900,7.374497802734375,0.7305063009262085,-0.347677618265152,1.1433441638946533
1667825246983505700,7.384505615234375,0.4024605453014374,-0.2606380581855774,0.979945957660675
1667825246993513000,7.394512939453125,0.14814020693302155,-0.1325010508298874,0.8156557083129883
1667825247003520800,7.404520751953125,0.009860366582870483,-0.011058775708079338,0.647333562374115
1667825247013527800,7.41452783203125,-0.030319329351186752,0.09985194355249405,0.49404069781303406
1667825247023535600,7.42453564453125,-0.020884014666080475,0.18418307602405548,0.37847521901130676
1667825247033543000,7.43454296875,-0.002070329152047634,0.25218161940574646,0.3101155459880829
1667825247043550700,7.44455078125,0.020588111132383347,0.2977205812931061,0.2992016673088074
1667825247053557800,7.454557861328125,0.019134823232889175,0.3419762849807739,0.32222509384155273
1667825247063565800,7.46456591796875,0.0006980253383517265,0.37824589014053345,0.3603476881980896
1667825247073572900,7.47457275390625,-0.01795848272740841,0.4080999195575714,0.4042714834213257
1667825247083580700,7.48458056640625,-0.03727838397026062,0.4355691075325012,0.44223830103874207
1667825247093588000,7.494587890625,-0.058524925261735916,0.4691323935985565,0.48338326811790466
1667825247103595800,7.504595703125,-0.07713136821985245,0.4845574200153351,0.5382257103919983
1667825247113602800,7.514602783203125,-0.10003428161144257,0.47942060232162476,0.5910506844520569
1667825247123610600,7.524610595703125,-0.1288672685623169,0.4562782645225525,0.6306644082069397
1667825247133618000,7.534617919921875,-0.1666823923587799,0.41249778866767883,0.6607406139373779
1667825247143625700,7.544625732421875,-0.19558754563331604,0.31920379400253296,0.6548768281936646
1667825247153632800,7.5546328125,-0.21437859535217285,0.20114077627658844,0.6131665110588074
1667825247163640800,7.564640869140625,-0.2370428889989853,0.11549138277769089,0.5355603694915771
1667825247173648000,7.57464794921875,-0.2912124991416931,0.11624906212091446,0.4589954912662506
1667825247183655700,7.58465576171875,-0.37241971492767334,0.18763695657253265,0.4099893271923065
1667825247193663000,7.5946630859375,-0.46296998858451843,0.2939160466194153,0.39304178953170776
1667825247203670800,7.6046708984375,-0.5479447841644287,0.3908423185348511,0.4034169316291809
1667825247213677800,7.614677734375,-0.6071479916572571,0.44035130739212036,0.4299160838127136
1667825247223685600,7.624685546875,-0.6310541033744812,0.41425418853759766,0.47811368107795715
1667825247233693000,7.63469287109375,-0.6248846650123596,0.2906281650066376,0.5188220739364624
1667825247243700700,7.64470068359375,-0.6033655405044556,0.09291532635688782,0.5293567776679993
1667825247253707800,7.654707763671875,-0.5736140608787537,-0.17592571675777435,0.4524870216846466
1667825247263715800,7.6647158203125,-0.537132978439331,-0.449886679649353,0.28229159116744995
1667825247273723000,7.674722900390625,-0.5050932765007019,-0.7018733620643616,0.017148826271295547
1667825247283730700,7.684730712890625,-0.5031137466430664,-0.9325489401817322,-0.31105169653892517
1667825247293738000,7.694738037109375,-0.541284441947937,-1.0798356533050537,-0.6551267504692078
1667825247303745800,7.704745849609375,-0.6040527820587158,-1.1188182830810547,-0.9783974885940552
1667825247313752800,7.7147529296875,-0.6953918933868408,-1.0547252893447876,-1.2453889846801758
1667825247323760600,7.7247607421875,-0.7923381924629211,-0.8965659737586975,-1.4138845205307007
1667825247333768000,7.734767822265625,-0.887881875038147,-0.696020245552063,-1.4859402179718018
1667825247343775700,7.744775634765625,-0.950488805770874,-0.47868743538856506,-1.4973249435424805
1667825247353782800,7.75478271484375,-0.9430723786354065,-0.27391859889030457,-1.4740792512893677
1667825247363790800,7.764790771484375,-0.8388248085975647,-0.09489745646715164,-1.4497121572494507
1667825247373798000,7.7747978515625,-0.6696093678474426,0.011445952579379082,-1.4411855936050415
1667825247383805700,7.7848056640625,-0.4594835340976715,0.027003340423107147,-1.4276514053344727
1667825247393813000,7.79481298828125,-0.26397645473480225,-0.01732170581817627,-1.3840543031692505
1667825247403820800,7.80482080078125,-0.13299846649169922,-0.05422379821538925,-1.2927299737930298
1667825247413827800,7.814827880859375,-0.07600394636392593,-0.03411126509308815,-1.1712340116500854
1667825247423835600,7.824835693359375,-0.09276933968067169,0.015192900784313679,-1.037369728088379
1667825247433843000,7.834843017578125,-0.15368781983852386,0.07680056989192963,-0.9138547778129578
1667825247443850800,7.844850830078125,-0.23040896654129028,0.1264442801475525,-0.8121353387832642
1667825247453857800,7.85485791015625,-0.3024982213973999,0.13815248012542725,-0.7276272177696228
1667825247463865900,7.864865966796875,-0.35316699743270874,0.12768518924713135,-0.665522575378418
1667825247473873000,7.874872802734375,-0.386157751083374,0.09998571127653122,-0.6145140528678894
1667825247483880700,7.884880615234375,-0.41136378049850464,0.08419955521821976,-0.5626037120819092
1667825247493888000,7.894887939453125,-0.4555124342441559,0.06456252187490463,-0.5021068453788757
1667825247503894500,7.90489453125,-0.5153185129165649,0.04337068274617195,-0.4265848994255066
1667825247513901800,7.91490185546875,-0.5984853506088257,0.011487231589853764,-0.3380502462387085
1667825247523909600,7.92490966796875,-0.7044150233268738,-0.02761915884912014,-0.24717013537883759
1667825247533916700,7.934916748046875,-0.8155943155288696,-0.0794130191206932,-0.14074572920799255
1667825247543924500,7.944924560546875,-0.9231036901473999,-0.11115097254514694,-0.04213447496294975
1667825247553931800,7.954931884765625,-1.0174354314804077,-0.14320647716522217,0.05306033790111542
1667825247563939600,7.964939697265625,-1.074737548828125,-0.1859334409236908,0.12417099624872208
1667825247573946600,7.974946533203125,-1.0997940301895142,-0.24164080619812012,0.1683703064918518
1667825247583954700,7.98495458984375,-1.0955859422683716,-0.3351731598377228,0.17479518055915833
1667825247593961700,7.994961669921875,-1.0636787414550781,-0.48938092589378357,0.11123529821634293
1667825247603969500,8.004969482421876,-1.0124973058700562,-0.6851695775985718,-0.03443961963057518
1667825247613976800,8.014976806640625,-0.9430214166641235,-0.883150577545166,-0.2570136785507202
1667825247623984600,8.024984619140625,-0.8707836866378784,-1.0485275983810425,-0.5518178939819336
1667825247633991700,8.03499169921875,-0.802440881729126,-1.180454969406128,-0.9046254754066467
1667825247643999500,8.04499951171875,-0.7692515254020691,-1.1940150260925293,-1.2864899635314941
1667825247654006800,8.0550068359375,-0.7745041251182556,-1.0879011154174805,-1.6478453874588013
1667825247664014600,8.0650146484375,-0.8139649629592896,-0.8833115100860596,-1.9405994415283203
1667825247674021600,8.075021728515624,-0.8759979009628296,-0.591025710105896,-2.1153881549835205
1667825247684029700,8.08502978515625,-0.9213645458221436,-0.3182828724384308,-2.1762917041778564
1667825247694036700,8.09503662109375,-0.8871753811836243,-0.19816738367080688,-2.168536901473999
1667825247704044500,8.10504443359375,-0.7433119416236877,-0.16205944120883942,-2.114664316177368
1667825247714051800,8.1150517578125,-0.5121878981590271,-0.13273032009601593,-2.0068764686584473
1667825247724059600,8.1250595703125,-0.22744806110858917,-0.07940850406885147,-1.8348060846328735
1667825247734066700,8.135066650390625,0.10506448894739151,-0.01832602173089981,-1.5896250009536743
1667825247744074500,8.145074462890625,0.4610641300678253,0.024488285183906555,-1.290407419204712
1667825247754081800,8.155081787109374,0.8237119913101196,0.09025979042053223,-0.94048011302948
1667825247764089600,8.165089599609376,1.1665832996368408,0.19530420005321503,-0.5148870348930359
1667825247774096600,8.1750966796875,1.4797916412353516,0.35732075572013855,-0.01082601584494114
1667825247784104700,8.185104736328125,1.778396725654602,0.5137133002281189,0.5255700945854187
1667825247794111700,8.19511181640625,2.0896120071411133,0.5934649109840393,1.0349613428115845
1667825247804119600,8.20511962890625,2.4026386737823486,0.5833216905593872,1.4566079378128052
1667825247814126800,8.215126953125,2.691605567932129,0.502116858959198,1.7587034702301025
1667825247824134700,8.225134765625,2.9228999614715576,0.40659409761428833,1.9343611001968384
1667825247834141700,8.2351416015625,3.0570855140686035,0.3351856470108032,2.0032150745391846
1667825247844149500,8.2451494140625,3.0763981342315674,0.2656204104423523,1.9731242656707764
1667825247854156800,8.25515673828125,2.961672067642212,0.21133005619049072,1.8797136545181274
1667825247864164600,8.26516455078125,2.7279012203216553,0.1833501011133194,1.7668094635009766
1667825247874171600,8.275171630859376,2.4006881713867188,0.18112315237522125,1.638193130493164
1667825247884179700,8.2851796875,2.0088322162628174,0.1803542971611023,1.4986224174499512
1667825247894186800,8.295186767578125,1.6096620559692383,0.16236762702465057,1.3784693479537964
1667825247904194600,8.305194580078124,1.2562294006347656,0.11078912019729614,1.2899954319000244
1667825247914201900,8.315201904296876,0.9948784112930298,0.0556318424642086,1.2433257102966309
1667825247924209700,8.325209716796875,0.8209536671638489,0.04695925861597061,1.2472580671310425
1667825247934216700,8.335216796875,0.7138038277626038,0.06810212135314941,1.2838534116744995
1667825247944224500,8.345224609375,0.6758996248245239,0.09178294986486435,1.3436222076416016
1667825247954231800,8.355231689453126,0.6682267785072327,0.09080157428979874,1.4078683853149414
1667825247964239600,8.365239501953125,0.669337272644043,0.07728683203458786,1.4645198583602905
1667825247974246700,8.37524658203125,0.6772984862327576,0.05252723768353462,1.482812523841858
1667825247984254700,8.385254638671874,0.6751173734664917,0.06988438963890076,1.4509440660476685
1667825247994261800,8.39526171875,0.6366018056869507,0.10695160925388336,1.343756079673767
1667825248004269600,8.40526953125,0.5573322772979736,0.15930429100990295,1.1787471771240234
1667825248014276900,8.41527685546875,0.44929417967796326,0.2554170787334442,0.996718168258667
1667825248024284700,8.42528466796875,0.3136884272098541,0.396502286195755,0.8410550951957703
1667825248034291700,8.435291748046875,0.163416787981987,0.5363498330116272,0.7315326929092407
1667825248044299500,8.445299560546875,-0.006035618018358946,0.6250152587890625,0.6590963006019592
1667825248054306800,8.455306884765625,-0.16827480494976044,0.6266990303993225,0.6110861301422119
1667825248064314600,8.465314697265624,-0.29446014761924744,0.5601778030395508,0.5835274457931519
1667825248074321700,8.47532177734375,-0.38918691873550415,0.4739726185798645,0.5537757277488708
1667825248084329700,8.485329833984375,-0.48217493295669556,0.39867812395095825,0.5229077935218811
1667825248094336800,8.495336669921874,-0.5919125080108643,0.3565599322319031,0.498119056224823
1667825248104344600,8.505344482421876,-0.7227823734283447,0.3567884564399719,0.4958372712135315
1667825248114351900,8.515351806640625,-0.8495450615882874,0.38003385066986084,0.5364335775375366
1667825248124359700,8.525359619140625,-0.9490034580230713,0.455938458442688,0.6305124163627625
1667825248134366700,8.53536669921875,-1.022310495376587,0.5482532382011414,0.7723535299301147
1667825248144374500,8.54537451171875,-1.0677284002304077,0.6347169876098633,0.9319974780082703
1667825248154381800,8.5553818359375,-1.0786221027374268,0.6828275918960571,1.0876778364181519
1667825248164389600,8.5653896484375,-1.0737577676773071,0.6950775980949402,1.1979435682296753
1667825248174396700,8.575396728515624,-1.0575658082962036,0.6905336976051331,1.2499421834945679
1667825248184404700,8.58540478515625,-1.0426456928253174,0.6755438446998596,1.2506223917007446
1667825248194411800,8.595411865234375,-1.0266931056976318,0.6512562036514282,1.2210795879364014
1667825248204419600,8.605419677734375,-1.0036932229995728,0.5845768451690674,1.154768466949463
1667825248214427000,8.615427001953124,-0.9631093740463257,0.46169087290763855,1.0320451259613037
1667825248224434700,8.6254345703125,-0.9228325486183167,0.3008122444152832,0.8424988985061646
1667825248234441700,8.635441650390625,-0.8856040239334106,0.13576796650886536,0.5835832953453064
1667825248244449500,8.645449462890625,-0.8701710104942322,-0.006769729312509298,0.27448001503944397
1667825248254456800,8.655456787109374,-0.8936499357223511,-0.08989418298006058,-0.04451111704111099
1667825248264464600,8.665464599609376,-0.9508796334266663,-0.1157902255654335,-0.34094518423080444
1667825248274471700,8.6754716796875,-1.0389820337295532,-0.11323970556259155,-0.5929042100906372
1667825248284479700,8.685479736328125,-1.1176743507385254,-0.11494173109531403,-0.7770295739173889
1667825248294486800,8.69548681640625,-1.1433700323104858,-0.14485982060432434,-0.8854971528053284
1667825248304494600,8.70549462890625,-1.1058416366577148,-0.20770056545734406,-0.9363651275634766
1667825248314502000,8.715501953125,-1.0205740928649902,-0.30247703194618225,-0.9542627930641174
1667825248324509700,8.725509765625,-0.9050371050834656,-0.4220401644706726,-0.9592610001564026
1667825248334516700,8.735516845703126,-0.7432368397712708,-0.53675776720047,-0.9441936016082764
1667825248344524500,8.745524658203125,-0.5535861849784851,-0.618878960609436,-0.9144194722175598
1667825248354531800,8.75553173828125,-0.3571517765522003,-0.6794149875640869,-0.8610333204269409
1667825248364539600,8.76553955078125,-0.16870224475860596,-0.7000443339347839,-0.7942191362380981
1667825248374546700,8.775546630859376,-0.01589048281311989,-0.7044000029563904,-0.7365363836288452
1667825248384554800,8.7855546875,0.09978790581226349,-0.7134885787963867,-0.7095628380775452
1667825248394561800,8.795561767578125,0.1930350959300995,-0.7370073199272156,-0.7214764952659607
1667825248404569600,8.805569580078124,0.25850972533226013,-0.7995972037315369,-0.7675164341926575
1667825248414577000,8.815576904296876,0.29869580268859863,-0.8706592321395874,-0.8424015045166016
1667825248424584700,8.825584716796875,0.30298107862472534,-0.8780766725540161,-0.9349748492240906
1667825248434591700,8.835591796875,0.2672608494758606,-0.8427231907844543,-1.0370373725891113
1667825248444599600,8.845599609375,0.20770271122455597,-0.78154456615448,-1.1247105598449707
1667825248454606800,8.85560693359375,0.12584863603115082,-0.7144196629524231,-1.1795921325683594
1667825248464614700,8.86561474609375,0.022684980183839798,-0.643359899520874,-1.1850780248641968
1667825248474621700,8.87562158203125,-0.1073061004281044,-0.5742508769035339,-1.1402840614318848
1667825248484629500,8.88562939453125,-0.24350549280643463,-0.5031303763389587,-1.0434792041778564
1667825248494636800,8.89563671875,-0.3809029161930084,-0.4664568305015564,-0.8959928750991821
1667825248504644400,8.905644287109375,-0.5100347995758057,-0.48351386189460754,-0.7380045652389526
1667825248514651600,8.915651611328125,-0.6250813603401184,-0.523091197013855,-0.5798332095146179
1667825248524659500,8.925659423828124,-0.7251887321472168,-0.6030843257904053,-0.440755158662796
1667825248534666500,8.93566650390625,-0.8011130094528198,-0.7083603143692017,-0.3062979578971863
1667825248544674300,8.94567431640625,-0.8482269644737244,-0.8256779313087463,-0.19505158066749573
1667825248554681600,8.955681640625,-0.8716230392456055,-0.9324475526809692,-0.11648746579885483
1667825248564689400,8.965689453125,-0.8752350807189941,-1.002258062362671,-0.09319998323917389
1667825248574696400,8.975696533203125,-0.8474754691123962,-1.0522711277008057,-0.12284731864929199
1667825248584704500,8.98570458984375,-0.8016843199729919,-1.1049892902374268,-0.20887087285518646
1667825248594711300,8.995711181640624,-0.7582387328147888,-1.1482253074645996,-0.34323734045028687
1667825248604719400,9.00571923828125,-0.7379318475723267,-1.1672271490097046,-0.5086297988891602
1667825248614726400,9.015726318359375,-0.7347251176834106,-1.1797634363174438,-0.6785663366317749
1667825248624734500,9.025734375,-0.7441681623458862,-1.1884284019470215,-0.8582444787025452
1667825248634741200,9.0357412109375,-0.7707173228263855,-1.1739133596420288,-1.0295662879943848
1667825248644749300,9.045749267578126,-0.8191440105438232,-1.1351810693740845,-1.1848584413528442
1667825248654756400,9.05575634765625,-0.886935293674469,-1.064054250717163,-1.2909197807312012
1667825248664764400,9.065764404296875,-0.9593147039413452,-0.8873145580291748,-1.3348039388656616
1667825248674771200,9.075771240234374,-1.0142794847488403,-0.6288914084434509,-1.3135764598846436
1667825248684779500,9.085779541015626,-1.0231592655181885,-0.3686123788356781,-1.23441743850708
1667825248694786300,9.095786376953125,-0.9543249011039734,-0.18785351514816284,-1.1411793231964111
1667825248704794400,9.10579443359375,-0.7895750999450684,-0.07293252646923065,-1.0653703212738037
1667825248714801400,9.115801513671874,-0.5410926342010498,-0.0415426641702652,-1.0320937633514404
1667825248724809500,9.1258095703125,-0.24028752744197845,-0.04922562092542648,-1.0278502702713013
1667825248734816300,9.135816162109375,0.08083930611610413,-0.0625472143292427,-1.031441569328308
1667825248744824300,9.14582421875,0.39712536334991455,-0.03988984227180481,-0.994986891746521
1667825248754831400,9.155831298828126,0.6946048736572266,0.04926514998078346,-0.9032569527626038
1667825248764839400,9.16583935546875,0.9632278084754944,0.21741501986980438,-0.7227305769920349
1667825248774846200,9.17584619140625,1.2113300561904907,0.4245273768901825,-0.444465696811676
1667825248784854500,9.1858544921875,1.463135838508606,0.5946815609931946,-0.06217639520764351
1667825248794861300,9.195861328125,1.7290146350860596,0.7311559915542603,0.4077019691467285
1667825248804869400,9.205869384765625,1.9961415529251099,0.8673108816146851,0.9335769414901733
1667825248814876400,9.21587646484375,2.2693614959716797,0.9672908782958984,1.4465291500091553
1667825248824884500,9.225884521484375,2.530181646347046,1.0001451969146729,1.8893284797668457
1667825248834891300,9.235891357421876,2.7583367824554443,0.9504191279411316,2.238243341445923
1667825248844899300,9.2458994140625,2.9268479347229004,0.8595422506332397,2.486820936203003
1667825248854906400,9.25590625,3.026326894760132,0.7414810657501221,2.643901824951172
1667825248864914400,9.26591455078125,3.039421558380127,0.6260993480682373,2.7025978565216064
1667825248874921200,9.275921142578126,2.9547126293182373,0.5085679888725281,2.6807048320770264
1667825248884929500,9.285929443359375,2.7820382118225098,0.3999675214290619,2.5802764892578125
1667825248894936300,9.295936279296875,2.5292561054229736,0.30782920122146606,2.418107748031616
1667825248904944400,9.3059443359375,2.239065408706665,0.2516452670097351,2.2019541263580322
1667825248914951400,9.315951416015626,1.9461513757705688,0.2352827936410904,1.9602032899856567
1667825248924959500,9.32595947265625,1.6851940155029297,0.22675961256027222,1.7170352935791016
1667825248934966300,9.33596630859375,1.4920985698699951,0.23116616904735565,1.5091458559036255
1667825248944974300,9.345974365234374,1.3754023313522339,0.255852609872818,1.3544535636901855
1667825248954981400,9.3559814453125,1.3099921941757202,0.32160255312919617,1.264797329902649
1667825248964989400,9.365989501953125,1.2719361782073975,0.4140331447124481,1.2179222106933594
1667825248974996200,9.375996337890625,1.2576625347137451,0.49856242537498474,1.2092370986938477
1667825248985004500,9.386004638671874,1.2450754642486572,0.5463248491287231,1.208927035331726
1667825248995011300,9.39601123046875,1.204272747039795,0.5510069727897644,1.212315320968628
1667825249005019400,9.406019287109375,1.1447547674179077,0.4976121783256531,1.217740774154663
1667825249015026400,9.4160263671875,1.0917446613311768,0.40888991951942444,1.2173854112625122
1667825249025034500,9.426034423828124,1.0354095697402954,0.32013288140296936,1.2018811702728271
1667825249035041300,9.436041259765625,0.9518724083900452,0.21227587759494781,1.1459941864013672
1667825249045049300,9.44604931640625,0.8412132263183594,0.08941812813282013,1.0424869060516357
1667825249055056400,9.456056396484374,0.730880081653595,-0.04497309774160385,0.8834983706474304
1667825249065064400,9.466064453125,0.5942708253860474,-0.1324552744626999,0.6722756624221802
1667825249075071200,9.4760712890625,0.4290347099304199,-0.13254256546497345,0.4625440537929535
1667825249085079600,9.48607958984375,0.21632325649261475,-0.0600326769053936,0.3195197880268097
1667825249095086300,9.49608642578125,-0.047290001064538956,0.08105643838644028,0.277579128742218
1667825249105094400,9.506094482421876,-0.3330727517604828,0.2975272238254547,0.353943407535553
1667825249115101400,9.516101318359375,-0.5952059626579285,0.4712570011615753,0.5200154781341553
1667825249125109500,9.526109619140625,-0.8232598900794983,0.5561598539352417,0.7243492007255554
1667825249135116300,9.5361162109375,-0.9833140969276428,0.5959959030151367,0.9289720058441162
1667825249145124400,9.546124267578126,-1.0586320161819458,0.5801836252212524,1.0876811742782593
1667825249155131400,9.55613134765625,-1.0445616245269775,0.5194858312606812,1.172304630279541
1667825249165139500,9.566139404296875,-0.9779407978057861,0.42213767766952515,1.1716012954711914
1667825249175146200,9.576146240234374,-0.8916798830032349,0.2932262718677521,1.0772701501846313
1667825249185154600,9.586154541015626,-0.8265267014503479,0.1629718542098999,0.897610604763031
1667825249195161300,9.596161376953125,-0.7954820990562439,0.05830194428563118,0.6603363156318665
1667825249205169400,9.60616943359375,-0.810433030128479,-0.03413211554288864,0.3888067603111267
1667825249215176400,9.616176513671874,-0.8763072490692139,-0.13218995928764343,0.07971731573343277
1667825249225184500,9.6261845703125,-0.986644446849823,-0.20905092358589172,-0.24573960900306702
1667825249235191300,9.63619140625,-1.1086022853851318,-0.2635706663131714,-0.5827216506004333
1667825249245199400,9.646199462890625,-1.22076416015625,-0.2911042869091034,-0.8953983187675476
1667825249255206400,9.656206298828126,-1.2903573513031006,-0.2937390208244324,-1.1732347011566162
1667825249265214500,9.66621435546875,-1.3078657388687134,-0.26522693037986755,-1.3890531063079834
1667825249275221200,9.67622119140625,-1.281395435333252,-0.18946002423763275,-1.532689094543457
1667825249285229600,9.6862294921875,-1.2192140817642212,-0.06882256269454956,-1.5982012748718262
1667825249295236400,9.696236328125,-1.1260896921157837,0.06579162180423737,-1.5789761543273926
1667825249305244400,9.706244384765625,-1.0076141357421875,0.19535841047763824,-1.4844259023666382
1667825249315251500,9.71625146484375,-0.8576035499572754,0.2765195369720459,-1.3556535243988037
1667825249325259500,9.726259521484375,-0.6868901252746582,0.2821260094642639,-1.2080696821212769
1667825249335266300,9.736266357421876,-0.5165938138961792,0.19378095865249634,-1.05257248878479
1667825249345274400,9.7462744140625,-0.38603585958480835,0.05620098486542702,-0.8868128061294556
1667825249355281400,9.756281494140625,-0.30219095945358276,-0.07703377306461334,-0.7406823635101318
1667825249365289500,9.76628955078125,-0.27119070291519165,-0.19569864869117737,-0.6131467819213867
1667825249375296300,9.776296142578126,-0.2819657325744629,-0.31702134013175964,-0.5231582522392273
1667825249385304600,9.7863046875,-0.34078511595726013,-0.4166555106639862,-0.4539712071418762
1667825249395311400,9.796311279296875,-0.4340205192565918,-0.5009316802024841,-0.4101807177066803
1667825249405319400,9.8063193359375,-0.5503513813018799,-0.5719778537750244,-0.3888080418109894
1667825249415326500,9.816326416015626,-0.6747795343399048,-0.6068219542503357,-0.38258954882621765
1667825249425334500,9.82633447265625,-0.8018618226051331,-0.628323495388031,-0.38184571266174316
1667825249435341300,9.83634130859375,-0.923159658908844,-0.6931009292602539,-0.3838459849357605
1667825249445349400,9.846349365234374,-1.0357292890548706,-0.787544846534729,-0.37687358260154724
1667825249455356400,9.8563564453125,-1.1310333013534546,-0.9119020104408264,-0.3624129593372345
1667825249465364500,9.866364501953125,-1.204594373703003,-1.0228012800216675,-0.3699078857898712
1667825249475371300,9.876371337890625,-1.2575275897979736,-1.0988523960113525,-0.3982214033603668
1667825249485379600,9.886379638671874,-1.2791407108306885,-1.1313270330429077,-0.4601185917854309
1667825249495386400,9.896386474609375,-1.2742137908935547,-1.1433448791503906,-0.5631440281867981
1667825249505395500,9.9063955078125,-1.26630437374115,-1.1219918727874756,-0.7198119759559631
1667825249515402200,9.91640234375,-1.2485368251800537,-1.1097172498703003,-0.9298486709594727
1667825249525410300,9.926410400390624,-1.2341434955596924,-1.1458814144134521,-1.2114574909210205
1667825249535417300,9.936417236328126,-1.2380081415176392,-1.181488037109375,-1.538205623626709
1667825249545425400,9.94642529296875,-1.2823859453201294,-1.1876710653305054,-1.8773685693740845
1667825249555432200,9.95643212890625,-1.362184762954712,-1.148423671722412,-2.17403244972229
1667825249565440500,9.9664404296875,-1.4644302129745483,-1.073707103729248,-2.386775255203247
1667825249575447300,9.976447265625,-1.5748287439346313,-0.9466249942779541,-2.5045313835144043
1667825249585455400,9.986455322265625,-1.6627229452133179,-0.7783989906311035,-2.5350804328918457
1667825249595462400,9.99646240234375,-1.6940183639526367,-0.6199164986610413,-2.5022711753845215
1667825249605470500,10.006470458984374,-1.6381124258041382,-0.5322526693344116,-2.4465315341949463
1667825249615477200,10.016477294921875,-1.482911229133606,-0.5182839035987854,-2.4092819690704346
1667825249625485300,10.0264853515625,-1.2383004426956177,-0.5745149254798889,-2.379338502883911
1667825249635492400,10.036492431640625,-0.909044623374939,-0.678947925567627,-2.34955096244812
1667825249645500400,10.04650048828125,-0.5172009468078613,-0.7833999991416931,-2.2924206256866455
1667825249655507200,10.056507080078125,-0.08796131610870361,-0.8096510171890259,-2.1759817600250244
1667825249665515500,10.066515625,0.3492612838745117,-0.7142714858055115,-1.9846057891845703
1667825249675522300,10.076522216796874,0.7583229541778564,-0.46935486793518066,-1.6983875036239624
1667825249685530400,10.0865302734375,1.1338770389556885,-0.10922224074602127,-1.3047637939453125
1667825249695537400,10.096537353515625,1.4566351175308228,0.30928704142570496,-0.8313900232315063
1667825249705545500,10.10654541015625,1.7459255456924438,0.719904899597168,-0.3251532018184662
1667825249715552300,10.11655224609375,2.0305745601654053,1.057113528251648,0.13747788965702057
1667825249725560300,10.126560302734376,2.3215444087982178,1.308522343635559,0.5023277997970581
1667825249735567400,10.1365673828125,2.6071887016296387,1.4806318283081055,0.7569504380226135
1667825249745575400,10.146575439453125,2.8378000259399414,1.6031357049942017,0.9199337363243103
1667825249755582200,10.156582275390624,2.9647085666656494,1.657317042350769,1.013710856437683
1667825249765590500,10.166590576171876,2.9779229164123535,1.665822148323059,1.0730061531066895
1667825249775597300,10.176597412109375,2.868323802947998,1.645012378692627,1.1343094110488892
1667825249785605400,10.18660546875,2.6219663619995117,1.5984076261520386,1.2015392780303955
1667825249795612400,10.1966123046875,2.2707526683807373,1.4997804164886475,1.28292977809906
1667825249805620500,10.206620361328126,1.8342925310134888,1.3344646692276,1.3883401155471802
1667825249815627300,10.216627197265625,1.3595852851867676,1.0724272727966309,1.4955719709396362
1667825249825635300,10.22663525390625,0.917769730091095,0.7465173006057739,1.603110909461975
1667825249835642400,10.236642333984374,0.566294252872467,0.3980320394039154,1.6995030641555786
1667825249845650400,10.246650390625,0.3312849700450897,0.05515776947140694,1.7588574886322021
1667825249855657200,10.2566572265625,0.15128551423549652,-0.235924631357193,1.7753262519836426
1667825249865665500,10.26666552734375,0.005762932356446981,-0.44195660948753357,1.735206961631775
1667825249875672300,10.27667236328125,-0.1269248127937317,-0.5415701866149902,1.6330198049545288
1667825249885680400,10.286680419921876,-0.27933111786842346,-0.5410932302474976,1.492398977279663
1667825249895687400,10.2966875,-0.4599444270133972,-0.4419560730457306,1.3137561082839966
1667825249905695500,10.306695556640625,-0.6639787554740906,-0.2794257700443268,1.111555814743042
1667825249915702300,10.316702392578126,-0.892467200756073,-0.030703803524374962,0.8900313973426819
1667825249925710300,10.32671044921875,-1.108475685119629,0.2353510558605194,0.6754831671714783
1667825249935717400,10.33671728515625,-1.266749382019043,0.43992915749549866,0.4758513867855072
1667825249945725400,10.346725341796875,-1.3560481071472168,0.535211980342865,0.32429274916648865
1667825249955732200,10.356732177734376,-1.4242836236953735,0.5015629529953003,0.22227846086025238
1667825249965740500,10.366740478515625,-1.5355736017227173,0.34319859743118286,0.13002470135688782
1667825249975747300,10.376747314453125,-1.7161476612091064,0.17243888974189758,0.04645010083913803
1667825249985755400,10.38675537109375,-1.9464362859725952,0.07306809723377228,-0.04635946452617645
1667825249995762400,10.396762451171876,-2.1841673851013184,0.06532265245914459,-0.1242850050330162
1667825250005770500,10.4067705078125,-2.4168930053710938,0.11347979307174683,-0.18864428997039795
1667825250015777300,10.41677734375,-2.6180191040039062,0.22519522905349731,-0.23013505339622498
1667825250025785300,10.426785400390624,-2.7345430850982666,0.32185226678848267,-0.27799203991889954
1667825250035792400,10.43679248046875,-2.766277551651001,0.3660716712474823,-0.33494332432746887
1667825250045800400,10.446800537109375,-2.744091510772705,0.45838162302970886,-0.404455304145813
1667825250055807200,10.45680712890625,-2.6863296031951904,0.5919557213783264,-0.5185904502868652
1667825250065815600,10.466815673828124,-2.6161274909973145,0.7475091218948364,-0.6600649952888489
1667825250075822300,10.476822265625,-2.5696868896484375,0.9440881609916687,-0.8045247197151184
1667825250085830400,10.486830322265625,-2.5598506927490234,1.193915843963623,-0.9411637783050537
1667825250095837400,10.49683740234375,-2.5911054611206055,1.595268726348877,-0.9781487584114075
1667825250105845500,10.506845458984374,-2.6966145038604736,2.0292413234710693,-0.9148779511451721
1667825250115852300,10.516852294921875,-2.7818357944488525,2.326489210128784,-0.8355126976966858
1667825250125860400,10.5268603515625,-2.749101161956787,2.655620813369751,-0.6914687156677246
1667825250135867400,10.536867431640625,-2.57458758354187,3.028082847595215,-0.5153638124465942
1667825250145875500,10.54687548828125,-2.3665335178375244,3.1717419624328613,-0.4313799738883972
1667825250155882200,10.55688232421875,-2.208193063735962,3.1779189109802246,-0.455269455909729
1667825250165890600,10.566890625,-2.091550827026367,3.347794771194458,-0.47523200511932373
1667825250175897300,10.5768974609375,-1.9810848236083984,3.5522196292877197,-0.4524422883987427
1667825250185905400,10.586905517578124,-1.8439834117889404,3.635854959487915,-0.37007153034210205
1667825250195912400,10.596912353515625,-1.6669856309890747,3.628439426422119,-0.211237832903862
1667825250205920500,10.60692041015625,-1.4857383966445923,3.5179476737976074,0.009828779846429825
1667825250215927300,10.61692724609375,-1.351157307624817,3.2869443893432617,0.26936233043670654
1667825250225935400,10.626935302734376,-1.2866089344024658,3.004089832305908,0.5139238238334656
1667825250235942400,10.6369423828125,-1.2479170560836792,2.8327863216400146,0.6950289011001587
1667825250245950500,10.646950439453125,-1.1742185354232788,2.6288931369781494,0.811572790145874
1667825250255957200,10.656957275390624,-1.0766092538833618,2.15262770652771,0.910496175289154
1667825250265965600,10.666965576171876,-0.9932243824005127,1.4929436445236206,1.031599998474121
1667825250275972400,10.676972412109375,-0.9535235166549683,0.8549849987030029,1.2162660360336304
1667825250285980400,10.68698046875,-0.9931044578552246,0.40217193961143494,1.4587351083755493
1667825250295987500,10.696987548828124,-1.1131325960159302,0.15771527588367462,1.7109169960021973
1667825250305995500,10.70699560546875,-1.2968672513961792,0.1654011607170105,1.9189541339874268
1667825250316002300,10.717002197265625,-1.4808099269866943,0.6176322102546692,2.0690929889678955
1667825250326010400,10.72701025390625,-1.6288031339645386,0.6321517825126648,2.1299877166748047
1667825250336017400,10.737017333984374,-1.7276051044464111,1.1061115264892578,2.2023093700408936
1667825250346025500,10.747025390625,-1.8190793991088867,1.4133514165878296,2.203071355819702
1667825250356032300,10.7570322265625,-1.909112572669983,1.4366165399551392,2.1244871616363525
1667825250366040600,10.76704052734375,-1.9303169250488281,1.343255877494812,2.049809694290161
1667825250376047400,10.77704736328125,-1.8954954147338867,1.1220207214355469,1.9642596244812012
1667825250386055400,10.787055419921876,-1.9233059883117676,0.6800573468208313,1.7805453538894653
1667825250396062500,10.7970625,-2.025850296020508,-0.046120114624500275,1.475227952003479
1667825250406070500,10.807070556640625,-2.1700000762939453,-0.9764357805252075,1.0934871435165405
1667825250416077300,10.817077392578126,-2.3434031009674072,-1.8638836145401,0.7466662526130676
1667825250426085400,10.82708544921875,-2.5239007472991943,-2.39206600189209,0.5143342018127441
1667825250436092400,10.837092529296875,-2.696587085723877,-2.4510555267333984,0.410891592502594
1667825250446100500,10.8471005859375,-2.8748977184295654,-2.260560989379883,0.4175702631473541
1667825250456107300,10.857107177734376,-3.0721042156219482,-2.0815494060516357,0.5159727931022644
1667825250466115600,10.867115478515625,-3.2790322303771973,-2.020749092102051,0.627562940120697
1667825250476122400,10.877122314453125,-3.479414939880371,-1.830147624015808,0.603035032749176
1667825250486130400,10.88713037109375,-3.6543924808502197,-2.0758113861083984,0.5779062509536743
1667825250496137500,10.897137451171876,-3.7232465744018555,-2.1756017208099365,0.45286938548088074
1667825250506145000,10.90714501953125,-3.6581315994262695,-2.1596662998199463,0.31227099895477295
1667825250516151800,10.91715185546875,-3.4745171070098877,-2.1334455013275146,0.28998878598213196
1667825250526160100,10.92716015625,-3.209049940109253,-1.9713623523712158,0.29836520552635193
1667825250536167000,10.9371669921875,-2.8933472633361816,-1.7912706136703491,0.2633657157421112
1667825250546175000,10.947175048828125,-2.55230712890625,-1.6859562397003174,0.19780826568603516
1667825250556182000,10.95718212890625,-2.2149059772491455,-1.5667527914047241,0.17459642887115479
1667825250566190000,10.967190185546874,-1.949288249015808,-1.3979706764221191,0.24097411334514618
1667825250576196900,10.97719677734375,-1.8515853881835938,-1.2483149766921997,0.3464302122592926
1667825250586205000,10.987204833984375,-1.900941252708435,-1.1104580163955688,0.4449205696582794
1667825250596212000,10.9972119140625,-2.033228874206543,-1.0086700916290283,0.5104989409446716
1667825250606220000,11.007219970703124,-2.2085154056549072,-0.9029601812362671,0.5068495869636536
1667825250616226800,11.017226806640625,-2.423243999481201,-0.7917815446853638,0.4018189311027527
1667825250626235100,11.027235107421875,-2.6881964206695557,-0.7166710495948792,0.2266700118780136
1667825250636242000,11.037241943359374,-2.911031723022461,-0.7096632719039917,0.05927564576268196
1667825250646250000,11.04725,-2.963043689727783,-0.7334487438201904,-0.08367644250392914
1667825250656257000,11.057257080078125,-2.866455316543579,-0.7696231603622437,-0.19685260951519012
1667825250666265000,11.06726513671875,-2.6509218215942383,-0.8128196597099304,-0.3029601275920868
1667825250676271900,11.07727197265625,-2.3849897384643555,-0.8413721919059753,-0.3951443135738373
1667825250686280000,11.087280029296876,-2.1286439895629883,-0.8378669619560242,-0.45419004559516907
1667825250696287000,11.097286865234375,-1.9060094356536865,-0.8139488101005554,-0.45747438073158264
1667825250706295000,11.107294921875,-1.716232419013977,-0.7431644201278687,-0.38973209261894226
1667825250716301800,11.1173017578125,-1.5346828699111938,-0.6145048141479492,-0.2473556399345398
1667825250726310000,11.127309814453126,-1.365962028503418,-0.42084747552871704,-0.05095390975475311
1667825250736317000,11.13731689453125,-1.2340269088745117,-0.20672763884067535,0.16969236731529236
1667825250746325000,11.147324951171875,-1.1454375982284546,-0.027532042935490608,0.3625342547893524
1667825250756332000,11.15733203125,-1.09786057472229,0.08223685622215271,0.5319379568099976
1667825250766340000,11.167340087890626,-1.074169397354126,0.07603542506694794,0.6629900336265564
1667825250776347000,11.177346923828125,-1.0659984350204468,-0.01536749117076397,0.7628662586212158
1667825250786355000,11.18735498046875,-1.055588722229004,-0.11001171171665192,0.8679417967796326
1667825250796362000,11.197362060546874,-1.0372719764709473,-0.18323110044002533,0.9930899739265442
1667825250806370000,11.2073701171875,-1.0180495977401733,-0.22275613248348236,1.2217695713043213
1667825250816376800,11.217376953125,-1.0012261867523193,-0.5409439206123352,1.3482966423034668
1667825250826385000,11.227385009765625,-0.9507207274436951,-0.7756602764129639,1.4285366535186768
1667825250836392000,11.237391845703126,-0.9153335094451904,-0.9022805094718933,1.3869620561599731
1667825250846400000,11.24739990234375,-0.910069465637207,-0.9078955054283142,1.2694470882415771
1667825250856407000,11.257406982421875,-0.9247114062309265,-0.8196957111358643,1.0953477621078491
1667825250866415000,11.2674150390625,-0.9605868458747864,-0.6648337244987488,0.904374897480011
1667825250876422000,11.277421875,-1.0112682580947876,-0.4632944166660309,0.7692384719848633
