time,seconds_elapsed,z,y,x
1667825239614238500,0.015238525390625,-0.6287901997566223,-0.8735844492912292,1.1588060855865479
1667825239624245800,0.025245849609375,-0.686873197555542,-0.7241230607032776,1.0041680335998535
1667825239634253600,0.035253662109375,-0.7359781265258789,-0.5464012622833252,0.8457126021385193
1667825239644260600,0.045260498046875,-0.7289662957191467,-0.42383408546447754,0.7066833972930908
1667825239654267600,0.055267578125,-0.6901712417602539,-0.39772525429725647,0.627694308757782
1667825239664275700,0.065275634765625,-0.6634584069252014,-0.5123509168624878,0.601464569568634
1667825239674282500,0.075282470703125,-0.6871610879898071,-0.7762797474861145,0.6048664450645447
1667825239684290600,0.08529052734375,-0.7581910490989685,-1.1219487190246582,0.6148727536201477
1667825239694297600,0.095297607421875,-0.8887237310409546,-1.4366153478622437,0.5895103812217712
1667825239704305700,0.1053056640625,-1.0347791910171509,-1.7165045738220215,0.5349355936050415
1667825239714312400,0.1153125,-1.175445318222046,-1.9473196268081665,0.4517456293106079
1667825239724320800,0.12532080078125,-1.278475284576416,-2.0131466388702393,0.38332846760749817
1667825239734327600,0.13532763671875,-1.3401665687561035,-1.9192975759506226,0.3335058093070984
1667825239744335600,0.145335693359375,-1.377197265625,-1.7146885395050049,0.2753008008003235
1667825239754342700,0.1553427734375,-1.3790258169174194,-1.2185133695602417,0.1809585988521576
1667825239764350700,0.165350830078125,-1.334061861038208,-0.9680652022361755,0.11068310588598251
1667825239774357500,0.175357421875,-1.2633615732192993,-0.8263295888900757,0.059183429926633835
1667825239784365600,0.185365478515625,-1.1922532320022583,-0.6575925350189209,0.009565009735524654
1667825239794372600,0.19537255859375,-1.1026676893234253,-0.5644428730010986,-0.03530126437544823
1667825239804380700,0.205380615234375,-0.9895954728126526,-0.581230640411377,-0.09931620210409164
1667825239814387500,0.215387451171875,-0.8744451999664307,-0.7122179269790649,-0.18762502074241638
1667825239824395800,0.225395751953125,-0.7954960465431213,-0.850733757019043,-0.3219633996486664
1667825239834402600,0.235402587890625,-0.7623154520988464,-1.0125929117202759,-0.5275058746337891
1667825239844410600,0.24541064453125,-0.755238950252533,-1.1506799459457397,-0.8233793377876282
1667825239854417700,0.255417724609375,-0.7553827166557312,-1.226790428161621,-1.1729954481124878
1667825239864425700,0.26542578125,-0.7352961301803589,-1.2157114744186401,-1.5509827136993408
1667825239874432500,0.2754326171875,-0.6705916523933411,-1.18891179561615,-1.9511446952819824
1667825239884440600,0.285440673828125,-0.5546531081199646,-1.1456940174102783,-2.347182273864746
1667825239894447600,0.295447509765625,-0.3560374677181244,-1.1098841428756714,-2.70918345451355
1667825239904455700,0.30545556640625,-0.07690303772687912,-1.0956753492355347,-3.0409491062164307
1667825239914462500,0.31546240234375,0.21833713352680206,-1.1287366151809692,-3.3449840545654297
1667825239924470800,0.325470703125,0.45764318108558655,-1.2388445138931274,-3.604893207550049
1667825239934477600,0.3354775390625,0.5999776721000671,-1.399290919303894,-3.8122005462646484
1667825239944485600,0.345485595703125,0.6833277344703674,-1.55615234375,-3.9507174491882324
1667825239954492700,0.35549267578125,0.7094250917434692,-1.5455257892608643,-3.978286027908325
1667825239964499500,0.36549951171875,0.6389975547790527,-1.2517073154449463,-3.8771560192108154
1667825239974507500,0.375507568359375,0.4834878444671631,-0.6743784546852112,-3.660098075866699
1667825239984514600,0.3855146484375,0.2550048530101776,-0.06523998826742172,-3.390399217605591
1667825239994522600,0.395522705078125,-0.041786860674619675,0.43752461671829224,-3.120732545852661
1667825240004529400,0.405529296875,-0.3690613806247711,0.837888777256012,-2.8398733139038086
1667825240014537500,0.415537353515625,-0.6835601925849915,1.1339324712753296,-2.550753116607666
1667825240024544500,0.42554443359375,-0.9282804727554321,1.3214669227600098,-2.2606558799743652
1667825240034552600,0.435552490234375,-1.0705699920654297,1.3421213626861572,-1.9899948835372925
1667825240044559400,0.445559326171875,-1.0950825214385986,1.187504529953003,-1.7530031204223633
1667825240054567700,0.455567626953125,-1.0326471328735352,0.9396026134490967,-1.5535746812820435
1667825240064574500,0.465574462890625,-0.9231640100479126,0.6278634071350098,-1.4149653911590576
1667825240074582500,0.47558251953125,-0.8096446394920349,0.28702643513679504,-1.3335003852844238
1667825240084589600,0.485589599609375,-0.7089939117431641,-0.015615178272128105,-1.2891430854797363
1667825240094597600,0.49559765625,-0.6249848008155823,-0.17149291932582855,-1.2391581535339355
1667825240104604400,0.5056044921875,-0.5624324679374695,-0.19480064511299133,-1.1725096702575684
1667825240114612500,0.515612548828125,-0.5347004532814026,-0.13637594878673553,-1.0736424922943115
1667825240124619500,0.52561962890625,-0.541019856929779,-0.039433158934116364,-0.9503570199012756
1667825240134627600,0.535627685546875,-0.561046302318573,0.04297143593430519,-0.8257852792739868
1667825240144634400,0.54563427734375,-0.5783848166465759,0.06498778611421585,-0.7166209816932678
1667825240154642700,0.555642578125,-0.5690165758132935,0.038724493235349655,-0.6126596927642822
1667825240164649500,0.5656494140625,-0.5258483290672302,-0.015723569318652153,-0.5158513784408569
1667825240174657500,0.575657470703125,-0.4630320966243744,-0.07706202566623688,-0.42161300778388977
1667825240184664600,0.58566455078125,-0.40373921394348145,-0.16780364513397217,-0.3267251253128052
1667825240194672600,0.595672607421875,-0.35917627811431885,-0.2712743878364563,-0.2544408142566681
1667825240204679400,0.605679443359375,-0.32496902346611023,-0.3863106966018677,-0.22915302217006683
1667825240214687500,0.6156875,-0.30181685090065,-0.5007432699203491,-0.24957707524299622
1667825240224694500,0.625694580078125,-0.29222652316093445,-0.5860397815704346,-0.30506882071495056
1667825240234702600,0.63570263671875,-0.2988301217556,-0.6322363018989563,-0.37872761487960815
1667825240244709400,0.64570947265625,-0.31052297353744507,-0.6275635361671448,-0.4563206732273102
1667825240254716700,0.655716552734375,-0.32691046595573425,-0.5736656785011292,-0.5283466577529907
1667825240264724500,0.665724365234375,-0.3514650762081146,-0.47755590081214905,-0.6073927283287048
1667825240274731500,0.6757314453125,-0.3764452636241913,-0.37711772322654724,-0.6731011867523193
1667825240284739600,0.685739501953125,-0.3885043263435364,-0.2941208481788635,-0.7241172194480896
1667825240294746600,0.69574658203125,-0.3956221640110016,-0.19929632544517517,-0.7439292669296265
1667825240304754400,0.70575439453125,-0.3943691551685333,-0.10928920656442642,-0.7288376688957214
1667825240314761700,0.71576171875,-0.39247989654541016,-0.04093198850750923,-0.6843322515487671
1667825240324769500,0.72576953125,-0.38142910599708557,-0.006482400465756655,-0.6005164384841919
1667825240334776600,0.735776611328125,-0.36512550711631775,0.011767709627747536,-0.5004060864448547
1667825240344784400,0.745784423828125,-0.34786850214004517,0.020600616931915283,-0.3824014365673065
1667825240354791700,0.755791748046875,-0.34416162967681885,0.025121064856648445,-0.2612158954143524
1667825240364799500,0.765799560546875,-0.346537709236145,0.023511983454227448,-0.1447334885597229
1667825240374806500,0.775806640625,-0.3563424050807953,0.03694869577884674,-0.039027824997901917
1667825240384814600,0.785814697265625,-0.3687697649002075,0.07739731669425964,0.05847502872347832
1667825240394821600,0.795821533203125,-0.3814498782157898,0.12335042655467987,0.156008780002594
1667825240404829400,0.805829345703125,-0.3930676579475403,0.15504896640777588,0.24705319106578827
1667825240414836700,0.815836669921875,-0.40089255571365356,0.19642916321754456,0.343471884727478
1667825240424844500,0.825844482421875,-0.4085656702518463,0.2661363482475281,0.43662285804748535
1667825240434851600,0.8358515625,-0.4061989188194275,0.34498855471611023,0.5352703332901001
1667825240444859400,0.845859375,-0.40330377221107483,0.4256133437156677,0.643160879611969
1667825240454866700,0.85586669921875,-0.4010731279850006,0.5042383670806885,0.7572101950645447
1667825240464874500,0.86587451171875,-0.3978815972805023,0.5569077134132385,0.8813393115997314
1667825240474881500,0.875881591796875,-0.39929041266441345,0.5695124864578247,1.0012526512145996
1667825240484889600,0.8858896484375,-0.4060998260974884,0.5441027283668518,1.129720687866211
1667825240494897400,0.8958974609375,-0.4182877838611603,0.47950828075408936,1.260697364807129
1667825240504905200,0.9059052734375,-0.428352415561676,0.36732155084609985,1.3891117572784424
1667825240514912300,0.915912353515625,-0.4430141746997833,0.22506533563137054,1.492269515991211
1667825240524920300,0.92592041015625,-0.4563685953617096,0.06017758697271347,1.571671962738037
1667825240534927400,0.93592724609375,-0.46843644976615906,-0.11680863797664642,1.6142644882202148
1667825240544934400,0.945934326171875,-0.4750261902809143,-0.2988679111003876,1.6082019805908203
1667825240554942500,0.9559423828125,-0.48209500312805176,-0.4758925139904022,1.5421724319458008
1667825240564949200,0.96594921875,-0.48427534103393555,-0.6209990978240967,1.3999662399291992
1667825240574957300,0.975957275390625,-0.4808984398841858,-0.722963809967041,1.194792628288269
1667825240584964400,0.98596435546875,-0.47792157530784607,-0.7690876126289368,0.9472853541374207
1667825240594972400,0.995972412109375,-0.4707097113132477,-0.7545438408851624,0.668872594833374
1667825240604979200,1.005979248046875,-0.4692404568195343,-0.6786437630653381,0.397387832403183
1667825240614987300,1.0159873046875,-0.47121837735176086,-0.5476572513580322,0.15037192404270172
1667825240624994300,1.025994384765625,-0.4869217276573181,-0.3993322253227234,-0.06557634472846985
1667825240635002400,1.03600244140625,-0.4845888018608093,-0.2513464689254761,-0.24053910374641418
1667825240645009200,1.046009033203125,-0.4572935104370117,-0.1256285011768341,-0.3591235280036926
1667825240655017500,1.056017578125,-0.3873820900917053,-0.031309451907873154,-0.42187801003456116
1667825240665024300,1.066024169921875,-0.2869310975074768,0.019951337948441505,-0.4357735812664032
1667825240675032300,1.0760322265625,-0.15390300750732422,0.029919017106294632,-0.4324728548526764
1667825240685039400,1.086039306640625,0.0005107942852191627,0.011217234656214714,-0.40731558203697205
1667825240695047400,1.09604736328125,0.1690225750207901,-0.020923390984535217,-0.37875741720199585
1667825240705054200,1.10605419921875,0.3393346667289734,-0.059411127120256424,-0.34311822056770325
1667825240715062300,1.116062255859375,0.48388731479644775,-0.10374237596988678,-0.31319281458854675
1667825240725069300,1.1260693359375,0.5949507355690002,-0.13794589042663574,-0.27825185656547546
1667825240735077400,1.136077392578125,0.6611158847808838,-0.15808604657649994,-0.2432968020439148
1667825240745084200,1.146084228515625,0.6940112709999084,-0.13714240491390228,-0.2167980819940567
1667825240755092500,1.156092529296875,0.7092048525810242,-0.08976983278989792,-0.21068879961967468
1667825240765099300,1.166099365234375,0.706089198589325,-0.010546917095780373,-0.2279471457004547
1667825240775107300,1.176107421875,0.6815095543861389,0.0966237410902977,-0.25466638803482056
1667825240785114400,1.1861142578125,0.6331306099891663,0.23263537883758545,-0.28991010785102844
1667825240795122400,1.196122314453125,0.5548299551010132,0.3706539571285248,-0.30532288551330566
1667825240805129200,1.206129150390625,0.45364072918891907,0.4726322591304779,-0.2773493230342865
1667825240815136300,1.21613623046875,0.34766024351119995,0.5210157632827759,-0.2024282068014145
1667825240825144300,1.226144287109375,0.2477235198020935,0.5153602957725525,-0.08219181001186371
1667825240835151000,1.236151123046875,0.17474810779094696,0.48599547147750854,0.05344484746456146
1667825240845159200,1.2461591796875,0.1496179848909378,0.43878480792045593,0.1882506012916565
1667825240855166200,1.256166259765625,0.16423209011554718,0.34281593561172485,0.30680468678474426
1667825240865174300,1.26617431640625,0.19904066622257233,0.20908024907112122,0.3851466178894043
1667825240875181300,1.276181396484375,0.24574345350265503,0.03326075151562691,0.4250703454017639
1667825240885189400,1.286189453125,0.2891724109649658,-0.16275295615196228,0.4101552963256836
1667825240895196200,1.296196044921875,0.32489126920700073,-0.3374291658401489,0.3330408036708832
1667825240905204200,1.306204345703125,0.3459435701370239,-0.4986896812915802,0.20070487260818481
1667825240915211300,1.316211181640625,0.3469081521034241,-0.6437094807624817,0.01534779742360115
1667825240925219300,1.32621923828125,0.3251916766166687,-0.7746539115905762,-0.2318263053894043
1667825240935226000,1.33622607421875,0.2724086344242096,-0.8752337694168091,-0.5235617756843567
1667825240945234200,1.346234130859375,0.19057659804821014,-0.9075078368186951,-0.8142311573028564
1667825240955241200,1.3562412109375,0.09013495594263077,-0.8459291458129883,-1.066220760345459
1667825240965249300,1.366249267578125,-0.017295366153120995,-0.6373202800750732,-1.2521840333938599
1667825240975256300,1.37625634765625,-0.10387340188026428,-0.3300713896751404,-1.3367513418197632
1667825240985264400,1.386264404296875,-0.14920306205749512,-0.008469118736684322,-1.320854902267456
1667825240995271200,1.396271240234375,-0.13211356103420258,0.26265719532966614,-1.2070481777191162
1667825241005279200,1.406279296875,-0.06515796482563019,0.47420912981033325,-0.9982110857963562
1667825241015286300,1.416286376953125,0.04867326468229294,0.6180035471916199,-0.7147002816200256
1667825241025294300,1.42629443359375,0.1955047845840454,0.6836169362068176,-0.39125511050224304
1667825241035301000,1.436301025390625,0.3644501268863678,0.6778245568275452,-0.06648368388414383
1667825241045309200,1.44630908203125,0.5301413536071777,0.6115728616714478,0.22569730877876282
1667825241055316200,1.456316162109375,0.6696699857711792,0.5486937165260315,0.47195687890052795
1667825241065324300,1.46632421875,0.7648382782936096,0.5036567449569702,0.683364987373352
1667825241075331300,1.476331298828125,0.805086612701416,0.4735558331012726,0.8423072695732117
1667825241085339400,1.48633935546875,0.7981863617897034,0.4605303108692169,0.9593784809112549
1667825241095346200,1.49634619140625,0.74785315990448,0.47847896814346313,1.0459834337234497
1667825241105354200,1.506354248046875,0.6786072850227356,0.5054101943969727,1.1159974336624146
1667825241115361300,1.516361328125,0.5985776782035828,0.5206416249275208,1.1591328382492065
1667825241125369300,1.526369384765625,0.5108677744865417,0.511807382106781,1.1791495084762573
1667825241135376100,1.536376220703125,0.41214922070503235,0.4765321910381317,1.185243010520935
1667825241145383400,1.546383544921875,0.3107765018939972,0.4283825159072876,1.1807359457015991
1667825241155391200,1.55639111328125,0.21376235783100128,0.36977139115333557,1.1684690713882446
1667825241165398300,1.566398193359375,0.11707655340433121,0.29061612486839294,1.1358355283737183
1667825241175406300,1.57640625,0.00788615271449089,0.2248688042163849,1.0897021293640137
1667825241185413400,1.586413330078125,-0.0946335643529892,0.18969829380512238,1.0387712717056274
1667825241195421200,1.596421142578125,-0.1953633725643158,0.18305690586566925,0.9952406287193298
1667825241205428500,1.606428466796875,-0.30307093262672424,0.19613675773143768,0.9555459022521973
1667825241215436300,1.616436279296875,-0.41705501079559326,0.19149726629257202,0.9276349544525146
1667825241225443300,1.626443359375,-0.5570563077926636,0.18495707213878632,0.8985627889633179
1667825241235451100,1.636451171875,-0.7134110331535339,0.18676988780498505,0.870011568069458
1667825241245458400,1.64645849609375,-0.8826847672462463,0.1777803897857666,0.8344919085502625
1667825241255466200,1.65646630859375,-1.0503818988800049,0.14153742790222168,0.7806811928749084
1667825241265473300,1.666473388671875,-1.2062127590179443,0.08925184607505798,0.7219448685646057
1667825241275481300,1.6764814453125,-1.3452228307724,0.005007808096706867,0.6575040817260742
1667825241285488400,1.68648828125,-1.4672284126281738,-0.11891227215528488,0.5864629745483398
1667825241295496200,1.69649609375,-1.5709902048110962,-0.2579665780067444,0.5115245580673218
1667825241305503500,1.70650341796875,-1.6641020774841309,-0.38741084933280945,0.4190499782562256
1667825241315511300,1.71651123046875,-1.7403310537338257,-0.5087729692459106,0.3007188141345978
1667825241325518300,1.726518310546875,-1.8021634817123413,-0.5812522172927856,0.16208158433437347
1667825241335526100,1.736526123046875,-1.8439772129058838,-0.6089107394218445,0.025783127173781395
1667825241345533400,1.746533447265625,-1.8755525350570679,-0.6021870374679565,-0.10131596773862839
1667825241355541200,1.756541259765625,-1.8895529508590698,-0.5900483727455139,-0.19656552374362946
1667825241365548300,1.76654833984375,-1.8841142654418945,-0.5968098640441895,-0.28632256388664246
1667825241375556400,1.776556396484375,-1.8733972311019897,-0.6192784309387207,-0.3790067136287689
1667825241385563400,1.7865634765625,-1.8465168476104736,-0.6493873000144958,-0.4776232838630676
1667825241395571200,1.7965712890625,-1.7901593446731567,-0.6782898306846619,-0.5673486590385437
1667825241405578500,1.80657861328125,-1.7079282999038696,-0.7091750502586365,-0.6425885558128357
1667825241415586300,1.81658642578125,-1.6113519668579102,-0.7382873892784119,-0.7141003012657166
1667825241425593300,1.82659326171875,-1.5069899559020996,-0.7582413554191589,-0.778326690196991
1667825241435601200,1.83660107421875,-1.394821047782898,-0.7478920817375183,-0.8283085823059082
1667825241445608400,1.8466083984375,-1.2779362201690674,-0.6983023881912231,-0.8568696975708008
1667825241455616300,1.8566162109375,-1.1543875932693481,-0.6345561742782593,-0.8672789335250854
1667825241465623300,1.866623291015625,-1.0285404920578003,-0.5409338474273682,-0.8588947653770447
1667825241475630300,1.87663037109375,-0.8973960876464844,-0.43130984902381897,-0.8095905780792236
1667825241485638400,1.886638427734375,-0.7410344481468201,-0.34623730182647705,-0.7351829409599304
1667825241495645000,1.89664501953125,-0.5685095191001892,-0.32047760486602783,-0.6463108658790588
1667825241505653200,1.9066533203125,-0.37784501910209656,-0.34018048644065857,-0.5643888115882874
1667825241515660000,1.916659912109375,-0.15904690325260162,-0.42856547236442566,-0.508743941783905
1667825241525668000,1.926668212890625,0.09334006905555725,-0.5650469064712524,-0.5012252926826477
1667825241535675100,1.936675048828125,0.3743802607059479,-0.7143367528915405,-0.5335254669189453
1667825241545683200,1.94668310546875,0.6531866192817688,-0.8252068161964417,-0.5964207649230957
1667825241555690000,1.95668994140625,0.9055544137954712,-0.8918279409408569,-0.6592703461647034
1667825241565698000,1.966697998046875,1.1151052713394165,-0.8755059242248535,-0.701298713684082
1667825241575705000,1.976705078125,1.267890453338623,-0.7754384875297546,-0.7010148167610168
1667825241585713200,1.986713134765625,1.3726470470428467,-0.5500367879867554,-0.640328049659729
1667825241595720000,1.996719970703125,1.4373490810394287,-0.21496424078941345,-0.5053843259811401
1667825241605728300,2.006728271484375,1.4912549257278442,0.1488637775182724,-0.3061673939228058
1667825241615735000,2.016735107421875,1.5640825033187866,0.44555458426475525,-0.05724411457777023
1667825241625743000,2.0267431640625,1.6613051891326904,0.6407565474510193,0.2108943909406662
1667825241635750100,2.036750244140625,1.7949039936065674,0.7241877913475037,0.4638369083404541
1667825241645758200,2.04675830078125,1.9550601243972778,0.7069792747497559,0.6890782713890076
1667825241655765000,2.056764892578125,2.1036217212677,0.597214937210083,0.8778870701789856
1667825241665773000,2.06677294921875,2.189471483230591,0.47183969616889954,1.0393977165222168
1667825241675780000,2.076780029296875,2.1799659729003906,0.3304620683193207,1.17583429813385
1667825241685788200,2.0867880859375,2.0732975006103516,0.16035692393779755,1.279986023902893
1667825241695795000,2.096794921875,1.8737223148345947,-0.016446085646748543,1.346094012260437
1667825241705803300,2.10680322265625,1.5859973430633545,-0.18922904133796692,1.3626787662506104
1667825241715810000,2.11681005859375,1.236283302307129,-0.34584343433380127,1.3345179557800293
1667825241725818000,2.126818115234375,0.8441725373268127,-0.4947298467159271,1.2613534927368164
1667825241735825200,2.1368251953125,0.4497905969619751,-0.6268212795257568,1.1517060995101929
1667825241745833200,2.146833251953125,0.10190479457378387,-0.7223182320594788,1.0038734674453735
1667825241755840000,2.156840087890625,-0.16769525408744812,-0.7752043604850769,0.8300217986106873
1667825241765848000,2.16684814453125,-0.3248577117919922,-0.7903609871864319,0.6585411429405212
1667825241775855000,2.176855224609375,-0.3971281945705414,-0.7945809960365295,0.5201315879821777
1667825241785863200,2.18686328125,-0.4250306487083435,-0.785122275352478,0.4328411817550659
1667825241795870000,2.196869873046875,-0.4294041097164154,-0.7422653436660767,0.3817920982837677
1667825241805878300,2.206878173828125,-0.41881775856018066,-0.652797520160675,0.35419777035713196
1667825241815885000,2.216885009765625,-0.3871764838695526,-0.49826279282569885,0.34552517533302307
1667825241825893000,2.22689306640625,-0.335523396730423,-0.28323861956596375,0.34269291162490845
1667825241835900200,2.236900146484375,-0.2598475515842438,-0.060148026794195175,0.3469979166984558
1667825241845908200,2.246908203125,-0.15167714655399323,0.13112525641918182,0.3489055335521698
1667825241855915000,2.2569150390625,-0.030224481597542763,0.2951948940753937,0.3522038459777832
1667825241865923000,2.266923095703125,0.09002070128917694,0.4299801290035248,0.3624732792377472
1667825241875930000,2.27693017578125,0.21439991891384125,0.518984317779541,0.380906879901886
1667825241885937000,2.28693701171875,0.3179337680339813,0.5755317211151123,0.4064694941043854
1667825241895945000,2.296945068359375,0.38964521884918213,0.5907397270202637,0.4471189081668854
1667825241905952000,2.306951904296875,0.4214734733104706,0.5540791749954224,0.49728888273239136
1667825241915960000,2.3169599609375,0.4267422556877136,0.4746541380882263,0.5421157479286194
1667825241925967000,2.326967041015625,0.4165032207965851,0.38517457246780396,0.5873135924339294
1667825241935975200,2.33697509765625,0.3846275806427002,0.289868026971817,0.6186427474021912
1667825241945982000,2.34698193359375,0.3489864766597748,0.18977633118629456,0.6267547011375427
1667825241955990000,2.356989990234375,0.30928462743759155,0.1250375360250473,0.6052103042602539
1667825241965997000,2.3669970703125,0.2627165913581848,0.10992144048213959,0.5708948969841003
1667825241976005000,2.377005126953125,0.21353811025619507,0.13824495673179626,0.5378216505050659
1667825241986012000,2.387011962890625,0.1739765852689743,0.1850992888212204,0.5168551206588745
1667825241996020000,2.39702001953125,0.14415611326694489,0.22493910789489746,0.4975951313972473
1667825242006027000,2.407027099609375,0.1214422732591629,0.28207987546920776,0.4902658462524414
1667825242016035000,2.41703515625,0.10816162079572678,0.3534148037433624,0.5070693492889404
1667825242026042000,2.4270419921875,0.09949702769517899,0.40795791149139404,0.5574132204055786
1667825242036050200,2.43705029296875,0.08395402133464813,0.4479050636291504,0.6311401724815369
1667825242046057000,2.447056884765625,0.07245156168937683,0.47208818793296814,0.7028436064720154
1667825242056065000,2.45706494140625,0.07339751720428467,0.461605429649353,0.7735311388969421
1667825242066072000,2.467072021484375,0.09929969161748886,0.38247519731521606,0.8135517835617065
1667825242076080000,2.477080078125,0.13961967825889587,0.2150193601846695,0.8048336505889893
1667825242086087000,2.4870869140625,0.16781030595302582,-0.026940803974866867,0.7286922931671143
1667825242096095000,2.497094970703125,0.1628512293100357,-0.26859045028686523,0.5833467841148376
1667825242106102000,2.50710205078125,0.11612340807914734,-0.47552579641342163,0.3747701346874237
1667825242116110000,2.517110107421875,0.03194142132997513,-0.6067578196525574,0.12659363448619843
1667825242126116900,2.527116943359375,-0.09284818172454834,-0.6591036319732666,-0.13296283781528473
1667825242136125200,2.537125244140625,-0.24898985028266907,-0.6350659132003784,-0.3953321576118469
1667825242146132000,2.547132080078125,-0.4121047258377075,-0.5367734432220459,-0.65086829662323
1667825242156140000,2.55714013671875,-0.5638681650161743,-0.42539602518081665,-0.8797747492790222
1667825242166147000,2.56714697265625,-0.696744441986084,-0.34154242277145386,-1.0587586164474487
1667825242176155100,2.577155029296875,-0.7951685190200806,-0.27102378010749817,-1.1868391036987305
1667825242186162000,2.587161865234375,-0.8501755595207214,-0.19528533518314362,-1.2450700998306274
1667825242196170000,2.597169921875,-0.8484442234039307,-0.0979824885725975,-1.2426871061325073
1667825242206177000,2.607177001953125,-0.7917609810829163,0.00016831177345011383,-1.1860108375549316
1667825242216185000,2.61718505859375,-0.6883224844932556,0.0981939435005188,-1.0831289291381836
1667825242226192000,2.62719189453125,-0.5479992032051086,0.1887022703886032,-0.9499154686927795
1667825242236200200,2.6372001953125,-0.3754122257232666,0.23896650969982147,-0.8152905702590942
1667825242246207000,2.64720703125,-0.18356849253177643,0.25224050879478455,-0.6949079632759094
1667825242256215000,2.657215087890625,0.0008535431115888059,0.22136567533016205,-0.6013553738594055
1667825242266222000,2.66722216796875,0.1517794132232666,0.17711885273456573,-0.5345475673675537
1667825242276230100,2.677230224609375,0.24638020992279053,0.136173814535141,-0.47770610451698303
1667825242286237000,2.68723681640625,0.28258827328681946,0.09951993077993393,-0.4099784791469574
1667825242296245000,2.697244873046875,0.2728898525238037,0.06896761804819107,-0.3319033682346344
1667825242306252000,2.707251953125,0.22120562195777893,0.05622279271483421,-0.2483150064945221
1667825242316260000,2.717260009765625,0.15333256125450134,0.0357193797826767,-0.16328772902488708
1667825242326267000,2.727266845703125,0.07778800278902054,-0.0013126720441505313,-0.09468842297792435
1667825242336275200,2.737275146484375,0.004006459377706051,-0.056654226034879684,-0.052927397191524506
1667825242346282000,2.747281982421875,-0.06037173047661781,-0.10919786244630814,-0.037991855293512344
1667825242356289000,2.7572890625,-0.11408182978630066,-0.14700569212436676,-0.04279939457774162
1667825242366297000,2.767297119140625,-0.16812188923358917,-0.17356406152248383,-0.06503120064735413
1667825242376304000,2.77730419921875,-0.2375590205192566,-0.18729345500469208,-0.09105107933282852
1667825242386312000,2.78731201171875,-0.3478948473930359,-0.20445114374160767,-0.1286676973104477
1667825242396319200,2.7973193359375,-0.5015313029289246,-0.2287980318069458,-0.16783320903778076
1667825242406327000,2.8073271484375,-0.6712417602539062,-0.26037564873695374,-0.20691882073879242
1667825242416334000,2.817333984375,-0.8338224291801453,-0.29288408160209656,-0.23403966426849365
1667825242426342000,2.827341796875,-0.965123176574707,-0.32008132338523865,-0.24807772040367126
1667825242436349200,2.83734912109375,-1.0602227449417114,-0.3450322151184082,-0.2516370415687561
1667825242446357000,2.84735693359375,-1.120768427848816,-0.36650848388671875,-0.24550536274909973
1667825242456364000,2.857364013671875,-1.1566680669784546,-0.39850103855133057,-0.22954849898815155
1667825242466372000,2.8673720703125,-1.1637393236160278,-0.4354279041290283,-0.2077353447675705
1667825242476379100,2.877379150390625,-1.1587656736373901,-0.4754658639431,-0.19452686607837677
1667825242486387000,2.887386962890625,-1.1364789009094238,-0.49009302258491516,-0.20973671972751617
1667825242496394200,2.897394287109375,-1.1018179655075073,-0.4754224419593811,-0.26675471663475037
1667825242506402300,2.90740234375,-1.0720405578613281,-0.4138485789299011,-0.3615528643131256
1667825242516409000,2.9174091796875,-1.0555353164672852,-0.31706157326698303,-0.4886714220046997
1667825242526417200,2.927417236328125,-1.042160153388977,-0.22310951352119446,-0.6208600997924805
1667825242536424200,2.937424072265625,-1.0178271532058716,-0.1329953372478485,-0.7589396238327026
1667825242546432300,2.947432373046875,-0.9831591844558716,-0.061398644000291824,-0.892805814743042
1667825242556439000,2.95743896484375,-0.9467076659202576,0.003156911116093397,-1.008461356163025
1667825242566447400,2.967447265625,-0.9206275939941406,0.08263415843248367,-1.0715359449386597
1667825242576454100,2.9774541015625,-0.8874800801277161,0.17512334883213043,-1.0590789318084717
1667825242586462200,2.987462158203125,-0.8536941409111023,0.28937801718711853,-0.9334715008735657
1667825242596469200,2.99746923828125,-0.7958992719650269,0.4187288284301758,-0.7163216471672058
1667825242606477300,3.007477294921875,-0.7066380977630615,0.44194865226745605,-0.4507775604724884
1667825242616484000,3.017484130859375,-0.5689443945884705,0.3127366006374359,-0.22954504191875458
1667825242626492200,3.0274921875,-0.3616924285888672,0.02039608545601368,-0.11296756565570831
1667825242636499200,3.037499267578125,-0.0692158192396164,-0.3317726254463196,-0.12314270436763763
1667825242646507300,3.04750732421875,0.29905247688293457,-0.6495508551597595,-0.23146118223667145
1667825242656514000,3.05751416015625,0.6898474097251892,-0.8391433954238892,-0.36818280816078186
1667825242666522400,3.0675224609375,1.045285940170288,-0.8902353644371033,-0.5066357851028442
1667825242676529200,3.077529052734375,1.3542999029159546,-0.8434585332870483,-0.6018823981285095
1667825242686537200,3.087537109375,1.5866445302963257,-0.6312013864517212,-0.6153907179832458
1667825242696544300,3.097544189453125,1.7308554649353027,-0.2142782062292099,-0.4989621341228485
1667825242706552300,3.10755224609375,1.7974236011505127,0.3010048568248749,-0.2531598210334778
1667825242716559000,3.11755908203125,1.8340280055999756,0.7979195713996887,0.10411841422319412
1667825242726567200,3.127567138671875,1.90908944606781,1.1519218683242798,0.5370306968688965
1667825242736574200,3.13757421875,2.0468521118164062,1.3348506689071655,0.9650781750679016
1667825242746582300,3.147582275390625,2.2364797592163086,1.3185003995895386,1.3231925964355469
1667825242756589000,3.157589111328125,2.4578769207000732,1.101800560951233,1.5793362855911255
1667825242766597400,3.167597412109375,2.6528751850128174,0.7541185021400452,1.7415316104888916
1667825242776604200,3.177604248046875,2.750826358795166,0.3762418031692505,1.8132318258285522
1667825242786612200,3.1876123046875,2.7010326385498047,0.016405338421463966,1.797393798828125
1667825242796619300,3.197619384765625,2.5007338523864746,-0.3221189081668854,1.7035084962844849
1667825242806627300,3.20762744140625,2.1477115154266357,-0.587960422039032,1.565350890159607
1667825242816634000,3.217634033203125,1.691292405128479,-0.7569936513900757,1.3971326351165771
1667825242826642200,3.22764208984375,1.1921850442886353,-0.8563735485076904,1.2232232093811035
1667825242836649200,3.237649169921875,0.7316153645515442,-0.905644953250885,1.0503270626068115
1667825242846657300,3.2476572265625,0.3576638698577881,-0.8724417090415955,0.9072926640510559
1667825242856664000,3.2576640625,0.09649670869112015,-0.7905987501144409,0.792978048324585
1667825242866671000,3.267671142578125,-0.06951489299535751,-0.7266011238098145,0.7052929401397705
1667825242876679200,3.27767919921875,-0.1766653209924698,-0.7123295664787292,0.6562114357948303
1667825242886686200,3.287686279296875,-0.26390141248703003,-0.7112797498703003,0.6348438262939453
1667825242896694300,3.2976943359375,-0.34947705268859863,-0.7105998396873474,0.6262543201446533
1667825242906701000,3.307701171875,-0.43445077538490295,-0.6778962016105652,0.6191761493682861
1667825242916709000,3.317709228515625,-0.510772705078125,-0.6129670143127441,0.59602290391922
1667825242926716200,3.327716064453125,-0.575477659702301,-0.5194655656814575,0.5572057366371155
1667825242936724200,3.33772412109375,-0.6324743628501892,-0.4032915234565735,0.4835546910762787
1667825242946731000,3.34773095703125,-0.6709336042404175,-0.2403108775615692,0.3965079188346863
1667825242956739000,3.357739013671875,-0.6827599406242371,-0.029051359742879868,0.29836031794548035
1667825242966746000,3.36774609375,-0.6647276878356934,0.22089242935180664,0.18893636763095856
1667825242976754200,3.377754150390625,-0.6090801358222961,0.47165700793266296,0.07263931632041931
1667825242986761200,3.38776123046875,-0.52278733253479,0.6961439251899719,-0.029269471764564514
1667825242996769300,3.397769287109375,-0.4269968569278717,0.8830024600028992,-0.0982741042971611
1667825243006776000,3.407776123046875,-0.3471028208732605,1.0075907707214355,-0.1321609616279602
1667825243016784100,3.4177841796875,-0.29563671350479126,1.040803074836731,-0.11876952648162842
1667825243026791200,3.427791259765625,-0.28847014904022217,1.0095117092132568,-0.06948799639940262
1667825243036799200,3.43779931640625,-0.31828850507736206,0.9384130239486694,0.01678776927292347
1667825243046806000,3.447805908203125,-0.37270674109458923,0.853875994682312,0.12722906470298767
1667825243056814000,3.45781396484375,-0.4371813237667084,0.8032019138336182,0.2679302394390106
1667825243066821000,3.467821044921875,-0.48759230971336365,0.7819997072219849,0.43487608432769775
1667825243076829200,3.4778291015625,-0.5083370208740234,0.7869366407394409,0.6123999953269958
1667825243086836200,3.487836181640625,-0.4997219443321228,0.7791165709495544,0.788495659828186
1667825243096844300,3.49784423828125,-0.45811349153518677,0.7344300746917725,0.9407089352607727
1667825243106851000,3.50785107421875,-0.38940155506134033,0.6438817977905273,1.0643274784088135
1667825243116859100,3.517859130859375,-0.2989718019962311,0.5163882374763489,1.1514829397201538
1667825243126866200,3.5278662109375,-0.19789230823516846,0.3485337495803833,1.2024552822113037
1667825243136874200,3.537874267578125,-0.09714972227811813,0.12146784365177155,1.20319402217865
1667825243146881000,3.547881103515625,-0.007600928191095591,-0.17857906222343445,1.137931227684021
1667825243156889000,3.55788916015625,0.05968010798096657,-0.5070456266403198,0.9886753559112549
1667825243166896000,3.567896240234375,0.09718727320432663,-0.8185536861419678,0.7782006859779358
1667825243176904200,3.577904296875,0.1006736159324646,-1.1336612701416016,0.5051491856575012
1667825243186911200,3.5879111328125,0.05788993090391159,-1.423587679862976,0.17378804087638855
1667825243196919300,3.597919189453125,-0.03383732587099075,-1.6665947437286377,-0.21184328198432922
1667825243206926000,3.607926025390625,-0.16825851798057556,-1.8040032386779785,-0.6381943225860596
1667825243216934100,3.61793408203125,-0.33225998282432556,-1.8076597452163696,-1.051059365272522
1667825243226941200,3.627941162109375,-0.5361039042472839,-1.626376748085022,-1.4011234045028687
1667825243236949200,3.63794921875,-0.7675541639328003,-1.2753231525421143,-1.6437562704086304
1667825243246956000,3.6479560546875,-0.9861461520195007,-0.8236984014511108,-1.7622051239013672
1667825243256964000,3.657964111328125,-1.161252737045288,-0.3675929307937622,-1.7546404600143433
1667825243266971100,3.66797119140625,-1.2399441003799438,0.013429788872599602,-1.6502107381820679
1667825243276979200,3.677979248046875,-1.2120487689971924,0.2825363576412201,-1.518729329109192
1667825243286986200,3.687986328125,-1.0747690200805664,0.4351448118686676,-1.3892723321914673
1667825243296994300,3.697994384765625,-0.8386701941490173,0.4661581218242645,-1.2975455522537231
1667825243307001000,3.7080009765625,-0.5466678738594055,0.3644120395183563,-1.257625937461853
1667825243317009200,3.718009033203125,-0.24964605271816254,0.16312794387340546,-1.2364563941955566
1667825243327016200,3.72801611328125,0.009816411882638931,-0.07032689452171326,-1.2183070182800293
1667825243337024300,3.738024169921875,0.19061602652072906,-0.24103818833827972,-1.1891552209854126
1667825243347031000,3.748031005859375,0.27372875809669495,-0.3196491003036499,-1.143776297569275
1667825243357039000,3.7580390625,0.28346553444862366,-0.33046525716781616,-1.09438157081604
1667825243367046100,3.768046142578125,0.23287639021873474,-0.298759788274765,-1.0367629528045654
1667825243377054200,3.77805419921875,0.15598426759243011,-0.2388107180595398,-0.9810973405838013
1667825243387061000,3.78806103515625,0.06707330793142319,-0.15724608302116394,-0.93381667137146
1667825243397069300,3.7980693359375,-0.02003149874508381,-0.0718238577246666,-0.8932668566703796
1667825243407076000,3.808076171875,-0.08068126440048218,0.0002801645314320922,-0.8528738617897034
1667825243417084200,3.818084228515625,-0.10904020071029663,0.03147296980023384,-0.7995022535324097
1667825243427091200,3.82809130859375,-0.11033076792955399,0.033548906445503235,-0.7327812910079956
1667825243437099300,3.838099365234375,-0.09202925860881805,0.02526434324681759,-0.6365644931793213
1667825243447106000,3.84810595703125,-0.07369472831487656,0.003855191869661212,-0.49667927622795105
1667825243457114000,3.858114013671875,-0.07885672897100449,-0.035347070544958115,-0.3307323753833771
1667825243467121200,3.86812109375,-0.12445776909589767,-0.09060819447040558,-0.15410807728767395
1667825243477129200,3.878129150390625,-0.1946890652179718,-0.14082635939121246,0.02346857450902462
1667825243487136000,3.888135986328125,-0.2856477200984955,-0.18750570714473724,0.16730670630931854
1667825243497147000,3.89814697265625,-0.3592340648174286,-0.2463674396276474,0.2568994462490082
1667825243507154700,3.90815478515625,-0.4056231379508972,-0.2926742136478424,0.28576382994651794
1667825243517161700,3.91816162109375,-0.41613808274269104,-0.3307473063468933,0.2560296356678009
1667825243527169800,3.928169677734375,-0.41347599029541016,-0.3605629801750183,0.16349172592163086
1667825243537176800,3.9381767578125,-0.4025120139122009,-0.34428733587265015,0.029139509424567223
1667825243547184600,3.9481845703125,-0.39425116777420044,-0.28717851638793945,-0.12984268367290497
1667825243557192000,3.95819189453125,-0.38068556785583496,-0.198784738779068,-0.28798916935920715
1667825243567199700,3.96819970703125,-0.37020015716552734,-0.08184985816478729,-0.4211656153202057
1667825243577206800,3.978206787109375,-0.3685671091079712,0.062428224831819534,-0.5088526010513306
1667825243587214600,3.988214599609375,-0.3773787021636963,0.19383098185062408,-0.548348605632782
1667825243597222000,3.998221923828125,-0.38974377512931824,0.33328554034233093,-0.5339059829711914
1667825243607229700,4.008229736328125,-0.3889980912208557,0.4784850776195526,-0.46428191661834717
1667825243617236700,4.01823681640625,-0.36873915791511536,0.5849636197090149,-0.33780601620674133
1667825243627244800,4.028244873046875,-0.32671287655830383,0.6437086462974548,-0.18145661056041718
1667825243637251800,4.038251953125,-0.2627328336238861,0.6274178624153137,-0.016924122348427773
1667825243647259600,4.048259765625,-0.1716149002313614,0.5364639759063721,0.11621209233999252
1667825243657267000,4.058266845703125,-0.04189392179250717,0.324870228767395,0.1844816952943802
1667825243667274800,4.068274658203125,0.11727389693260193,0.025778334587812424,0.15747644007205963
1667825243677281800,4.07828173828125,0.2841190695762634,-0.31291821599006653,0.030953388661146164
1667825243687289600,4.08828955078125,0.4443897008895874,-0.582485020160675,-0.17165884375572205
1667825243697297000,4.098296875,0.5851675868034363,-0.6942445635795593,-0.38487738370895386
1667825243707304700,4.1083046875,0.6875986456871033,-0.6215370297431946,-0.5562616586685181
1667825243717312800,4.118312744140625,0.7393110990524292,-0.38237959146499634,-0.6392417550086975
1667825243727319800,4.12831982421875,0.7362068891525269,-0.00953811127692461,-0.5776923894882202
1667825243737327900,4.138327880859375,0.6932123303413391,0.3981500267982483,-0.3770540654659271
1667825243747334700,4.148334716796875,0.6793391108512878,0.724307119846344,-0.0555356964468956
1667825243757342700,4.1583427734375,0.7580472230911255,0.8731245398521423,0.32355889678001404
1667825243767349800,4.168349853515625,0.912894070148468,0.8701029419898987,0.7174774408340454
1667825243777357800,4.17835791015625,1.1374744176864624,0.719901442527771,1.075272560119629
1667825243787364600,4.188364501953125,1.429266333580017,0.4143284857273102,1.3447738885879517
1667825243797372000,4.198371826171875,1.7552745342254639,0.08548853546380997,1.5270296335220337
1667825243807379700,4.208379638671875,2.0512261390686035,-0.18242280185222626,1.6270798444747925
1667825243817386800,4.21838671875,2.2654972076416016,-0.3938804566860199,1.6348669528961182
1667825243827394800,4.228394775390625,2.3590753078460693,-0.5651134848594666,1.5654302835464478
1667825243837401900,4.23840185546875,2.31411075592041,-0.6624884605407715,1.4332176446914673
1667825243847409700,4.24840966796875,2.1191186904907227,-0.6981330513954163,1.2409611940383911
1667825243857417000,4.2584169921875,1.7790735960006714,-0.6687149405479431,1.0043326616287231
1667825243867424800,4.2684248046875,1.3380568027496338,-0.5849854350090027,0.7215432524681091
1667825243877431800,4.278431884765625,0.8502461314201355,-0.4537738859653473,0.4155138432979584
1667825243887439600,4.288439697265625,0.39615398645401,-0.2928406596183777,0.12043799459934235
1667825243897447000,4.298447021484375,0.040532778948545456,-0.12837634980678558,-0.1073797196149826
1667825243907454700,4.308454833984375,-0.1766197830438614,0.013518738560378551,-0.23524872958660126
1667825243917461800,4.318461669921875,-0.3011198937892914,0.1580980271100998,-0.25345277786254883
1667825243927469800,4.3284697265625,-0.3424854576587677,0.2748661935329437,-0.17663230001926422
1667825243937476900,4.338476806640625,-0.3254430890083313,0.33416464924812317,-0.029351497069001198
1667825243947484700,4.348484619140625,-0.2933639585971832,0.3170386850833893,0.15658827126026154
1667825243957492000,4.358491943359375,-0.24655012786388397,0.2503312826156616,0.33267009258270264
1667825243967499800,4.368499755859375,-0.18427424132823944,0.16845852136611938,0.469298779964447
1667825243977506800,4.3785068359375,-0.11430127173662186,0.12942349910736084,0.5616305470466614
1667825243987514600,4.3885146484375,-0.04667775705456734,0.1573438197374344,0.6115177273750305
1667825243997522000,4.39852197265625,0.003948935307562351,0.24579884111881256,0.6348313093185425
1667825244007529700,4.40852978515625,0.02201954834163189,0.38152286410331726,0.6388063430786133
1667825244017536800,4.418536865234375,0.013337111100554466,0.5285120606422424,0.644808292388916
1667825244027544800,4.428544921875,-0.002094576135277748,0.6461086869239807,0.6451973915100098
1667825244037551900,4.4385517578125,-0.025183117017149925,0.7029531002044678,0.6275120973587036
1667825244047559700,4.4485595703125,-0.04392964020371437,0.6778040528297424,0.5998147130012512
1667825244057567000,4.45856689453125,-0.05962071940302849,0.5737205147743225,0.5414254665374756
1667825244067574800,4.46857470703125,-0.08258462697267532,0.45299118757247925,0.47783607244491577
1667825244077581800,4.478581787109375,-0.12758885324001312,0.33717456459999084,0.41304776072502136
1667825244087589600,4.488589599609375,-0.19365787506103516,0.2848256230354309,0.3582785129547119
1667825244097597000,4.498596923828125,-0.2772044539451599,0.32605934143066406,0.3464450240135193
1667825244107604700,4.508604736328125,-0.3572835624217987,0.4450048804283142,0.3909459114074707
1667825244117611800,4.51861181640625,-0.4224809408187866,0.5489217042922974,0.5064562559127808
1667825244127619800,4.528619873046875,-0.47609198093414307,0.5954737663269043,0.6918756365776062
1667825244137627000,4.538626953125,-0.5067044496536255,0.5696852803230286,0.8998003602027893
1667825244147634700,4.548634765625,-0.49636074900627136,0.46280866861343384,1.0690048933029175
1667825244157642000,4.55864208984375,-0.42352303862571716,0.23902375996112823,1.1408425569534302
1667825244167649800,4.56864990234375,-0.3100169897079468,-0.059292085468769073,1.0888254642486572
1667825244177656800,4.57865673828125,-0.19570106267929077,-0.30451861023902893,0.9498654007911682
1667825244187664600,4.58866455078125,-0.11225996166467667,-0.44314494729042053,0.7609500885009766
1667825244197672000,4.598671875,-0.07685669511556625,-0.5371018052101135,0.5644436478614807
1667825244207679700,4.6086796875,-0.10516823083162308,-0.5762766003608704,0.38216787576675415
1667825244217686800,4.618686767578125,-0.19006846845149994,-0.5636210441589355,0.2283325046300888
1667825244227694800,4.62869482421875,-0.31624743342399597,-0.480135440826416,0.09627993404865265
1667825244237702000,4.638701904296875,-0.4551190435886383,-0.3618042767047882,-0.010565824806690216
1667825244247709700,4.648709716796875,-0.5694038271903992,-0.29231736063957214,-0.13116706907749176
1667825244257717000,4.658717041015625,-0.6394888758659363,-0.285154789686203,-0.2714562714099884
1667825244267724800,4.668724853515625,-0.6396499872207642,-0.2976796329021454,-0.43111172318458557
1667825244277731800,4.67873193359375,-0.5868328809738159,-0.3428782522678375,-0.5934436321258545
1667825244287739600,4.68873974609375,-0.5120483636856079,-0.39531856775283813,-0.7524764537811279
1667825244297747000,4.698746826171875,-0.43872249126434326,-0.4489530324935913,-0.9057874083518982
1667825244307754800,4.708754638671875,-0.3821958303451538,-0.4645056128501892,-1.0524226427078247
1667825244317761800,4.71876171875,-0.3561059236526489,-0.4114948809146881,-1.1960676908493042
1667825244327769900,4.728769775390625,-0.35138148069381714,-0.29427051544189453,-1.314953088760376
1667825244337777000,4.73877685546875,-0.36067190766334534,-0.16255615651607513,-1.3996424674987793
1667825244347784700,4.74878466796875,-0.3644498586654663,-0.06319840997457504,-1.4362534284591675
1667825244357792000,4.7587919921875,-0.3520222306251526,-0.011597000993788242,-1.4156618118286133
1667825244367799800,4.7687998046875,-0.3122287392616272,0.004792358260601759,-1.342229962348938
1667825244377806800,4.778806884765625,-0.2654513716697693,-0.054058175534009933,-1.2157154083251953
1667825244387814700,4.788814697265625,-0.21500392258167267,-0.1649245023727417,-1.0462443828582764
1667825244397822000,4.798822021484375,-0.16984282433986664,-0.3105054199695587,-0.8721370697021484
1667825244407829800,4.808829833984375,-0.13435673713684082,-0.4583848714828491,-0.6994326710700989
1667825244417836800,4.8188369140625,-0.1081315279006958,-0.562692403793335,-0.5463911890983582
1667825244427844900,4.828844970703125,-0.1005665510892868,-0.5991851687431335,-0.41017234325408936
1667825244437852000,4.838851806640625,-0.10800902545452118,-0.5874544382095337,-0.293896347284317
1667825244447859700,4.848859619140625,-0.12047767639160156,-0.5494692325592041,-0.19643129408359528
1667825244457867000,4.858866943359375,-0.13828757405281067,-0.4907212555408478,-0.11900867521762848
1667825244467874800,4.868874755859375,-0.1682577133178711,-0.41890963912010193,-0.05962790921330452
1667825244477881900,4.8788818359375,-0.2131255865097046,-0.38075879216194153,-0.03159361332654953
1667825244487889700,4.8888896484375,-0.2595921456813812,-0.37181004881858826,-0.017483385279774666
1667825244497897000,4.89889697265625,-0.30914294719696045,-0.3695372939109802,-0.022418489679694176
1667825244507900700,4.908900634765625,-0.34962645173072815,-0.39555639028549194,-0.0419333353638649
1667825244517908000,4.918907958984375,-0.37480130791664124,-0.4197314977645874,-0.07709718495607376
1667825244527914800,4.928914794921875,-0.38460519909858704,-0.4441926181316376,-0.12578855454921722
1667825244537922800,4.9389228515625,-0.38056012988090515,-0.48405322432518005,-0.2096610814332962
1667825244547929900,4.948929931640625,-0.3777797818183899,-0.5000620484352112,-0.3283083736896515
1667825244557938000,4.95893798828125,-0.37757793068885803,-0.49683186411857605,-0.47027695178985596
1667825244567945700,4.96894580078125,-0.37982189655303955,-0.4784470200538635,-0.6194027662277222
1667825244577952800,4.978952880859375,-0.39009955525398254,-0.42389240860939026,-0.7740024924278259
1667825244587959800,4.988959716796875,-0.4191405475139618,-0.34847408533096313,-0.9155606627464294
1667825244597968000,4.9989677734375,-0.4577483832836151,-0.27369147539138794,-1.0339869260787964
1667825244607974700,5.008974609375,-0.5071724057197571,-0.19510424137115479,-1.1383939981460571
1667825244617983000,5.01898291015625,-0.5575237274169922,-0.07665110379457474,-1.2040939331054688
1667825244627990800,5.02899072265625,-0.593706488609314,0.057493917644023895,-1.2188127040863037
1667825244637997800,5.038997802734375,-0.6034376621246338,0.20400851964950562,-1.1430559158325195
1667825244648004900,5.0490048828125,-0.5755530595779419,0.34940725564956665,-0.9617822170257568
1667825244658013000,5.059012939453125,-0.5142404437065125,0.45803892612457275,-0.7030625343322754
1667825244668019700,5.069019775390625,-0.41057288646698,0.47520408034324646,-0.4053727984428406
1667825244678027800,5.07902783203125,-0.2547382712364197,0.37380102276802063,-0.11861932277679443
1667825244688034800,5.089034912109375,-0.03429059684276581,0.14129507541656494,0.09863735735416412
1667825244698043000,5.09904296875,0.24205844104290009,-0.20379707217216492,0.19029323756694794
1667825244708049700,5.109049560546875,0.5558107495307922,-0.5153411030769348,0.15498559176921844
1667825244718058000,5.11905810546875,0.8483164310455322,-0.7115867733955383,0.03675215691328049
1667825244728064800,5.129064697265625,1.0791146755218506,-0.7348710894584656,-0.09462051838636398
1667825244738072800,5.13907275390625,1.221094012260437,-0.6076340079307556,-0.1939670741558075
1667825244748079900,5.149079833984375,1.2465617656707764,-0.3218563199043274,-0.2056647390127182
1667825244758088000,5.159087890625,1.174194097518921,0.12597577273845673,-0.11138617992401123
1667825244768094700,5.1690947265625,1.0684287548065186,0.5984200239181519,0.10491976141929626
1667825244778102800,5.179102783203125,1.005616307258606,0.9364159107208252,0.42715877294540405
1667825244788109800,5.18910986328125,1.0127348899841309,1.128445029258728,0.8225013017654419
1667825244798118000,5.199117919921875,1.0941307544708252,1.2325516939163208,1.2509621381759644
1667825244808124700,5.209124755859375,1.2632699012756348,1.1454106569290161,1.6598050594329834
1667825244818133000,5.219133056640625,1.4845311641693115,0.9260396957397461,2.0169732570648193
1667825244828139800,5.229139892578125,1.7108389139175415,0.6509181261062622,2.3141403198242188
1667825244838147800,5.23914794921875,1.910744309425354,0.3373623192310333,2.5456347465515137
1667825244848155000,5.24915478515625,2.043804168701172,0.02593332901597023,2.686239242553711
1667825244858163000,5.259162841796875,2.070431709289551,-0.23652838170528412,2.7320823669433594
1667825244868169700,5.269169677734375,1.985392451286316,-0.4555630087852478,2.6775739192962646
1667825244878177800,5.279177734375,1.7951295375823975,-0.6450157761573792,2.51680064201355
1667825244888184800,5.289184814453125,1.5152233839035034,-0.784237802028656,2.2541542053222656
1667825244898193000,5.29919287109375,1.1715666055679321,-0.8697106242179871,1.9062433242797852
1667825244908199700,5.30919970703125,0.8089240193367004,-0.8862840533256531,1.4985923767089844
1667825244918208000,5.3192080078125,0.4635636508464813,-0.8162141442298889,1.0669970512390137
1667825244928214800,5.32921484375,0.16682574152946472,-0.6560361981391907,0.6602580547332764
1667825244938222800,5.339222900390625,-0.052494365721940994,-0.45593371987342834,0.28569459915161133
1667825244948230000,5.34922998046875,-0.19858260452747345,-0.2615607678890228,-0.018023476004600525
1667825244958238000,5.359238037109375,-0.2986186444759369,-0.1096884161233902,-0.23448200523853302
1667825244968244700,5.36924462890625,-0.3803151249885559,-0.012224175967276096,-0.3717791438102722
1667825244978252800,5.379252685546875,-0.45303404331207275,0.042825229465961456,-0.45081856846809387
1667825244988259800,5.389259765625,-0.5119066834449768,0.09581920504570007,-0.4908245801925659
1667825244998268000,5.399267822265625,-0.5458531975746155,0.1696540117263794,-0.5086371302604675
1667825245008274700,5.409274658203125,-0.5433943271636963,0.2517062723636627,-0.5026146769523621
1667825245018283000,5.419282958984375,-0.49920207262039185,0.3531569838523865,-0.47409459948539734
1667825245028289800,5.429289794921875,-0.4235648512840271,0.47618812322616577,-0.41850218176841736
1667825245038297900,5.4392978515625,-0.325395405292511,0.6127025485038757,-0.34583863615989685
1667825245048305000,5.449304931640625,-0.2108408659696579,0.7336950302124023,-0.23987384140491486
1667825245058313000,5.45931298828125,-0.08459024876356125,0.8150308728218079,-0.10168667882680893
1667825245068319700,5.46931982421875,0.043946150690317154,0.8280377388000488,0.07029599696397781
1667825245078327800,5.479327880859375,0.1646997332572937,0.7520228624343872,0.2618427872657776
1667825245088334800,5.4893349609375,0.259081095457077,0.6145502328872681,0.44038110971450806
1667825245098343000,5.499343017578125,0.33740440011024475,0.43752753734588623,0.5857998132705688
1667825245108349700,5.509349609375,0.39872315526008606,0.2381230890750885,0.6690369248390198
1667825245118358000,5.51935791015625,0.4191586375236511,0.04530036821961403,0.6673335433006287
1667825245128364800,5.52936474609375,0.3915318250656128,-0.11087538301944733,0.5962215662002563
1667825245138372900,5.539372802734375,0.329020231962204,-0.17431960999965668,0.4735145568847656
1667825245148380000,5.5493798828125,0.24098119139671326,-0.14377793669700623,0.34160926938056946
1667825245158388000,5.559387939453125,0.12258157879114151,-0.04399115964770317,0.2352607250213623
1667825245168394800,5.569394775390625,-0.0067844027653336525,0.06844164431095123,0.16538310050964355
1667825245178402800,5.57940283203125,-0.12760029733181,0.1281355917453766,0.1164533719420433
1667825245188409900,5.589409912109375,-0.2087513506412506,0.10942689329385757,0.06897000968456268
1667825245198418000,5.59941796875,-0.24723269045352936,0.061648182570934296,0.005416869651526213
1667825245208424700,5.6094248046875,-0.25789251923561096,0.00606534956023097,-0.06129984185099602
1667825245218433000,5.61943310546875,-0.2670990824699402,-0.027635356411337852,-0.10515011847019196
1667825245228439800,5.629439697265625,-0.2859044671058655,-0.014791728928685188,-0.08542168885469437
1667825245238447900,5.63944775390625,-0.3157387971878052,0.021759357303380966,-0.007494668010622263
1667825245248455000,5.649454833984375,-0.34210115671157837,0.0380840040743351,0.10462867468595505
1667825245258463000,5.659462890625,-0.3398321270942688,-0.04542340710759163,0.18590861558914185
1667825245268469800,5.6694697265625,-0.32155272364616394,-0.22632049024105072,0.20253153145313263
1667825245278477800,5.679477783203125,-0.3190182149410248,-0.4569816589355469,0.14683417975902557
1667825245288484900,5.68948486328125,-0.3507297933101654,-0.6783550381660461,0.014813833869993687
1667825245298493000,5.699492919921875,-0.43274450302124023,-0.8490098714828491,-0.18628039956092834
1667825245308499700,5.709499755859375,-0.555528998374939,-0.9460861086845398,-0.4366087317466736
1667825245318508000,5.719508056640625,-0.69375079870224,-0.9470629692077637,-0.7153644561767578
1667825245328514800,5.729514892578125,-0.8443525433540344,-0.8473566174507141,-0.9585861563682556
1667825245338523000,5.73952294921875,-0.9825748801231384,-0.6971498131752014,-1.1232593059539795
1667825245348530000,5.749530029296875,-1.0855937004089355,-0.5419125556945801,-1.1836472749710083
1667825245358538000,5.7595380859375,-1.1372108459472656,-0.3924490213394165,-1.1486823558807373
1667825245368544800,5.769544677734375,-1.1229878664016724,-0.23500105738639832,-1.0429729223251343
1667825245378552800,5.779552734375,-1.03132963180542,-0.11730638891458511,-0.9109315872192383
1667825245388560000,5.789559814453125,-0.8755964636802673,-0.057798583060503006,-0.7863662242889404
1667825245398568000,5.79956787109375,-0.6710124611854553,-0.07165554165840149,-0.6999123096466064
1667825245408574700,5.80957470703125,-0.43001261353492737,-0.15689294040203094,-0.6696028709411621
1667825245418583000,5.8195830078125,-0.19651971757411957,-0.2914819121360779,-0.7162169814109802
1667825245428589800,5.82958984375,-0.013761085458099842,-0.41784411668777466,-0.8133158087730408
1667825245438597600,5.83959765625,0.09140394628047943,-0.5043259859085083,-0.9267145395278931
1667825245448605000,5.84960498046875,0.11633086949586868,-0.5302625298500061,-1.029896855354309
1667825245458612700,5.85961279296875,0.07991240918636322,-0.48682263493537903,-1.0953022241592407
1667825245468619800,5.869619873046875,0.004757470916956663,-0.39727917313575745,-1.1303586959838867
1667825245478627600,5.879627685546875,-0.06822965294122696,-0.27271461486816406,-1.118976354598999
1667825245488635000,5.889634765625,-0.12385137379169464,-0.15597175061702728,-1.0493528842926025
1667825245498642700,5.899642578125,-0.14763952791690826,-0.10650620609521866,-0.9274277091026306
1667825245508654000,5.909654052734375,-0.12512676417827606,-0.09656035900115967,-0.774218738079071
1667825245518662000,5.919661865234375,-0.07006696611642838,-0.11528132110834122,-0.6103799939155579
1667825245528669200,5.929669189453125,0.006452040281146765,-0.134678453207016,-0.43475839495658875
1667825245538677000,5.939677001953125,0.08961883187294006,-0.12865358591079712,-0.259003609418869
1667825245548684000,5.94968408203125,0.15102919936180115,-0.09016664326190948,-0.0904952809214592
1667825245558692000,5.959692138671875,0.15839843451976776,-0.03020503930747509,0.05784013122320175
1667825245568699100,5.96969921875,0.11635909974575043,0.016998691484332085,0.17719554901123047
1667825245578707000,5.97970703125,0.05054919421672821,0.05186639353632927,0.2635307013988495
1667825245588714200,5.98971435546875,-0.029994649812579155,0.06570710986852646,0.30682119727134705
1667825245598722000,5.99972216796875,-0.11787017434835434,0.062437545508146286,0.30936717987060547
1667825245608729000,6.00972900390625,-0.21196871995925903,0.028479311615228653,0.28884750604629517
1667825245618737000,6.01973681640625,-0.31637609004974365,-0.03382826969027519,0.24944071471691132
1667825245628744200,6.029744140625,-0.41473621129989624,-0.11018429696559906,0.20427671074867249
1667825245638752000,6.039751953125,-0.5067545175552368,-0.16813866794109344,0.14365702867507935
1667825245648759000,6.049759033203125,-0.5679752826690674,-0.19641265273094177,0.06398776918649673
1667825245658766000,6.05976611328125,-0.6011915802955627,-0.18739067018032074,-0.042812444269657135
1667825245668774100,6.069774169921875,-0.6148583889007568,-0.14943130314350128,-0.171962708234787
1667825245678782000,6.079781982421875,-0.6114258170127869,-0.07650622725486755,-0.3057338297367096
1667825245688789200,6.089789306640625,-0.600439727306366,0.015862852334976196,-0.44194304943084717
1667825245698796000,6.099796142578125,-0.5970799326896667,0.1197570264339447,-0.5433232188224792
1667825245708804000,6.10980419921875,-0.6087775826454163,0.22664086520671844,-0.5985894203186035
1667825245718811100,6.11981103515625,-0.6247203350067139,0.34622398018836975,-0.5893477201461792
1667825245728819200,6.129819091796875,-0.635165274143219,0.4490845799446106,-0.5006396770477295
1667825245738826000,6.139825927734375,-0.6184930801391602,0.5307530760765076,-0.33155661821365356
1667825245748834000,6.149833984375,-0.5543103218078613,0.5645957589149475,-0.10961597412824631
1667825245758841000,6.159841064453125,-0.44571569561958313,0.521613359451294,0.11484242975711823
1667825245768849200,6.16984912109375,-0.2771399915218353,0.378402978181839,0.2895372807979584
1667825245778856000,6.17985595703125,-0.04983839765191078,0.18429793417453766,0.3908676207065582
1667825245788864300,6.1898642578125,0.21653896570205688,-0.0003861583536490798,0.4097611606121063
1667825245798871000,6.19987109375,0.48137569427490234,-0.15263640880584717,0.33365094661712646
1667825245808879000,6.209879150390625,0.6999306678771973,-0.24267123639583588,0.17875616252422333
1667825245818886100,6.21988623046875,0.8549538254737854,-0.25537610054016113,-0.016986973583698273
1667825245828894200,6.229894287109375,0.9365373253822327,-0.17834657430648804,-0.1993519812822342
1667825245838901000,6.23990087890625,0.9266615509986877,0.038055505603551865,-0.3138492703437805
1667825245848909000,6.249908935546875,0.8718022704124451,0.353153258562088,-0.3010661005973816
1667825245858916000,6.259916015625,0.8181694149971008,0.68030846118927,-0.16504807770252228
1667825245868924200,6.269924072265625,0.8121357560157776,0.9364768862724304,0.07917550951242447
1667825245878931000,6.279930908203125,0.8811116218566895,1.071973204612732,0.37539705634117126
1667825245888939300,6.289939208984375,1.0106253623962402,1.09858238697052,0.644367516040802
1667825245898946000,6.299946044921875,1.186274528503418,1.014865756034851,0.8492317199707031
1667825245908954000,6.3099541015625,1.3704302310943604,0.8439033031463623,0.9591864347457886
1667825245918961200,6.319961181640625,1.509283423423767,0.6282657980918884,0.9891387820243835
1667825245928969200,6.32996923828125,1.5497424602508545,0.45386335253715515,0.9671165347099304
1667825245938976000,6.33997607421875,1.495032548904419,0.31783363223075867,0.9308014512062073
1667825245948984000,6.349984130859375,1.3516165018081665,0.21636639535427094,0.8894595503807068
1667825245958991000,6.3599912109375,1.135565996170044,0.14345863461494446,0.8538246154785156
1667825245968999200,6.369999267578125,0.8825262784957886,0.08984546363353729,0.8139283061027527
1667825245979006000,6.380005859375,0.6272013187408447,0.052796635776758194,0.7643839716911316
1667825245989014300,6.39001416015625,0.4041250944137573,0.03576119244098663,0.7030473351478577
1667825245999021000,6.40002099609375,0.2502228915691376,0.037825144827365875,0.6292881965637207
1667825246009029000,6.410029052734375,0.18148989975452423,0.05883348733186722,0.5382996797561646
1667825246019036200,6.4200361328125,0.17951063811779022,0.10115750879049301,0.4554290473461151
1667825246029044200,6.430044189453125,0.21069972217082977,0.11660144478082657,0.388908326625824
1667825246039051000,6.440051025390625,0.24953019618988037,0.09647780656814575,0.3528650999069214
1667825246049059000,6.45005908203125,0.2895415425300598,0.07359166443347931,0.345304936170578
1667825246059066000,6.460066162109375,0.32904472947120667,0.08323337137699127,0.34569454193115234
1667825246069074200,6.47007421875,0.3614375591278076,0.14037415385246277,0.3412846326828003
1667825246079081000,6.4800810546875,0.3731839656829834,0.20861658453941345,0.3237128257751465
1667825246089089300,6.49008935546875,0.3635616898536682,0.27745530009269714,0.29239723086357117
1667825246099096000,6.500095947265625,0.323076069355011,0.3102308213710785,0.24469390511512756
1667825246109104000,6.510104248046875,0.2658125162124634,0.2927298843860626,0.17406660318374634
1667825246119111200,6.520111083984375,0.19356253743171692,0.25314170122146606,0.09249797463417053
1667825246129119200,6.530119140625,0.09858329594135284,0.2306388020515442,0.013613014481961727
1667825246139126000,6.5401259765625,-0.006303968373686075,0.21513068675994873,-0.04054343327879906
1667825246149134000,6.550134033203125,-0.11924703419208527,0.21773472428321838,-0.04844023659825325
1667825246159141000,6.56014111328125,-0.23013253509998322,0.24325419962406158,-0.006128199864178896
1667825246169149200,6.570149169921875,-0.32781994342803955,0.30531784892082214,0.08613115549087524
1667825246179156000,6.580156005859375,-0.39002686738967896,0.39595532417297363,0.22604617476463318
1667825246189164300,6.590164306640625,-0.4264586269855499,0.4932299554347992,0.3954511880874634
1667825246199171000,6.600171142578125,-0.4379158318042755,0.5495885610580444,0.5807867050170898
1667825246209179100,6.61017919921875,-0.43332239985466003,0.5420312881469727,0.7618467807769775
1667825246219186200,6.620186279296875,-0.4161823093891144,0.4822912812232971,0.9288610219955444
1667825246229194200,6.6301943359375,-0.3850267827510834,0.37417519092559814,1.0782129764556885
1667825246239201000,6.640200927734375,-0.33844542503356934,0.2109127640724182,1.185990571975708
1667825246249209000,6.650208984375,-0.28870663046836853,-0.02219611592590809,1.2182846069335938
1667825246259216100,6.660216064453125,-0.24639247357845306,-0.29222068190574646,1.1605656147003174
1667825246269224000,6.670223876953125,-0.22060027718544006,-0.565237820148468,0.9970845580101013
1667825246279231000,6.68023095703125,-0.22152173519134521,-0.796120822429657,0.7532628774642944
1667825246289239000,6.690239013671875,-0.2660151720046997,-0.9450823664665222,0.463360995054245
1667825246299246000,6.70024609375,-0.3586662709712982,-1.010568380355835,0.14433054625988007
1667825246309254000,6.71025390625,-0.4945191740989685,-1.0120973587036133,-0.19414390623569489
1667825246319261200,6.72026123046875,-0.6497090458869934,-0.9446455836296082,-0.5343310236930847
1667825246329269000,6.73026904296875,-0.7874256372451782,-0.8345438838005066,-0.8405245542526245
1667825246339276000,6.740276123046875,-0.905200719833374,-0.7130893468856812,-1.0808223485946655
1667825246349283800,6.750283935546875,-0.9871123433113098,-0.5693577527999878,-1.2248653173446655
1667825246359291100,6.760291015625,-1.0222070217132568,-0.39636731147766113,-1.2456589937210083
1667825246369299000,6.770298828125,-1.0106009244918823,-0.1944911926984787,-1.147653579711914
1667825246379306000,6.780305908203125,-0.9516412019729614,-0.02545076422393322,-0.9695509672164917
1667825246389314000,6.79031396484375,-0.8458045125007629,0.07178683578968048,-0.7656103372573853
1667825246399321000,6.800321044921875,-0.6971492767333984,0.09771404415369034,-0.5883498191833496
1667825246409329000,6.810328857421875,-0.5240299105644226,0.032036494463682175,-0.47616440057754517
1667825246419336200,6.820336181640625,-0.3581418991088867,-0.09547246247529984,-0.4353024661540985
1667825246429344000,6.830343994140625,-0.2467202991247177,-0.24976110458374023,-0.4523901045322418
1667825246439351000,6.84035107421875,-0.20549030601978302,-0.3755331337451935,-0.5177448987960815
1667825246449358800,6.85035888671875,-0.23603835701942444,-0.4657384157180786,-0.5975654125213623
1667825246459366100,6.8603662109375,-0.30039551854133606,-0.5255740284919739,-0.6872391104698181
1667825246469374000,6.8703740234375,-0.38369518518447876,-0.553199291229248,-0.7718881964683533
1667825246479381000,6.880381103515625,-0.47074568271636963,-0.5549060702323914,-0.8514980673789978
1667825246489389000,6.89038916015625,-0.5434398651123047,-0.5409386157989502,-0.9279001951217651
1667825246499396000,6.90039599609375,-0.582721471786499,-0.5284073948860168,-0.9946219325065613
1667825246509400800,6.91040087890625,-0.5871737599372864,-0.5050778388977051,-1.0406807661056519
1667825246519407900,6.920407958984375,-0.5646857619285583,-0.45999664068222046,-1.043898105621338
1667825246529416000,6.930416015625,-0.5316809415817261,-0.3971889019012451,-1.001739501953125
1667825246539422700,6.940422607421875,-0.4969591796398163,-0.3412071168422699,-0.9284924864768982
1667825246549430800,6.9504306640625,-0.4645306468009949,-0.3130745589733124,-0.8237221240997314
1667825246559437800,6.960437744140625,-0.4360350966453552,-0.304658979177475,-0.7065153121948242
1667825246569446000,6.97044580078125,-0.413107693195343,-0.31354060769081116,-0.5945613384246826
1667825246579452700,6.98045263671875,-0.3997005224227905,-0.33677563071250916,-0.5084171295166016
1667825246589460700,6.990460693359375,-0.4022667407989502,-0.3173382878303528,-0.45687541365623474
1667825246599467800,7.0004677734375,-0.41413938999176025,-0.2759881615638733,-0.43125978112220764
1667825246609475800,7.010475830078125,-0.4229946732521057,-0.22672581672668457,-0.4164121448993683
1667825246619483000,7.02048291015625,-0.4324057400226593,-0.16400358080863953,-0.4026467800140381
1667825246629491000,7.030490966796875,-0.4411603510379791,-0.1250452697277069,-0.3912641704082489
1667825246639497700,7.040497802734375,-0.4269835352897644,-0.11540409177541733,-0.39211398363113403
1667825246649505800,7.050505859375,-0.3916463255882263,-0.1400175541639328,-0.4044686555862427
1667825246659512800,7.060512939453125,-0.3415251076221466,-0.17862194776535034,-0.43452587723731995
1667825246669521000,7.07052099609375,-0.27895572781562805,-0.2213137447834015,-0.4998822510242462
1667825246679527700,7.080527587890625,-0.22551648318767548,-0.23419944941997528,-0.5933544039726257
1667825246689535700,7.09053564453125,-0.19400621950626373,-0.18995875120162964,-0.6883847713470459
1667825246699542800,7.100542724609375,-0.17256112396717072,-0.11020373553037643,-0.7516859769821167
1667825246709550800,7.11055078125,-0.14804406464099884,0.0010554107138887048,-0.7511030435562134
1667825246719558000,7.120557861328125,-0.11373748630285263,0.08063172549009323,-0.679110586643219
1667825246729566000,7.13056591796875,-0.06610498577356339,0.15942667424678802,-0.5257170796394348
1667825246739572700,7.14057275390625,-0.0019502328941598535,0.2243739813566208,-0.3028525412082672
1667825246749580800,7.150580810546875,0.08118699491024017,0.26139912009239197,-0.030846595764160156
1667825246759587800,7.160587890625,0.18442922830581665,0.1894357055425644,0.23605060577392578
1667825246769596000,7.170595947265625,0.33439263701438904,-0.0008008125587366521,0.4358156621456146
1667825246779602700,7.180602783203125,0.5427743196487427,-0.27814826369285583,0.5274459719657898
1667825246789610800,7.19061083984375,0.7891162037849426,-0.5384677052497864,0.5058088302612305
1667825246799617800,7.20061767578125,1.046486735343933,-0.7310528755187988,0.41337746381759644
1667825246809625900,7.2106259765625,1.280948281288147,-0.8367792963981628,0.30051562190055847
1667825246819633000,7.2206328125,1.4802778959274292,-0.8221303224563599,0.18705937266349792
1667825246829641000,7.230640869140625,1.6055105924606323,-0.7055273056030273,0.10649687796831131
1667825246839647700,7.240647705078125,1.6379423141479492,-0.47797057032585144,0.11514842510223389
1667825246849655800,7.25065576171875,1.5902602672576904,-0.13056626915931702,0.2520492970943451
1667825246859662800,7.260662841796875,1.5108368396759033,0.26184093952178955,0.48845064640045166
1667825246869671000,7.2706708984375,1.4577927589416504,0.5705697536468506,0.7901194095611572
1667825246879677700,7.280677734375,1.472602128982544,0.7485849857330322,1.0962833166122437
1667825246889685800,7.290685791015625,1.5524777173995972,0.7791434526443481,1.3541265726089478
1667825246899692800,7.30069287109375,1.6605647802352905,0.7126328945159912,1.543362021446228
1667825246909700900,7.310700927734375,1.774225115776062,0.5513547658920288,1.6525559425354004
1667825246919707600,7.320707763671875,1.8454166650772095,0.318708211183548,1.694360613822937
1667825246929716000,7.330716064453125,1.8326417207717896,0.10000063478946686,1.6847667694091797
1667825246939722800,7.34072265625,1.7075363397598267,-0.09357043355703354,1.625252366065979
1667825246949730800,7.350730712890625,1.4905341863632202,-0.25100401043891907,1.5153088569641113
1667825246959737900,7.36073779296875,1.1987513303756714,-0.3445635139942169,1.3708174228668213
1667825246969746000,7.370745849609375,0.8667675852775574,-0.36372628808021545,1.2106349468231201
1667825246979752700,7.380752685546875,0.5262534022331238,-0.3036307096481323,1.0485717058181763
1667825246989760800,7.3907607421875,0.2380668967962265,-0.18462097644805908,0.8853873610496521
1667825246999767800,7.400767822265625,0.05577617883682251,-0.05754318833351135,0.7134405970573425
1667825247009775900,7.41077587890625,-0.018213357776403427,0.05907636880874634,0.552688479423523
1667825247019782700,7.42078271484375,-0.021819012239575386,0.15433816611766815,0.4219975769519806
1667825247029791000,7.430791015625,-0.0029728866647928953,0.2275972068309784,0.3346205949783325
1667825247039797800,7.4407978515625,0.01954653672873974,0.2809469699859619,0.30357933044433594
1667825247049805800,7.450805908203125,0.02642281912267208,0.3212840259075165,0.3135872185230255
1667825247059812900,7.460812744140625,0.01846476085484028,0.36109694838523865,0.34763360023498535
1667825247069821000,7.470821044921875,-0.004460794851183891,0.3948192298412323,0.3945862054824829
1667825247079827700,7.48082763671875,-0.026283536106348038,0.42233315110206604,0.4315210282802582
1667825247089835800,7.490835693359375,-0.04893744736909866,0.4551835060119629,0.47199708223342896
1667825247099842800,7.5008427734375,-0.0659441277384758,0.4805524945259094,0.5196807384490967
1667825247109851000,7.510850830078125,-0.08264454454183578,0.48276159167289734,0.5784788131713867
1667825247119857700,7.520857666015625,-0.11227141320705414,0.4658350646495819,0.6233115196228027
1667825247129866000,7.530865966796875,-0.14609888195991516,0.43147310614585876,0.6552295088768005
1667825247139872800,7.540872802734375,-0.17847226560115814,0.3591749370098114,0.6647092700004578
1667825247149880800,7.550880859375,-0.20241914689540863,0.24466487765312195,0.6391807794570923
1667825247159888000,7.560887939453125,-0.22037337720394135,0.1360294669866562,0.5737679600715637
1667825247169896000,7.57089599609375,-0.26009708642959595,0.10295301675796509,0.49337854981422424
1667825247179902700,7.58090283203125,-0.3321419954299927,0.15464390814304352,0.4296554923057556
1667825247189910800,7.590910888671875,-0.4238266348838806,0.24765907227993011,0.4005676507949829
1667825247199917800,7.600917724609375,-0.513749897480011,0.35596397519111633,0.39947789907455444
1667825247209924600,7.610924560546875,-0.5840511918067932,0.4263065755367279,0.4238085150718689
1667825247219932700,7.6209326171875,-0.6180925369262695,0.4358241856098175,0.4665655791759491
1667825247229939700,7.630939697265625,-0.6238835453987122,0.34102895855903625,0.5132225751876831
1667825247239947800,7.64094775390625,-0.606478214263916,0.1788104921579361,0.5422329306602478
1667825247249955800,7.650955810546875,-0.5796854496002197,-0.07579009979963303,0.49961113929748535
1667825247259963000,7.660962890625,-0.5460242033004761,-0.3506690561771393,0.3624818027019501
1667825247269969700,7.6709697265625,-0.5094629526138306,-0.6113089323043823,0.1305401623249054
1667825247279977700,7.680977783203125,-0.4937143623828888,-0.8532493710517883,-0.18202652037143707
1667825247289984800,7.69098486328125,-0.517633318901062,-1.0384716987609863,-0.5201665163040161
1667825247299992800,7.700992919921875,-0.5729684233665466,-1.1199641227722168,-0.8577336072921753
1667825247309999600,7.71099951171875,-0.6536327004432678,-1.0923104286193848,-1.146914005279541
1667825247320007700,7.721007568359375,-0.7502194046974182,-0.9685237407684326,-1.3558909893035889
1667825247330014700,7.7310146484375,-0.850356936454773,-0.7774478197097778,-1.4663258790969849
1667825247340022800,7.741022705078125,-0.9269297122955322,-0.5609922409057617,-1.4966474771499634
1667825247350029800,7.75102978515625,-0.9507372975349426,-0.3515399098396301,-1.4793965816497803
1667825247360038000,7.761037841796875,-0.8834490776062012,-0.1593819409608841,-1.4518091678619385
1667825247370046000,7.7710458984375,-0.7356279492378235,-0.02310851402580738,-1.4385477304458618
1667825247380052700,7.781052734375,-0.5315842628479004,0.02925162762403488,-1.427018642425537
1667825247390060800,7.791060791015625,-0.326591432094574,-0.0005368932615965605,-1.399253010749817
1667825247400067800,7.80106787109375,-0.17158959805965424,-0.047631435096263885,-1.3277312517166138
1667825247410074600,7.81107470703125,-0.08412100374698639,-0.0479414276778698,-1.2114880084991455
1667825247420082700,7.821082763671875,-0.07441165298223495,-0.00561074772849679,-1.079001784324646
1667825247430089700,7.83108984375,-0.12232191860675812,0.051595281809568405,-0.9557664394378662
1667825247440097800,7.841097900390625,-0.1980861872434616,0.10950039327144623,-0.8400997519493103
1667825247450104800,7.851104736328125,-0.2762441039085388,0.1349942982196808,-0.7544511556625366
1667825247460113000,7.86111279296875,-0.33159470558166504,0.13075880706310272,-0.6831258535385132
1667825247470119700,7.87111962890625,-0.3696342408657074,0.10336393862962723,-0.6265653371810913
1667825247480127700,7.881127685546875,-0.3982571065425873,0.088483527302742,-0.5779727697372437
1667825247490134800,7.891134765625,-0.4313386082649231,0.06985657662153244,-0.5204445123672485
1667825247500142800,7.901142822265625,-0.48749402165412903,0.049801912158727646,-0.4509789049625397
1667825247510148900,7.91114892578125,-0.5576358437538147,0.024284301325678825,-0.36415159702301025
1667825247520156700,7.92115673828125,-0.6584876179695129,-0.01684236340224743,-0.2764688730239868
1667825247530163700,7.931163818359375,-0.7690919041633606,-0.06486048549413681,-0.17550018429756165
1667825247540171500,7.941171630859375,-0.8777565956115723,-0.10215113312005997,-0.07227765768766403
1667825247550178800,7.9511787109375,-0.9774810671806335,-0.13233433663845062,0.02593732438981533
1667825247560186600,7.9611865234375,-1.0515520572662354,-0.1702071577310562,0.10337112843990326
1667825247570193700,7.971193603515625,-1.0915287733078003,-0.22067831456661224,0.15836992859840393
1667825247580201700,7.98120166015625,-1.0937581062316895,-0.29464733600616455,0.1849866360425949
1667825247590208800,7.991208740234375,-1.0728977918624878,-0.43004512786865234,0.15066248178482056
1667825247600216600,8.001216552734375,-1.029151439666748,-0.6113267540931702,0.036788906902074814
1667825247610223900,8.011223876953125,-0.96476149559021,-0.8101274967193604,-0.15904584527015686
1667825247620231700,8.021231689453124,-0.8926015496253967,-0.99448162317276,-0.42671164870262146
1667825247630238700,8.03123876953125,-0.8190307021141052,-1.143713116645813,-0.7588003873825073
1667825247640246500,8.04124658203125,-0.7714210748672485,-1.2047029733657837,-1.1344565153121948
1667825247650253800,8.05125390625,-0.7621932625770569,-1.1428974866867065,-1.5099198818206787
1667825247660261600,8.06126171875,-0.7897886633872986,-0.9719336628913879,-1.8367395401000977
1667825247670268700,8.0712685546875,-0.8482159972190857,-0.708164632320404,-2.059598207473755
1667825247680276700,8.08127685546875,-0.9029673933982849,-0.40941253304481506,-2.1576406955718994
1667825247690283800,8.09128369140625,-0.9043439626693726,-0.2298148274421692,-2.169966220855713
1667825247700291600,8.10129150390625,-0.8032695651054382,-0.17587009072303772,-2.131974935531616
1667825247710299000,8.111298828125,-0.5994700789451599,-0.15013597905635834,-2.0488924980163574
1667825247720306700,8.121306640625,-0.33273348212242126,-0.10415542870759964,-1.9034935235977173
1667825247730313700,8.131313720703124,-0.02021099627017975,-0.03971465677022934,-1.6835081577301025
1667825247740321500,8.141321533203126,0.32956671714782715,0.005634183529764414,-1.406696081161499
1667825247750328800,8.151328857421875,0.6926761865615845,0.05645075812935829,-1.071900486946106
1667825247760336600,8.161336669921875,1.0481685400009155,0.1461915671825409,-0.6793127059936523
1667825247770343700,8.17134375,1.3692829608917236,0.29138442873954773,-0.20130062103271484
1667825247780351700,8.181351806640626,1.6687697172164917,0.4566466212272644,0.32747161388397217
1667825247790358800,8.19135888671875,1.97537100315094,0.568444550037384,0.8544059991836548
1667825247800366600,8.20136669921875,2.2906596660614014,0.5989118814468384,1.3168045282363892
1667825247810374000,8.211373779296874,2.5975232124328613,0.5350764393806458,1.6633635759353638
1667825247820381700,8.221381591796876,2.8463902473449707,0.4387235641479492,1.888406753540039
1667825247830388700,8.231388671875,3.02211332321167,0.3557213544845581,1.9961340427398682
1667825247840396500,8.241396484375,3.0909531116485596,0.28825095295906067,1.997884750366211
1667825247850403800,8.25140380859375,3.026439666748047,0.22568745911121368,1.924708366394043
1667825247860411600,8.26141162109375,2.8338472843170166,0.19159473478794098,1.8176891803741455
1667825247870418700,8.271418701171875,2.5379064083099365,0.1794227510690689,1.6931546926498413
1667825247880426800,8.2814267578125,2.1659324169158936,0.1808888167142868,1.5561153888702393
1667825247890433800,8.291433837890626,1.760035514831543,0.17050781846046448,1.428093433380127
1667825247900441600,8.301441650390625,1.384727120399475,0.12978382408618927,1.323624849319458
1667825247910449000,8.311448974609375,1.085645079612732,0.06887733191251755,1.2606451511383057
1667825247920456700,8.321456787109375,0.884426474571228,0.04639306291937828,1.2447450160980225
1667825247930463700,8.331463623046876,0.7511323094367981,0.05403420701622963,1.2716267108917236
1667825247940471600,8.341471435546875,0.691586971282959,0.08567894995212555,1.3282859325408936
1667825247950478600,8.351478515625,0.6718188524246216,0.09169956296682358,1.3864384889602661
1667825247960486700,8.361486572265624,0.673062801361084,0.08041813969612122,1.4485969543457031
1667825247970493400,8.371493408203126,0.6799830794334412,0.057675279676914215,1.4874814748764038
1667825247980501800,8.381501708984375,0.6834254264831543,0.057858772575855255,1.4781494140625
1667825247990508500,8.391508544921875,0.6624080538749695,0.08873439580202103,1.3982490301132202
1667825248000516600,8.4015166015625,0.5965999960899353,0.13369840383529663,1.2533845901489258
1667825248010523600,8.411523681640626,0.4978688955307007,0.20871245861053467,1.0698908567428589
1667825248020531700,8.42153173828125,0.37099406123161316,0.3373311758041382,0.897946834564209
1667825248030538500,8.43153857421875,0.22606483101844788,0.4843672215938568,0.7707656621932983
1667825248040546600,8.441546630859374,0.06603920459747314,0.5984421372413635,0.6872864961624146
1667825248050553600,8.4515537109375,-0.103643037378788,0.6339644193649292,0.6335108876228333
1667825248060561700,8.461561767578125,-0.24249306321144104,0.5890312790870667,0.6002455949783325
1667825248070568400,8.471568359375,-0.350309818983078,0.5033707022666931,0.5716872215270996
1667825248080576800,8.48157666015625,-0.44081947207450867,0.42039382457733154,0.5401750802993774
1667825248090583600,8.49158349609375,-0.5434420108795166,0.3664270043373108,0.5097364783287048
1667825248100591600,8.501591552734375,-0.6676353216171265,0.3528105318546295,0.496234267950058
1667825248110598700,8.5115986328125,-0.7988433837890625,0.36603471636772156,0.5207926034927368
1667825248120606700,8.521606689453124,-0.90938401222229,0.42172062397003174,0.5960370302200317
1667825248130613500,8.531613525390625,-0.995617151260376,0.5107935070991516,0.7201445698738098
1667825248140621600,8.54162158203125,-1.0516245365142822,0.604011058807373,0.8790538311004639
1667825248150628600,8.551628662109374,-1.0748203992843628,0.6684033870697021,1.0395047664642334
1667825248160636700,8.56163671875,-1.0674625635147095,0.6923167109489441,1.1683164834976196
1667825248170643500,8.5716435546875,-1.0587308406829834,0.6924147009849548,1.2439393997192383
1667825248180651800,8.58165185546875,-1.043724536895752,0.6788722276687622,1.2621415853500366
1667825248190658600,8.591658447265624,-1.0271815061569214,0.6593241095542908,1.2401124238967896
1667825248200666600,8.60166650390625,-1.0087265968322754,0.6170280575752258,1.188812255859375
1667825248210673700,8.611673583984375,-0.9731550216674805,0.510099470615387,1.090579867362976
1667825248220681700,8.621681640625,-0.9313393831253052,0.36004072427749634,0.9271070957183838
1667825248230688500,8.6316884765625,-0.8938617706298828,0.1935012936592102,0.6924700736999512
1667825248240696600,8.641696533203126,-0.8690773248672485,0.03845631331205368,0.39974233508110046
1667825248250703600,8.65170361328125,-0.87584388256073,-0.07037509977817535,0.08205465227365494
1667825248260711700,8.661711669921875,-0.9198981523513794,-0.11290391534566879,-0.22414681315422058
1667825248270718500,8.671718505859374,-0.9977551698684692,-0.11720278859138489,-0.4953130781650543
1667825248280726800,8.681726806640626,-1.0875710248947144,-0.11378355324268341,-0.7109659910202026
1667825248290733600,8.691733642578125,-1.1363234519958496,-0.13475196063518524,-0.8496778011322021
1667825248300741600,8.70174169921875,-1.1215550899505615,-0.17691485583782196,-0.9136831760406494
1667825248310748700,8.711748779296874,-1.0525704622268677,-0.26756352186203003,-0.9446370601654053
1667825248320756700,8.7217568359375,-0.9461880922317505,-0.3790605068206787,-0.9520134925842285
1667825248330763500,8.731763427734375,-0.8040541410446167,-0.49877145886421204,-0.9450051188468933
1667825248340771600,8.741771484375,-0.6202068328857422,-0.5920790433883667,-0.9246569871902466
1667825248350778600,8.751778564453126,-0.4228929281234741,-0.6624283194541931,-0.875834047794342
1667825248360786700,8.76178662109375,-0.2299807369709015,-0.7008494734764099,-0.8120803833007812
1667825248370793500,8.77179345703125,-0.06417711824178696,-0.7024121880531311,-0.7481905817985535
1667825248380801800,8.7818017578125,0.06540590524673462,-0.7084543704986572,-0.7101563811302185
1667825248390808600,8.79180859375,0.16469067335128784,-0.7246533036231995,-0.7037560343742371
1667825248400816600,8.801816650390625,0.24387525022029877,-0.7731255292892456,-0.7420892715454102
1667825248410823700,8.81182373046875,0.2932334840297699,-0.8504586219787598,-0.8075708150863647
1667825248420831700,8.821831787109375,0.3108904957771301,-0.8864041566848755,-0.8925312757492065
1667825248430838500,8.831838623046876,0.28987523913383484,-0.8595166206359863,-0.9957495331764221
1667825248440846600,8.8418466796875,0.2419005185365677,-0.8096819519996643,-1.0904419422149658
1667825248450853600,8.851853515625,0.16436737775802612,-0.7445319294929504,-1.1567370891571045
1667825248460861700,8.86186181640625,0.06842486560344696,-0.6692680716514587,-1.1827670335769653
1667825248470868500,8.871868408203126,-0.053035520017147064,-0.6027034521102905,-1.1569437980651855
1667825248480876800,8.881876708984375,-0.18628917634487152,-0.5329858660697937,-1.0796867609024048
1667825248490883600,8.891883544921875,-0.32626545429229736,-0.4769231379032135,-0.9507205486297607
1667825248500891600,8.9018916015625,-0.46140676736831665,-0.4752890169620514,-0.7925487160682678
1667825248510898400,8.9118984375,-0.5796359181404114,-0.5077191591262817,-0.6320576071739197
1667825248520906500,8.921906494140625,-0.6830962896347046,-0.571441650390625,-0.4859592616558075
1667825248530913300,8.931913330078125,-0.7686617970466614,-0.6697485446929932,-0.3517090380191803
1667825248540921300,8.94192138671875,-0.827344536781311,-0.783491849899292,-0.2293969690799713
1667825248550928400,8.951928466796875,-0.8653446435928345,-0.8944809436798096,-0.13307683169841766
1667825248560936400,8.9619365234375,-0.8706502318382263,-0.9842952489852905,-0.0894734263420105
1667825248570943200,8.971943115234374,-0.8560097217559814,-1.033782958984375,-0.09857131540775299
1667825248580951600,8.98195166015625,-0.8135173916816711,-1.086997151374817,-0.1637772172689438
1667825248590958300,8.991958251953125,-0.7662066221237183,-1.1365375518798828,-0.28380295634269714
1667825248600966400,9.00196630859375,-0.7356843948364258,-1.16463303565979,-0.43487662076950073
1667825248610973400,9.011973388671874,-0.7280395030975342,-1.175237774848938,-0.6072515845298767
1667825248620981500,9.0219814453125,-0.7340819835662842,-1.188614845275879,-0.7843629717826843
1667825248630988300,9.03198828125,-0.7541342377662659,-1.1850858926773071,-0.9641053080558777
1667825248640996400,9.041996337890625,-0.7942488789558411,-1.1529815196990967,-1.128005862236023
1667825248651003400,9.05200341796875,-0.8548163771629333,-1.1010644435882568,-1.2538343667984009
1667825248661011500,9.062011474609376,-0.9296714663505554,-0.9674878120422363,-1.3218687772750854
1667825248671018200,9.072018310546875,-0.9912844896316528,-0.7333501577377319,-1.3230479955673218
1667825248681026600,9.082026611328125,-1.019454836845398,-0.46203315258026123,-1.2617913484573364
1667825248691033300,9.092033447265624,-0.9882380962371826,-0.2482188642024994,-1.172298789024353
1667825248701041400,9.10204150390625,-0.8575407862663269,-0.11220483481884003,-1.0865731239318848
1667825248711048400,9.11204833984375,-0.6365277171134949,-0.04910096526145935,-1.0332598686218262
1667825248721056500,9.122056396484375,-0.351580947637558,-0.044917408376932144,-1.022566795349121
1667825248731063300,9.132063232421874,-0.033613886684179306,-0.06293688714504242,-1.026483178138733
1667825248741071400,9.1420712890625,0.2853284180164337,-0.05848994106054306,-1.0090179443359375
1667825248751078400,9.152078369140625,0.5924814343452454,0.006113818846642971,-0.9371048808097839
1667825248761086500,9.16208642578125,0.8725053668022156,0.14262798428535461,-0.7988846898078918
1667825248771093200,9.17209326171875,1.1253048181533813,0.34473955631256104,-0.5579357147216797
1667825248781101600,9.1821015625,1.376003384590149,0.5363464951515198,-0.2117311656475067
1667825248791108400,9.1921083984375,1.6314194202423096,0.6796802282333374,0.22735139727592468
1667825248801116400,9.202116455078125,1.9037660360336304,0.8135432600975037,0.7411401271820068
1667825248811123500,9.21212353515625,2.1733930110931396,0.9368968605995178,1.2668331861495972
1667825248821131500,9.222131591796876,2.4405736923217773,1.0008883476257324,1.7386082410812378
1667825248831138300,9.23213818359375,2.685549020767212,0.9741451740264893,2.1248693466186523
1667825248841146400,9.242146484375,2.8786184787750244,0.8950924277305603,2.4107279777526855
1667825248851153400,9.2521533203125,3.0037076473236084,0.7817845344543457,2.6012299060821533
1667825248861161500,9.262161376953125,3.048778772354126,0.6652650833129883,2.695737361907959
1667825248871168300,9.272168212890625,3.0028076171875,0.5532722473144531,2.7016985416412354
1667825248881176600,9.282176513671875,2.8597335815429688,0.43489474058151245,2.628695487976074
1667825248891183400,9.292183349609376,2.633669137954712,0.3350094258785248,2.4935154914855957
1667825248901191400,9.30219140625,2.3581814765930176,0.26750415563583374,2.294900417327881
1667825248911198500,9.312198486328125,2.059605598449707,0.23430117964744568,2.058480978012085
1667825248921206500,9.32220654296875,1.7806451320648193,0.22806033492088318,1.8122498989105225
1667825248931213300,9.33221337890625,1.5567593574523926,0.2242187261581421,1.5842705965042114
1667825248941221400,9.342221435546875,1.4171206951141357,0.24190610647201538,1.40992271900177
1667825248951228400,9.352228515625,1.3352471590042114,0.289453387260437,1.2940754890441895
1667825248961236500,9.362236572265624,1.2914667129516602,0.37372565269470215,1.23566734790802
1667825248971243300,9.3722431640625,1.2658460140228271,0.4684729278087616,1.2171231508255005
1667825248981251600,9.38225146484375,1.2573717832565308,0.5294393301010132,1.2124184370040894
1667825248991258400,9.39225830078125,1.2301188707351685,0.5511813759803772,1.2153266668319702
1667825249001266400,9.402266357421874,1.173720359802246,0.5192136168479919,1.2181894779205322
1667825249011273500,9.4122734375,1.1153422594070435,0.440566748380661,1.2243528366088867
1667825249021281500,9.422281494140625,1.0646889209747314,0.3509170114994049,1.2160390615463257
1667825249031288300,9.432288330078125,0.9921473264694214,0.2538011074066162,1.176061749458313
1667825249041296400,9.44229638671875,0.8899970054626465,0.13308455049991608,1.0940651893615723
1667825249051303400,9.452303466796875,0.7802633047103882,0.001648496720008552,0.9555565714836121
1667825249061311500,9.4623115234375,0.653327226638794,-0.10754110664129257,0.7580610513687134
1667825249071318300,9.472318359375,0.5026761889457703,-0.14457368850708008,0.544768750667572
1667825249081326600,9.48232666015625,0.3104255199432373,-0.0961502343416214,0.36796948313713074
1667825249091333400,9.49233349609375,0.06333822757005692,0.01315015647560358,0.28250759840011597
1667825249101341400,9.502341552734375,-0.22124184668064117,0.21220360696315765,0.3160618245601654
1667825249111348500,9.512348388671874,-0.4962478280067444,0.41699856519699097,0.4527605473995209
1667825249121356500,9.5223564453125,-0.7395851016044617,0.5289520025253296,0.6498416662216187
1667825249131363300,9.53236328125,-0.9277108311653137,0.5867239236831665,0.8634200096130371
1667825249141371400,9.542371337890625,-1.0353363752365112,0.589513897895813,1.0413868427276611
1667825249151378400,9.55237841796875,-1.0545907020568848,0.5433064103126526,1.1544827222824097
1667825249161386500,9.562386474609376,-1.0028481483459473,0.4614001214504242,1.1865909099578857
1667825249171393300,9.572393310546875,-0.919474720954895,0.3431251347064972,1.1275129318237305
1667825249181401600,9.582401611328125,-0.8425202965736389,0.2058945745229721,0.9790581464767456
1667825249191408400,9.592408447265624,-0.7962537407875061,0.0909608006477356,0.761527955532074
1667825249201416400,9.60241650390625,-0.790505051612854,-0.00484189298003912,0.5052255988121033
1667825249211423500,9.612423583984375,-0.8402539491653442,-0.10029597580432892,0.20228944718837738
1667825249221431600,9.622431640625,-0.9375544190406799,-0.1825932413339615,-0.1176920086145401
1667825249231438300,9.632438232421874,-1.056883454322815,-0.2479003518819809,-0.4522782564163208
1667825249241446400,9.6424462890625,-1.178957223892212,-0.28438326716423035,-0.7780595421791077
1667825249251453400,9.652453369140625,-1.2657016515731812,-0.2958473563194275,-1.0694013833999634
1667825249261461500,9.66246142578125,-1.303534746170044,-0.2814069092273712,-1.3095176219940186
1667825249271468300,9.67246826171875,-1.2901744842529297,-0.22565309703350067,-1.4820201396942139
1667825249281476600,9.6824765625,-1.2384567260742188,-0.12269822508096695,-1.5773011445999146
1667825249291483400,9.6924833984375,-1.1600756645202637,0.014473747462034225,-1.5855376720428467
1667825249301491500,9.702491455078125,-1.0530927181243896,0.1498749852180481,-1.519671082496643
1667825249311498500,9.71249853515625,-0.9125768542289734,0.24933978915214539,-1.4014192819595337
1667825249321506600,9.722506591796876,-0.748664379119873,0.2849244177341461,-1.2581779956817627
1667825249331513300,9.732513427734375,-0.5743871331214905,0.23472090065479279,-1.1043702363967896
1667825249341521400,9.742521484375,-0.42483410239219666,0.10615546256303787,-0.9452642798423767
1667825249351528400,9.752528564453126,-0.3207569718360901,-0.03045297972857952,-0.7887374758720398
1667825249361536500,9.76253662109375,-0.2736800014972687,-0.1516587734222412,-0.6492946743965149
1667825249371543300,9.772543212890625,-0.26717549562454224,-0.2750171720981598,-0.5447719693183899
1667825249381551600,9.782551513671875,-0.30652105808258057,-0.38451331853866577,-0.4718785881996155
1667825249391558400,9.792558349609376,-0.3915637731552124,-0.470235675573349,-0.41658711433410645
1667825249401566500,9.80256640625,-0.49967560172080994,-0.5523241758346558,-0.38974323868751526
1667825249411573500,9.812573486328125,-0.6249498724937439,-0.6029418110847473,-0.3788546323776245
1667825249421581600,9.82258154296875,-0.750236988067627,-0.6199684739112854,-0.3733549416065216
1667825249431588400,9.83258837890625,-0.871801495552063,-0.6663042306900024,-0.3747754693031311
1667825249441596400,9.842596435546875,-0.9906312227249146,-0.7511714696884155,-0.3768426179885864
1667825249451603500,9.852603515625,-1.0937166213989258,-0.863662600517273,-0.3608980178833008
1667825249461611500,9.862611572265624,-1.1713999509811401,-0.9860851764678955,-0.3619462251663208
1667825249471618300,9.872618408203126,-1.2345969676971436,-1.0809330940246582,-0.37700825929641724
1667825249481626600,9.882626708984375,-1.2705177068710327,-1.1241424083709717,-0.42557793855667114
1667825249491633400,9.89263330078125,-1.2735822200775146,-1.1436617374420166,-0.5146167278289795
1667825249501641500,9.902641357421874,-1.2628158330917358,-1.1334538459777832,-0.6514219641685486
1667825249511649300,9.912649169921876,-1.249716877937317,-1.111940860748291,-0.836618185043335
1667825249521657300,9.9226572265625,-1.2334915399551392,-1.1306583881378174,-1.0966553688049316
1667825249531664400,9.932664306640625,-1.2291511297225952,-1.1708627939224243,-1.4069548845291138
1667825249541672400,9.94267236328125,-1.2549126148223877,-1.1922194957733154,-1.7472469806671143
1667825249551679500,9.952679443359376,-1.3217670917510986,-1.171858549118042,-2.0661160945892334
1667825249561687600,9.9626875,-1.417989730834961,-1.1069109439849854,-2.3105628490448
1667825249571694300,9.9726943359375,-1.528350830078125,-1.0043421983718872,-2.4659886360168457
1667825249581702400,9.982702392578124,-1.6314479112625122,-0.8421120643615723,-2.5250492095947266
1667825249591709400,9.99270947265625,-1.6853047609329224,-0.6737110614776611,-2.5144333839416504
1667825249601717500,10.002717529296875,-1.6645134687423706,-0.5597605109214783,-2.4620494842529297
1667825249611724300,10.012724365234375,-1.5479847192764282,-0.5175976157188416,-2.4150655269622803
1667825249621732400,10.022732421875,-1.3324627876281738,-0.5505509972572327,-2.381864309310913
1667825249631739400,10.032739501953126,-1.0359240770339966,-0.6348472833633423,-2.3566367626190186
1667825249641747500,10.04274755859375,-0.6658182144165039,-0.7525352835655212,-2.3134751319885254
1667825249651754500,10.05275439453125,-0.2475448101758957,-0.8124990463256836,-2.2211625576019287
1667825249661762600,10.062762451171874,0.1914738267660141,-0.7674423456192017,-2.0583033561706543
1667825249671769300,10.072769287109375,0.613872766494751,-0.5807384848594666,-1.8122954368591309
1667825249681777400,10.08277734375,1.0034306049346924,-0.25656360387802124,-1.4599838256835938
1667825249691784400,10.092784423828125,1.3486676216125488,0.14673298597335815,-1.009112000465393
1667825249701792500,10.10279248046875,1.6458828449249268,0.5682591795921326,-0.5094313025474548
1667825249711799300,10.11279931640625,1.928160309791565,0.9393094182014465,-0.022950056940317154
1667825249721807400,10.122807373046875,2.214433193206787,1.2221922874450684,0.38460734486579895
1667825249731814400,10.132814453125,2.5084540843963623,1.4220608472824097,0.6796682476997375
1667825249741822500,10.142822509765624,2.7660114765167236,1.5593618154525757,0.872024416923523
1667825249751829500,10.15282958984375,2.9342610836029053,1.6450282335281372,0.9888240098953247
1667825249761837600,10.162837646484375,2.9934234619140625,1.6627944707870483,1.0602238178253174
1667825249771844400,10.17284423828125,2.931546688079834,1.654687762260437,1.1160783767700195
1667825249781852400,10.182852294921876,2.7323877811431885,1.6182814836502075,1.1804202795028687
1667825249791859500,10.192859375,2.420048475265503,1.5440696477890015,1.253526210784912
1667825249801867500,10.202867431640625,2.0084352493286133,1.4037405252456665,1.354609727859497
1667825249811874300,10.212874267578124,1.5445340871810913,1.177003264427185,1.460127830505371
1667825249821882400,10.22288232421875,1.080926537513733,0.870158851146698,1.571905493736267
1667825249831889400,10.232889404296875,0.6872116923332214,0.5272970795631409,1.676570177078247
1667825249841897500,10.2428974609375,0.4123324453830719,0.17764508724212646,1.746353268623352
1667825249851904500,10.252904541015624,0.21681007742881775,-0.1336512714624405,1.7823714017868042
1667825249861912600,10.26291259765625,0.06136828660964966,-0.3782125413417816,1.7639236450195312
1667825249871919400,10.27291943359375,-0.07122384756803513,-0.5180210471153259,1.682917833328247
1667825249881927400,10.282927490234375,-0.21279989182949066,-0.5547223091125488,1.553318738937378
1667825249891934500,10.2929345703125,-0.38177719712257385,-0.4916831851005554,1.3910081386566162
1667825249901942500,10.302942626953126,-0.5788233876228333,-0.3499161899089813,1.194888949394226
1667825249911949300,10.31294921875,-0.8012628555297852,-0.13467712700366974,0.9760759472846985
1667825249921957400,10.322957275390625,-1.0241212844848633,0.13599565625190735,0.7588562965393066
1667825249931964400,10.33296435546875,-1.2096000909805298,0.3733043372631073,0.5546533465385437
1667825249941972500,10.342972412109376,-1.3240416049957275,0.5103804469108582,0.3814046084880829
1667825249951979500,10.3529794921875,-1.3934998512268066,0.5299432277679443,0.2624167203903198
1667825249961987600,10.362987548828125,-1.47956120967865,0.40775206685066223,0.17103220522403717
1667825249971994400,10.372994384765626,-1.6337217092514038,0.22683501243591309,0.08025196194648743
1667825249982002400,10.38300244140625,-1.852843165397644,0.0968911275267601,-0.007798002101480961
1667825249992009500,10.393009521484375,-2.092677593231201,0.06054430454969406,-0.09453875571489334
1667825250002017500,10.403017578125,-2.3273568153381348,0.08282537758350372,-0.16401982307434082
1667825250012024300,10.4130244140625,-2.542947769165039,0.17636092007160187,-0.2112765610218048
1667825250022032400,10.423032470703125,-2.6943519115448,0.2895665764808655,-0.2541164457798004
1667825250032039400,10.433039306640625,-2.7571027278900146,0.3477931320667267,-0.30610132217407227
1667825250042047500,10.443047607421875,-2.751455307006836,0.4176531732082367,-0.3677452504634857
1667825250052054500,10.453054443359376,-2.706779956817627,0.536996603012085,-0.4679935574531555
1667825250062062600,10.4630625,-2.63344407081604,0.6868851780891418,-0.5992322564125061
1667825250072069400,10.4730693359375,-2.578434944152832,0.8639116287231445,-0.7414983510971069
1667825250082077400,10.483077392578124,-2.552079439163208,1.0885080099105835,-0.8903064727783203
1667825250092084500,10.49308447265625,-2.564338445663452,1.4176914691925049,-0.9790456295013428
1667825250102092500,10.503092529296875,-2.648507595062256,1.8810851573944092,-0.9383112788200378
1667825250112099300,10.513099365234375,-2.7552576065063477,2.2239325046539307,-0.8657161593437195
1667825250122107400,10.523107421875,-2.7759206295013428,2.5176358222961426,-0.7487953901290894
1667825250132114400,10.533114501953126,-2.647552490234375,2.8989410400390625,-0.5712648034095764
1667825250142122500,10.54312255859375,-2.433243989944458,3.1533308029174805,-0.4447207450866699
1667825250152129500,10.553129638671875,-2.2594211101531982,3.1625723838806152,-0.4407811164855957
1667825250162137600,10.5631376953125,-2.1290042400360107,3.266566514968872,-0.46724840998649597
1667825250172144400,10.573144287109375,-2.017732858657837,3.483182907104492,-0.46114790439605713
1667825250182152400,10.58315234375,-1.8971928358078003,3.6135408878326416,-0.40338075160980225
1667825250192159500,10.593159423828125,-1.733075499534607,3.643738269805908,-0.2745615243911743
1667825250202167600,10.60316748046875,-1.5438506603240967,3.573180675506592,-0.07554056495428085
1667825250212174300,10.61317431640625,-1.390767216682434,3.3814306259155273,0.1723611205816269
1667825250222182400,10.623182373046875,-1.2957277297973633,3.1099917888641357,0.4302017092704773
1667825250232189400,10.633189453125,-1.2603652477264404,2.8633620738983154,0.6415461897850037
1667825250242197500,10.643197509765624,-1.2040444612503052,2.728930711746216,0.7745870351791382
1667825250252204500,10.65320458984375,-1.1080774068832397,2.360037326812744,0.8785406351089478
1667825250262212600,10.663212646484375,-1.016471028327942,1.7452077865600586,0.9858633279800415
1667825250272219400,10.673219482421874,-0.957436740398407,1.0770792961120605,1.1419427394866943
1667825250282227500,10.6832275390625,-0.9626014232635498,0.5419852137565613,1.3648029565811157
1667825250292234500,10.693234375,-1.0516504049301147,0.2229108363389969,1.6248494386672974
1667825250302242600,10.70324267578125,-1.218411922454834,0.08730081468820572,1.849988579750061
1667825250312249300,10.713249267578124,-1.406782627105713,0.549534261226654,2.03126859664917
1667825250322257400,10.72325732421875,-1.5766252279281616,0.5651909708976746,2.1142098903656006
1667825250332264400,10.733264404296875,-1.6878260374069214,0.9121808409690857,2.1831555366516113
1667825250342272500,10.7432724609375,-1.777010440826416,1.3383737802505493,2.219090461730957
1667825250352279600,10.753279541015624,-1.8764315843582153,1.4489684104919434,2.1625823974609375
1667825250362287600,10.76328759765625,-1.930486798286438,1.3845182657241821,2.0774922370910645
1667825250372294400,10.77329443359375,-1.9021215438842773,1.2234785556793213,2.010891914367676
1667825250382302500,10.783302490234375,-1.896791696548462,0.8801252245903015,1.8705662488937378
1667825250392309500,10.7933095703125,-1.975893259048462,0.25332868099212646,1.606368899345398
1667825250402317600,10.803317626953126,-2.1062204837799072,-0.6170613169670105,1.2492462396621704
1667825250412324400,10.813324462890625,-2.2715306282043457,-1.5597436428070068,0.8698294162750244
1667825250422332400,10.82333251953125,-2.4499671459198,-2.250157356262207,0.5901908278465271
1667825250432339500,10.83333935546875,-2.6261343955993652,-2.478222131729126,0.43785005807876587
1667825250442347500,10.843347412109376,-2.802461862564087,-2.3457212448120117,0.4072985351085663
1667825250452354300,10.853354248046875,-2.990062952041626,-2.1321828365325928,0.4781423509120941
1667825250462362600,10.863362548828125,-3.1958823204040527,-2.052755117416382,0.5992708802223206
1667825250472369400,10.873369384765626,-3.3984761238098145,-1.8679275512695312,0.6251996755599976
1667825250482377500,10.88337744140625,-3.5900356769561768,-1.9541109800338745,0.5907914042472839
1667825250492384500,10.893384521484375,-3.7091503143310547,-2.1826746463775635,0.5261964201927185
1667825250502392600,10.903392578125,-3.692869186401367,-2.155914068222046,0.35274288058280945
1667825250512398800,10.91339892578125,-3.547694444656372,-2.1611852645874023,0.2952881157398224
1667825250522407000,10.923406982421875,-3.3109326362609863,-2.0446484088897705,0.3071005642414093
1667825250532414000,10.9334140625,-3.008843421936035,-1.8552645444869995,0.2850988507270813
1667825250542421800,10.943421875,-2.675981044769287,-1.7189838886260986,0.22993279993534088
1667825250552429000,10.953428955078126,-2.332146167755127,-1.6231130361557007,0.1785859912633896
1667825250562436900,10.963436767578125,-2.0270955562591553,-1.4652762413024902,0.21432161331176758
1667825250572444000,10.97344384765625,-1.858454942703247,-1.303002119064331,0.3094116449356079
1667825250582451700,10.98345166015625,-1.8637869358062744,-1.1633206605911255,0.41759830713272095
1667825250592459000,10.993458984375,-1.971792459487915,-1.0449298620224,0.49612346291542053
1667825250602466800,11.003466796875,-2.1334517002105713,-0.9479449987411499,0.5250837206840515
1667825250612473900,11.013473876953125,-2.3304200172424316,-0.8350051045417786,0.4604499042034149
1667825250622482000,11.02348193359375,-2.582015037536621,-0.736572265625,0.30369117856025696
1667825250632489000,11.033489013671876,-2.836068630218506,-0.7077747583389282,0.12312272936105728
1667825250642496800,11.043496826171875,-2.958895206451416,-0.7272109985351562,-0.02894563227891922
1667825250652504000,11.053504150390625,-2.9127037525177,-0.756073534488678,-0.15142573416233063
1667825250662511900,11.063511962890624,-2.7397892475128174,-0.7996905446052551,-0.2568320631980896
1667825250672519000,11.073518798828125,-2.4813995361328125,-0.837437629699707,-0.35870543122291565
1667825250682526700,11.083526611328125,-2.2164535522460938,-0.8440963625907898,-0.429882675409317
1667825250692534000,11.093533935546875,-1.9779659509658813,-0.8268917798995972,-0.4569728672504425
1667825250702541800,11.103541748046876,-1.7791378498077393,-0.7786494493484497,-0.4185059070587158
1667825250712548900,11.113548828125,-1.5963549613952637,-0.675298810005188,-0.30674290657043457
1667825250722557000,11.123556884765625,-1.424129605293274,-0.4975868761539459,-0.12091763317584991
1667825250732564000,11.13356396484375,-1.2723939418792725,-0.2893916070461273,0.0908856987953186
1667825250742571800,11.14357177734375,-1.1678755283355713,-0.08869444578886032,0.2994183897972107
1667825250752579000,11.1535791015625,-1.103722095489502,0.05074573680758476,0.48017698526382446
1667825250762587000,11.1635869140625,-1.0726165771484375,0.09020579606294632,0.6225098967552185
1667825250772594000,11.173593994140624,-1.0616968870162964,0.020842164754867554,0.7310864329338074
1667825250782601700,11.183601806640626,-1.0552961826324463,-0.07813155651092529,0.8331339955329895
1667825250792609000,11.193609130859375,-1.039543628692627,-0.16662466526031494,0.9413433074951172
1667825250802616800,11.203616943359375,-1.0165996551513672,-0.18261614441871643,1.1511508226394653
1667825250812624000,11.213623779296874,-1.005320429801941,-0.4100983142852783,1.3121975660324097
1667825250822632000,11.2236318359375,-0.966090202331543,-0.7112637162208557,1.4138338565826416
1667825250832639000,11.233638916015625,-0.9171854853630066,-0.8674576282501221,1.4190688133239746
1667825250842646800,11.243646728515625,-0.904748797416687,-0.9237770438194275,1.3272219896316528
1667825250852654000,11.253654052734374,-0.9126583933830261,-0.8643483519554138,1.168724775314331
1667825250862662000,11.263661865234376,-0.9364497065544128,-0.7314283847808838,0.9780153036117554
1667825250872669000,11.2736689453125,-0.98888099193573,-0.5444859266281128,0.8106939196586609
1667825250882676700,11.2836767578125,-1.0203489065170288,-0.35405582189559937,0.7450349926948547
