time,seconds_elapsed,z,y,x
1667824812085093000,0.018093017578125,0.03930734351575375,0.07801759792119264,-0.604524813273549
1667824812095101000,0.028100830078125,-0.05668342573046684,0.13991291308104992,-0.6028032501779497
1667824812105105700,0.038105712890625,-0.043433483535051345,0.08866495640277862,-0.6361238474342972
1667824812115112400,0.048112548828125,0.11721417453885077,0.05000847801119089,-0.6204631177701055
1667824812125120500,0.05812060546875,0.2419160744845867,-0.036947044125199315,-0.6729292180664836
1667824812135127600,0.06812744140625,0.3468728249967098,-0.21566753450632095,-0.7946716106195002
1667824812145135600,0.078135498046875,0.6353764631330967,-0.27928309758752584,-0.40589550732970237
1667824812155143400,0.088143310546875,0.6274743117064238,-0.3535594631537795,-0.4648480470359325
1667824812165150700,0.098150634765625,0.45968671875,-0.4853258946582675,-0.5987932838842273
1667824812175158500,0.108158447265625,0.6188309865236282,-0.5841416581973433,-0.6054140902634709
1667824812185166600,0.11816650390625,0.6648509794205427,-0.6609066257089377,-0.5214785735353827
1667824812195173400,0.12817333984375,0.5677548792809247,-0.7347513218596577,-0.4029479826357215
1667824812205181700,0.138181640625,0.57738721550107,-0.7973448484167456,-0.24710217188559472
1667824812215189800,0.148189697265625,0.6755874774903059,-0.8378805646836757,-0.16710362928025424
1667824812225196500,0.158196533203125,0.33807284794747827,-0.8473357907712459,-0.3137561893472448
1667824812235204600,0.16820458984375,0.5941688389539719,-0.6891548150718212,-0.198241950594075
1667824812245211600,0.178211669921875,1.5172235953152178,-0.42336540530771016,0.24136969264820216
1667824812255219700,0.1882197265625,1.6489210532367229,-0.42405192626714705,0.4807647242225706
1667824812265227500,0.1982275390625,1.4031021260946988,-0.6986202702924609,0.5924450839012861
1667824812275234800,0.20823486328125,1.050567037552595,-1.1471031657218933,0.16718451249673963
1667824812285242600,0.21824267578125,1.0438526346057653,-1.4440353172466158,-0.06774009566530585
1667824812295249700,0.228249755859375,0.8949667259961366,-1.4563728207722306,0.4164232580196112
1667824812305257500,0.238257568359375,0.32306524842977524,-1.3998451701253651,1.1612824246566742
1667824812315265500,0.248265625,0.6882178264826536,-1.3373890062123537,1.1363807692427188
1667824812325272600,0.2582724609375,1.0505740518152713,-1.112796991494298,0.8530079911887645
1667824812335280600,0.26828076171875,0.9871405673027038,-1.180522620242834,0.6188932381048798
1667824812345288400,0.278288330078125,0.7523731955289841,-1.2917808089867233,0.45651831784695385
1667824812355295700,0.288295654296875,0.5326508326739072,-1.2453700632065534,0.5180382238231599
1667824812365303600,0.298303466796875,0.48481765287518497,-1.1008812205120921,0.5720563758671283
1667824812375310600,0.308310546875,0.6143383512794971,-1.0556012323275208,0.42422275278940796
1667824812385318400,0.318318359375,0.5551601861238479,-0.8628568927690387,0.4584640450872481
1667824812395326700,0.32832666015625,0.012291326296329497,-0.6030477264583111,0.6402449459522962
1667824812405333500,0.33833349609375,-0.9762310507535934,-0.6792115132063626,0.7072996897019446
1667824812415341600,0.348341552734375,-1.571748381707072,-1.038927745424211,0.5756307272225618
1667824812425349400,0.358349365234375,-1.2611813803225755,-1.3137059328079224,0.4774442014977336
1667824812435356700,0.368356689453125,-0.790453043076396,-1.2382149307549,0.5617655757382511
1667824812445364500,0.378364501953125,-0.5800421139240265,-0.9576789104968308,0.597486292938888
1667824812455371500,0.38837158203125,-0.4971867205828428,-0.789117702819407,0.5450926733568311
1667824812465379600,0.398379638671875,-0.5092015680253505,-0.7575555666029453,0.5361030189543963
1667824812475387600,0.4083876953125,-0.5661603035658598,-0.7014452645853161,0.6593158493861556
1667824812485394400,0.41839453125,-0.5047779063642025,-0.6346472720757127,0.6816983615860343
1667824812495402500,0.428402587890625,-0.2502279757559299,-0.550282935476303,0.5769593454778195
1667824812505410600,0.43841064453125,-0.012387187886238098,-0.48022681795358657,0.42345045324265956
1667824812515417600,0.44841748046875,-0.06310030703544617,-0.526166731351614,0.4146127745315432
1667824812525425700,0.45842578125,-0.6520277382045984,-0.6699743137836456,0.5578963330894708
1667824812535432700,0.4684326171875,-1.2662410017997026,-0.7722697361320257,0.7744692920029163
1667824812545440800,0.478440673828125,-1.001094273853302,-0.7240814592853189,0.8479751115880906
1667824812555448600,0.488448486328125,-0.30879999171197414,-0.5226663220152259,0.6647663698770105
1667824812565455600,0.49845556640625,0.07785247048735618,-0.16094693328142165,0.228452927929908
1667824812575463400,0.50846337890625,0.30837270621061325,0.26102964801639317,-0.2559780637152493
1667824812585471700,0.5184716796875,0.510028666499257,0.5759376012146472,-0.4673175058893859
1667824812595478500,0.528478515625,0.5521867232710123,0.7326502579271793,-0.3888280526727438
1667824812605486600,0.538486572265625,0.3615957623541355,0.7480673150286078,-0.18571663287878035
1667824812615493600,0.54849365234375,0.15647767891287803,0.6535135928481817,0.2515178694359958
1667824812625501700,0.558501708984375,0.07765490208864212,0.5226163453936576,0.6351959919996559
1667824812635509500,0.568509521484375,0.10114683683514594,0.2864449520409107,0.81732482951954
1667824812645516500,0.5785166015625,0.1509317352235317,-0.14088906463682652,0.9031035629615187
1667824812655524600,0.588524658203125,0.17625263896286486,-0.43402240840047596,0.9142954035833477
1667824812665532700,0.59853271484375,0.16297814684808254,-0.5195008437216282,0.8942029020167886
1667824812675539500,0.60853955078125,-0.025104630640149114,-0.43078532617539167,0.8064966345783322
1667824812685547500,0.618547607421875,-0.29690029508173466,-0.1256029404386878,0.6934790349464863
1667824812695554600,0.628554443359375,-0.4607575628519058,0.25480741250067945,0.5384282470315694
1667824812705562600,0.638562744140625,-0.5989741934090852,0.5410056963041424,0.370224182228744
1667824812715570700,0.64857080078125,-0.730295219233632,0.6819315858200192,0.22513518168404698
1667824812725577500,0.658577392578125,-0.8357803775340318,0.7162818914502859,0.05902005198448896
1667824812735585800,0.668585693359375,-0.9610574470192194,0.7001543479919433,-0.05935016072168946
1667824812745593600,0.678593505859375,-1.0864280400067567,0.6185866563737392,-0.0917323811493814
1667824812755600600,0.6886005859375,-1.1935896070867775,0.5495563747674227,-0.14656068053245544
1667824812765608400,0.6986083984375,-1.2787146989256142,0.544483017025888,-0.22593290793299672
1667824812775615700,0.70861572265625,-1.2880372385442256,0.6015183249339461,-0.33108868814855813
1667824812785623600,0.71862353515625,-1.2475666964679957,0.6689364951685071,-0.42690600052401423
1667824812795631600,0.728631591796875,-1.2074410223066807,0.671931877592206,-0.4902823480218649
1667824812805638700,0.738638671875,-1.1412310588181018,0.6608712621346116,-0.4854118193760514
1667824812815646700,0.748646728515625,-1.0088614007234573,0.6760659086570143,-0.479696364338696
1667824812825654500,0.758654541015625,-0.8553431561380624,0.6876160611972212,-0.42606048961058257
1667824812835661600,0.76866162109375,-0.7621668597906828,0.6624114773139357,-0.328472368170321
1667824812845669600,0.778669677734375,-0.5955640927046537,0.5951698326900601,-0.267614433234185
1667824812855676700,0.7886767578125,-0.40405192528963085,0.6017731764778494,-0.17861659161522983
1667824812865684500,0.7986845703125,-0.2069026287704706,0.710576665546,-0.1266864978916943
1667824812875692500,0.808692626953125,0.004659223982691764,0.8641121535271405,-0.08016863847523928
1667824812885699600,0.818699462890625,0.19780922173261642,0.9775582077041268,0.014066811536252498
1667824812895707600,0.828707763671875,0.38244448911547657,1.0318079765468835,0.08878858278244733
1667824812905715700,0.8387158203125,0.592079757720232,1.0530506710618734,0.1489097278766334
1667824812915722500,0.848722412109375,0.8778373120188713,1.0141519083470105,0.25174320262447
1667824812925730800,0.858730712890625,1.1081371829897164,0.9581199322625994,0.36075770409479735
1667824812935737600,0.868737548828125,1.237798751169443,0.9234045927122235,0.47668446917161345
1667824812945745700,0.87874560546875,1.3484277020990847,0.8490987087905406,0.6257941035345196
1667824812955753500,0.88875341796875,1.4340671732008456,0.7582920641839503,0.7705208466380834
1667824812965760500,0.898760498046875,1.4840940636515616,0.7263330376043915,0.8827461268484592
1667824812975768600,0.9087685546875,1.495158478501439,0.7255833882808684,0.9304656171396374
1667824812985775400,0.918775390625,1.4651386032909155,0.7778741320103406,0.8599407130613923
1667824812995783700,0.92878369140625,1.4349199906378984,0.9071396866098046,0.7934615772426128
1667824813005791700,0.938791748046875,1.4352765489906072,1.0632888642206788,0.7435742413930595
1667824813015798500,0.948798583984375,1.4234294593304395,1.1536992029860615,0.7201644319720566
1667824813025806600,0.958806640625,1.3666659541010855,1.1850275304466484,0.7716048424825072
1667824813035814400,0.968814453125,1.2550327945649624,1.1416384705752134,0.8768247739754617
1667824813045821700,0.97882177734375,1.214046119660139,1.0593146998926997,0.9193022719599306
1667824813055829500,0.98882958984375,1.086949433532357,1.0202373657405377,0.9057903178274631
1667824813065837600,0.998837646484375,0.9891846403509378,1.0215361733794213,0.879050925592333
1667824813075844600,1.0088447265625,0.9900187530875205,1.0890528355523943,0.8416567222215234
1667824813085852700,1.018852783203125,1.012196682626009,1.1613456260859965,0.7909547089882194
1667824813095859500,1.028859375,1.0708820958286522,1.2076076110452414,0.7207458851218224
1667824813105868000,1.038867919921875,1.0969020877480506,1.2360370021939278,0.7137332298807799
1667824813115876000,1.0488759765625,1.0600865610480308,1.2550620206594467,0.7967102037750184
1667824813125883100,1.058883056640625,1.090621984565258,1.2065762221708893,0.9185314337179065
1667824813135891200,1.06889111328125,1.1098673677831887,1.1089970146894454,1.0085010429784655
1667824813145899300,1.078899169921875,1.0961392866820097,0.9842843010887503,1.1096326822444795
1667824813155906300,1.08890625,1.0261661712676287,0.8331900687798858,1.2597447716481982
1667824813165914400,1.098914306640625,0.9278156871527433,0.6481111492827535,1.3857058778747915
1667824813175921200,1.108921142578125,0.827049958589673,0.48576487059742207,1.4546017194464802
1667824813185929200,1.11892919921875,0.838023772546649,0.3925263226687908,1.47714059125185
1667824813195937300,1.128937255859375,0.8802648314267396,0.36611937725842,1.4564936706729232
1667824813205944300,1.1389443359375,0.8232096497744321,0.3296647928252816,1.430419610478729
1667824813215952100,1.1489521484375,0.7133288868635892,0.29319413404017686,1.467578689919412
1667824813225960200,1.158960205078125,0.6368330916821956,0.2701481894955039,1.557505921342969
1667824813235967200,1.16896728515625,0.6035878246843814,0.2279080073982477,1.6523754314742982
1667824813245975300,1.178975341796875,0.5680418795287608,0.1773708293378353,1.7371508330926297
1667824813255982000,1.188982177734375,0.5669423938542604,0.08003624426722526,1.7950960954524575
1667824813265990100,1.198990234375,0.6203033971637487,-0.060247547952830785,1.815973317655921
1667824813275998200,1.208998291015625,0.6412848103940486,-0.14753040234744547,1.7981116438813507
1667824813286005200,1.219005126953125,0.6832733558177948,-0.1966851861387491,1.7760883203826843
1667824813296013000,1.229012939453125,0.6924544411391019,-0.2543827573478222,1.6907986856319008
1667824813306021000,1.239021240234375,0.60469081749022,-0.26682839742302894,1.6009072561740874
1667824813316028200,1.249028076171875,0.5427274055302143,-0.2883741665378213,1.5130520087189971
1667824813326036200,1.2590361328125,0.47833647416234015,-0.3151253953412175,1.3769240210041402
1667824813336043000,1.26904296875,0.22933716341853141,-0.29759324578195806,1.229504239424318
1667824813346051300,1.27905126953125,-0.057221185868978494,-0.29232202738076446,1.0704555409796535
1667824813356059400,1.289059326171875,-0.2883656909704208,-0.32876521363705397,0.9308008404433726
1667824813366066200,1.299066162109375,-0.45154783595800396,-0.3966448639035225,0.7938093677669763
1667824813376074200,1.30907421875,-0.527869443616271,-0.43758273123055696,0.5632089064143597
1667824813386082000,1.31908203125,-0.5693237360328436,-0.4184808481365442,0.2570772571288049
1667824813396089300,1.32908935546875,-0.669037325194478,-0.38214667521268125,0.024736089588701722
1667824813406097200,1.33909716796875,-0.7021715330332517,-0.4221078064620495,-0.12084960843175649
1667824813416104200,1.349104248046875,-0.7004904480785131,-0.5362511952534318,-0.25803631141930816
1667824813426112300,1.3591123046875,-0.7785580226212739,-0.6420271531939507,-0.332345994733274
1667824813436120300,1.369120361328125,-1.0398112502604722,-0.7104957092642784,-0.48207346873357887
1667824813446127000,1.379127197265625,-1.2720529029488563,-0.809794872406125,-0.5879620932683348
1667824813456135200,1.38913525390625,-1.4489812492161989,-0.9697447574742137,-0.7169941313728689
1667824813466143200,1.399143310546875,-1.7490449767649172,-1.1328095596924423,-0.7516361134260893
1667824813476150300,1.409150390625,-1.9570564435601234,-1.3045860761545598,-0.7808410189919174
1667824813486158000,1.419157958984375,-1.995796800842881,-1.3338297062955795,-1.0034005049690604
1667824813496165400,1.429165283203125,-2.0103823755562304,-1.0536159037292003,-1.3872422936618327
1667824813506173200,1.439173095703125,-2.008255884921551,-0.5750345148950815,-1.5048387455165386
1667824813516181200,1.44918115234375,-1.953502550470829,-0.26357538697645067,-1.2986537634961306
1667824813526188000,1.45918798828125,-1.8248650646418332,-0.24897096143215894,-1.0666235616013406
1667824813536196400,1.4691962890625,-1.5520809736847876,-0.3950267611823976,-0.9503881689667701
1667824813546204400,1.479204345703125,-1.2122756028562784,-0.46580271741226315,-0.9408560782507062
1667824813556211200,1.489211181640625,-0.7990332398951053,-0.33697957281805574,-0.9535868188776075
1667824813566219300,1.49921923828125,-0.23568331757485866,-0.464206022805348,-0.7308905547782778
1667824813576226300,1.509226318359375,0.26121932536959647,-0.9721860131464898,-0.602104015867412
1667824813586234400,1.519234375,0.5721715266793966,-1.4838019488371907,-0.3734577573224902
1667824813596242200,1.5292421875,1.112184997075796,-1.8307417015902696,-0.2579128311701119
1667824813606249200,1.539249267578125,1.6473329072624443,-1.8870884427122772,-0.34332886877954005
1667824813616257300,1.54925732421875,2.0233903256893155,-1.745938535182178,-0.2821595298066735
1667824813626265300,1.559265380859375,2.3553952518999575,-1.5645672380313276,-0.1838422173090279
1667824813636272000,1.569272216796875,2.6234686809480188,-1.4462306353338061,-0.12015621934011578
1667824813646280200,1.5792802734375,2.868926373562217,-1.5265180778831242,-0.06020458559393883
1667824813656287200,1.589287353515625,3.377566800573468,-1.7506439363941548,0.09291647636741399
1667824813666295300,1.59929541015625,3.710233405563235,-2.0225717027828094,0.4593684465810656
1667824813676303000,1.60930322265625,4.1256916910082095,-2.289638292875886,0.8723369610369205
1667824813686310400,1.619310302734375,4.67163455145359,-2.4044807698473334,1.1790693526946008
1667824813696318200,1.629318115234375,5.297971968084574,-2.337717556390166,1.5800769418522715
1667824813706326300,1.639326171875,5.548105251294374,-2.0232111697301267,1.562512935850024
1667824813716333000,1.6493330078125,5.444762365719676,-1.622890832184255,1.2617322922036052
1667824813726341000,1.659341064453125,4.8622547384649515,-1.3301964643597601,0.8040586668416857
1667824813736348200,1.66934814453125,3.537092176619172,-1.1508802731078118,0.408135979732871
1667824813746356200,1.679356201171875,1.8073036889880894,-1.7506944975376129,1.207867138764262
1667824813756364000,1.689364013671875,1.7490180887579916,-1.8311416606932878,2.125409269183874
1667824813766371300,1.699371337890625,3.005095423939824,-1.075057116490975,1.55520991936028
1667824813776379100,1.709379150390625,2.976122427433729,-0.5344669421851634,1.0596373559758065
1667824813786387200,1.71938720703125,2.127432883965969,-0.7219380175158381,1.3432546833753585
1667824813796394000,1.72939404296875,1.8552479279458522,-0.9791722187720239,0.8964023117572069
1667824813806402300,1.73940234375,1.4733856226325035,-0.8125652139022946,0.09337386474609374
1667824813816409000,1.7494091796875,1.1125649363040924,-0.5972231119580567,-0.6356345295473933
1667824813826417200,1.759417236328125,0.8311281678140163,-0.8988730857849121,-1.4843375170186162
1667824813836425200,1.76942529296875,1.2782406516730784,-0.7796449410751461,-1.105536352841556
1667824813846432300,1.779432373046875,1.5825854175418614,-0.2928732315227389,-0.42392245466858147
1667824813856440300,1.7894404296875,1.5088509037673472,0.39456221241056916,0.2966077418759465
1667824813866448100,1.7994482421875,1.0473615195095538,0.9013888679981231,0.5654480636432767
1667824813876455400,1.809455322265625,0.7796896569997072,0.8748372534200548,0.02652531109303236
1667824813886463200,1.819463134765625,0.6588052695155143,0.7320137135893106,-0.7392600314557551
1667824813896471300,1.82947119140625,0.38262510637938973,0.7661646972551941,-1.219188158723712
1667824813906478000,1.83947802734375,0.2725643107265234,0.8607485223129391,-1.2164327225357294
1667824813916486100,1.849486083984375,0.06790858410000801,1.0056658195525408,-1.445071966817975
1667824813926493200,1.8594931640625,-0.4555062181949615,1.3228952014356852,-1.6799615036666393
1667824813936501200,1.869501220703125,-0.9208002554327249,1.6531287340596317,-1.740762886109948
1667824813946509000,1.879509033203125,-1.1501420950263739,1.7136843250483274,-1.9567571683526037
1667824813956516400,1.889516357421875,-1.1799579720973967,1.7641963686674833,-2.155401671865582
1667824813966524200,1.899524169921875,-1.0656804355323315,1.964569303408265,-2.088546980732679
1667824813976532200,1.9095322265625,-0.8900877217829227,2.162431716632843,-2.020935333752632
1667824813986539000,1.9195390625,-0.937726840314269,2.1199054110705853,-1.9341350021779535
1667824813996547300,1.92954736328125,-0.7883172000914812,1.857027212578058,-1.6828718381553887
1667824814006554000,1.93955419921875,-0.4599643666476011,2.0326596738159655,-1.6599544884264468
1667824814016562200,1.949562255859375,-0.14617080443203448,2.655910230347514,-1.8864228184103964
1667824814026570200,1.9595703125,0.06160510004162788,3.2483903855621814,-2.1044944914489983
1667824814036577300,1.969577392578125,0.15355273137688635,3.675962302649021,-2.183279274350405
1667824814046585300,1.97958544921875,0.15733809513449667,3.923166546669602,-2.0765023226737975
1667824814056593200,1.98959326171875,0.2541857734709978,3.9256554408758877,-1.7913555937498806
1667824814066600400,1.999600341796875,0.4235182577818632,3.686928517821431,-1.4462357499003409
1667824814076608300,2.009608154296875,0.5461188015341758,3.280532659754157,-0.9548182603687048
1667824814086615300,2.019615234375,0.6321808819621801,2.7898148429244753,-0.4182511310338974
1667824814096623000,2.029623046875,0.6975713457614183,2.294858073350787,0.08287702065110206
1667824814106634500,2.039634521484375,0.6064782854288816,1.8424843079626558,0.5029693956375122
1667824814116641300,2.049641357421875,0.4500637348800897,1.405899063336849,0.7838578825950622
1667824814126649300,2.0596494140625,0.24124738144278524,1.0450491509139537,0.9345961410731076
1667824814136657200,2.0696572265625,0.14743892467170952,0.7548270184218883,1.0159697714239357
1667824814146664400,2.07966455078125,0.12812602917551993,0.49803836897611614,1.1734043126702307
1667824814156672300,2.08967236328125,0.13018646883666515,0.23185353015363214,1.35073071834445
1667824814166680300,2.099680419921875,0.1399284029111266,-0.029896541091799733,1.5292536403268575
1667824814176687400,2.109687255859375,0.1530056188881397,-0.20322890869379043,1.660069639238715
1667824814186695400,2.1196953125,0.14140841233581303,-0.2976858925014734,1.6981448106110095
1667824814196702200,2.1297021484375,-0.03591419394612312,-0.18095394852161406,1.5982172864377497
1667824814206710300,2.139710205078125,-0.25022329958081246,0.07027122157812118,1.5367846203535793
1667824814216718300,2.14971826171875,-0.3904904329270124,0.15273849238455295,1.5018512541383504
1667824814226725400,2.159725341796875,-0.5628630155861377,0.06144903269708156,1.6098428423017261
1667824814236733400,2.1697333984375,-0.6976397348225116,-0.1547492476850748,1.922811644130945
1667824814246741200,2.1797412109375,-0.7438932442143559,-0.4220762422800064,2.210581707295775
1667824814256748500,2.18974853515625,-0.7198448446288704,-0.6036977147996425,2.407123685571551
1667824814266756400,2.19975634765625,-0.5734720878839492,-0.6000502982079983,2.4083166947484016
1667824814276763400,2.209763427734375,-0.5227919942215085,-0.3885568345159292,2.1815748085200783
1667824814286771200,2.219771240234375,-0.47414515995234247,-0.036787469649314876,1.9897715492039918
1667824814296779500,2.229779541015625,-0.5309773465037345,0.2718149536639452,1.8550404226750135
1667824814306786300,2.239786376953125,-0.5808215738639235,0.4314589876532554,1.748810583487153
1667824814316794400,2.24979443359375,-0.5610878226071596,0.5857686748772859,1.623859092694521
1667824814326802200,2.25980224609375,-0.4678938444726169,0.7273615038692951,1.6628315051674842
1667824814336809500,2.2698095703125,-0.4971159934341907,0.7551192793667316,1.7606413065344093
1667824814346817300,2.2798173828125,-0.6844821470856666,0.8479074531793593,1.6703279984027146
1667824814356825300,2.289825439453125,-1.0138184386089444,1.1427326955527066,1.3248176939308642
1667824814366832400,2.299832275390625,-1.3622998678460716,1.4225439086675644,0.9810486801683902
1667824814376840400,2.30984033203125,-1.674843283870071,1.5661550917446612,0.7871019790828228
1667824814386847200,2.31984716796875,-1.880569416207075,1.6354171362802385,0.7059288397401571
1667824814396855300,2.329855224609375,-1.976207134231925,1.6294477064818143,0.755970927760005
1667824814406863400,2.33986328125,-1.9340788880765436,1.5865876389205456,0.7205074001908301
1667824814416870400,2.349870361328125,-1.8524965834110974,1.649659304383397,0.6396919882446527
1667824814426878500,2.35987841796875,-1.8114754217147826,1.7443650022551416,0.6745154643446206
1667824814436886300,2.36988623046875,-1.7501579064428805,1.7227721791282296,0.6360486633062362
1667824814446893600,2.3798935546875,-1.6312698073424399,1.752283228033781,0.3904226283878088
1667824814456901400,2.3899013671875,-1.5751675425007938,1.9273165543347597,0.18035189097523688
1667824814466909400,2.399909423828125,-1.3693009787797927,2.0875456947356463,-0.044270518881082535
1667824814476916200,2.409916259765625,-1.0631005751069635,2.168052479124069,-0.43113691609203814
1667824814486924300,2.41992431640625,-1.1106233007170259,2.213875488144159,-0.6603466537386179
1667824814496931300,2.429931396484375,-1.1069674085579813,2.1614684245586395,-0.8333364915132522
1667824814506939400,2.439939453125,-1.0510289559759198,1.9465578458994626,-1.032249290573597
1667824814516947200,2.449947265625,-0.8677193842388689,1.8053244978696106,-1.282961834976077
1667824814526954500,2.45995458984375,-0.7934417034983634,1.8064730833828448,-1.5113269384920596
1667824814536962300,2.46996240234375,-0.814435099427402,1.6422183407276867,-1.7090946591705083
1667824814546970400,2.479970458984375,-0.7954018976554275,1.2426473602443933,-1.8981401442110537
1667824814556977200,2.48997705078125,-0.6355658482253551,0.6516214954912662,-2.0403508128404617
1667824814566985500,2.4999853515625,-0.5423468817800283,0.009703647890686989,-2.1971885572373866
1667824814576992300,2.5099921875,-0.4481190305531025,-0.5292962615489959,-2.314810728055239
1667824814587000300,2.520000244140625,-0.262389538192749,-0.8990168781697749,-2.5058219602108
1667824814597008100,2.530008056640625,-0.04058686193227768,-1.173849718350172,-2.736414676648378
1667824814607015400,2.540015380859375,0.30237521936148404,-1.3867846130222081,-2.928820578032732
1667824814617023200,2.550023193359375,0.6415075132340192,-1.4366051672458648,-3.167332397031784
1667824814627031300,2.56003125,0.886256473056972,-1.3022364442884922,-3.500148055103421
1667824814637038300,2.570038330078125,1.1895464691758155,-1.0259726945221423,-3.8230788634985684
1667824814647046400,2.58004638671875,1.4213327793121338,-0.8711012817621231,-4.065443266272545
1667824814657054500,2.590054443359375,1.5970777610138058,-0.8173995021909475,-4.170985707718134
1667824814667061200,2.600061279296875,1.5428604331359266,-0.8652753520876169,-4.016030708327889
1667824814677069300,2.6100693359375,1.46851991629228,-1.0111924740195273,-3.672883625856042
1667824814687076400,2.620076416015625,1.4102137116655706,-1.2868605959802866,-3.3163825562924143
1667824814697084400,2.63008447265625,1.3038055933013557,-1.5588538288205862,-2.988043751373887
1667824814707092200,2.64009228515625,1.1771385307624935,-1.7395014878720043,-2.582072256198525
1667824814717099500,2.650099609375,1.0526038040772079,-1.8430781822025775,-2.1658663672566414
1667824814727107300,2.660107421875,0.9900335122652352,-1.895118166041374,-1.9014508761942386
1667824814737115400,2.670115478515625,0.9992202966749667,-2.041950064730644,-1.6618945165783165
1667824814747122200,2.6801220703125,1.0478839359484613,-2.288513088238239,-1.4736591788768767
1667824814757130500,2.690130615234375,1.1289081683397293,-2.449726563501358,-1.387650289940834
1667824814767138300,2.70013818359375,1.2056398181036114,-2.405567103779316,-1.3589865055143833
1667824814777145300,2.710145263671875,1.1176333256095647,-2.2925322607517242,-1.1659703632771967
1667824814787153200,2.720153076171875,0.9804834475010633,-2.3846067333370446,-0.9507014726996421
1667824814797160400,2.730160400390625,0.9245666222289204,-2.6563106278419495,-0.7845826897382736
1667824814807168300,2.740168212890625,0.9274421776652335,-2.9011054726332426,-0.6443488741397857
1667824814817176300,2.75017626953125,0.935779797899723,-2.913778491723537,-0.5925280860096216
1667824814827183400,2.760183349609375,0.8812608567267656,-2.7403327268749473,-0.48601650727093215
1667824814837191400,2.77019140625,0.8127943464830517,-2.5010914245575666,-0.35785482226014137
1667824814847199500,2.780199462890625,0.8242175116427243,-2.2715870878785847,-0.30075463242232797
1667824814857206300,2.790206298828125,0.9240401141367852,-2.079552357894182,-0.3026975831836462
1667824814867214300,2.80021435546875,1.0283648503556846,-1.8248235635876655,-0.33015257634222506
1667824814877222400,2.810222412109375,1.0922791041225195,-1.5530845977693795,-0.30340836180150504
1667824814887229400,2.8202294921875,1.1323930878460406,-1.3614742306768894,-0.2369885549545288
1667824814897237200,2.8302373046875,1.0925789638519285,-1.20391752435565,-0.15156652599573134
1667824814907244500,2.84024462890625,1.0192191286087036,-1.053297339299321,-0.08394026596844195
1667824814917252400,2.85025244140625,1.022512032674253,-0.7820826896160841,-0.11408113721013069
1667824814927260400,2.860260498046875,0.9849112008154391,-0.3670195409685373,-0.18138591019809244
1667824814937267200,2.87026708984375,1.009632092835009,0.054441784283518785,-0.2968804213374853
1667824814947275500,2.880275634765625,1.0542810896396637,0.47530923529565333,-0.4115203614741564
1667824814957283300,2.890283447265625,1.0628642090678215,0.8840414273560047,-0.4835515784621238
1667824814967290400,2.900290283203125,0.982887878294289,1.1393570816397667,-0.5254600443869829
1667824814977298200,2.910298095703125,0.8506943074189126,1.203738076135516,-0.516972202026844
1667824814987306200,2.92030615234375,0.6838600696645677,1.1375666910916566,-0.40715398295819755
1667824814997313300,2.930313232421875,0.5236037489958107,1.0387006586700678,-0.31275135968625545
1667824815007321300,2.9403212890625,0.4034755867063999,0.945503904056549,-0.17657529504597186
1667824815017328400,2.950328369140625,0.2624538356006145,0.7918015350759029,-0.0228396083176136
1667824815027336400,2.96033642578125,0.1311386549949646,0.6156938575416803,0.09598609307110309
1667824815037344500,2.970344482421875,-0.0033887656554579732,0.5170043507307768,0.26182839717864986
1667824815047351300,2.980351318359375,-0.1365253164693713,0.48732466726005075,0.4236427609443664
1667824815057359400,2.990359375,-0.23396043930500746,0.37352351603507994,0.6065063424795866
1667824815067367400,3.000367431640625,-0.350585708039999,0.12231997324526309,0.8182061423987149
1667824815077374200,3.010374267578125,-0.5105749022051692,-0.16644085452258586,0.9586083003014325
1667824815087382300,3.02038232421875,-0.595203734959662,-0.11771218718886375,0.9643705170899629
1667824815097389300,3.030389404296875,-0.5580002318553626,0.4646142382800579,0.8703110081672668
1667824815107397400,3.0403974609375,-0.4680915590018034,1.4516338095515966,0.7158569440364837
1667824815117405200,3.0504052734375,-0.4193912409797311,2.498466336750984,0.5489478874802589
1667824815127412200,3.060412109375,-0.44058337435126305,3.3799896438062187,0.3624626083165407
1667824815137420300,3.070420166015625,-0.5413438422173261,4.2152427825957535,0.17653788564503192
1667824815147428400,3.080428466796875,-0.7484627440869808,4.926349901756644,0.1318710609227419
1667824815157435100,3.09043505859375,-0.9939558002755046,5.243180055189132,0.22220132018923758
1667824815167443200,3.100443115234375,-1.2548776040032505,5.129815541815757,0.3351221814483404
1667824815177451000,3.110450927734375,-1.5177967190280557,4.819766426825523,0.4826689504086971
1667824815187458300,3.120458251953125,-1.660000665655732,4.4900364598095415,0.6710889970272779
1667824815197466000,3.130466064453125,-1.7621221927419304,4.085155682480335,0.8672750014722347
1667824815207473200,3.14047314453125,-1.785972731667757,3.4866853469401597,1.1138064607977867
1667824815217481200,3.150481201171875,-1.837206367559731,2.6126246308505534,1.4486205992102623
1667824815227489300,3.1604892578125,-1.7223711971119045,1.6336007345080374,1.7189795088469981
1667824815237496000,3.17049609375,-1.5661282037377358,0.9088298316538334,2.210280094000697
1667824815247504100,3.180504150390625,-1.7454563046231866,0.3455009521216154,2.5100825402647255
1667824815257512400,3.190512451171875,-1.655811981794238,-0.1324368781119585,2.713977219390869
1667824815267519200,3.200519287109375,-1.4266571892052888,-0.4008949225634336,2.939467644253373
1667824815277527000,3.210527099609375,-1.3105848781779408,-0.4686082763522863,3.1128941198796034
1667824815287535000,3.22053515625,-1.1728951941043138,-0.4564391151309013,3.2332927696734663
1667824815297542100,3.230542236328125,-1.0116849337115883,-0.5124339740753173,3.3163995074272155
1667824815307550200,3.24055029296875,-0.827284936389327,-0.6338841787487268,3.348717138186097
1667824815317557000,3.250556884765625,-0.6488795033067465,-0.5774053356796502,3.328957375705242
1667824815327565300,3.2605654296875,-0.5074769361898303,-0.3101595896273851,3.1863059775710103
1667824815337573400,3.270573486328125,-0.38675942970514293,0.07133738950490952,3.095865243667364
1667824815347580200,3.280580078125,-0.352107510779798,0.25779987231492996,3.039436084958911
1667824815357588200,3.290588134765625,-0.36097646141201256,0.1478916368752718,2.960911414298415
1667824815367596000,3.300595947265625,-0.3238809487268329,-0.11521978585124015,2.827707058945298
1667824815377603300,3.310603271484375,-0.2466194298699498,-0.24641630851328372,2.588649296501279
1667824815387611100,3.320611083984375,-0.14176146355718375,-0.12080138537585734,2.2934300863742827
1667824815397619200,3.330619140625,-0.026109716029465196,0.15207155290842056,1.956076200351119
1667824815407626200,3.340626220703125,0.017064385917037725,0.4649368943631649,1.5587907004565
1667824815417634300,3.35063427734375,-0.029046061742305753,0.6236871943831443,1.1738877122730016
1667824815427642000,3.36064208984375,-0.1144903025329113,0.46612230475544925,0.90283088349998
1667824815437649200,3.370649169921875,-0.21509499531537293,0.1436865864008665,0.6137164199888706
1667824815447657200,3.3806572265625,-0.2960748040430248,-0.09473989240229129,0.26601532747447487
1667824815457664300,3.390664306640625,-0.37233459851145745,-0.1619903048545122,-0.1172264494985342
1667824815467672000,3.400672119140625,-0.4598454164430499,-0.2007464442282915,-0.4634405183255672
1667824815477680000,3.41068017578125,-0.5450254533395171,-0.24053660282492637,-0.8283055116087198
1667824815487687200,3.420687255859375,-0.5458358929395676,-0.15525544364154337,-1.2598895869463682
1667824815497695200,3.4306953125,-0.5707268808290362,0.13134089956879616,-1.7146008553713559
1667824815507703300,3.440703369140625,-0.6190691791936754,0.44543607507944105,-2.0761159537047145
1667824815517710300,3.45071044921875,-0.5756070540860295,0.6160510004162788,-2.3729040205836296
1667824815527718400,3.460718505859375,-0.7198341771043837,0.5982540624409913,-2.5425457169741392
1667824815537725200,3.47072509765625,-0.8530527071133256,0.38583646964132784,-2.6204683300882574
1667824815547733200,3.480733154296875,-0.9144938487648964,0.10478490107655525,-2.6297265722990035
1667824815557741000,3.490740966796875,-1.0207061522960663,-0.19343758251965046,-2.553239544945955
1667824815567748400,3.500748291015625,-1.0976833012536167,-0.44091129113137717,-2.508147772809863
1667824815577756200,3.510756103515625,-1.1188438704431056,-0.48783495486974715,-2.5846254478126762
1667824815587764200,3.52076416015625,-1.042959777419269,-0.3611421733677387,-2.626885211393237
1667824815597771300,3.530771240234375,-0.963534943048656,-0.3325456089586019,-2.64427999830842
1667824815607779300,3.540779296875,-0.8638271991059183,-0.5401017332017422,-2.598990657773614
1667824815617787100,3.550787109375,-0.7738593434110284,-0.8427730129003524,-2.4660370623111723
1667824815627794200,3.560794189453125,-0.6907900150582194,-0.986394132849574,-2.434509705147147
1667824815637802200,3.57080224609375,-0.54994362051934,-0.8199392498016357,-2.511687637373805
1667824815647810300,3.580810302734375,-0.36887218309789893,-0.3292787161171436,-2.735417190043628
1667824815657817000,3.590817138671875,-0.10002017089277505,0.42346331272423265,-3.0029920219197868
1667824815667825200,3.6008251953125,0.19920944391936063,1.1357242780953645,-3.2860052459463476
1667824815677832200,3.610832275390625,0.5589835438042878,1.591957641521096,-3.5945968556046486
1667824815687840300,3.62084033203125,0.8910542287275195,1.6074369502037762,-3.7036490587368607
1667824815697848300,3.630848388671875,1.0696402790740132,0.9706114573061466,-3.5628941418737172
1667824815707855000,3.640855224609375,1.195265431344509,-0.16298106945753096,-3.1792531364500523
1667824815717863400,3.650863525390625,1.40143068575114,-1.4070833046853541,-2.7107757930010554
1667824815727871200,3.660871337890625,1.6175699294224382,-2.402877134042978,-2.3019185132563114
1667824815737878300,3.670878173828125,1.9448351137600839,-2.8978847570210693,-2.0775985934779047
1667824815747886000,3.680885986328125,2.4552587709262967,-2.913720624056458,-1.9414216520547867
1667824815757894400,3.690894287109375,2.944817773109674,-2.736260947391391,-1.915980044545233
1667824815767901200,3.700901123046875,3.3171675691902633,-2.453726446792483,-1.9940408970862626
1667824815777909200,3.7109091796875,3.7080829495310783,-2.1418992162138224,-1.8757734141021967
1667824815787916300,3.720916259765625,3.9403041439533233,-1.8486632888585328,-1.7765633905485272
1667824815797924400,3.73092431640625,3.936600613260269,-1.631859443798661,-1.6457964914754033
1667824815807932200,3.74093212890625,3.8267373860061165,-1.5446008470624684,-1.4029165403947232
1667824815817939200,3.750939208984375,3.604817805367708,-1.6663573412060737,-1.1785744087845087
1667824815827947300,3.760947265625,3.280323985439539,-1.8343144455105065,-1.0436404531598091
1667824815837955300,3.770955322265625,2.937909893417358,-1.9169529812306165,-0.9021393941044807
1667824815847962000,3.780962158203125,2.6268542317330836,-1.8772808960556984,-0.8313374266505241
1667824815857970200,3.79097021484375,2.389196837606281,-1.7377093437582254,-0.7933294752955437
1667824815867978000,3.80097802734375,2.1349626949489116,-1.5794775146543978,-0.7617740610808134
1667824815877985300,3.8109853515625,1.9014999760329723,-1.441541454604268,-0.7136357608556747
1667824815887993000,3.8209931640625,1.6852981885194778,-1.325886784467101,-0.5977765080571175
1667824815898000100,3.831000244140625,1.4943861789546906,-1.2323638666391372,-0.47126901999413967
1667824815908008200,3.84100830078125,1.3562440749384461,-1.202334054556489,-0.42340661410093305
1667824815918016300,3.851016357421875,1.2432473719641566,-1.200550678271055,-0.36111470083892344
1667824815928023000,3.86102294921875,0.9921731546424328,-1.281829616075754,-0.28853403327465055
1667824815938031000,3.871031005859375,1.0103833495937287,-1.3242816873580217,-0.3449088314473629
1667824815948039200,3.8810390625,0.8060628462709486,-1.090097668430209,-0.19712240851223467
1667824815958046200,3.891046142578125,0.6321243294693529,-0.9389712874174118,-0.24597791709601877
1667824815968054300,3.90105419921875,0.7669136159263551,-0.83332187846601,-0.21530922258794308
1667824815978062000,3.91106201171875,0.7429084709607064,-0.6786357591450214,-0.1715408080101013
1667824815988069400,3.9210693359375,0.7919574562899768,-0.6364245108813047,-0.21690029117166995
1667824815998077200,3.9310771484375,0.8284649399541318,-0.5995078618943691,-0.26565526199042794
1667824816008085200,3.941085205078125,0.8560382987953722,-0.45334407172501084,-0.32057226257026195
1667824816018092000,3.951092041015625,0.9335830185078083,-0.274167069748044,-0.432698174059391
1667824816028100400,3.961100341796875,0.9484335277676582,-0.07488952902853488,-0.6106307289332151
1667824816038107100,3.971107177734375,0.9192249689400196,0.15341303064525127,-0.748214322283864
1667824816048115200,3.981115234375,0.851629834703356,0.38282442834377284,-0.8814841440886259
1667824816058123000,3.991123046875,0.7433738965153693,0.5313830046951771,-0.9829600667476653
1667824816068130300,4.00113037109375,0.6377073902986944,0.5410574264913797,-1.0170195727378128
1667824816078138000,4.01113818359375,0.5401389964722096,0.414874348077178,-0.98259707865417
1667824816088146200,4.021146240234375,0.3673744918860495,0.0763654467999935,-0.8272282377660274
1667824816098153200,4.0311533203125,0.1926804805420339,-0.31251696640849114,-0.6608855829209089
1667824816108157000,4.041156982421875,0.0053515901610255235,-0.5125993937700987,-0.5147603711962699
1667824816118165000,4.0511650390625,-0.1300375618852675,-0.4279711455374956,-0.4063473427504301
1667824816128172000,4.061172119140625,-0.20036957373991607,-0.17213175964057445,-0.3208434807270765
1667824816138180000,4.07118017578125,-0.2873090215243399,0.20168226377367973,-0.3239256646513939
1667824816148188000,4.08118798828125,-0.4467632320299744,0.6578466536164284,-0.3154156104594469
1667824816158195000,4.09119482421875,-0.6165569041118025,1.232222412341833,-0.30344051050543785
1667824816168202800,4.10120263671875,-0.7688225182875991,2.0541952137976884,-0.3019517332524061
1667824816178210000,4.1112099609375,-0.9166836138941347,3.018499095392227,-0.3445458433538675
1667824816188217900,4.1212177734375,-1.0878506201557814,3.9431057573705908,-0.39205870515704155
1667824816198226000,4.131225830078125,-1.252763680589199,4.700469016271829,-0.40982583251595495
1667824816208233000,4.14123291015625,-1.397701874486357,5.238281761753559,-0.4442226076364517
1667824816218241000,4.151240966796875,-1.616409945732355,5.563661716866493,-0.41122400887608523
1667824816228249000,4.1612490234375,-1.8048723701879381,5.576049489274621,-0.23571838888823984
1667824816238255900,4.171255859375,-1.9885303169712423,5.278703203991055,0.028301380854845046
1667824816248264200,4.18126416015625,-2.2124849105685946,4.808278233605623,0.37431086702048777
1667824816258272000,4.19127197265625,-2.344078908115625,4.2631642251998185,0.734459937697649
1667824816268279000,4.201279052734375,-2.4134864986017344,3.7697353958457707,1.0835802493602036
1667824816278286800,4.211286865234375,-2.504218324406445,3.3367297632724044,1.4486726216584442
1667824816288294100,4.221294189453125,-2.6195138058423995,2.7787112651079893,1.7978256665468215
1667824816298302000,4.231302001953125,-2.6740777552008628,2.071587078103423,2.151810369375348
1667824816308310000,4.24131005859375,-2.693230199438333,1.3547200802415609,2.497368020120263
1667824816318317000,4.251317138671875,-2.669401287822425,0.7977987296640873,2.7792683144688604
1667824816328325000,4.2613251953125,-2.6138234852463005,0.47486266057193277,3.0426170530825853
1667824816338333000,4.2713330078125,-2.5338170515954492,0.25317805773317814,3.28869550794363
1667824816348340000,4.281340087890625,-2.4172905670598146,0.024148352828621863,3.4526796169638634
1667824816358347800,4.29134765625,-2.287570254430175,-0.2149327904909849,3.6163550984263417
1667824816368356000,4.301356201171875,-2.110856135435402,-0.39990883413553235,3.7750171356409785
1667824816378363000,4.31136279296875,-1.9214046999424694,-0.4698948090314865,3.8716298361778256
1667824816388371000,4.321370849609375,-1.7138462376117705,-0.4337129040598869,3.9349820721477267
1667824816398378800,4.331378662109375,-1.5300412835732102,-0.38634675725102424,4.015884577855467
1667824816408386000,4.341385986328125,-1.3615434965208173,-0.42943245026171206,4.022726406574249
1667824816418393900,4.351393798828125,-1.2303861368253826,-0.5066057063132524,4.001509431022406
1667824816428401000,4.36140087890625,-1.0747373099520803,-0.5263128618240356,3.9483752222061157
1667824816438409000,4.371408935546875,-0.892922799078375,-0.4963648828059435,3.8385499888747927
1667824816448417000,4.3814169921875,-0.7288090723291039,-0.43879006119370456,3.735459616756439
1667824816458423800,4.391423828125,-0.5973080137625336,-0.40246670192480083,3.59981605155766
1667824816468432000,4.401431884765625,-0.49233109724521634,-0.3527028463244438,3.428505545172095
1667824816478440000,4.41143994140625,-0.4346747348293662,-0.2608054838716984,3.2346693187236784
1667824816488447000,4.421447021484375,-0.3904606223106384,-0.18207681507170198,2.9826749178171155
1667824816498455000,4.431455078125,-0.34713615210801363,-0.07242927639484405,2.7297657401531934
1667824816508462800,4.441462890625,-0.3562983865983784,0.06740005005598068,2.4154408475399016
1667824816518470100,4.45147021484375,-0.40055502308458085,0.27222645707428456,2.0315952594548463
1667824816528478000,4.46147802734375,-0.3670189564466476,0.5643418559670448,1.5489683946222066
1667824816538485000,4.471485107421875,-0.346883638651669,0.9452443763375282,0.9930015682905912
1667824816548492800,4.481492919921875,-0.3506204870924353,1.250471185737848,0.41727205686867236
1667824816558501000,4.491501220703125,-0.33960108042806386,1.4278069437623022,-0.12481938884556293
1667824816568508000,4.5015078125,-0.2918234302088618,1.5663491530120373,-0.6323252588689326
1667824816578516000,4.511515869140625,-0.295536313252151,1.7437036157369612,-1.1617062760919332
1667824816588523800,4.521523681640625,-0.31043373039364813,1.8853911372750995,-1.676170294690132
1667824816598531000,4.531531005859375,-0.3040849458888173,1.9135142389535902,-2.1896914794802664
1667824816608539000,4.541538818359375,-0.3175400552675128,1.8862410321027039,-2.5984593273758887
1667824816618547000,4.551546875,-0.28753333179950713,1.8030203125804662,-3.0287942794352767
1667824816628554000,4.561553955078125,-0.22889146547764538,1.8259288944810628,-3.3841309813946485
1667824816638562000,4.57156201171875,-0.21063757751509546,1.8047820615559815,-3.6255858681082724
1667824816648570000,4.581570068359375,-0.22324454563185572,1.4756027141600847,-3.7714527211576696
1667824816658577000,4.591576904296875,-0.1877589523613453,0.800695620149374,-3.723579793870449
1667824816668585000,4.6015849609375,-0.14962942045331,-0.015182371562719343,-3.57756622582674
1667824816678592000,4.611592041015625,-0.10354220753908157,-0.729812404152751,-3.4055408491700887
1667824816688600000,4.62160009765625,0.0620224486708641,-1.2498480854034424,-3.2015204978376626
1667824816698607900,4.63160791015625,0.4120633823096752,-1.9785265170902013,-2.8286574915379283
1667824816708615200,4.641615234375,0.6495756688773632,-1.7973598026007414,-2.8898236156404016
1667824816718623000,4.651623046875,0.9077978582575916,-0.8903010722726583,-3.1239754858642814
1667824816728630000,4.661630126953125,1.2305696766987442,0.16028759258985517,-3.3243916752249
1667824816738637800,4.671637939453125,1.5363108653619884,0.7514163331955671,-3.4000422517538067
1667824816748646100,4.681646240234375,1.8310167191393671,0.923385011228919,-3.464524368536472
1667824816758653000,4.69165283203125,2.057568635753542,1.0307704501926898,-3.5082486517116425
1667824816768661000,4.701660888671875,2.20408240840435,1.0948837336629629,-3.475003969235718
1667824816778668800,4.711668701171875,2.275276005524397,1.002225908231735,-3.3068244543522596
1667824816788676000,4.721676025390625,2.3449814099133013,0.718681938329339,-3.0336919883489606
1667824816798684000,4.731683837890625,2.4610744714677333,0.27836978213489055,-2.76378959030807
1667824816808692000,4.74169189453125,2.602190915119648,-0.21717852359116077,-2.4785718419745564
1667824816818699000,4.751698974609375,2.733748087787628,-0.8219149337887763,-2.1358356783911585
1667824816828707000,4.76170703125,2.806969975864887,-1.500156725180149,-1.8025009648814796
1667824816838715100,4.771715087890625,2.9254046321094034,-2.0672031639307735,-1.4882707648143172
1667824816848722000,4.781721923828125,2.986984013187885,-2.465427990502119,-1.2166650699868797
1667824816858730000,4.79172998046875,3.026453269267082,-2.736404155254364,-1.0430313813507557
1667824816868737000,4.801737060546875,3.0176515386521814,-2.8524849418491125,-0.8536223236948252
1667824816878745000,4.8117451171875,2.960060934948921,-2.8881074593722817,-0.6734083798855542
1667824816888753000,4.8217529296875,2.841395977079868,-2.9027818814128636,-0.512514930357039
1667824816898760200,4.83176025390625,2.7073908267378806,-2.8934441442251204,-0.39969811399430033
1667824816908768000,4.84176806640625,2.556669519394636,-2.8318881440222263,-0.28399814341068264
1667824816918776000,4.851776123046875,2.3730618414938447,-2.7366309497475623,-0.19866496177911758
1667824816928782800,4.861782958984375,2.271962935453653,-2.5582979973793027,-0.17538754656612873
1667824816938791000,4.871791015625,2.1671827105522152,-2.2783535132735966,-0.19055764316916465
1667824816948799000,4.881799072265625,2.0373919630348682,-2.059979642418027,-0.17804945925176144
1667824816958806000,4.891805908203125,1.896875238841772,-1.9245541038841008,-0.19916531251668929
1667824816968813800,4.901813720703125,1.7161165206313131,-1.8195704653650522,-0.20425591365396975
1667824816978821000,4.911821044921875,1.5265749226368963,-1.6604980937838554,-0.24389585012495515
1667824816988829000,4.921828857421875,1.387217743742466,-1.4534668701976536,-0.346133989328146
1667824816998837000,4.9318369140625,1.2617103726327419,-1.2061837157219648,-0.4856278002142906
1667824817008843800,4.94184375,1.2072541214324533,-0.9509954872101545,-0.6257581554383039
1667824817018852000,4.95185205078125,1.1699544644773006,-0.7797311580538749,-0.6966127298623324
1667824817028860000,4.96185986328125,1.1113690045177935,-0.8085369812995195,-0.7470528772890568
1667824817038867000,4.971866943359375,1.0772340952038764,-0.9380331297844647,-0.7694763060212135
1667824817048874800,4.981874755859375,1.0785995383381843,-1.0415922884583473,-0.7665835071891546
1667824817058883000,4.991883056640625,1.0545043770015239,-1.0557803882867096,-0.7960971864432096
1667824817068889900,5.001889892578125,1.0357328949056566,-1.0907260294616221,-0.7406056008458137
1667824817078898000,5.01189794921875,0.9736249599084258,-1.2912193757116794,-0.6802022778093815
1667824817088905000,5.021905029296875,0.9426724800229072,-1.4375865794986487,-0.7047510281324386
1667824817098913000,5.0319130859375,0.9324385246478021,-1.268493164640665,-0.7822323272198438
1667824817108922000,5.041922119140625,0.9279694164097309,-0.9010866701811552,-0.9051952745437621
1667824817118929000,5.051928955078125,0.9524817802451551,-0.47472822053730485,-1.0708651446938513
1667824817128937000,5.06193701171875,0.9317419206857681,-0.07036006890535354,-1.205925941568613
1667824817138944800,5.07194482421875,0.8780911406494677,0.23029811740517614,-1.308708270651102
1667824817148952000,5.0819521484375,0.8123555166743696,0.5263602080971003,-1.352183255240321
1667824817158959900,5.0919599609375,0.6957457377694547,0.8177665819376707,-1.3597580744087696
1667824817168968000,5.101968017578125,0.5297825837612152,0.95046298776865,-1.3060013497799634
1667824817178975000,5.11197509765625,0.27041838473901153,0.835735369348526,-1.1275731203436852
1667824817188983000,5.121983154296875,-0.014495996733754872,0.5478770433783531,-0.9324123672932386
1667824817198991000,5.1319912109375,-0.2737817236922681,0.4334948773950338,-0.7583312271505593
1667824817208998000,5.141997802734375,-0.45828298943191764,0.5539952339977026,-0.597863017296791
1667824817219006000,5.152005859375,-0.6451555143475532,0.6775812816560268,-0.4162111496388912
1667824817229013000,5.162012939453125,-0.8003621504113078,0.7758756516695022,-0.2533487381249666
1667824817239021000,5.17202099609375,-0.9376539212085306,1.011238066726923,-0.12631751844882963
1667824817249028900,5.18202880859375,-1.0979060040935873,1.407734462070465,-0.014158289211988449
1667824817259036200,5.1920361328125,-1.226144553732872,1.9798329235136507,0.06832008751034736
1667824817269044000,5.2020439453125,-1.292152857169509,2.7671178579479454,0.10635258878469467
1667824817279052000,5.212052001953125,-1.3046186632499097,3.61292746206522,0.1299661040842533
1667824817289058800,5.222058837890625,-1.354416859511286,4.257549307927489,0.22435995952785015
1667824817299067100,5.232067138671875,-1.4593889537230134,4.543793768960238,0.41473114021420476
1667824817309075000,5.242074951171875,-1.6120228166893125,4.470656052035093,0.6851327199488878
1667824817319082000,5.25208203125,-1.8057485685005783,4.12455362688899,1.0734434707492588
1667824817329089800,5.26208984375,-2.0193159158572556,3.6330659947305914,1.4555594585627316
1667824817339097000,5.27209716796875,-2.1700319625034927,3.2209616958886382,1.7685843744933605
1667824817349105000,5.28210498046875,-2.291741694895923,3.0582524291098117,2.0673989787638187
1667824817359113000,5.292113037109375,-2.3798680143773554,2.938954434034228,2.3082558995842932
1667824817369120000,5.3021201171875,-2.4001798577830193,2.709700857245922,2.5026655420064925
1667824817379128000,5.312128173828125,-2.4262922041609882,2.4631547848731277,2.654287597581744
1667824817389136100,5.32213623046875,-2.4052456167399883,2.299082413047552,2.7900959979534146
1667824817399143000,5.332142822265625,-2.4370509140625596,2.0523802733302117,2.951090862029791
1667824817409151000,5.34215087890625,-2.4520854015871882,1.7312287495672702,3.157762604653835
1667824817419159000,5.352158935546875,-2.456951546318829,1.4291735559403895,3.3564749127060174
1667824817429166000,5.362166015625,-2.409964754216373,1.1889958495557307,3.4823546242594716
1667824817439174000,5.372173828125,-2.3178856054559347,1.1444020900696514,3.5630127998173236
1667824817449182000,5.382181884765625,-2.2238114834859966,1.1386299364089965,3.623130876171589
1667824817459189000,5.39218896484375,-2.1082345547601578,1.0630144311934708,3.637826341000199
1667824817469197000,5.402197021484375,-1.9346151869103312,1.0018845474481581,3.6040304543823
1667824817479203800,5.412203857421875,-1.7910072187036274,0.9803203658938408,3.547064704579115
1667824817489212200,5.422212158203125,-1.6596484912171958,0.9898626857429742,3.494917168712616
1667824817499220000,5.432219970703125,-1.5302920434638856,0.9824304899156093,3.426348074877262
1667824817509227000,5.44222705078125,-1.4171663072824476,0.9136433694154024,3.340022959598899
1667824817519234800,5.45223486328125,-1.2814721809402108,0.8711930516988039,3.2213124090224503
1667824817529243000,5.462242919921875,-1.1774122331373393,0.8601134392797947,3.075353786036372
1667824817539250000,5.47225,-1.082960363896191,0.8100888869166374,2.8743162499070167
1667824817549258000,5.482258056640625,-1.0000503177583218,0.7690589573919773,2.6768659246146678
1667824817559265800,5.492265869140625,-0.9932840384937822,0.6991045466780662,2.4255273572683334
1667824817569273000,5.502273193359375,-0.9644856679022311,0.6401935080260038,2.1062422118991613
1667824817579281000,5.512281005859375,-0.9454856377474963,0.6956728186637163,1.7515379626244305
1667824817589288000,5.522287841796875,-0.9373756887890398,0.7939414697140454,1.366793964394927
1667824817599295700,5.532295654296875,-0.9012705023154616,0.8020587251961231,0.9804290869653224
1667824817609304000,5.542303955078125,-0.8878992718279362,0.8101157749235629,0.5890127713650465
1667824817619310800,5.552310791015625,-0.8597397836618125,0.9870552271068096,0.1908943277776241
1667824817629319000,5.56231884765625,-0.8304096442811191,1.2361322792619467,-0.22663842585384844
1667824817639327000,5.572326904296875,-0.8163470705285668,1.3880501029133796,-0.66452014003098
1667824817649334000,5.582333984375,-0.7659609913766384,1.399625389894843,-1.0443202521175146
1667824817659342000,5.592342041015625,-0.7673220505967736,1.2883552184522151,-1.3809388096034525
1667824817669350000,5.602349853515625,-0.8109379049614072,1.1781219888418912,-1.7115654331982135
1667824817679357000,5.61235693359375,-0.7758943563699722,1.216771160709858,-2.052100871866941
1667824817689365000,5.622364990234375,-0.7290323596909641,1.3078700662612914,-2.412853169134259
1667824817699373000,5.632373046875,-0.6111600135043264,1.1864806518644093,-2.6457062317192555
1667824817709379800,5.6423798828125,-0.49590574086159467,0.7690589573919773,-2.8227017980039117
1667824817719388000,5.652387939453125,-0.4208861557126045,0.19997721342146396,-2.8862743987262247
1667824817729395000,5.66239501953125,-0.3410277522303164,-0.3706277945935726,-2.9676787164762612
1667824817739403000,5.672403076171875,-0.2112264833189547,-0.7486532982230186,-3.02531929680109
1667824817749410800,5.682410888671875,-0.07358414551839232,-0.9854518835633993,-3.062601564230025
1667824817759418000,5.692418212890625,0.13587079808339475,-1.2431360205441713,-3.113446785326302
1667824817769426000,5.702426025390625,0.37067338730096816,-1.4042220700353383,-3.1983743087664243
1667824817779434000,5.71243408203125,0.6012473990380763,-1.089150742968917,-3.4315105722069736
1667824817789440800,5.722440673828125,0.8733693728245794,-0.3220294756412506,-3.723823539498448
1667824817799449000,5.732448974609375,1.2519383356809615,0.39815409942269325,-4.00584599892199
1667824817809457200,5.74245703125,1.6667277819536626,0.7217763972133397,-4.137188067534566
1667824817819464000,5.7524638671875,2.103761062607914,0.6655202569842338,-4.200532704719901
1667824817829472000,5.762471923828125,2.564800218880176,0.42330315372645855,-4.107122307355701
1667824817839479000,5.77247900390625,2.947041294378042,0.05381342325210571,-3.9456069265365596
1667824817849487000,5.782487060546875,3.2740988273143765,-0.3769283560425043,-3.659031626114249
1667824817859495000,5.792494873046875,3.5005472835540767,-0.8633937761247158,-3.291233794249594
1667824817869502000,5.802501953125,3.7124750470101833,-1.3025041553139687,-3.0124241593927144
1667824817879510000,5.812510009765625,3.8693162985384464,-1.6292051298975943,-2.761894570341706
1667824817889518000,5.82251806640625,4.118851031333207,-1.8008862231612204,-2.6159122742190957
1667824817899524900,5.83252490234375,4.3288475344657895,-1.8398381773680448,-2.4231045140355825
1667824817909533000,5.842532958984375,4.401934982508421,-1.8908803823411464,-2.284981114719808
1667824817919541000,5.852541015625,4.381261612313986,-1.9382722481131553,-2.1597873396039007
1667824817929548000,5.862548095703125,4.214972148960829,-1.959541246113181,-1.9357833539068698
1667824817939555800,5.872555908203125,3.9113995365083216,-1.955190065166354,-1.7087234877705573
1667824817949563100,5.882563232421875,3.617213176560402,-1.9339619836986064,-1.4701102542236446
1667824817959571000,5.892571044921875,3.3457775776028633,-1.9407424376189708,-1.3100658227398991
1667824817969579000,5.9025791015625,3.1165736851751804,-1.8611814096480608,-1.210685411055386
1667824817979585800,5.912585693359375,2.893618331748247,-1.6557278106421232,-1.1149781349256633
1667824817989593900,5.92259375,2.693426598793268,-1.4417583122253417,-1.031201242825389
1667824817999602200,5.932602294921875,2.4977660795271395,-1.3222697630137203,-0.953497240898013
1667824818009609000,5.94260888671875,2.329582765251398,-1.2759393889933823,-0.8379366787850856
1667824818019617000,5.952616943359375,2.151467255026102,-1.2845242619872093,-0.722624538475275
1667824818029624800,5.962624755859375,1.9660732782304287,-1.3077747891932725,-0.5863017588406801
1667824818039632100,5.972632080078125,1.7726853800714015,-1.2578630495548249,-0.5107809461712837
1667824818049640000,5.982639892578125,1.631641417133808,-1.126049271777272,-0.49142742640376086
1667824818059648000,5.99264794921875,1.4962275690376758,-0.972833809530735,-0.4638631276518106
1667824818069655000,6.002655029296875,1.3797463849484919,-0.9346323814302683,-0.41959143972694873
1667824818079663000,6.0126630859375,1.2481155625224112,-1.0122668252527713,-0.41732407931685445
1667824818089670000,6.022669921875,1.1400736324112861,-1.0746657060205935,-0.38142742102742194
1667824818099678000,6.032677978515625,1.0619347461979836,-1.12968967410624,-0.32880233077704907
1667824818109688800,6.042688720703125,0.9915993002772331,-1.242310675635934,-0.3549257830709219
1667824818119695600,6.052695556640625,0.914167612485215,-1.2783482037007807,-0.37800679892897604
1667824818129703700,6.06270361328125,0.8214110759198665,-1.1615665753602982,-0.45683308288455005
1667824818139711700,6.072711669921875,0.726089584237337,-0.881194805753231,-0.5922504381120205
1667824818149718800,6.08271875,0.6628536681234836,-0.4813923546016216,-0.7581587931931019
1667824818159726800,6.092726806640625,0.6066963120937348,-0.0556394696354866,-0.9504892912536859
1667824818169734700,6.102734619140625,0.47770080660730596,0.30831600758731365,-1.1411807899355888
1667824818179742000,6.112741943359375,0.3688215488892048,0.6370394279092549,-1.312686526632309
1667824818189749800,6.122749755859375,0.21413243389353154,0.9587222820699214,-1.4355857610702514
1667824818199757800,6.1327578125,0.0806568603836,1.278726389363408,-1.549946884265542
1667824818209764600,6.1427646484375,-0.044119858364015815,1.535703839379549,-1.6326345198243855
1667824818219773000,6.15277294921875,-0.13482596520558,1.6093828235745429,-1.6115625057011842
1667824818229779700,6.16277978515625,-0.2526874977372587,1.4106968190073965,-1.4308201541036367
1667824818239787800,6.172787841796875,-0.4343488638758659,0.9689818102777004,-1.1168705245435238
1667824818249795600,6.182795654296875,-0.6170994865559041,0.3622749767899513,-0.697883480450511
1667824818259803000,6.192802978515625,-0.7677848458029329,-0.24150515559613703,-0.2882096236258745
1667824818269810700,6.202810791015625,-0.8820550758443773,-0.5515203683167695,0.022653730356693266
1667824818279818800,6.21281884765625,-0.9351799323104322,-0.4981611185729503,0.22058862429559228
1667824818289825800,6.22282568359375,-0.9882944135129451,-0.23422025928497314,0.35730595620572564
1667824818299833900,6.232833740234375,-1.069426344062388,0.19296411978900432,0.40384792715013024
1667824818309842000,6.242842041015625,-1.139956801098585,0.8555231888800859,0.4531190307974815
1667824818319848700,6.2528486328125,-1.2202443897783755,1.6880998019367455,0.5121539880901574
1667824818329856800,6.262856689453125,-1.3338435886904596,2.50438578992784,0.5299906735539436
1667824818339863800,6.27286376953125,-1.4721356225714086,3.288345379331708,0.5629647223949432
1667824818349871600,6.28287158203125,-1.6432503141239285,4.0497611284941435,0.5855640922158957
1667824818359879700,6.292879638671875,-1.951210055619478,4.6177965782821175,0.6397609618276358
1667824818369886700,6.30288671875,-2.2514579075634478,4.750836098462343,0.7704863598465919
1667824818379894800,6.312894775390625,-2.4663372143015265,4.652616547250747,0.9441068967401981
1667824818389902800,6.32290283203125,-2.5146727906644344,4.521698257008195,1.0323071582406758
1667824818399909600,6.33290966796875,-2.4832430486559867,4.436740338429808,1.2469944495379923
1667824818409918000,6.34291796875,-2.570643391950428,4.195058072701096,1.6415356191605328
1667824818419925800,6.35292578125,-2.682765796308219,3.684073128390312,2.037468535402417
1667824818429932800,6.362932861328125,-2.7656030694708225,3.0983342641294,2.3915929389625785
1667824818439940600,6.372940673828125,-2.7388389811858533,2.4910318028360603,2.7040111211717126
1667824818449948000,6.382947998046875,-2.7112200296372175,1.89217918998003,2.993662760299444
1667824818459955700,6.392955810546875,-2.645833657491207,1.383082835894823,3.215671772786975
1667824818469963800,6.4029638671875,-2.559543613526225,1.080811953690648,3.3139497761875387
1667824818479970800,6.412970703125,-2.463957625688612,0.971690484714508,3.3641122757166624
1667824818489979000,6.422978759765625,-2.319670735307038,0.9824316589593887,3.37407545132637
1667824818499986700,6.432986572265625,-2.1325266999736425,1.109301550593972,3.334762847113609
1667824818509993700,6.44299365234375,-2.0256012797370553,1.1694359935611485,3.329566447514295
1667824818520001500,6.45300146484375,-1.8826231338664887,1.0502367826849222,3.3344974741756914
1667824818530009900,6.463009765625,-1.7496389971353112,0.9456085334748029,3.2866490968078375
1667824818540016600,6.4730166015625,-1.5924644219994544,0.9231319132506847,3.2286364683002233
1667824818550024700,6.483024658203125,-1.4515510997042058,0.8687059110581874,3.154594496011734
1667824818560032800,6.49303271484375,-1.2788988233208656,0.7946949184298515,3.0933442007571457
1667824818570039800,6.503039794921875,-1.1025604057706893,0.7204840193152428,3.042969519782066
1667824818580048000,6.5130478515625,-0.9238862387493252,0.6044535016030073,2.99501300586462
1667824818590054700,6.5230546875,-0.7849985770627855,0.45218554933965205,2.8814690442711113
1667824818600062700,6.533062744140625,-0.6548325664922595,0.37335575825273987,2.663306770339608
1667824818610070800,6.54307080078125,-0.564373127888143,0.3418149570852518,2.4505519084095955
1667824818620077800,6.553077880859375,-0.47314358169436455,0.27653379887938495,2.1763550280451773
1667824818630085600,6.563085693359375,-0.4139138324819505,0.15253449424505233,1.9066408460527657
1667824818640093700,6.57309375,-0.37603725242167707,-0.002897475007176399,1.6400941881805657
1667824818650100700,6.583100830078125,-0.37509851026684043,-0.14037176276445387,1.4075678733319044
1667824818660108800,6.59310888671875,-0.40004458934441206,-0.2219961530059576,1.1400105771124363
1667824818670116600,6.60311669921875,-0.46484877768829463,-0.23965631285905836,0.8793190750092268
1667824818680124000,6.6131240234375,-0.5676105023741722,-0.24833763196468353,0.5988952829539775
1667824818690131700,6.623131591796875,-0.6536779896296561,-0.23239479742348193,0.26483050160408017
1667824818700138800,6.633138671875,-0.7040576390407979,-0.16651041262745855,-0.05449029960036277
1667824818710146600,6.643146484375,-0.7401356452465057,-0.018393150302767752,-0.3867138369977474
1667824818720155000,6.65315478515625,-0.7887981154762208,0.2041840174615383,-0.7525368616580963
1667824818730161700,6.66316162109375,-0.7977309251248836,0.5231786554515362,-1.1744441771119831
1667824818740169700,6.673169677734375,-0.7907600631989539,0.9548568388134241,-1.6414654765337704
1667824818750177800,6.683177734375,-0.7743608631923794,1.4663924027442932,-2.1243173822939396
1667824818760184800,6.693184814453125,-0.6997989586830139,1.9193571197628974,-2.563162388545275
1667824818770193000,6.70319287109375,-0.603694061537832,2.21527249546051,-2.937882420888543
1667824818780200700,6.71320068359375,-0.4933842595599591,2.148856195744872,-3.1831472212791443
1667824818790207700,6.723207763671875,-0.452759111443907,1.5587176352202892,-3.2227187686890364
1667824818800215800,6.7332158203125,-0.4519346433185041,0.5618208130568265,-3.125975135248899
1667824818810223900,6.743223876953125,-0.43632220977544783,-0.4303080640524626,-2.9970711074382064
1667824818820230700,6.753230712890625,-0.3883599967695772,-1.137909220919013,-2.8911171625822782
1667824818830238700,6.76323876953125,-0.25129881985783575,-1.458915783253312,-2.869105237260461
1667824818840245800,6.773245849609375,-0.03133051941767335,-1.2742676563888788,-2.9993744159445166
1667824818850253800,6.78325390625,0.28125790479183194,-0.7053460714161396,-3.203104552158713
1667824818860261600,6.79326171875,0.7305434949062765,-0.09535013325512409,-3.4346178905725475
1667824818870269000,6.80326904296875,1.1432498512946068,0.3243161252737045,-3.5697847781702876
1667824818880276700,6.81327685546875,1.5587844168461857,0.42061493755578994,-3.568062192161381
1667824818890284800,6.823284912109375,1.9098375962674616,0.37682606471180913,-3.5405244891554113
1667824818900291600,6.83329150390625,2.254972199294716,0.3106184393107891,-3.4383798734545707
1667824818910300000,6.8432998046875,2.517202601402998,-0.0008569090902805328,-3.1821298609301447
1667824818920307700,6.8533076171875,2.7725673555254935,-0.6711071172058581,-2.8723896657586097
1667824818930314800,6.863314697265625,3.0676012722134587,-1.2988935636013745,-2.460176645845175
1667824818940322600,6.873322509765625,3.3230817616701125,-1.625057947090268,-2.3116560634166
1667824818950329900,6.883329833984375,3.6421640779435633,-1.6401169845342636,-2.2054466824948786
1667824818960337700,6.893337646484375,3.8611283159077163,-1.5703110423803328,-2.181857424853742
1667824818970345700,6.903345703125,4.07425434923768,-1.5844745922893284,-2.1119342860609294
1667824818980352800,6.913352783203125,4.101377333962917,-1.642967697790265,-2.0626284033611415
1667824818990360800,6.92336083984375,4.0196319476902485,-1.6335089645713567,-1.9924802236407995
1667824819000369000,6.933368896484375,3.8983389794051644,-1.5366899278074502,-1.922571405634284
1667824819010375700,6.943375732421875,3.773880825087428,-1.4024240807026624,-1.8837328486740588
1667824819020383700,6.9533837890625,3.6582869452267883,-1.2883750921964645,-1.8619573624566197
1667824819030391800,6.963391845703125,3.500338609239459,-1.2205267138510942,-1.8260469679027795
1667824819040398800,6.97339892578125,3.2725340622156858,-1.157752570030093,-1.802763415209949
1667824819050406700,6.98340673828125,3.0017893681317567,-1.092404776328802,-1.779650250647962
1667824819060414700,6.993414794921875,2.7587814067572354,-1.1381500439375638,-1.6758955694019793
1667824819070421800,7.003421875,2.5409002878546714,-1.2486147442162037,-1.589145798970759
1667824819080429800,7.013429931640625,2.347652674949169,-1.2486544917047022,-1.5201891671225427
1667824819090436600,7.0234365234375,2.144857481497526,-1.134663955387473,-1.4251476614251732
1667824819100444700,7.033444580078125,1.9688146858930586,-1.0804641631662846,-1.3463134864240884
1667824819110449700,7.04344970703125,1.817049422454834,-1.0816612639963625,-1.301690500843525
1667824819120456700,7.053456787109375,1.7205752536058425,-1.041779335463047,-1.2363681338444352
1667824819130464800,7.06346484375,1.628442913353443,-1.0106143818706272,-1.091119997215271
1667824819140472600,7.07347265625,1.5141712220072745,-1.157396596199274,-0.9335387409746646
1667824819150480000,7.08347998046875,1.4518448219537734,-1.390859899637103,-0.7675894693613052
1667824819160487700,7.09348779296875,1.3680945255994796,-1.5326064578860996,-0.6337935778558254
1667824819170495700,7.103495849609375,1.3347580731868742,-1.6013549999415873,-0.5208826534688472
1667824819180502500,7.11350244140625,1.2853297331511973,-1.6713801378041504,-0.4259586366713047
1667824819190510800,7.1235107421875,1.2158721660435199,-1.7066916896820068,-0.32545769652426243
1667824819200517600,7.133517578125,1.1157564258217811,-1.711700457754731,-0.25022622219026086
1667824819210525700,7.143525634765625,1.0047779308021068,-1.6146657324135303,-0.2462859601318836
1667824819220533500,7.153533447265625,0.9281493760865182,-1.291246263718605,-0.3505938913464546
1667824819230540800,7.163540771484375,0.8362602700054645,-0.8525579093337059,-0.4614741866886615
1667824819240548600,7.173548583984375,0.7246621817827225,-0.3864356045782566,-0.6379337464004755
1667824819250556700,7.183556640625,0.6259538972061127,0.06793254949748516,-0.8023071469992399
1667824819260563700,7.193563720703125,0.438378484718129,0.4370259741306305,-0.9190560421139001
1667824819270571800,7.20357177734375,0.2394283493220806,0.5806383262515068,-0.9147492848306894
1667824819280579800,7.213579833984375,0.022705168282985685,0.5335527499496936,-0.8612935889750719
1667824819290586600,7.223586669921875,-0.21348734092302618,0.462319989863038,-0.7921335435092449
1667824819300594700,7.2335947265625,-0.4523147286772728,0.3981108448028564,-0.6576069996416568
1667824819310601700,7.243601806640625,-0.6378117274560033,0.2995388268917799,-0.5455243427723646
1667824819320609800,7.25360986328125,-0.8229295176587998,0.2904857518643141,-0.4530664238274097
1667824819330617600,7.26361767578125,-1.0271183574259282,0.5081453369706869,-0.3409685693889856
1667824819340625000,7.273625,-1.1533819537304342,0.8199117772728204,-0.2696609905004501
1667824819350632700,7.2836328125,-1.233265199393034,1.2361515684843063,-0.21044483142197132
1667824819360640800,7.293640869140625,-1.3264451490022242,1.7358716069370508,-0.112319972756505
1667824819370647600,7.3036474609375,-1.4686802214205263,2.210071419686079,-0.008266893085837364
1667824819380655900,7.31365576171875,-1.6437505187310277,2.7269600350826977,0.07579495343565941
1667824819390663700,7.32366357421875,-1.799262713612616,3.4326655874609946,0.10992460205256939
1667824819400670700,7.333670654296875,-1.8881556335523724,4.29542632637918,0.09632043959200381
1667824819410678500,7.343678466796875,-1.9606348865687846,5.072983063003421,0.16763912439644335
1667824819420686800,7.353686767578125,-2.041056915283203,5.492147801750898,0.3024830636501312
1667824819430693600,7.363693603515625,-2.1504592470273374,5.604240980014205,0.5479997929751873
1667824819440701700,7.37370166015625,-2.3004691912308335,5.40900190103054,0.9296884952872991
1667824819450708700,7.383708740234375,-2.4437036499500273,4.954635500520467,1.383821087041497
1667824819460716800,7.393716796875,-2.5000562362909315,4.390558432969451,1.8640484895169733
1667824819470724900,7.403724853515625,-2.4711995596408842,3.9109745890945193,2.278756248855591
1667824819480731600,7.413731689453125,-2.427180385172367,3.4820074182569978,2.662156431260705
1667824819490739700,7.42373974609375,-2.3947980186142024,2.9930478432714938,2.980094838196039
1667824819500747800,7.433747802734375,-2.328965217874944,2.582632228168845,3.2245255258500576
1667824819510754800,7.4437548828125,-2.2446377061545846,2.253945048204064,3.4359827491849657
1667824819520762600,7.4537626953125,-2.1305273428499696,1.9254443307220934,3.615881051173806
1667824819530770700,7.463770751953125,-2.0391744625374675,1.6970991009503602,3.8153444698542356
1667824819540777700,7.47377783203125,-1.9413208220288156,1.5193629454314708,3.9460353810817
1667824819550785800,7.483785888671875,-1.7989308513097464,1.4432500120878218,4.042518317759037
1667824819560792600,7.49379248046875,-1.669589893386513,1.4598153624415398,4.034633117467164
1667824819570801000,7.50380078125,-1.576069752037525,1.4971978753745554,4.003406204554438
1667824819580808700,7.51380859375,-1.4092729236841202,1.4916548542946577,3.9751638604104516
1667824819590815700,7.523815673828125,-1.329240186548233,1.3668401416242122,3.9593694944292306
1667824819600823600,7.533823486328125,-1.2356181922599672,1.0976777482956648,3.9452936228036877
1667824819610831600,7.54383154296875,-1.1533584267243742,0.8270511276334523,3.932576180049777
1667824819620838700,7.553838623046875,-1.0198974662616849,0.6432733538627624,3.8503871416628357
1667824819630846700,7.5638466796875,-0.8527446640774607,0.5908943473279475,3.7252006730705496
1667824819640854500,7.5738544921875,-0.728202923129499,0.5863678098142147,3.554277704697847
1667824819650861800,7.58386181640625,-0.594613221720606,0.5452069473862647,3.3227292949706313
1667824819660869600,7.59386962890625,-0.4684286820016801,0.5403840572744608,3.107238286074996
1667824819670876700,7.603876708984375,-0.40177214378938075,0.5830383731305598,2.8257833974063393
1667824819680884500,7.613884521484375,-0.35686771091893316,0.6062900693804025,2.5106518645852804
1667824819690892800,7.623892822265625,-0.3246035639129579,0.6235118378162383,2.1576637715786693
1667824819700899600,7.633899658203125,-0.33007702688798307,0.7374357386380433,1.8002707216113805
1667824819710907600,7.64390771484375,-0.36716304109245534,0.86148355858922,1.4481781161397695
1667824819720915700,7.653915771484375,-0.403253468388319,0.8719289647579193,1.103438211518526
1667824819730922800,7.6639228515625,-0.5069909062385559,0.8140700655072927,0.780115188935399
1667824819740930800,7.673930908203125,-0.6085493926145136,0.8144640332609414,0.434839277741313
1667824819750938600,7.683938720703125,-0.6822269155047833,0.9967202965527773,0.004221417087316512
1667824819760946000,7.69394580078125,-0.7317781512677669,1.3090923015326261,-0.47991760587394233
1667824819770953700,7.70395361328125,-0.7401952664792537,1.644383409807086,-0.9637433251023292
1667824819780961800,7.7139619140625,-0.779264709585905,1.9856670364946125,-1.4683978973478078
1667824819790968600,7.723968505859375,-0.8175650680162012,2.2152906156390904,-1.983868462640047
1667824819800976600,7.7339765625,-0.7986426331423222,2.3177356755912304,-2.4432296026974916
1667824819810983700,7.743983642578125,-0.8075335033454001,2.326033548337221,-2.8677853868335483
1667824819820991700,7.75399169921875,-0.74663187539801,2.1758330499976872,-3.1436160058796405
1667824819830999600,7.76399951171875,-0.6528875699043274,1.7552549373209476,-3.31943083794713
1667824819841006800,7.7740068359375,-0.5806326271630823,1.1019213772147893,-3.473355325245857
1667824819851014700,7.7840146484375,-0.4506326208092272,0.3450157989531755,-3.5381653588086364
1667824819861022700,7.794022705078125,-0.3401820951864123,-0.4344394647687673,-3.5156355470925567
1667824819871029500,7.804029541015625,-0.09524667288064956,-1.0023685315728188,-3.4998411811113357
1667824819881037800,7.814037841796875,0.17081117856130004,-1.4380524434447288,-3.567818154272437
1667824819891046000,7.8240458984375,0.5658173353470861,-1.6244214027523993,-3.5355861559703943
1667824819901052700,7.834052734375,0.8824608071010559,-1.4599129775971174,-3.7597543923184276
1667824819911060700,7.844060791015625,1.2601942689813672,-0.7582499786078929,-4.109899078592658
1667824819921068500,7.854068603515625,1.7208628383755682,0.3308791370511055,-4.480789031253755
1667824819931075800,7.864075927734375,2.307016713178158,1.3342290808767079,-4.821861061017215
1667824819941083600,7.874083740234375,2.8367992969393727,1.831424569287896,-5.1207461001753805
1667824819951090700,7.884090576171875,3.209230926084518,1.705152643546462,-5.162383932465315
1667824819961098800,7.8940986328125,3.3471745849192143,1.232927345740795,-4.9816637926995755
1667824819971106800,7.90410693359375,3.4298774180471896,0.6605769553631544,-4.50023928939402
1667824819981113600,7.914113525390625,3.607335925668478,0.005680968245863914,-3.9807644568964835
1667824819991121700,7.92412158203125,3.78868501098752,-0.7052022790312766,-3.6121672913476823
1667824820001129700,7.934129638671875,3.9244939958810803,-1.3069950369924306,-3.2200892969682813
1667824820011136800,7.94413671875,4.124636628997326,-1.7245809821158646,-2.8888562319129703
1667824820021144600,7.95414453125,4.257421297633647,-1.709850445973873,-2.862454254938662
1667824820031152600,7.964152587890625,4.434676391637325,-1.9580945544362067,-2.537493694281578
1667824820041159700,7.97415966796875,4.514873963946104,-2.0754022524774074,-2.244340476773679
1667824820051167700,7.984167724609375,4.533813642215729,-2.1386685637295244,-1.9654285505861042
1667824820061175800,7.99417578125,4.429057967233658,-2.263097491952777,-1.6388222685486078
1667824820071182800,8.004182861328125,4.236991088545322,-2.489482235306501,-1.3235858140483499
1667824820081191000,8.01419091796875,3.958689695471525,-2.742028424876928,-1.0361778621941804
1667824820091198700,8.02419873046875,3.6760493964105843,-2.9332997692734,-0.8173129929512739
1667824820101205800,8.034205810546876,3.391062241962552,-3.017120208254456,-0.6635989335328341
1667824820111213600,8.044213623046875,3.154027509778738,-3.0425679532438514,-0.49616497631967066
1667824820121224000,8.054223876953126,2.920329228541255,-3.0463872192710637,-0.3550982170283794
1667824820131232000,8.06423193359375,2.6901450929045674,-3.0523984423846007,-0.2707856106162071
1667824820141239800,8.07423974609375,2.479884970399737,-3.0413264287501574,-0.1930383540689945
1667824820151247000,8.0842470703125,2.2945681504935025,-2.9253818357557058,-0.18405396036356686
1667824820161255000,8.0942548828125,2.082424698460102,-2.693528890123963,-0.18083967449218033
1667824820171263000,8.104262939453125,1.94137781291306,-2.4772470231115817,-0.21750468680560586
1667824820181269800,8.114269775390625,1.7911089255124328,-2.3151351377040146,-0.22205197484642267
1667824820191278000,8.124278076171874,1.6095079112589359,-2.1616712536543607,-0.2966454435378313
1667824820201286100,8.1342861328125,1.4545283619493246,-1.8788158505380153,-0.39957390309274193
1667824820211293000,8.14429296875,1.282868895995617,-1.4943220276772975,-0.530611143539846
1667824820221301000,8.154301025390625,1.086957032316923,-1.2420961561024189,-0.6734340988487005
1667824820231309000,8.16430908203125,0.9565139583706855,-1.1267968752741813,-0.7769394815087318
1667824820241316000,8.174316162109376,0.8702455417156219,-1.0033896913141012,-0.8652648306936025
1667824820251324000,8.184323974609375,0.7837854018807411,-0.876789848792553,-0.9650818802297115
1667824820261331200,8.194331298828125,0.6698913116753101,-0.776821408087015,-1.0342378340423106
1667824820271339000,8.204339111328125,0.5070797535657883,-0.7139893965989351,-1.113511277243495
1667824820281347000,8.21434716796875,0.37781039957404133,-0.5704740751117467,-1.2299784328073262
1667824820291353900,8.224353759765625,0.26300796235203744,-0.26272446923553944,-1.4340034603148697
1667824820301362000,8.23436181640625,0.23283728049397467,0.2605675834625959,-1.7307506106615065
1667824820311370000,8.244369873046875,0.2579061822336167,0.911579422622919,-2.0639906316250562
1667824820321377000,8.254376953125,0.25663784279823304,1.5467349364817142,-2.3482225837916135
1667824820331384800,8.264384765625,0.21312837141752242,1.9942232679158447,-2.5819267102479935
1667824820341393000,8.274392822265625,0.14669628961086273,2.2046862195163963,-2.6610347337543963
1667824820351400000,8.28439990234375,0.05295183798670768,2.1561592122346163,-2.538370477116108
1667824820361408000,8.294407958984374,-0.08170921898074447,1.7524352037250994,-2.180223393911123
1667824820371414800,8.304414794921875,-0.264012170958519,0.9105395581811666,-1.7061679580688476
1667824820381423000,8.314423095703125,-0.4767443826653063,0.0808317785590887,-1.3036889811843633
1667824820391431000,8.324430908203125,-0.6280583952046931,-0.30424247453808784,-0.8685936828553676
1667824820401438000,8.33443798828125,-0.7200866905607283,-0.30405484301149843,-0.5662964971661567
1667824820411445800,8.34444580078125,-0.7835387336432933,-0.03456044124960899,-0.35768764899969097
1667824820421454000,8.3544541015625,-0.8678010711729526,0.4851408934801817,-0.27112287974655624
1667824820431460900,8.3644609375,-1.0064544857122004,1.3342600605368613,-0.2646335177272558
1667824820441469000,8.374468994140624,-1.1155718630351126,2.4635861620277164,-0.26929741788506506
1667824820451477000,8.38447705078125,-1.278811291167885,3.60535498098433,-0.25823884825408455
1667824820461484000,8.394484130859375,-1.5115116474092005,4.553191127380728,-0.22093349221050737
1667824820471492000,8.4044921875,-1.714554824272543,5.156190923044085,-0.05583002377152443
1667824820481500000,8.4145,-2.0005030788376925,5.478389910033345,0.17527356479763984
1667824820491507000,8.4245068359375,-2.357974600868672,5.604672357168793,0.49221769999861714
1667824820501515000,8.434514892578125,-2.6786066308021543,5.60376459467411,0.8670254106253386
1667824820511522000,8.44452197265625,-2.9581413650631903,5.501345838207006,1.2842793473154306
1667824820521529900,8.45452978515625,-3.1317396901249883,5.250204254737496,1.7244623241722583
1667824820531538000,8.464537841796876,-3.2343615679487585,4.960899821612238,2.075941181659698
1667824820541545000,8.474544921875,-3.299965966759622,4.743244912680983,2.4310808997422457
1667824820551553000,8.484552978515625,-3.3485222001358865,4.5268052247583865,2.7307074049174784
1667824820561560800,8.494560791015624,-3.3769375627592204,4.199801467835903,3.0482611964493986
1667824820571568000,8.504568115234376,-3.4049902295500036,3.803396257907152,3.377104443758726
1667824820581576000,8.514575927734375,-3.4010818239346143,3.3919127213120457,3.657582596349716
1667824820591584000,8.524583984375,-3.3606875619649883,2.946688827678561,3.929390535750985
1667824820601590800,8.5345908203125,-3.2729797601565718,2.405332125979662,4.169728985655308
1667824820611598800,8.544598876953126,-3.1231989485338327,1.890983842715621,4.3647453617990015
1667824820621607200,8.554607177734376,-2.9669772902086375,1.5395447327166796,4.452032600107788
1667824820631614000,8.564614013671875,-2.7820649594500657,1.3390607388168572,4.536408334884047
1667824820641622000,8.5746220703125,-2.5667899313926696,1.1592629745930432,4.57562449298501
1667824820651629000,8.584629150390626,-2.3495953334495425,0.9736211605161428,4.596186219498515
1667824820661637000,8.59463720703125,-2.13575311467424,0.7973077312767505,4.580564287474751
1667824820671645000,8.60464501953125,-1.9608043979167937,0.6272580386072397,4.5263048740208145
1667824820681652000,8.61465185546875,-1.7559185157962143,0.5190110143780708,4.476239989647269
1667824820691660000,8.624659912109376,-1.5563339549541473,0.42475685966610904,4.38921637071073
1667824820701668000,8.634668212890626,-1.258661652586609,0.4622387413203716,4.207473902159929
1667824820711675000,8.6446748046875,-1.0982478032685816,0.48616497583091256,4.033344831222296
1667824820721683000,8.654682861328125,-0.9488650510527193,0.5751017349123955,3.8293794249475
1667824820731690000,8.66468994140625,-0.838992471448332,0.697394820150733,3.5577614551603793
1667824820741698000,8.674697998046875,-0.7719478107012808,0.7846867346346378,3.257892957922816
1667824820751705900,8.684705810546875,-0.737376701927185,0.8518073832273483,2.9342011020272967
1667824820761713200,8.694713134765625,-0.6920775706507265,0.8919044158160686,2.6096084978997705
1667824820771721000,8.704720947265624,-0.7091422488287091,0.8984253420174121,2.279622510296106
1667824820781729000,8.71472900390625,-0.7571687592424452,0.8740747446149587,1.9643805028378962
1667824820791735800,8.72473583984375,-0.8418504912279545,0.8879203146159649,1.5685738433241843
1667824820801744000,8.734743896484375,-0.965137848200649,1.0798860710173845,1.1589344732910394
1667824820811752200,8.744752197265624,-1.1209561864219606,1.430796773228049,0.6999784069031476
1667824820821759000,8.754759033203126,-1.2486707121871412,1.8101082250148057,0.21082593969404695
1667824820831766800,8.764766845703125,-1.4001803934291004,2.1563024200975893,-0.2880933037698269
1667824820841774000,8.774774169921875,-1.5640649875976145,2.387826864427328,-0.8041337779045105
1667824820851782000,8.784781982421874,-1.7486884184122085,2.5475357803463936,-1.3052145833164452
1667824820861790000,8.7947900390625,-1.9272446581423281,2.729035087791085,-1.8341425960749387
1667824820871796700,8.804796630859375,-2.0466694944679737,3.0317040294021367,-2.3753788862645626
1667824820881805000,8.81480517578125,-2.084265942412615,3.3678181444972752,-2.8262808255344627
1667824820891813000,8.824813232421874,-2.055591490461677,3.319863384145498,-3.1280250535160303
1667824820901820000,8.83481982421875,-2.0262391392491756,2.7335008350282908,-3.381154011410475
1667824820911828000,8.844827880859375,-2.0094434872709215,2.0300322479218242,-3.5465304515719414
1667824820921835800,8.854835693359375,-1.9571349156238138,1.5402753850787878,-3.7025340832322833
1667824820931843000,8.864843017578124,-1.8154266435585915,1.3134580955266952,-3.9329800846755503
1667824820941851000,8.874850830078126,-1.530571883318573,1.4021791660308838,-4.157390020824969
1667824820951859000,8.88485888671875,-1.1427905632197857,1.57320676382184,-4.48366897060424
1667824820961866000,8.894865966796875,-0.6288241188801824,1.6744839490383863,-4.758239944978058
1667824820971874000,8.9048740234375,-0.007028145071119069,1.6568360641449689,-4.957043730705976
1667824820981880800,8.914880859375,0.7111632332623005,1.4960142185479401,-5.110251594167948
1667824820991889000,8.924888916015625,1.507346344423294,1.3150263677567242,-5.037886615180969
1667824821001897000,8.93489697265625,2.2667677048981187,1.0788315935283899,-4.988028067034483
1667824821011904000,8.944904052734374,3.0393793863356113,0.8406804245352745,-4.877815880212188
1667824821021911800,8.954911865234376,3.8431963533759115,0.5659259102880955,-4.851939972938597
1667824821031919900,8.964919921875,4.619710302948952,0.5399035802811384,-4.324079589411616
1667824821041927000,8.974927001953125,5.093959215536714,0.2765069108724594,-4.201768091733753
1667824821051935000,8.98493505859375,5.635826789367199,-0.14203589658439159,-4.055589688517153
1667824821061943000,8.994943115234374,5.880280857896804,-0.5828384666442871,-3.7168642218798396
1667824821071950000,9.0049501953125,5.921810553637147,-0.9532967498898506,-3.5850910683736203
1667824821081958100,9.014958251953125,6.006866087371111,-1.259356502982974,-3.405509869509935
1667824821091966000,9.024966064453125,6.2144298103988165,-1.4586515793591737,-3.2000609466791152
1667824821101973000,9.034972900390626,6.136896488863229,-1.5775965232133864,-2.955616230499744
1667824821111977200,9.044977294921875,5.942625962650776,-1.8360393696069717,-2.8527719420969486
1667824821121984300,9.054984375,5.6683075017333024,-2.0495903503507376,-2.638768541410565
1667824821131992300,9.064992431640626,5.255310637965798,-2.396674772271514,-2.4789383371993896
1667824821142000400,9.07500048828125,5.390581278198957,-2.6725632589846846,-2.38102565997988
1667824821152007400,9.08500732421875,4.803901041434705,-2.670876913332939,-2.2623910972490906
1667824821162015500,9.095015380859374,4.6251048554688685,-2.6979297554314137,-2.217643316245079
1667824821172023300,9.105023193359376,4.42650740596801,-2.58079507586956,-2.2097835426554084
1667824821182030300,9.1150302734375,4.127501663039625,-2.336399459528923,-2.1973782345905897
1667824821192038400,9.125038330078125,4.002785734568536,-2.151373147001862,-2.1700790165156123
1667824821202046500,9.13504638671875,3.7554923509597775,-1.9827491032212972,-2.108156521087885
1667824821212053200,9.14505322265625,3.586107551939785,-1.8849457315951585,-2.0922227466359735
1667824821222061300,9.155061279296875,3.4011037435054776,-1.744364125472307,-2.091589417168498
1667824821232068400,9.165068359375,3.1933295925974843,-1.6531109061419962,-1.9972560597404836
1667824821242076400,9.175076416015624,2.9850416469484564,-1.6790122401177883,-1.9656097523719072
1667824821252084200,9.185084228515626,2.829796432439983,-1.688015046262741,-1.932200234723091
1667824821262091500,9.195091552734375,2.647718740585446,-1.6458996595889328,-1.8929031203404068
1667824821272099300,9.205099365234375,2.4794167683660984,-1.6706377950042486,-1.8388664097264409
1667824821282107400,9.215107421875,2.3622306508779523,-1.6869979781746864,-1.8275962431713937
1667824821292114200,9.2251142578125,2.2295367292650043,-1.6441262201756237,-1.7910738541990519
1667824821302122200,9.235122314453125,2.073846985859424,-1.6535574808657167,-1.7425611677035688
1667824821312130600,9.245130615234375,1.939898972532153,-1.6303595606297254,-1.6957926945269106
1667824821322137300,9.255137451171874,1.742075283882767,-1.5899749432712793,-1.6229647742033004
1667824821332145400,9.2651455078125,1.5593344519443808,-1.6311796448409557,-1.5423182890832423
1667824821342152400,9.27515234375,1.3806133770413695,-1.6501485492050647,-1.5400161496207116
1667824821352160500,9.285160400390625,1.1522539726138115,-1.4157283834338188,-1.5559136837154626
1667824821362168300,9.295168212890625,0.9565957914352416,-0.9822644856989383,-1.6286808137625455
1667824821372175400,9.30517529296875,0.7476536196611822,-0.4537731107920408,-1.767590979541838
1667824821382183400,9.315183349609375,0.5859083756089211,0.13885609750449657,-1.895582860943675
1667824821392191500,9.32519140625,0.3916980551511049,0.6278004749208689,-2.026486245878041
1667824821402198300,9.3351982421875,0.16670162435062227,1.0339677849292754,-2.1622779873758553
1667824821412206300,9.345206298828124,-0.08270349071510136,1.4263251807719468,-2.2197435033947226
1667824821422214100,9.355214111328126,-0.3697089261829853,1.7171698290765285,-2.227947268116474
1667824821432221400,9.365221435546875,-0.593802928251028,1.8114625622332095,-2.134115138208866
1667824821442229200,9.375229248046875,-0.7816063042759895,1.6458295169621706,-1.9532459453612565
1667824821452237300,9.3852373046875,-0.993885949909687,1.3227747899264097,-1.6832938629597425
1667824821462244400,9.395244384765626,-1.1516589293301105,0.9897171397924422,-1.3770242665082215
1667824821472252400,9.40525244140625,-1.2934721230745314,0.793860221171379,-1.094400334060192
1667824821482259200,9.41525927734375,-1.4013105665028094,0.7605150009304285,-0.779313224902749
1667824821492267300,9.425267333984374,-1.5104793817520141,0.9406611402004956,-0.5758434931904077
1667824821502275300,9.435275390625,-1.6284405752658844,1.4820184264212846,-0.4668962117373943
1667824821512282400,9.445282470703125,-1.7815642675757406,2.430130467149615,-0.49240942317843434
1667824821522290200,9.455290283203125,-1.9359364986419676,3.6940631920069453,-0.5681780731290579
1667824821532298200,9.46529833984375,-2.129437794047594,4.9124213296473025,-0.5566700061649084
1667824821542305300,9.47530517578125,-2.3286662349283693,5.811065867373347,-0.4607973103404045
1667824821552313300,9.485313232421875,-2.5104268236577507,6.451230149304866,-0.3925830212920904
1667824821562321400,9.4953212890625,-2.7640733756855127,6.87840283794105,-0.15796528712213037
1667824821572328400,9.505328369140624,-2.915378912657499,7.080688912826776,0.1754670415431261
1667824821582336500,9.51533642578125,-3.013758622866869,7.068520920649171,0.4336532828271389
1667824821592343300,9.52534326171875,-3.038867345160246,7.012318556433915,0.694705434936285
1667824821602351400,9.535351318359375,-2.9974101301342246,6.787705498927831,1.0578303065538406
1667824821612359200,9.545359130859374,-2.923094309340417,6.3567860249787564,1.3408335937082767
1667824821622366500,9.555366455078126,-2.7769498083934185,5.889160914444923,1.6032552806049585
1667824821632374300,9.565374267578125,-2.73024767845124,5.3476054753035305,1.9540444022625683
1667824821642382300,9.57538232421875,-2.6852196192011237,4.5172278335958715,2.332496022349596
1667824821652389400,9.585389404296874,-2.588216165781021,3.4707921967595814,2.7835429230481386
1667824821662397400,9.5953974609375,-2.5065634262278675,2.4032135263904926,3.109910135632753
1667824821672405200,9.6054052734375,-2.29349087665081,1.5476315930604934,3.3385008645981546
1667824821682412300,9.615412353515625,-2.024130330401659,1.0950371706590056,3.3891467637300488
1667824821692420400,9.62542041015625,-1.7646552183508872,0.9800497322589159,3.427641037297249
1667824821702428400,9.635428466796874,-1.4680667656973003,0.9263304170310497,3.460363157203793
1667824821712435200,9.645435302734375,-1.105486083959043,0.7827320934355259,3.508687919911742
1667824821722443300,9.655443359375,-0.819103091238439,0.5558300482094287,3.5444501381665465
1667824821732450300,9.6654501953125,-0.4805167408108711,0.2937134817391634,3.6615170131891963
1667824821742458400,9.675458251953126,-0.19629779425635932,-0.024134032042324543,3.8322242929846047
1667824821752466400,9.685466552734376,0.0927120398364961,-0.3331929669514298,3.9301048215001817
1667824821762473500,9.695473388671875,0.31010844396203757,-0.5393959230199455,3.9807968978613615
1667824821772481500,9.7054814453125,0.5482039372451603,-0.6431435900032519,3.970640830028057
1667824821782489300,9.7154892578125,0.8035023481331766,-0.649038785521686,3.8735014752686023
1667824821792496400,9.725496337890625,0.9855620659396052,-0.6411971321105957,3.726496558099985
1667824821802504200,9.735504150390625,1.0869592242740094,-0.7814876463323831,3.550869942080974
1667824821812512500,9.745512451171875,1.181043867637962,-1.0165133767813443,3.324225086486339
1667824821822519300,9.755519287109376,1.1990053485251961,-1.1685472280278801,2.99007087328732
1667824821832527400,9.76552734375,1.1612075327895581,-1.2098419459685683,2.711360899412632
1667824821842534400,9.775534423828125,1.1168718397177755,-1.2688479694277048,2.358136075040698
1667824821852542500,9.78554248046875,1.0882499947369098,-1.2182675367474556,1.9073522091925144
1667824821862550300,9.79555029296875,1.034510075112432,-0.9713213591411709,1.540761707291007
1667824821872557300,9.805557373046875,0.9218284294366836,-0.7978694568127394,1.2160171274721623
1667824821882565400,9.8155654296875,0.7922446026682853,-0.7641741079598665,0.9106424340337514
1667824821892573400,9.825573486328125,0.6458942038856447,-0.7644289595037699,0.6036953767120837
1667824821902580200,9.835580322265624,0.4545758054770529,-0.6781874308556318,0.38794133296608924
1667824821912588300,9.84558837890625,0.1808873130261898,-0.485267150208354,0.2709463541358709
1667824821922596400,9.855596435546875,-0.10260697251558304,-0.29287878448069093,0.1751227581501007
1667824821932603400,9.865603271484375,-0.3081529259800911,-0.09813187292814254,0.04619944111704826
1667824821942611500,9.875611572265624,-0.4707739299535751,0.14415332712978124,-0.0937421135365963
1667824821952619300,9.885619384765626,-0.654687897324562,0.42225832084864373,-0.25726912643909455
1667824821962626300,9.895626220703125,-0.806413705535233,0.719329004061222,-0.4597691363364458
1667824821972634400,9.90563427734375,-0.9219257523313165,0.8742541928350925,-0.6657032123357057
1667824821982641200,9.91564111328125,-0.9456967962801456,0.8419730946943164,-0.9432108246833085
1667824821992649200,9.925649169921876,-0.9519536647178232,0.7349106040745973,-1.2808049492031335
1667824822002657500,9.935657470703125,-0.8886803392030298,0.6478250258177518,-1.5602029053419828
1667824822012664300,9.945664306640625,-0.8031203630782663,0.537071279464662,-1.8148188869237898
1667824822022672400,9.95567236328125,-0.7363808227576315,0.28863574008345605,-2.0369266836106776
1667824822032680200,9.96568017578125,-0.7020951067961752,-0.061763505473732945,-2.2012065607070923
1667824822042687500,9.9756875,-0.6717071289256215,-0.34282325734496116,-2.259027466034889
1667824822052695300,9.9856953125,-0.6899146935284137,-0.48632396578490733,-2.2948645030915737
1667824822062703400,9.995703369140625,-0.6911921661183238,-0.47079117334932086,-2.387420621713996
1667824822072710400,10.00571044921875,-0.6362552917942405,-0.4256830346003175,-2.5178321314781904
1667824822082718500,10.015718505859375,-0.5388695610582829,-0.35270723023861644,-2.6197692419081924
1667824822092726300,10.025726318359375,-0.31209464934319253,-0.15168635298311708,-2.7818904796659947
1667824822102733300,10.0357333984375,-0.012211831319332123,0.1602472605794668,-2.975958176782727
1667824822112741600,10.04574169921875,0.2913021828137338,0.43568157378435135,-3.149236183848977
1667824822122748700,10.055748779296875,0.6287509075134993,0.5116746801406145,-3.2533027075231074
1667824822132756700,10.0657568359375,1.0624448146119714,0.42395489563345906,-3.3146728297650814
1667824822142764800,10.075764892578125,1.6009890892386436,0.17827450017929075,-3.2848008385926484
1667824822152771600,10.085771484375,2.11515003323704,-0.09024901072382926,-3.2185558037906885
1667824822162780000,10.09577978515625,2.5437089155346153,-0.2775058587819338,-3.0653514474600554
1667824822172787700,10.10578759765625,2.8317008047565815,-0.45138358530700207,-2.8487784885466096
1667824822182794800,10.115794677734375,3.184121327008307,-0.6586907032251358,-2.619205762806535
1667824822192802600,10.125802490234374,3.2820778433695432,-0.8761433675825595,-2.443821723371744
1667824822202811000,10.135810791015626,3.339962753844261,-1.2203607096344231,-2.1985206826239825
1667824822212817700,10.145817626953125,3.7644425501346586,-1.4073977774620055,-1.776889846023917
1667824822222825700,10.15582568359375,3.662811729174852,-1.5656810444921254,-1.4971177958756685
1667824822232832800,10.165832763671874,3.4746892041981217,-1.9660142415195703,-1.2561778729468582
1667824822242840800,10.1758408203125,3.3971333785697815,-2.4080121588438748,-0.8797247332006692
1667824822252848600,10.1858486328125,3.1795933281898496,-2.6779087116658684,-0.5941559794723987
1667824822262855700,10.195855712890625,2.9692788451492786,-2.723517201152444,-0.4032078756809234
1667824822272863700,10.20586376953125,2.801719800251722,-2.6967420069515704,-0.2678840439558029
1667824822282871800,10.215871826171876,2.6233295647382735,-2.703262933152914,-0.2458727031558752
1667824822292878600,10.225878662109375,2.4782053467497227,-2.712049173937738,-0.2918658080458641
1667824822302886700,10.23588671875,2.410232757502794,-2.7383953290715812,-0.3930354412347078
1667824822312894700,10.245894775390624,2.3548259275794026,-2.69179139880687,-0.5830518171340227
1667824822322901800,10.25590185546875,2.26191617321372,-2.5833304395660757,-0.8350497251719236
1667824822332909800,10.265909912109375,2.2350910023912784,-2.400139818033576,-1.0810498540997504
1667824822342917600,10.275917724609375,2.0881413225412366,-2.166036170865595,-1.2566799772500992
1667824822352925000,10.285925048828124,1.9405413620889185,-2.0471154846698045,-1.5423790793597698
1667824822362932700,10.2959326171875,1.8304511942110955,-1.8572355946317314,-1.7857956215351818
1667824822372939800,10.305939697265625,1.7224012999892233,-1.5517010344564914,-1.913885994875431
1667824822382947600,10.315947509765625,1.6303835260272026,-1.2688979460492729,-2.089938142830133
1667824822392956000,10.325955810546875,1.4993302112281321,-1.0336579883277415,-2.280954635682702
1667824822402962700,10.335962646484376,1.0085755695194005,-0.9306365897923707,-2.7660020056605337
1667824822412970800,10.345970703125,1.4506903912216425,-0.562985472922027,-3.2219612283200023
1667824822422978600,10.355978515625,1.4482044196248054,0.31455665554255247,-3.36902109054625
1667824822432985900,10.36598583984375,0.8785463370710611,1.1080033274769783,-4.080515163198113
1667824822442993700,10.37599365234375,0.6453092436045408,1.9029411147519946,-4.48349332177639
1667824822453001700,10.386001708984375,0.2023053641080856,2.4315242595955726,-4.628982573685049
1667824822463008800,10.3960087890625,-0.37469285207539793,2.484732410430908,-4.6973435777276755
1667824822473016800,10.406016845703125,-0.8007575794696807,2.4022454120106995,-4.770171498051285
1667824822483023600,10.416023681640626,-1.3511322848826646,2.4192275264717638,-4.760959433069825
1667824822493031700,10.42603173828125,-1.6339619690358638,2.551428988392651,-4.427739870372414
1667824822503039500,10.43603955078125,-1.5721575470298528,2.640189806385338,-4.064623766583204
1667824822513046800,10.446046875,-1.727381426489353,2.75978035466671,-3.7907746767431494
1667824822523054600,10.4560546875,-1.7195996865719556,2.9114789826095104,-3.447524718418717
1667824822533062700,10.466062744140626,-1.3582067533135413,3.335476256079972,-3.0067782624602315
1667824822543069700,10.476069580078125,-0.8823848923206329,4.144730737999081,-2.5493179875880476
1667824822553077800,10.486077880859375,-0.6314578283846378,4.5799669061034916,-2.14621181871593
1667824822563085800,10.4960859375,-0.4040916727781296,4.535537689529359,-1.743983601722121
1667824822573092600,10.506092529296875,0.030706103909015653,4.3345168122738595,-1.3956670076578854
1667824822583100700,10.5161005859375,0.3347165232568979,4.200627689526975,-1.2305687999159096
1667824822593108700,10.526108642578125,0.4667278694331646,4.288230861917138,-1.2169301506638526
1667824822603115800,10.53611572265625,0.6117804834902286,4.5881341382071374,-1.1752619232356547
1667824822613123600,10.54612353515625,0.803230107063055,4.762817043635249,-1.064043774241209
1667824822623131600,10.556131591796875,1.0081517911493778,4.643815985679626,-0.9070844492912292
1667824822633138700,10.566138671875,1.2649158906757831,4.421375596037507,-0.6284837810099124
1667824822643146800,10.576146728515624,1.7659551950335501,4.12825628079921,-0.4503676862627268
1667824822653153500,10.586153564453125,2.2238222971409556,3.8907571459740398,-0.43258039289861916
1667824822663161900,10.596161865234375,2.363874910953641,3.730424545198679,-0.5209899132356047
1667824822673169700,10.606169677734375,2.82119431605041,3.628580373749137,-0.6473381190836429
1667824822683176700,10.6161767578125,3.444887940174341,3.5056302859067916,-0.41847178804725405
1667824822693184500,10.6261845703125,3.227698310667276,3.275903246387839,-0.19144611644148826
1667824822703192800,10.63619287109375,2.3963562078416345,2.9438994892209767,-0.28607407290190456
1667824822713199600,10.64619970703125,1.862864832690358,2.6688059522777796,-0.38623423678725954
1667824822723207700,10.656207763671874,1.814492139187455,2.3620202229976655,-0.3760749540835619
1667824822733214700,10.666214599609376,2.4505033930927516,2.139156054985523,-0.3034029549740255
1667824822743222800,10.676222900390625,3.2275603635013104,2.061946558576822,-0.475596089413017
1667824822753230800,10.68623095703125,3.896323547929525,2.0236185814872383,-0.6877982858963311
1667824822763237600,10.696237548828124,4.160164453974366,1.857726885280013,-0.8998487989492714
1667824822773245700,10.70624560546875,4.059150888130069,1.632081854377687,-0.9451617395553737
1667824822783253800,10.716253662109375,3.8072874201267957,1.9436895969867705,-0.6413578756302595
1667824822793260800,10.7262607421875,3.6167315305233,2.268221410837769,-0.29751017060838636
1667824822803268600,10.7362685546875,3.016579525506496,2.086471635763347,-0.08530654935296625
1667824822813276700,10.746276611328126,2.438676177176833,1.9211454644843935,0.36748489345796403
1667824822823283700,10.75628369140625,2.6678824076920744,1.845887686665356,1.2532178540974854
1667824822833291800,10.766291748046875,4.3027363571316,0.9420277523785829,1.6781056466668842
1667824822843298600,10.776298583984374,7.199471944117546,0.16793956864774226,2.1930461967356503
1667824822853307000,10.786306884765626,6.361202087855339,-0.5210813909113406,0.964390975356102
1667824822863314700,10.796314697265625,5.792453521361947,-0.5545367935284972,-0.11132175549939274
1667824822873321700,10.80632177734375,3.516099072951078,-0.44752486405223607,-1.2958736312583088
1667824822883329500,10.81632958984375,0.9407458958745002,0.10019581972062587,-2.274605851177871
1667824822893337600,10.826337646484374,-1.1972007833212612,0.7556675608992576,-3.159135062050819
1667824822903344600,10.8363447265625,-1.792462678208947,0.7330296126335859,-3.5659780793637035
1667824822913352700,10.846352783203125,0.6341086351543664,0.4808408581987023,-2.150673912691325
1667824822923360800,10.85636083984375,2.3582857126444576,0.7244833180844783,-0.9973409126691519
1667824822933367800,10.866367919921874,1.6828420275390148,1.2489034980297087,-0.560989184538275
1667824822943376000,10.8763759765625,0.4894879827737808,1.3165583996295929,-0.41241614127010107
1667824822953383700,10.8863837890625,-0.22796645958721637,0.8786682098850608,-0.3092985888838768
1667824822963390700,10.896390625,0.17815058153867722,0.464809760852158,-0.06597761603742837
1667824822973398800,10.906398681640624,0.6914356194853782,0.4579150329023599,0.19893223441317676
1667824822983405800,10.91640576171875,0.6798603325039148,0.4031774805426597,0.6432774455159902
1667824822993413600,10.92641357421875,0.2153209130257368,-0.13201777591705322,0.48682577782720327
1667824823003421700,10.936421630859375,-0.05483458299338817,-0.6968102982610463,-0.2670996155798435
1667824823013428700,10.9464287109375,-0.7730658549457788,-0.9085542295828462,-0.24596476535350084
1667824823023436800,10.956436767578126,-0.39554362466335297,-0.5137126157090067,1.2927040613114833
1667824823033444600,10.966444580078125,0.10320260032117366,-0.8261307979181408,1.8906763842016456
1667824823043452000,10.976451904296875,-0.34880583888590333,-2.3884432427600024,1.4974723084017634
1667824823053459700,10.986459716796874,-1.769333147034049,-2.791585651989281,-0.17232494412511587
1667824823063467800,10.9964677734375,-2.71565362817049,-1.6497596960179506,-1.6809049219965935
1667824823073474600,11.006474609375,-3.0018980892032383,0.15793050806969403,-1.6582098367162048
1667824823083482600,11.016482666015625,-3.1435727512598035,1.8746198601529,-1.2449312333978713
1667824823093489700,11.02648974609375,-2.738224356418848,3.2886504997581243,-1.2819352684073149
1667824823103497700,11.036497802734376,-1.3512053501188754,4.41590505567193,-1.38847373515293
1667824823113504800,11.0465048828125,0.12000643560588359,4.900627723740041,-1.32363169901669
1667824823123511800,11.05651171875,0.9588058687001466,4.639368358621001,-1.2390303387910127
1667824823133520000,11.066519775390624,1.0832628539741038,3.6120308054864405,-0.8558142807811498
1667824823143527700,11.076527587890626,0.4248971449196338,1.5309325333245098,-0.8256747247137128
1667824823153535000,11.086534912109375,-0.3002110270649195,-0.6202671568065882,-0.5978524228375405
1667824823163542800,11.096542724609375,-1.00038934045434,-1.8682225603312252,-0.010501301074400544
1667824823173550800,11.10655078125,-1.5744178931772708,-2.176422832584381,0.4040811513841152
1667824823183557600,11.1165576171875,-1.7402087593585251,-1.8083163731619714,0.598108370359987
1667824823193566000,11.12656591796875,-1.929820646110177,-1.4114365314587949,0.7643393815241754
1667824823203574000,11.136573974609375,-2.5371944190740585,-1.222112521737814,0.9768754861369728
1667824823213580800,11.146580810546874,-2.2580928155332805,-1.1547669783480465,0.6541499910555779
1667824823223588900,11.1565888671875,-1.4398936873972414,-0.8961043517239391,-0.0988593104198575
1667824823233596000,11.166595947265625,-0.829399736586213,-0.40904871066361664,-0.7887211047172545
1667824823243604000,11.17660400390625,-0.48474867929220194,0.00037087913900613783,-1.0020759783670306
1667824823253611800,11.18661181640625,-0.3143213854819536,0.13086144548878073,-1.016193351046741
1667824823263619000,11.196619140625,-0.28831834469735623,0.07692001194283365,-1.0261853143595159
1667824823273627000,11.206626953125,-0.19704934327602386,-0.029680998644977807,-0.9573539163261652
1667824823283635000,11.216635009765625,-0.12774141377210615,-0.11922814470976591,-0.8179089130178093
1667824823293641700,11.226641845703124,-0.17244272528588772,-0.1400425308100879,-0.7188727847263217
1667824823303649800,11.23664990234375,-0.14559388132691384,-0.14558335993289948,-0.7745728985078633
1667824823313657900,11.246657958984375,0.019916998869180677,-0.18120982297882438,-0.8294983015898615
1667824823323665000,11.256664794921875,0.09493804532289504,-0.20803367862701413,-0.8532131583720445
1667824823333672700,11.266672607421874,0.14015139801204204,-0.3169185623683035,-0.7924366911742836
1667824823343680000,11.276679931640626,0.24343173974454402,-0.4478315919138491,-0.6887496683370321
1667824823353687800,11.286687744140625,0.31898294755220413,-0.529747512447834,-0.6260817613694817
1667824823363695900,11.29669580078125,0.5865647936910391,-0.5262696072041988,-0.63891822739318
1667824823373702700,11.30670263671875,0.7967337307810783,-0.534922869259119,-0.6667074940074235
1667824823383711000,11.3167109375,0.6968623207092285,-0.5770952468171715,-0.6166117761041968
1667824823393718800,11.32671875,0.6360410645216703,-0.7528513344347476,-0.5052979116503149
1667824823403725800,11.336725830078125,0.6278928293794394,-1.0154290886759758,-0.5063357302654534
1667824823413733600,11.346733642578124,1.125876253297925,-0.9544336449652909,-0.7200492811597883
1667824823423741700,11.35674169921875,2.221234618735313,-0.6529112430408597,-0.5971124911904334
1667824823433748700,11.366748779296875,-0.6649415803134441,-1.0061071335792542,-0.29946050095856186
1667824823443756800,11.3767568359375,-0.6179138716787099,-1.6294401076972485,-0.27328765656501053
1667824823453764900,11.386764892578125,-0.011625555863976478,-1.7961118483662604,-0.5617174988128244
1667824823463772000,11.39677197265625,-0.08400514789819717,-1.5072639268368482,-0.7590932975642383
1667824823473780000,11.406780029296876,-0.02211538569629192,-1.33752636885643,-1.0523962988063693
1667824823483786800,11.416786865234375,0.12041267831921577,-0.9064613489568233,-1.1118686246030032
