time,seconds_elapsed,z,y,x
1667824785128392200,0.01139208984375,-0.2667102515697479,-0.4755028784275055,-0.3019563853740692
1667824785138400000,0.02139990234375,-0.28305166959762573,-0.5449019074440002,-0.30167356133461
1667824785148407300,0.0314072265625,-0.270143061876297,-0.634878396987915,-0.2898472547531128
1667824785158415000,0.0414150390625,-0.236125186085701,-0.7210681438446045,-0.28774788975715637
1667824785168423200,0.051423095703125,-0.1903478354215622,-0.8091082572937012,-0.2980322241783142
1667824785178430200,0.06143017578125,-0.14876684546470642,-0.9604165554046631,-0.33402565121650696
1667824785188438300,0.071438232421875,-0.12190646678209305,-1.1727501153945923,-0.3975047469139099
1667824785198446000,0.081446044921875,-0.10534080117940903,-1.430165410041809,-0.48954838514328003
1667824785208453000,0.091453125,-0.10452534258365631,-1.6808679103851318,-0.5950084924697876
1667824785218461000,0.1014609375,-0.12430810183286667,-1.9277925491333008,-0.6790112853050232
1667824785228469200,0.11146923828125,-0.16215534508228302,-2.1920595169067383,-0.744560718536377
1667824785238476000,0.12147607421875,-0.21740210056304932,-2.429558753967285,-0.7955301403999329
1667824785248484000,0.131484130859375,-0.2935043275356293,-2.566592216491699,-0.8405141234397888
1667824785258491100,0.1414912109375,-0.3661670684814453,-2.6190497875213623,-0.8879045844078064
1667824785268499200,0.151499267578125,-0.40552085638046265,-2.5768790245056152,-0.9170643091201782
1667824785278507300,0.16150732421875,-0.4371674656867981,-2.4721062183380127,-0.9140858054161072
1667824785288514000,0.17151416015625,-0.43772515654563904,-2.326699733734131,-0.8879902958869934
1667824785298522000,0.181522216796875,-0.42864590883255005,-2.0935897827148438,-0.8318594098091125
1667824785308530200,0.1915302734375,-0.3167683482170105,-1.9032922983169556,-0.7671741247177124
1667824785318537200,0.201537109375,-0.11482884734869003,-1.8562440872192383,-0.7216109037399292
1667824785328545000,0.211544921875,0.10460763424634933,-1.8846479654312134,-0.6588847041130066
1667824785338553000,0.221552978515625,0.3020235002040863,-1.7934051752090454,-0.5901037454605103
1667824785348560100,0.23156005859375,0.464625746011734,-1.3282334804534912,-0.576974630355835
1667824785358568200,0.241568115234375,0.5699306130409241,-0.5414243936538696,-0.6435390114784241
1667824785368576000,0.251575927734375,0.5127235054969788,0.27872031927108765,-0.8013222813606262
1667824785378583300,0.261583251953125,0.43440043926239014,1.0246360301971436,-1.0094118118286133
1667824785388591000,0.271591064453125,0.3491649031639099,1.71866774559021,-1.1340304613113403
1667824785398598100,0.28159814453125,0.14064233005046844,2.3813116550445557,-1.054720163345337
1667824785408606000,0.29160595703125,-0.13461773097515106,3.004209041595459,-0.84707111120224
1667824785418614300,0.3016142578125,-0.06588047742843628,3.37357759475708,-0.7104014158248901
1667824785428621000,0.31162109375,0.37003716826438904,3.3845269680023193,-0.6042089462280273
1667824785438629000,0.321629150390625,0.8264521360397339,2.962778091430664,-0.4653346538543701
1667824785448637000,0.331636962890625,0.879194438457489,2.2296574115753174,-0.12122975289821625
1667824785458644200,0.341644287109375,0.7231858968734741,1.397740125656128,0.2941184341907501
1667824785468652000,0.351652099609375,0.5958399176597595,0.1711464524269104,0.6053202748298645
1667824785478660000,0.36166015625,0.4230540692806244,-1.1065032482147217,0.9424953460693359
1667824785488667100,0.371667236328125,0.2196442037820816,-2.3171615600585938,1.3017678260803223
1667824785498675200,0.38167529296875,0.031739287078380585,-3.4427051544189453,1.6674717664718628
1667824785508683300,0.391683349609375,-0.11726777255535126,-4.417060852050781,2.0289692878723145
1667824785518690000,0.40168994140625,-0.1523623764514923,-2.4624104499816895,1.6534693241119385
1667824785528698000,0.411697998046875,-0.27170073986053467,1.8263732194900513,0.7761183977127075
1667824785538706200,0.4217060546875,-0.38516685366630554,2.4687979221343994,0.8154058456420898
1667824785548713200,0.431713134765625,-0.4493546485900879,1.7573174238204956,0.9028099775314331
1667824785558721000,0.441720947265625,-0.6681884527206421,0.8402129411697388,0.8283560276031494
1667824785568728300,0.451728271484375,-0.9859578609466553,0.7792321443557739,0.6222023367881775
1667824785578736000,0.461736083984375,-1.3578022718429565,0.729758083820343,0.45887917280197144
1667824785588744200,0.471744140625,-1.6818927526474,0.5341930985450745,0.34186413884162903
1667824785598751000,0.4817509765625,-1.8754358291625977,0.20744533836841583,0.26026061177253723
1667824785608759000,0.491759033203125,-1.9286478757858276,-0.0318111926317215,0.21868041157722473
1667824785618767000,0.50176708984375,-1.884732961654663,-0.05715037137269974,0.2081686407327652
1667824785628774100,0.511774169921875,-1.7919814586639404,0.028504345566034317,0.23109659552574158
1667824785638782000,0.521781982421875,-1.7083549499511719,0.13999785482883453,0.2801315188407898
1667824785648790000,0.5317900390625,-1.6570382118225098,0.30006447434425354,0.32586705684661865
1667824785658797000,0.541797119140625,-1.7441446781158447,0.5448145866394043,0.3444625735282898
1667824785668805000,0.55180517578125,-1.9192837476730347,0.8239260911941528,0.32550087571144104
1667824785678813200,0.561813232421875,-2.016364574432373,1.0312433242797852,0.24595704674720764
1667824785688820200,0.5718203125,-2.0948479175567627,1.1139065027236938,0.19965451955795288
1667824785698828300,0.581828369140625,-2.0388591289520264,0.954584002494812,0.1937662661075592
1667824785708835000,0.5918349609375,-1.9264596700668335,0.8434146046638489,0.1640099734067917
1667824785718843100,0.601843017578125,-1.8140411376953125,0.7653301954269409,0.11797697097063065
1667824785728851200,0.611851318359375,-1.701012372970581,0.593258261680603,0.08664674311876297
1667824785738858200,0.621858154296875,-1.627483606338501,0.3996608555316925,0.07079268246889114
1667824785748866000,0.631865966796875,-1.5247939825057983,0.18798135221004486,0.06537048518657684
1667824785758874000,0.6418740234375,-1.3735802173614502,0.05999755859375,0.051717787981033325
1667824785768881200,0.651881103515625,-1.2100714445114136,0.06884963810443878,0.03900572285056114
1667824785778889200,0.66188916015625,-1.059413194656372,0.1782621443271637,0.027846811339259148
1667824785788897000,0.67189697265625,-0.9149050116539001,0.3355604112148285,-0.004009921569377184
1667824785798904000,0.681904052734375,-0.7676407098770142,0.5029281377792358,-0.06267829239368439
1667824785808912100,0.691912109375,-0.6375370621681213,0.6642988920211792,-0.15002651512622833
1667824785818919200,0.701919189453125,-0.5152868032455444,0.7793629169464111,-0.2438534051179886
1667824785828927000,0.711927001953125,-0.41727951169013977,0.8453783988952637,-0.34251606464385986
1667824785838935000,0.72193505859375,-0.3500933051109314,0.8670336604118347,-0.43731048703193665
1667824785848942000,0.731942138671875,-0.31313368678092957,0.7900288701057434,-0.5290675759315491
1667824785858950100,0.7419501953125,-0.3152788579463959,0.6171990036964417,-0.6164448261260986
1667824785868958200,0.751958251953125,-0.3476322591304779,0.4086519479751587,-0.6854987144470215
1667824785878965200,0.76196533203125,-0.4002203643321991,0.19987423717975616,-0.741934061050415
1667824785888973300,0.771973388671875,-0.4704388678073883,-0.03790610283613205,-0.7652359008789062
1667824785898981000,0.781981201171875,-0.5342860221862793,-0.23466816544532776,-0.7417113780975342
1667824785908988200,0.79198828125,-0.5563689470291138,-0.3437137007713318,-0.6719991564750671
1667824785918996000,0.801995849609375,-0.5237753391265869,-0.3594742715358734,-0.5656055808067322
1667824785929004300,0.81200439453125,-0.44301897287368774,-0.30359530448913574,-0.4155080020427704
1667824785939011000,0.822010986328125,-0.3538193106651306,-0.21156737208366394,-0.22963079810142517
1667824785949019100,0.83201904296875,-0.27381742000579834,-0.0937667042016983,-0.03539474308490753
1667824785959026200,0.842026123046875,-0.19278490543365479,0.04725166782736778,0.15571290254592896
1667824785969034200,0.8520341796875,-0.1121467798948288,0.17732392251491547,0.3263200521469116
1667824785979042000,0.8620419921875,-0.03999748453497887,0.3180040717124939,0.4590751826763153
1667824785989049000,0.872049072265625,0.012189288623631,0.4540700316429138,0.5583964586257935
1667824785999057200,0.88205712890625,0.031321436166763306,0.5189273357391357,0.6279997229576111
1667824786009065200,0.892065185546875,0.014482802711427212,0.5155459046363831,0.6693695783615112
1667824786019072000,0.902072021484375,-0.033849041908979416,0.48124706745147705,0.6914106607437134
1667824786029080000,0.912080078125,-0.09309718757867813,0.4381027817726135,0.6816747188568115
1667824786039088000,0.922088134765625,-0.1341487467288971,0.3753344714641571,0.654222309589386
1667824786049095200,0.93209521484375,-0.1634930521249771,0.2887527048587799,0.613430380821228
1667824786059103000,0.94210302734375,-0.18405239284038544,0.2124672532081604,0.5520259141921997
1667824786069111000,0.952111083984375,-0.17356114089488983,0.13520017266273499,0.5041302442550659
1667824786079118300,0.962118408203125,-0.0895695611834526,-0.002975017298012972,0.4943751096725464
1667824786089126400,0.97212646484375,-0.007558317389339209,-0.08077340573072433,0.5355539917945862
1667824786099133200,0.98213330078125,0.0716872364282608,-0.14673617482185364,0.5764337778091431
1667824786109141200,0.992141357421875,0.12195839732885361,-0.1827826052904129,0.600883424282074
1667824786119149300,1.0021494140625,0.1653846949338913,-0.20913910865783691,0.6188632249832153
1667824786129156400,1.01215625,0.22755353152751923,-0.19355721771717072,0.6158298850059509
1667824786139164200,1.0221640625,0.31275683641433716,-0.14268817007541656,0.5914832949638367
1667824786149172200,1.032172119140625,0.3787880539894104,-0.04673821106553078,0.5362493395805359
1667824786159179300,1.04217919921875,0.38168105483055115,0.049486059695482254,0.46624892950057983
1667824786169187300,1.052187255859375,0.33338063955307007,0.07462470233440399,0.3912535011768341
1667824786179195400,1.0621953125,0.2490074187517166,0.04545217007398605,0.30516764521598816
1667824786189202400,1.072202392578125,0.15459756553173065,-0.01483700331300497,0.19675540924072266
1667824786199210500,1.08221044921875,0.05463528260588646,-0.09190116077661514,0.07918856292963028
1667824786209218300,1.09221826171875,-0.03068147972226143,-0.14269083738327026,-0.0409061536192894
1667824786219225300,1.102225341796875,-0.09549056738615036,-0.17805442214012146,-0.17339442670345306
1667824786229233200,1.112233154296875,-0.13209359347820282,-0.28383758664131165,-0.3037460446357727
1667824786239240400,1.122240478515625,-0.13299560546875,-0.2909735143184662,-0.3875000476837158
1667824786249248300,1.132248291015625,-0.08394869416952133,-0.1959569901227951,-0.41236412525177
1667824786259256300,1.14225634765625,0.008533034473657608,-0.07474188506603241,-0.4284634590148926
1667824786269263400,1.152263427734375,0.11013555526733398,0.09362262487411499,-0.4631953537464142
1667824786279271400,1.162271484375,0.2039177119731903,0.26246997714042664,-0.509269118309021
1667824786289279200,1.172279296875,0.31450173258781433,0.30751892924308777,-0.5410177111625671
1667824786299286300,1.182286376953125,0.4052566885948181,0.20601122081279755,-0.49415192008018494
1667824786309294300,1.19229443359375,0.46407604217529297,-0.017542507499456406,-0.37753212451934814
1667824786319302400,1.202302490234375,0.5111863017082214,-0.22827178239822388,-0.24907186627388
1667824786329309200,1.21230908203125,0.5275349020957947,-0.3308255970478058,-0.12951990962028503
1667824786339317200,1.222317138671875,0.5072504281997681,-0.36789652705192566,-0.016938770189881325
1667824786349325000,1.232324951171875,0.46202728152275085,-0.3730606734752655,0.07201773673295975
1667824786359332400,1.242332275390625,0.41525259613990784,-0.3056209087371826,0.10157962143421173
1667824786369340200,1.252340087890625,0.3762809634208679,-0.17997829616069794,0.0788455456495285
1667824786379347200,1.26234716796875,0.3381125330924988,-0.03260374814271927,0.04446706548333168
1667824786389355300,1.272355224609375,0.26854491233825684,0.13163845241069794,0.017308415845036507
1667824786399363300,1.28236328125,0.1786070317029953,0.26204973459243774,0.01575472764670849
1667824786409370000,1.2923701171875,0.09650470316410065,0.368770033121109,0.04265238717198372
1667824786419378200,1.302378173828125,0.031000792980194092,0.46702152490615845,0.0859130397439003
1667824786429386500,1.312386474609375,-0.026066487655043602,0.5478713512420654,0.13259638845920563
1667824786439393300,1.322393310546875,-0.07766257226467133,0.5896992087364197,0.1631215512752533
1667824786449401300,1.3324013671875,-0.1398516446352005,0.5874355435371399,0.14709649980068207
1667824786459409200,1.3424091796875,-0.20195309817790985,0.4340856671333313,0.1589646190404892
1667824786469416400,1.35241650390625,-0.2880003750324249,0.1322816014289856,0.23043081164360046
1667824786479424300,1.36242431640625,-0.39239442348480225,-0.12994840741157532,0.2969227433204651
1667824786489431300,1.372431396484375,-0.4800313115119934,-0.22542139887809753,0.3163326680660248
1667824786499439400,1.382439453125,-0.535055935382843,-0.18158283829689026,0.29595947265625
1667824786509447400,1.392447509765625,-0.5768438577651978,-0.04898431897163391,0.24884124100208282
1667824786519454200,1.4024541015625,-0.6136719584465027,0.11868111044168472,0.17149105668067932
1667824786529462300,1.412462158203125,-0.6541314721107483,0.25787389278411865,0.05872296914458275
1667824786539470000,1.422469970703125,-0.6819378137588501,0.31815001368522644,-0.048587244004011154
1667824786549477400,1.432477294921875,-0.7025957107543945,0.33373937010765076,-0.1366201639175415
1667824786559485200,1.442485107421875,-0.7135007977485657,0.3420087397098541,-0.2287048101425171
1667824786569493200,1.4524931640625,-0.7025861144065857,0.367196649312973,-0.34045398235321045
1667824786579500300,1.462500244140625,-0.693305253982544,0.4164036214351654,-0.49087199568748474
1667824786589508400,1.47250830078125,-0.6891571283340454,0.4796808362007141,-0.6591328978538513
1667824786599516400,1.482516357421875,-0.6890282034873962,0.553139865398407,-0.8355806469917297
1667824786609523200,1.492523193359375,-0.6631579995155334,0.5757384300231934,-0.9491308927536011
1667824786619531500,1.502531494140625,-0.6226028203964233,0.4906959533691406,-0.9618195295333862
1667824786629538300,1.512538330078125,-0.5620830655097961,0.37640345096588135,-0.895789623260498
1667824786639546400,1.52254638671875,-0.4837892949581146,0.2783152461051941,-0.7789152264595032
1667824786649554200,1.53255419921875,-0.4004744291305542,0.1504952311515808,-0.6130732893943787
1667824786659561500,1.5425615234375,-0.3272833228111267,-0.0012282498646527529,-0.4341927170753479
1667824786669569300,1.5525693359375,-0.28746533393859863,-0.13766704499721527,-0.28845202922821045
1667824786679577300,1.562577392578125,-0.25380778312683105,-0.23112855851650238,-0.18317727744579315
1667824786689584000,1.572584228515625,-0.2187509834766388,-0.2637102007865906,-0.10146670043468475
1667824786699592400,1.582592529296875,-0.14036856591701508,-0.199945867061615,0.011329620145261288
1667824786709600300,1.592600341796875,-0.027057450264692307,-0.0364735871553421,0.17188866436481476
1667824786719607300,1.602607177734375,0.07260682433843613,0.19946517050266266,0.32496902346611023
1667824786729615000,1.612614990234375,0.13836799561977386,0.35947614908218384,0.44458597898483276
1667824786739623400,1.62262353515625,0.16280941665172577,0.42223700881004333,0.5350705981254578
1667824786749630200,1.632630126953125,0.16491545736789703,0.4078647196292877,0.566809892654419
1667824786759638300,1.64263818359375,0.15293441712856293,0.3397495746612549,0.5247148871421814
1667824786769646300,1.652646240234375,0.13786253333091736,0.24416713416576385,0.4539427161216736
1667824786779653400,1.6626533203125,0.1184704527258873,0.11201468855142593,0.42284128069877625
1667824786789661400,1.672661376953125,0.08237077295780182,0.04918219521641731,0.45298078656196594
1667824786799668200,1.682668212890625,0.023861125111579895,0.24546116590499878,0.5202756524085999
1667824786809676300,1.69267626953125,-0.008319182321429253,0.5305253863334656,0.5946042537689209
1667824786819684400,1.702684326171875,-0.05432981625199318,0.5324423313140869,0.6448431611061096
1667824786829691100,1.712691162109375,-0.20497311651706696,0.314632773399353,0.6313840746879578
1667824786839699200,1.72269921875,-0.45339465141296387,0.15865515172481537,0.5245425701141357
1667824786849707300,1.732707275390625,-0.6985093355178833,0.10235752910375595,0.33240216970443726
1667824786859714300,1.74271435546875,-0.8998445868492126,-0.031007982790470123,0.11506161093711853
1667824786869722400,1.752722412109375,-1.0781499147415161,-0.35682550072669983,-0.08424270898103714
1667824786879730200,1.762730224609375,-1.2650156021118164,-0.6924527883529663,-0.21001102030277252
1667824786889737500,1.772737548828125,-1.3441439867019653,-0.8335409164428711,-0.2294398546218872
1667824786899745300,1.782745361328125,-1.2262109518051147,-0.983799397945404,-0.1939724087715149
1667824786909753300,1.79275341796875,-0.9994281530380249,-1.084304928779602,-0.10145791620016098
1667824786919760100,1.802760009765625,-0.7667427062988281,-1.1284894943237305,0.042758915573358536
1667824786929768400,1.8127685546875,-0.5514647364616394,-1.1191474199295044,0.22291244566440582
1667824786939775200,1.822775146484375,-0.3489004671573639,-1.057021141052246,0.41279715299606323
1667824786949783300,1.832783203125,-0.16455937922000885,-0.9303641319274902,0.5811083912849426
1667824786959791000,1.842791015625,-0.02610856667160988,-0.7388916611671448,0.722886860370636
1667824786969798400,1.85279833984375,0.05306561663746834,-0.5223169922828674,0.8403317332267761
1667824786979806200,1.86280615234375,0.07504601776599884,-0.3405032455921173,0.9504166841506958
1667824786989814300,1.872814208984375,0.05410158634185791,-0.2221023142337799,1.0740208625793457
1667824786999821300,1.8828212890625,0.018507104367017746,-0.1309249997138977,1.1945856809616089
1667824787009829400,1.892829345703125,0.00455879932269454,0.023813188076019287,1.279462218284607
1667824787019837400,1.90283740234375,0.06981822848320007,0.26232588291168213,1.2934826612472534
1667824787029844200,1.91284423828125,0.1767505407333374,0.4600914418697357,1.252879023551941
1667824787039852300,1.922852294921875,0.2679715156555176,0.44238460063934326,1.1704843044281006
1667824787049860400,1.9328603515625,0.34323832392692566,0.3138207793235779,1.066737413406372
1667824787059867400,1.942867431640625,0.43695974349975586,0.20275551080703735,0.9523133635520935
1667824787069875200,1.952875244140625,0.5457826256752014,0.21439644694328308,0.8454681634902954
1667824787079882000,1.962882080078125,0.6556436419487,0.27489495277404785,0.7398274540901184
1667824787089889800,1.972889892578125,0.7565209865570068,0.29342201352119446,0.6365663409233093
1667824787099897900,1.98289794921875,0.8476298451423645,0.24539270997047424,0.5440286993980408
1667824787109904600,1.992904541015625,0.9143513441085815,0.16078035533428192,0.45735079050064087
1667824787119913000,2.002912841796875,0.9493010640144348,0.04434536024928093,0.37768125534057617
1667824787129920800,2.012920654296875,0.9736455678939819,-0.025318140164017677,0.3039580285549164
1667824787139927800,2.022927734375,1.0163301229476929,-0.022059496492147446,0.2235228419303894
1667824787149935600,2.032935546875,1.0821655988693237,0.08968647569417953,0.12033546715974808
1667824787159944000,2.04294384765625,1.134264588356018,0.19764968752861023,0.01684822142124176
1667824787169950700,2.05295068359375,1.1130388975143433,0.25295236706733704,-0.08672397583723068
1667824787179958800,2.062958740234375,1.0166159868240356,0.29323214292526245,-0.19951550662517548
1667824787189966600,2.072966552734375,0.8984972834587097,0.3578619956970215,-0.3184370994567871
1667824787199974000,2.082973876953125,0.79424649477005,0.436644971370697,-0.43941837549209595
1667824787209981700,2.092981689453125,0.7245172262191772,0.5367276072502136,-0.5850344300270081
1667824787219989800,2.10298974609375,0.6629622578620911,0.6609435677528381,-0.7470664978027344
1667824787229996800,2.112996826171875,0.5638319253921509,0.7829067707061768,-0.8922548294067383
1667824787240004900,2.1230048828125,0.4442400336265564,0.8749338984489441,-1.0219630002975464
1667824787250011600,2.13301171875,0.33475348353385925,0.9833540916442871,-1.1392574310302734
1667824787260019700,2.143019775390625,0.2477131336927414,1.0961462259292603,-1.2589774131774902
1667824787270027800,2.15302783203125,0.17305859923362732,1.159630298614502,-1.3550690412521362
1667824787280034800,2.163034912109375,0.09870953112840652,1.1174660921096802,-1.4140492677688599
1667824787290043000,2.17304296875,0.014306501485407352,0.9535040855407715,-1.4438210725784302
1667824787300050700,2.18305078125,-0.06610498577356339,0.7740525603294373,-1.420989751815796
1667824787310058000,2.19305810546875,-0.13214099407196045,0.6579733490943909,-1.350241780281067
1667824787320065800,2.203065673828125,-0.1574287712574005,0.6370944380760193,-1.2700951099395752
1667824787330073900,2.213073974609375,-0.14629410207271576,0.6913358569145203,-1.1865426301956177
1667824787340080600,2.22308056640625,-0.11720065772533417,0.7843310236930847,-1.1194571256637573
1667824787350089000,2.2330888671875,-0.10249841213226318,0.8682693243026733,-1.069280982017517
1667824787360095700,2.243095703125,-0.09934922307729721,0.8317224979400635,-0.9886250495910645
1667824787370103800,2.253103759765625,-0.09941446781158447,0.7111455202102661,-0.8418601155281067
1667824787380111600,2.263111572265625,-0.0625067874789238,0.6344515085220337,-0.679323673248291
1667824787390119000,2.273118896484375,0.04502526670694351,0.6286921501159668,-0.5327296853065491
1667824787400126700,2.283126708984375,0.182646244764328,0.6552731990814209,-0.38791391253471375
1667824787410134800,2.293134765625,0.3110004961490631,0.6527999043464661,-0.2622925937175751
1667824787420141800,2.303141845703125,0.4097805917263031,0.6274122595787048,-0.1927441507577896
1667824787430150000,2.31314990234375,0.49879008531570435,0.6050238609313965,-0.18603645265102386
1667824787440158000,2.323157958984375,0.5728885531425476,0.5351758003234863,-0.17641498148441315
1667824787450164700,2.333164794921875,0.6093754768371582,0.3675742745399475,-0.11881719529628754
1667824787460172800,2.3431728515625,0.627399742603302,0.18182146549224854,-0.03073900379240513
1667824787470180900,2.353180908203125,0.6512805819511414,0.06266311556100845,0.061644721776247025
1667824787480188000,2.36318798828125,0.6848086714744568,0.016687899827957153,0.1368587762117386
1667824787490195700,2.37319580078125,0.7151064276695251,0.005708485841751099,0.1743592917919159
1667824787500203000,2.383203125,0.744335412979126,0.0026852653827518225,0.15111415088176727
1667824787510210800,2.3932109375,0.7742879986763,0.015788815915584564,0.08522701263427734
1667824787520219000,2.403218994140625,0.7924606204032898,0.01022973470389843,0.003893807763233781
1667824787530225700,2.4132255859375,0.7886053919792175,-0.05101285129785538,-0.04117833077907562
1667824787540233700,2.423233642578125,0.7551758289337158,-0.1724090576171875,-0.031096667051315308
1667824787550241800,2.43324169921875,0.7132821679115295,-0.3286372721195221,0.04697869345545769
1667824787560248800,2.443248779296875,0.679629921913147,-0.505916178226471,0.18023395538330078
1667824787570256600,2.453256591796875,0.6488720178604126,-0.6631737351417542,0.31329241394996643
1667824787580264700,2.4632646484375,0.6089853048324585,-0.7612478137016296,0.39945363998413086
1667824787590271700,2.473271728515625,0.564276933670044,-0.7820108532905579,0.41961270570755005
1667824787600279800,2.48327978515625,0.49750378727912903,-0.7386767268180847,0.38594451546669006
1667824787610287900,2.493287841796875,0.4157836139202118,-0.6542263031005859,0.32103875279426575
1667824787620295000,2.503294921875,0.32375970482826233,-0.49323686957359314,0.2513275742530823
1667824787630303000,2.513302978515625,0.21333038806915283,-0.2561976909637451,0.16039979457855225
1667824787640310800,2.523310791015625,0.09335258603096008,0.03530552610754967,0.04031120240688324
1667824787650317800,2.53331787109375,-0.0435677170753479,0.27662813663482666,-0.11079735308885574
1667824787660326000,2.543325927734375,-0.18781410157680511,0.40403270721435547,-0.27101579308509827
1667824787670333000,2.5533330078125,-0.34608790278434753,0.46253836154937744,-0.4426594376564026
1667824787680340700,2.5633408203125,-0.5244986414909363,0.40292879939079285,-0.602592408657074
1667824787690348800,2.573348876953125,-0.7118152976036072,0.13090021908283234,-0.681867778301239
1667824787700355800,2.58335595703125,-0.8779169321060181,-0.2408245950937271,-0.6442623138427734
1667824787710364000,2.593364013671875,-0.9960390329360962,-0.5209143161773682,-0.49499136209487915
1667824787720371700,2.603371826171875,-1.059361219406128,-0.6387120485305786,-0.28069478273391724
1667824787730378800,2.613378662109375,-1.0898531675338745,-0.597898542881012,-0.049072470515966415
1667824787740386800,2.62338671875,-1.094381332397461,-0.4284552037715912,0.15135569870471954
1667824787750395000,2.633394775390625,-1.0615527629852295,-0.18282653391361237,0.3028309643268585
1667824787760401700,2.643401611328125,-0.987845778465271,0.09424900263547897,0.4060196876525879
1667824787770409700,2.65340966796875,-0.8771898746490479,0.3439520597457886,0.4749705195426941
1667824787780417800,2.663417724609375,-0.7538492679595947,0.5502258539199829,0.4976033866405487
1667824787790424800,2.6734248046875,-0.638163685798645,0.6498395204544067,0.45630842447280884
1667824787800432600,2.6834326171875,-0.5462194085121155,0.6434428691864014,0.3631393313407898
1667824787810440000,2.69343994140625,-0.48529931902885437,0.5363878011703491,0.2188311517238617
1667824787820447700,2.70344775390625,-0.46435490250587463,0.35123446583747864,0.05242565646767616
1667824787830455800,2.713455810546875,-0.48089444637298584,0.15410993993282318,-0.11320804804563522
1667824787840462600,2.723462646484375,-0.5242933034896851,-0.022303974255919456,-0.26388970017433167
1667824787850470700,2.733470703125,-0.5843550562858582,-0.16155719757080078,-0.37277090549468994
1667824787860479000,2.74347900390625,-0.6437579393386841,-0.26123932003974915,-0.4463130235671997
1667824787870485800,2.75348583984375,-0.6966671943664551,-0.3496165871620178,-0.4700348675251007
1667824787880493800,2.763493896484375,-0.7192143201828003,-0.47347596287727356,-0.4002358317375183
1667824787890501600,2.773501708984375,-0.7201642990112305,-0.5984221696853638,-0.23844292759895325
1667824787900509000,2.783509033203125,-0.688511312007904,-0.6612964272499084,-0.03572630509734154
1667824787910516700,2.793516845703125,-0.6259397864341736,-0.6632078289985657,0.16301634907722473
1667824787920524800,2.80352490234375,-0.5626625418663025,-0.6041663289070129,0.32722365856170654
1667824787930531800,2.81353173828125,-0.5149203538894653,-0.5094422101974487,0.4536774754524231
1667824787940540000,2.823539794921875,-0.47787123918533325,-0.368315190076828,0.540886402130127
1667824787950547700,2.833547607421875,-0.45280396938323975,-0.1925303041934967,0.607146143913269
1667824787960554800,2.8435546875,-0.4395158588886261,-0.029564283788204193,0.6505410075187683
1667824787970562800,2.853562744140625,-0.4463322162628174,0.10618849098682404,0.6492552161216736
1667824787980569900,2.86356982421875,-0.47043994069099426,0.22580569982528687,0.6192891001701355
1667824787990577700,2.87357763671875,-0.4877358376979828,0.2961086332798004,0.5647592544555664
1667824788000585700,2.883585693359375,-0.4880911111831665,0.2934739589691162,0.5033560991287231
1667824788010592800,2.8935927734375,-0.47329193353652954,0.22096380591392517,0.4247235953807831
1667824788020600800,2.903600830078125,-0.42742085456848145,0.07829107344150543,0.36587679386138916
1667824788030609000,2.91360888671875,-0.34748128056526184,-0.10466382652521133,0.33837565779685974
1667824788040615700,2.92361572265625,-0.235191211104393,-0.30256545543670654,0.329282283782959
1667824788050624000,2.9336240234375,-0.09774014353752136,-0.47208845615386963,0.3403165638446808
1667824788060631800,2.9436318359375,0.06316965073347092,-0.5943403244018555,0.3675660192966461
1667824788070638800,2.953638916015625,0.21897895634174347,-0.6822059750556946,0.4292408525943756
1667824788080647700,2.963647705078125,0.3538243770599365,-0.7704373002052307,0.5349417328834534
1667824788090655700,2.97365576171875,0.4527325928211212,-0.8522637486457825,0.6883221864700317
1667824788100662800,2.983662841796875,0.5096259713172913,-0.8740286827087402,0.8671990036964417
1667824788110670800,2.9936708984375,0.5418302416801453,-0.7993416786193848,1.0232163667678833
1667824788120678700,3.0036787109375,0.5792300701141357,-0.6252571940422058,1.1081857681274414
1667824788130685700,3.013685791015625,0.6169899702072144,-0.3641231060028076,1.0973289012908936
1667824788140693800,3.02369384765625,0.6500656604766846,-0.06498352438211441,0.9859728217124939
1667824788150700800,3.03370068359375,0.6738700270652771,0.20756730437278748,0.8021172285079956
1667824788160708600,3.04370849609375,0.6847130656242371,0.3855245113372803,0.5918454527854919
1667824788170716700,3.053716552734375,0.6918115019798279,0.46715494990348816,0.36880865693092346
1667824788180723700,3.0637236328125,0.7155793905258179,0.4643130898475647,0.17537182569503784
1667824788190731800,3.073731689453125,0.7319884896278381,0.3724079132080078,0.016034094616770744
1667824788200739800,3.08373974609375,0.7374519109725952,0.2191517949104309,-0.12002680450677872
1667824788210747000,3.093746826171875,0.7349794507026672,0.0352056585252285,-0.2334068864583969
1667824788220755000,3.1037548828125,0.7210769653320312,-0.12970207631587982,-0.3245682418346405
1667824788230762800,3.1137626953125,0.6933971047401428,-0.23491451144218445,-0.3923853635787964
1667824788240769800,3.123769775390625,0.64332115650177,-0.2736224830150604,-0.43439939618110657
1667824788250777600,3.133777587890625,0.575631856918335,-0.2377297431230545,-0.4645591676235199
1667824788260786000,3.143785888671875,0.48825889825820923,-0.1491660475730896,-0.4933766722679138
1667824788270792700,3.153792724609375,0.390958696603775,-0.025023328140378,-0.5209451913833618
1667824788280800800,3.16380078125,0.28421467542648315,0.13363368809223175,-0.5604705214500427
1667824788290807800,3.173807861328125,0.20334140956401825,0.2936971187591553,-0.6014424562454224
1667824788300816000,3.18381591796875,0.15146541595458984,0.41416895389556885,-0.6293179988861084
1667824788310823700,3.19382373046875,0.11672981083393097,0.4898892641067505,-0.6466472148895264
1667824788320830700,3.203830810546875,0.08418624848127365,0.5069652199745178,-0.6272697448730469
1667824788330838800,3.2138388671875,0.061528872698545456,0.4811330735683441,-0.5834205746650696
1667824788340846800,3.223846923828125,0.04923811927437782,0.41844359040260315,-0.5217955708503723
1667824788350853600,3.233853515625,0.028447886928915977,0.37463831901550293,-0.4645005762577057
1667824788360861700,3.24386181640625,-0.004491953644901514,0.356513649225235,-0.4183163046836853
1667824788370869800,3.253869873046875,-0.03837987780570984,0.34004971385002136,-0.35926923155784607
1667824788380876800,3.263876708984375,-0.0729604959487915,0.3332802355289459,-0.2906225025653839
1667824788390884600,3.273884521484375,-0.08872348070144653,0.31682801246643066,-0.19644807279109955
1667824788400892700,3.283892578125,-0.08977382630109787,0.2795770466327667,-0.06760753691196442
1667824788410899700,3.293899658203125,-0.06870822608470917,0.2836593985557556,0.0669340267777443
1667824788420907800,3.30390771484375,-0.013576528988778591,0.3240680992603302,0.17814071476459503
1667824788430915800,3.313915771484375,0.06391479820013046,0.3894851803779602,0.2653539180755615
1667824788440922600,3.323922607421875,0.14960546791553497,0.4988718628883362,0.3348184823989868
1667824788450931000,3.333930908203125,0.21174953877925873,0.6376968622207642,0.3593706786632538
1667824788460937700,3.343937744140625,0.2344316840171814,0.7649368047714233,0.3516291379928589
1667824788470945800,3.35394580078125,0.206180602312088,0.8486660718917847,0.3304879069328308
1667824788480953600,3.36395361328125,0.16171379387378693,0.8633459806442261,0.29546573758125305
1667824788490961000,3.3739609375,0.11877138912677765,0.8087258338928223,0.2411782592535019
1667824788500968700,3.38396875,0.08887900412082672,0.7161309123039246,0.15051227807998657
1667824788510976800,3.393976806640625,0.08101389557123184,0.5766100287437439,0.032763272523880005
1667824788520983800,3.40398388671875,0.11825260519981384,0.41340622305870056,-0.10194793343544006
1667824788530991900,3.413991943359375,0.19204241037368774,0.2691577076911926,-0.2591330409049988
1667824788540999700,3.423999755859375,0.30005037784576416,0.16013267636299133,-0.4316195845603943
1667824788551006700,3.4340068359375,0.42113763093948364,0.08854664117097855,-0.5943989157676697
1667824788561014500,3.4440146484375,0.5351784825325012,0.0363292470574379,-0.7285199761390686
1667824788571022800,3.45402294921875,0.6505529880523682,-0.016625581309199333,-0.7992894649505615
1667824788581029600,3.464029541015625,0.736189067363739,-0.09535954147577286,-0.7929868102073669
1667824788591037700,3.47403759765625,0.7985603213310242,-0.17058531939983368,-0.7365241050720215
1667824788601044700,3.484044677734375,0.8417977690696716,-0.22744832932949066,-0.667383074760437
1667824788611052800,3.494052734375,0.8719346523284912,-0.2935171127319336,-0.5881583094596863
1667824788621060900,3.504060791015625,0.8655691742897034,-0.39018771052360535,-0.5081819891929626
1667824788631067600,3.514067626953125,0.8260191082954407,-0.5025805830955505,-0.41239476203918457
1667824788641076000,3.524075927734375,0.7489551901817322,-0.6049687266349792,-0.3036339282989502
1667824788651083800,3.534083740234375,0.6614269614219666,-0.689119279384613,-0.1726444810628891
1667824788661090800,3.5440908203125,0.5826333165168762,-0.7515749335289001,-0.029564017429947853
1667824788671098600,3.5540986328125,0.5087798833847046,-0.7739593386650085,0.10879598557949066
1667824788681106700,3.564106689453125,0.44757965207099915,-0.7346084713935852,0.20992393791675568
1667824788691113700,3.57411376953125,0.3813406825065613,-0.6429312825202942,0.2744339406490326
1667824788701121800,3.584121826171875,0.2740568518638611,-0.4688449800014496,0.28704002499580383
1667824788711129600,3.594129638671875,0.08874451369047165,-0.20774413645267487,0.25214889645576477
1667824788721137000,3.604136962890625,-0.15930630266666412,0.10304036736488342,0.17804616689682007
1667824788731144700,3.614144775390625,-0.4114812910556793,0.4404008090496063,0.06946349889039993
1667824788741152800,3.62415283203125,-0.6105781197547913,0.7587271332740784,-0.06903259456157684
1667824788751159600,3.63415966796875,-0.7460361123085022,0.9564316868782043,-0.2394442856311798
1667824788761168000,3.64416796875,-0.813225269317627,0.9742476940155029,-0.43439698219299316
1667824788771176000,3.654176025390625,-0.8234864473342896,0.7539297342300415,-0.6365737915039062
1667824788781182700,3.6641826171875,-0.8008285164833069,0.33665338158607483,-0.7786931395530701
1667824788791190800,3.674190673828125,-0.7683035731315613,-0.16117504239082336,-0.8282524347305298
1667824788801197800,3.68419775390625,-0.7246823310852051,-0.6042142510414124,-0.7524260878562927
1667824788811206000,3.694205810546875,-0.6884625554084778,-0.915205717086792,-0.6032549738883972
1667824788821213700,3.704213623046875,-0.6745717525482178,-1.0717804431915283,-0.39429324865341187
1667824788831221000,3.714220947265625,-0.676270604133606,-1.1094995737075806,-0.16279157996177673
1667824788841228800,3.724228759765625,-0.688447117805481,-1.0267186164855957,0.07815764844417572
1667824788851236900,3.73423681640625,-0.711540699005127,-0.8322615623474121,0.3036070168018341
1667824788861243600,3.74424365234375,-0.7458525896072388,-0.5530378818511963,0.49462011456489563
1667824788871251700,3.754251708984375,-0.7713180184364319,-0.22652316093444824,0.6411957144737244
1667824788881259800,3.764259765625,-0.7603495121002197,0.10434664785861969,0.7434744238853455
1667824788891266800,3.774266845703125,-0.7187759876251221,0.4064934551715851,0.7922177314758301
1667824788901274600,3.784274658203125,-0.6587576866149902,0.6273302435874939,0.7860128283500671
1667824788911282700,3.79428271484375,-0.5999736785888672,0.7555702328681946,0.7297535538673401
1667824788921289700,3.804289794921875,-0.5623328685760498,0.7860074639320374,0.6358041167259216
1667824788931297800,3.8142978515625,-0.5561367273330688,0.7238471508026123,0.5329076051712036
1667824788941304600,3.8243046875,-0.5490220785140991,0.6121155619621277,0.4391685724258423
1667824788951313000,3.83431298828125,-0.5185840129852295,0.4910285770893097,0.3528051972389221
1667824788961320700,3.84432080078125,-0.4573984444141388,0.3657556176185608,0.27598869800567627
1667824788971327700,3.85432763671875,-0.38346749544143677,0.25556573271751404,0.18929269909858704
1667824788981335600,3.86433544921875,-0.2953709363937378,0.16190314292907715,0.08513060957193375
1667824788991343600,3.874343505859375,-0.1935974359512329,0.07916992157697678,-0.05103042721748352
1667824789001350700,3.8843505859375,-0.11256968975067139,-0.0083071980625391,-0.2244860976934433
1667824789011358700,3.894358642578125,-0.07467690110206604,-0.09840140491724014,-0.4099939167499542
1667824789021366800,3.90436669921875,-0.0801267921924591,-0.19955572485923767,-0.5719561576843262
1667824789031373800,3.914373779296875,-0.12548761069774628,-0.3225354254245758,-0.6847445368766785
1667824789041382000,3.9243818359375,-0.1962672472000122,-0.44947367906570435,-0.7402450442314148
1667824789051389700,3.9343896484375,-0.2718797028064728,-0.5591500997543335,-0.750612735748291
1667824789061396700,3.944396728515625,-0.3518943786621094,-0.644370436668396,-0.7134799957275391
1667824789071404800,3.95440478515625,-0.4260442554950714,-0.7012803554534912,-0.6297558546066284
1667824789081412900,3.964412841796875,-0.48916810750961304,-0.7361727952957153,-0.4931820034980774
1667824789091419400,3.97441943359375,-0.5158665776252747,-0.7368005514144897,-0.32493895292282104
1667824789101427200,3.98442724609375,-0.5114824771881104,-0.6873525381088257,-0.12463939934968948
1667824789111435500,3.994435546875,-0.4892770051956177,-0.5845265984535217,0.08967049419879913
1667824789121442300,4.0044423828125,-0.46246644854545593,-0.44119206070899963,0.3116612136363983
1667824789131450400,4.014450439453125,-0.44405972957611084,-0.25846749544143677,0.5156425833702087
1667824789141458200,4.024458251953125,-0.429324746131897,-0.0785432755947113,0.6848784685134888
1667824789151465500,4.034465576171875,-0.4053352475166321,0.05307919532060623,0.8076536655426025
1667824789161473300,4.044473388671875,-0.39282849431037903,0.12581464648246765,0.9121102690696716
1667824789171480300,4.054480224609375,-0.38902151584625244,0.13095003366470337,1.005043387413025
1667824789181488400,4.06448828125,-0.3709157407283783,0.08787179738283157,1.0853211879730225
1667824789191496400,4.074496337890625,-0.3435802757740021,0.01715475134551525,1.1392097473144531
1667824789201503200,4.084503173828125,-0.3136673867702484,-0.08841481804847717,1.172002911567688
1667824789211511300,4.09451123046875,-0.30567681789398193,-0.22544297575950623,1.1923943758010864
1667824789221519400,4.104519287109375,-0.3254779577255249,-0.35765135288238525,1.1983511447906494
1667824789231526400,4.1145263671875,-0.36819931864738464,-0.4518044888973236,1.2045179605484009
1667824789241534500,4.124534423828125,-0.4172323942184448,-0.502250611782074,1.2123132944107056
1667824789251542300,4.134542236328125,-0.4615977108478546,-0.49097132682800293,1.2156765460968018
1667824789261549600,4.144549560546875,-0.5134345293045044,-0.3997841477394104,1.2092649936676025
1667824789271557400,4.154557373046875,-0.5718219876289368,-0.23886317014694214,1.1929057836532593
1667824789281565400,4.1645654296875,-0.6259278059005737,-0.004670385736972094,1.1503982543945312
1667824789291572200,4.174572265625,-0.6554526686668396,0.2930033802986145,1.0537656545639038
1667824789301580500,4.18458056640625,-0.6373618245124817,0.5839739441871643,0.9147108793258667
1667824789311588400,4.19458837890625,-0.5608859658241272,0.8530983924865723,0.7344508171081543
1667824789321595400,4.204595458984375,-0.43688198924064636,1.0386892557144165,0.5403628349304199
1667824789331603200,4.214603271484375,-0.27606406807899475,1.0898264646530151,0.35326510667800903
1667824789341610500,4.224610595703125,-0.10975499451160431,0.9878993034362793,0.19374443590641022
1667824789351618300,4.234618408203125,0.0376104936003685,0.737766444683075,0.0824727714061737
1667824789361626400,4.24462646484375,0.14678651094436646,0.38666221499443054,0.04386412724852562
1667824789371633400,4.25463330078125,0.21654482185840607,0.02352210320532322,0.04101907089352608
1667824789381641500,4.264641357421875,0.25259843468666077,-0.21349656581878662,0.03009665012359619
1667824789391649500,4.2746494140625,0.24957121908664703,-0.34664690494537354,-0.005167597904801369
1667824789401656300,4.28465625,0.20767702162265778,-0.40299192070961,-0.04913851618766785
1667824789411664400,4.294664306640625,0.15429902076721191,-0.39670366048812866,-0.11544350534677505
1667824789421672400,4.30467236328125,0.10014737397432327,-0.30709975957870483,-0.19705606997013092
1667824789431679500,4.314679443359375,0.06998813897371292,-0.16993071138858795,-0.28087693452835083
1667824789441687300,4.324687255859375,0.05264696478843689,-0.029505694285035133,-0.33757349848747253
1667824789451695400,4.3346953125,0.039207588881254196,0.07684285193681717,-0.3747267425060272
1667824789461702400,4.344702392578125,0.023546338081359863,0.1493556648492813,-0.4033208191394806
1667824789471710500,4.35471044921875,0.02828623354434967,0.17135204374790192,-0.412882924079895
1667824789481717200,4.36471728515625,0.04457412660121918,0.14342133700847626,-0.3993908166885376
1667824789491725600,4.3747255859375,0.07025578618049622,0.0618164949119091,-0.3690371513366699
1667824789501733400,4.3847333984375,0.09581360965967178,-0.06082020699977875,-0.3236326575279236
1667824789511740400,4.394740478515625,0.11906407028436661,-0.20838063955307007,-0.2487935721874237
1667824789521748200,4.404748291015625,0.14300402998924255,-0.34167903661727905,-0.16777782142162323
1667824789531756300,4.41475634765625,0.1687951385974884,-0.435901939868927,-0.1015884131193161
1667824789541763300,4.424763427734375,0.18875792622566223,-0.49485528469085693,-0.045699842274188995
1667824789551771400,4.434771484375,0.19518707692623138,-0.5296763777732849,-0.006327936891466379
1667824789561779200,4.444779296875,0.19603049755096436,-0.5216008424758911,0.011681689880788326
1667824789571786500,4.454786376953125,0.18809427320957184,-0.4606618881225586,0.010113087482750416
1667824789581794300,4.464794189453125,0.18965062499046326,-0.357227623462677,-0.005469067487865686
1667824789591802400,4.47480224609375,0.1970672607421875,-0.22123491764068604,-0.03574841096997261
1667824789601809200,4.48480908203125,0.21481482684612274,-0.10850703716278076,-0.06650712341070175
1667824789611817500,4.4948173828125,0.21982796490192413,-0.06929411739110947,-0.0725860521197319
1667824789621825500,4.504825439453125,0.1982949823141098,-0.12254775315523148,-0.04198713228106499
1667824789631832300,4.514832275390625,0.16054120659828186,-0.24531175196170807,0.0029049760196357965
1667824789641840400,4.52484033203125,0.12856969237327576,-0.3941475749015808,0.02901567332446575
1667824789651847400,4.534847412109375,0.11097578704357147,-0.5508072376251221,0.03476863354444504
1667824789661855500,4.54485546875,0.11426079273223877,-0.677310049533844,0.015391206368803978
1667824789671863300,4.55486328125,0.1276349276304245,-0.7545246481895447,-0.02255803905427456
1667824789681870300,4.564870361328125,0.14582830667495728,-0.7619895339012146,-0.09819074720144272
1667824789691878400,4.57487841796875,0.15838751196861267,-0.6997320055961609,-0.18742528557777405
1667824789701886500,4.584886474609375,0.1630706787109375,-0.5659888386726379,-0.25713565945625305
1667824789711893200,4.594893310546875,0.13342596590518951,-0.3918772339820862,-0.29112905263900757
1667824789721901300,4.6049013671875,0.09089821577072144,-0.19806727766990662,-0.2880994379520416
1667824789731909400,4.614909423828125,0.04578932747244835,-0.01242364663630724,-0.2603554129600525
1667824789741916400,4.62491650390625,0.017797373235225677,0.12149127572774887,-0.21046508848667145
1667824789751924200,4.63492431640625,0.003865312086418271,0.19094066321849823,-0.16038168966770172
1667824789761932300,4.644932373046875,-0.004041879437863827,0.20635822415351868,-0.08561130613088608
1667824789771939300,4.654939208984375,0.003058107802644372,0.1747393161058426,0.02021978422999382
1667824789781947400,4.664947509765625,0.03657745197415352,0.096842922270298,0.15488146245479584
1667824789791955500,4.67495556640625,0.07940986752510071,-0.014052702113986015,0.28888800740242004
1667824789801962500,4.68496240234375,0.10786787420511246,-0.12222151458263397,0.4186933934688568
1667824789811970600,4.694970458984375,0.11512978374958038,-0.23008513450622559,0.5215657353401184
1667824789821978400,4.704978271484375,0.09756703674793243,-0.3558260202407837,0.5780755877494812
1667824789831985400,4.7149853515625,0.050583548843860626,-0.483720600605011,0.6019417643547058
1667824789841993200,4.7249931640625,-0.0395953468978405,-0.5971851348876953,0.6040584444999695
1667824789852000500,4.73500048828125,-0.16325336694717407,-0.6636717319488525,0.585863471031189
1667824789862008300,4.74500830078125,-0.2965853214263916,-0.6535314917564392,0.5362860560417175
1667824789872016400,4.755016357421875,-0.43858399987220764,-0.5545798540115356,0.45613184571266174
1667824789882023400,4.7650234375,-0.5774369835853577,-0.36310815811157227,0.34488680958747864
1667824789892031500,4.775031494140625,-0.6948900818824768,-0.09958118200302124,0.1947535127401352
1667824789902039300,4.785039306640625,-0.7745761275291443,0.17811061441898346,0.01737845689058304
1667824789912046300,4.79504638671875,-0.7782150506973267,0.42313581705093384,-0.19448426365852356
1667824789922054400,4.805054443359375,-0.7397704720497131,0.5997422933578491,-0.40345850586891174
1667824789932062500,4.8150625,-0.695316731929779,0.6550675630569458,-0.5841414928436279
1667824789942069200,4.8250693359375,-0.6671689748764038,0.604544460773468,-0.7062090635299683
1667824789952077300,4.835077392578125,-0.6498088836669922,0.44916394352912903,-0.7536138892173767
1667824789962085400,4.84508544921875,-0.6370790004730225,0.19744303822517395,-0.6907326579093933
1667824789972092400,4.855092529296875,-0.6226664781570435,-0.0648900493979454,-0.5462756156921387
1667824789982100500,4.8651005859375,-0.5845686197280884,-0.2809198200702667,-0.32986125349998474
1667824789992107300,4.875107177734375,-0.521905243396759,-0.4232111871242523,-0.0728563666343689
1667824790002115600,4.885115478515625,-0.4488672614097595,-0.5013014674186707,0.1770637184381485
1667824790012123400,4.895123291015625,-0.36627066135406494,-0.5222520232200623,0.37138527631759644
1667824790022130400,4.90513037109375,-0.2782505452632904,-0.5048533082008362,0.4898346960544586
1667824790032138200,4.91513818359375,-0.2052982896566391,-0.46006932854652405,0.5297645330429077
1667824790042146600,4.925146484375,-0.1448834240436554,-0.3861176073551178,0.48779016733169556
1667824790052153300,4.9351533203125,-0.11355798691511154,-0.31843844056129456,0.3930777907371521
1667824790062161400,4.945161376953125,-0.10800290107727051,-0.26216423511505127,0.2650598883628845
1667824790072169200,4.955169189453125,-0.1340177208185196,-0.2126917541027069,0.11840121448040009
1667824790082176500,4.965176513671875,-0.20258399844169617,-0.17675480246543884,0.004448011517524719
1667824790092183600,4.97518359375,-0.29761144518852234,-0.20467351377010345,-0.04463910683989525
1667824790102191600,4.985191650390625,-0.39784350991249084,-0.26180657744407654,-0.036971867084503174
1667824790112198700,4.99519873046875,-0.4660542607307434,-0.2768734097480774,-0.0073415362276136875
1667824790122206700,5.005206787109375,-0.487230122089386,-0.25688666105270386,0.04033703729510307
1667824790132214500,5.015214599609375,-0.4614933133125305,-0.22764328122138977,0.08346453309059143
1667824790142221600,5.0252216796875,-0.4194004535675049,-0.19957809150218964,0.11044741421937943
1667824790152229600,5.035229736328125,-0.3523963987827301,-0.1761625111103058,0.11996102333068848
1667824790162236700,5.045236572265625,-0.2742491364479065,-0.18249072134494781,0.10771554708480835
1667824790172244500,5.055244384765625,-0.2038082480430603,-0.21333278715610504,0.08338863402605057
1667824790182252500,5.06525244140625,-0.1504851132631302,-0.26303616166114807,0.05480599030852318
1667824790192259600,5.075259521484375,-0.11936953663825989,-0.32230880856513977,0.031390413641929626
1667824790202267600,5.085267578125,-0.10210879147052765,-0.3852880299091339,0.01896144077181816
1667824790212275500,5.095275390625,-0.09704159200191498,-0.44328582286834717,0.010377805680036545
1667824790222282800,5.10528271484375,-0.10432960093021393,-0.49611467123031616,0.003993410151451826
1667824790232290600,5.11529052734375,-0.13145096600055695,-0.5249561667442322,-0.0032197616528719664
1667824790242298600,5.125298583984375,-0.1708284616470337,-0.5388861298561096,0.0009121326729655266
1667824790252305400,5.135305419921875,-0.22623606026172638,-0.5256065130233765,0.03374331444501877
1667824790262313700,5.145313720703125,-0.28740382194519043,-0.48672303557395935,0.07980667799711227
1667824790272321800,5.15532177734375,-0.3376147747039795,-0.38335511088371277,0.13693414628505707
1667824790282328600,5.16532861328125,-0.3705841898918152,-0.25019198656082153,0.1931082010269165
1667824790292336600,5.175336669921875,-0.3892846405506134,-0.12610706686973572,0.2345227599143982
1667824790302344400,5.185344482421875,-0.40145689249038696,-0.04476134479045868,0.2785962224006653
1667824790312351700,5.195351806640625,-0.3911919891834259,-0.01599814184010029,0.3310602009296417
1667824790322359600,5.205359619140625,-0.3680099844932556,-0.0329587496817112,0.3943883180618286
1667824790332366600,5.21536669921875,-0.3237975239753723,-0.07376264035701752,0.45648470520973206
1667824790342374700,5.225374755859375,-0.27379319071769714,-0.10626092553138733,0.5034394264221191
1667824790352382700,5.2353828125,-0.2040332853794098,-0.12214189022779465,0.5218431949615479
1667824790362389500,5.245389404296875,-0.1424333155155182,-0.12742027640342712,0.5106803178787231
1667824790372397600,5.2553974609375,-0.0948048084974289,-0.15503698587417603,0.49565982818603516
1667824790382405600,5.265405517578125,-0.06762032210826874,-0.17723682522773743,0.482784241437912
1667824790392412700,5.27541259765625,-0.06030115857720375,-0.17558886110782623,0.45973509550094604
1667824790402420500,5.28542041015625,-0.06254593282938004,-0.14044979214668274,0.4184883236885071
1667824790412428500,5.295428466796875,-0.07669904083013535,-0.10867082327604294,0.35503584146499634
1667824790422435600,5.305435546875,-0.08268555998802185,-0.07208457589149475,0.27464407682418823
1667824790432443600,5.315443603515625,-0.07551899552345276,-0.04362337663769722,0.19863906502723694
1667824790442451700,5.32545166015625,-0.04958246648311615,-0.029352562502026558,0.1415717750787735
1667824790452458500,5.33545849609375,-0.026490462943911552,-0.03400643542408943,0.10521084070205688
1667824790462466800,5.345466796875,-0.003050118451938033,-0.0421019122004509,0.09537366032600403
1667824790472474600,5.355474609375,0.021495969966053963,-0.05961858853697777,0.12350063025951385
1667824790482481700,5.365481689453125,0.04802531749010086,-0.09138423949480057,0.16454634070396423
1667824790492489500,5.375489501953125,0.0765933096408844,-0.13126614689826965,0.22033903002738953
1667824790502496800,5.385496826171875,0.10696985572576523,-0.13921275734901428,0.27171751856803894
1667824790512504600,5.395504638671875,0.12916064262390137,-0.09096799045801163,0.30590108036994934
1667824790522512600,5.4055126953125,0.13068664073944092,-0.004625111818313599,0.3084622323513031
1667824790532519700,5.415519775390625,0.1153058186173439,0.10033832490444183,0.2595902979373932
1667824790542527700,5.42552783203125,0.09559576213359833,0.21325261890888214,0.17094697058200836
1667824790552535600,5.43553564453125,0.07587718963623047,0.3416862189769745,0.05060086026787758
1667824790562542600,5.44554248046875,0.0714278444647789,0.5034410357475281,-0.12002866715192795
1667824790572550700,5.455550537109375,0.10758744925260544,0.6902657747268677,-0.3244529068470001
1667824790582558700,5.465558837890625,0.2016175389289856,0.8422797918319702,-0.5409988164901733
1667824790592565500,5.4755654296875,0.3342887759208679,0.9361943006515503,-0.7509749531745911
1667824790602573600,5.485573486328125,0.4510268270969391,0.9559776186943054,-0.9200457334518433
1667824790612581600,5.49558154296875,0.5408387184143066,0.8948359489440918,-1.0300291776657104
1667824790622588700,5.505588623046875,0.607086181640625,0.756584107875824,-1.083027720451355
1667824790632596700,5.5155966796875,0.6370656490325928,0.5473616123199463,-1.073386311531067
1667824790642604500,5.5256044921875,0.6320735812187195,0.30832135677337646,-1.007027268409729
1667824790652611800,5.53561181640625,0.6078353524208069,0.10737305879592896,-0.8919975757598877
1667824790662619600,5.54561962890625,0.5749021768569946,-0.03410230949521065,-0.7532836198806763
1667824790672626700,5.555626708984375,0.5455336570739746,-0.08554579317569733,-0.603418231010437
1667824790682634500,5.565634521484375,0.5324274301528931,-0.051297277212142944,-0.4733459949493408
1667824790692642800,5.575642822265625,0.5531563758850098,0.042273689061403275,-0.36563655734062195
1667824790702649600,5.585649658203125,0.5965368747711182,0.16730110347270966,-0.29372963309288025
1667824790712657700,5.59565771484375,0.6519184112548828,0.3098742365837097,-0.272082656621933
1667824790722665500,5.60566552734375,0.697269082069397,0.41753119230270386,-0.28826668858528137
1667824790732672800,5.6156728515625,0.7254131436347961,0.47204476594924927,-0.34872522950172424
1667824790742680600,5.6256806640625,0.7358329892158508,0.4785098433494568,-0.4414820671081543
1667824790752688600,5.635688720703125,0.729242205619812,0.4489777982234955,-0.5473639965057373
1667824790762695400,5.6456953125,0.6968605518341064,0.38505101203918457,-0.6353708505630493
1667824790772703700,5.655703857421875,0.6397355198860168,0.30762121081352234,-0.6923893690109253
1667824790782711600,5.665711669921875,0.5700967907905579,0.21827933192253113,-0.6985822916030884
1667824790792718600,5.675718505859375,0.5022399425506592,0.15525908768177032,-0.6586610078811646
1667824790802726400,5.685726318359375,0.44486427307128906,0.16069380939006805,-0.5737982988357544
1667824790812734700,5.695734619140625,0.4001663029193878,0.22571328282356262,-0.47155261039733887
1667824790822741500,5.705741455078125,0.37651610374450684,0.3295896053314209,-0.3600473999977112
1667824790832749600,5.71574951171875,0.3845149278640747,0.4489043056964874,-0.2540903389453888
1667824790842756600,5.725756591796875,0.4180241525173187,0.5583698153495789,-0.16048288345336914
1667824790852764700,5.7357646484375,0.4578157663345337,0.6193074584007263,-0.0821787565946579
1667824790862772700,5.745772705078125,0.4859030544757843,0.6196688413619995,-0.026193253695964813
1667824790872779500,5.755779541015625,0.499933123588562,0.5897223949432373,-0.019575299695134163
1667824790882787600,5.76578759765625,0.5086520314216614,0.5417346358299255,-0.057065948843955994
1667824790892795600,5.775795654296875,0.5226802229881287,0.4735561013221741,-0.12504872679710388
1667824790902802700,5.785802734375,0.5349419713020325,0.41263097524642944,-0.19990405440330505
1667824790912810500,5.795810546875,0.5377598404884338,0.3652256429195404,-0.26745834946632385
1667824790922818600,5.805818603515625,0.5346556901931763,0.33097711205482483,-0.3289962708950043
1667824790932825600,5.81582568359375,0.5251551270484924,0.33235159516334534,-0.37946105003356934
1667824790942833700,5.825833740234375,0.5187773704528809,0.3675026595592499,-0.43702074885368347
1667824790952841500,5.835841552734375,0.5117783546447754,0.4112682342529297,-0.5023494362831116
1667824790962848800,5.845848876953125,0.509265661239624,0.4295915961265564,-0.5707327127456665
1667824790972856600,5.855856689453125,0.5078845024108887,0.42636117339134216,-0.6361572742462158
1667824790982864600,5.86586474609375,0.5261088013648987,0.42639845609664917,-0.6988621950149536
1667824790992871400,5.875871337890625,0.5692940950393677,0.4451766610145569,-0.7441492676734924
1667824791002879700,5.885879638671875,0.6200499534606934,0.453500896692276,-0.7672383189201355
1667824791012886500,5.895886474609375,0.6803947687149048,0.4558753967285156,-0.7741058468818665
1667824791022894600,5.90589453125,0.7350356578826904,0.46610990166664124,-0.7545971274375916
1667824791032902700,5.915902587890625,0.7800635695457458,0.46110662817955017,-0.6846364140510559
1667824791042909700,5.92590966796875,0.8210416436195374,0.45570600032806396,-0.5808975100517273
1667824791052917800,5.935917724609375,0.8580313324928284,0.4321138560771942,-0.465524286031723
1667824791062925600,5.945925537109375,0.8895546793937683,0.3763672411441803,-0.34921684861183167
1667824791072932600,5.9559326171875,0.9128008484840393,0.26420024037361145,-0.2504040002822876
1667824791082940700,5.965940673828125,0.9289542436599731,0.09619737416505814,-0.1738189309835434
1667824791092949000,5.975948974609375,0.9357346892356873,-0.1260993480682373,-0.11683154106140137
1667824791102955800,5.985955810546875,0.9164576530456543,-0.37621039152145386,-0.0627957433462143
1667824791112963800,5.9959638671875,0.8531873226165771,-0.6235805153846741,-0.008191084489226341
1667824791122971600,6.0059716796875,0.7461863160133362,-0.8394706845283508,0.04366891831159592
1667824791132979000,6.01597900390625,0.611706554889679,-0.9700678586959839,0.08408105373382568
1667824791142986800,6.02598681640625,0.4753771722316742,-0.9813090562820435,0.10791102051734924
1667824791152994800,6.035994873046875,0.34751057624816895,-0.861036479473114,0.08809363842010498
1667824791163001900,6.046001953125,0.21320202946662903,-0.6398572325706482,0.03525625914335251
1667824791173010000,6.056010009765625,0.05253724381327629,-0.37667909264564514,-0.024578846991062164
1667824791183016700,6.0660166015625,-0.13325898349285126,-0.051362521946430206,-0.09413768351078033
1667824791193024800,6.076024658203125,-0.3131754994392395,0.2913423776626587,-0.17016427218914032
1667824791203033000,6.086033203125,-0.45508068799972534,0.5688679814338684,-0.23658564686775208
1667824791213039900,6.096039794921875,-0.539680540561676,0.7316440939903259,-0.2950785160064697
1667824791223048000,6.1060478515625,-0.5818799138069153,0.777513861656189,-0.332080215215683
1667824791233055700,6.1160556640625,-0.5749234557151794,0.6834169030189514,-0.3355353772640228
1667824791243063000,6.12606298828125,-0.5345406532287598,0.44873809814453125,-0.30221444368362427
1667824791253070800,6.13607080078125,-0.46467074751853943,0.13909876346588135,-0.21290934085845947
1667824791263079000,6.146078857421875,-0.3965612053871155,-0.16915786266326904,-0.08361446857452393
1667824791273086000,6.1560859375,-0.3346802592277527,-0.4084618091583252,0.08352764695882797
1667824791283094000,6.166093994140625,-0.308838814496994,-0.6042717695236206,0.2731332778930664
1667824791293101800,6.176101806640625,-0.30655592679977417,-0.7603865265846252,0.46510085463523865
1667824791303108900,6.18610888671875,-0.3138444721698761,-0.8219476342201233,0.6388769149780273
1667824791313116700,6.19611669921875,-0.31736305356025696,-0.768399715423584,0.7800622582435608
1667824791323125000,6.206125,-0.31849434971809387,-0.6107035875320435,0.8760697245597839
1667824791333131800,6.2161318359375,-0.32686707377433777,-0.38613173365592957,0.9260594248771667
1667824791343139800,6.226139892578125,-0.3405197560787201,-0.11808216571807861,0.9200752973556519
1667824791353147000,6.23614697265625,-0.35708409547805786,0.13336710631847382,0.8766303062438965
1667824791363155000,6.246155029296875,-0.37408146262168884,0.3321097791194916,0.8066619038581848
1667824791373163000,6.2561630859375,-0.38584303855895996,0.4946773648262024,0.690753161907196
1667824791383169800,6.266169677734375,-0.37272563576698303,0.6212209463119507,0.5182839035987854
1667824791393178000,6.27617822265625,-0.33020827174186707,0.7056908011436462,0.29463642835617065
1667824791403186000,6.28618603515625,-0.2841760516166687,0.7074980139732361,0.046957921236753464
1667824791413193000,6.29619287109375,-0.2312217652797699,0.5796295404434204,-0.17033125460147858
1667824791423200800,6.30620068359375,-0.16682679951190948,0.37266385555267334,-0.32650434970855713
1667824791433208800,6.316208740234375,-0.08598042279481888,0.14314064383506775,-0.44050443172454834
1667824791443216000,6.3262158203125,0.004551342222839594,-0.0564853809773922,-0.5122004151344299
1667824791453224000,6.336223876953125,0.09160501509904861,-0.2402440309524536,-0.5452612042427063
1667824791463231700,6.346231689453125,0.16979196667671204,-0.3937387764453888,-0.5488444566726685
1667824791473239000,6.356239013671875,0.23127956688404083,-0.49628886580467224,-0.5454899668693542
1667824791483246800,6.366246826171875,0.27097025513648987,-0.5730850696563721,-0.546855628490448
1667824791493254000,6.37625390625,0.27425312995910645,-0.6444886922836304,-0.5581466555595398
1667824791503261700,6.38626171875,0.25586825609207153,-0.7064812183380127,-0.5703420639038086
1667824791513270000,6.39627001953125,0.22449302673339844,-0.7437364459037781,-0.5730723142623901
1667824791523276800,6.40627685546875,0.17347805202007294,-0.7514702677726746,-0.5652806758880615
1667824791533284900,6.416284912109375,0.10595066845417023,-0.7526910901069641,-0.5345627665519714
1667824791543292700,6.426292724609375,0.03309670090675354,-0.7607964277267456,-0.48056796193122864
1667824791553300000,6.436300048828125,-0.040645163506269455,-0.7622081637382507,-0.4104655683040619
1667824791563307800,6.446307861328125,-0.1051437258720398,-0.7458720803260803,-0.31732177734375
1667824791573315800,6.45631591796875,-0.16082164645195007,-0.7235441207885742,-0.2097359150648117
1667824791583323000,6.466322998046875,-0.211788147687912,-0.6609435677528381,-0.09867411106824875
1667824791593331000,6.4763310546875,-0.2604787349700928,-0.5536024570465088,0.020005399361252785
1667824791603339000,6.486339111328125,-0.31581762433052063,-0.41918715834617615,0.14535214006900787
1667824791613345800,6.496345703125,-0.3676126301288605,-0.26195013523101807,0.27133697271347046
1667824791623353900,6.506353759765625,-0.4078245162963867,-0.10156630724668503,0.3976205885410309
1667824791633362000,6.51636181640625,-0.4220138192176819,0.027185015380382538,0.5183715224266052
1667824791643369000,6.526368896484375,-0.42259466648101807,0.10428858548402786,0.6305782198905945
1667824791653376800,6.536376708984375,-0.4094429016113281,0.12693451344966888,0.7244874238967896
1667824791663384000,6.546384033203125,-0.3722337484359741,0.06502506881952286,0.8434236645698547
1667824791673391900,6.556391845703125,-0.307012677192688,-0.034930020570755005,0.9818816781044006
1667824791683400000,6.56639990234375,-0.22270524501800537,-0.11279073357582092,1.1230098009109497
1667824791693406700,6.57640673828125,-0.14397048950195312,-0.1576833724975586,1.2398743629455566
1667824791703415000,6.5864150390625,-0.09155947715044022,-0.1972118765115738,1.326598882675171
1667824791713422800,6.5964228515625,-0.055507734417915344,-0.21978428959846497,1.3561676740646362
1667824791723430000,6.606429931640625,-0.029824741184711456,-0.20715264976024628,1.3113080263137817
1667824791733437700,6.616437744140625,-0.015174158848822117,-0.13464702665805817,1.2053583860397339
1667824791743445800,6.62644580078125,-0.02672402188181877,-0.008191084489226341,1.048804759979248
1667824791753452800,6.636452880859375,-0.06096215546131134,0.16901512444019318,0.8439474701881409
1667824791763460900,6.6464609375,-0.08760787546634674,0.39846694469451904,0.612831711769104
1667824791773469000,6.656468994140625,-0.10013645142316818,0.6768106818199158,0.35395780205726624
1667824791783476000,6.66647607421875,-0.08836101740598679,0.9523120522499084,0.0734795406460762
1667824791793484000,6.676484130859375,-0.04994625598192215,1.1873879432678223,-0.21697279810905457
1667824791803491800,6.686491943359375,0.014760037884116173,1.3034263849258423,-0.47194650769233704
1667824791813499000,6.696498779296875,0.10170372575521469,1.2707456350326538,-0.657882809638977
1667824791823507000,6.7065068359375,0.2068152278661728,1.1027591228485107,-0.77615886926651
1667824791833514000,6.716513916015625,0.2953307032585144,0.8306761384010315,-0.8144719004631042
1667824791843521800,6.726521728515625,0.36241307854652405,0.5145893096923828,-0.7771008014678955
1667824791853529900,6.73652978515625,0.4199743866920471,0.23415763676166534,-0.6929049491882324
1667824791863537000,6.746536865234375,0.469635933637619,0.053455233573913574,-0.5976753830909729
1667824791873545000,6.756544921875,0.5057449340820312,-0.0612199492752552,-0.5086269974708557
1667824791883552800,6.766552734375,0.523461639881134,-0.13540416955947876,-0.42530176043510437
1667824791893559800,6.776559814453125,0.5423173308372498,-0.15303082764148712,-0.351093053817749
1667824791903568000,6.78656787109375,0.5502495765686035,-0.10388831794261932,-0.3051721453666687
1667824791913576000,6.796575927734375,0.5595138669013977,-0.019329756498336792,-0.28119465708732605
1667824791923582700,6.806582763671875,0.5602185726165771,0.07653632014989853,-0.283886581659317
1667824791933590800,6.8165908203125,0.5615655779838562,0.18811585009098053,-0.3233133554458618
1667824791943599000,6.82659912109375,0.5528085827827454,0.2752893567085266,-0.40302708745002747
1667824791953606000,6.83660595703125,0.5288004875183105,0.32712459564208984,-0.5252795219421387
1667824791963614000,6.846614013671875,0.4888157546520233,0.34427908062934875,-0.6560550928115845
1667824791973621000,6.85662109375,0.43367233872413635,0.3337699770927429,-0.7898120880126953
1667824791983629000,6.866629150390625,0.37323030829429626,0.307084321975708,-0.8988049030303955
1667824791993636900,6.876636962890625,0.3159236013889313,0.2813001275062561,-0.9713035821914673
1667824792003644000,6.886643798828125,0.27684250473976135,0.26223108172416687,-1.0102078914642334
1667824792013652000,6.89665185546875,0.23731295764446259,0.2578887939453125,-1.010635256767273
1667824792023660000,6.906659912109375,0.1997634470462799,0.24930836260318756,-0.9836840629577637
1667824792033666800,6.916666748046875,0.16809846460819244,0.2275806963443756,-0.9341633915901184
1667824792043675000,6.9266748046875,0.14228789508342743,0.20533743500709534,-0.8759022355079651
1667824792053682700,6.9366826171875,0.1330033242702484,0.19336865842342377,-0.8040458559989929
1667824792063690000,6.94668994140625,0.13831979036331177,0.20528843998908997,-0.7069478034973145
1667824792073697800,6.95669775390625,0.15499037504196167,0.25178828835487366,-0.589003324508667
1667824792083705900,6.966705810546875,0.17906269431114197,0.3459283709526062,-0.45830976963043213
1667824792093713400,6.97671337890625,0.22417956590652466,0.47932425141334534,-0.3192315101623535
1667824792103721500,6.986721435546875,0.3016754388809204,0.612235426902771,-0.17903873324394226
1667824792113729500,6.9967294921875,0.39530712366104126,0.7189461588859558,-0.060742177069187164
1667824792123736300,7.006736328125,0.47174808382987976,0.7693475484848022,0.01745728775858879
1667824792133744400,7.016744384765625,0.5197073817253113,0.7671602964401245,0.023631026968359947
1667824792143751400,7.02675146484375,0.5652769804000854,0.7087398767471313,-0.044976796954870224
1667824792153759500,7.036759521484375,0.6150802373886108,0.6151686310768127,-0.17393185198307037
1667824792163767300,7.046767333984375,0.6644232869148254,0.5007033348083496,-0.3406800925731659
1667824792173774600,7.056774658203125,0.7026087641716003,0.3859937787055969,-0.5070877075195312
1667824792183782400,7.066782470703125,0.721915602684021,0.2751258313655853,-0.6304722428321838
1667824792193790500,7.07679052734375,0.7272648215293884,0.16183950006961823,-0.6757928133010864
1667824792203797200,7.08679736328125,0.7482736706733704,0.0374419130384922,-0.6248313784599304
1667824792213805300,7.096805419921875,0.7757002711296082,-0.1077973023056984,-0.489251971244812
1667824792223813400,7.1068134765625,0.795290470123291,-0.24838104844093323,-0.27771204710006714
1667824792233820400,7.1168203125,0.8028602600097656,-0.37274429202079773,-0.032413333654403687
1667824792243828200,7.126828125,0.7910211682319641,-0.47872796654701233,0.19907794892787933
1667824792253836300,7.136836181640625,0.7573830485343933,-0.5739532709121704,0.3905392587184906
1667824792263843300,7.14684326171875,0.7115615010261536,-0.6387312412261963,0.5090922713279724
1667824792273851400,7.156851318359375,0.6524187922477722,-0.6558670401573181,0.5551841259002686
1667824792283859500,7.166859375,0.5581122636795044,-0.6112271547317505,0.5515278577804565
1667824792293866500,7.176866455078125,0.4159335494041443,-0.49315378069877625,0.5083827972412109
1667824792303874300,7.186874267578125,0.22107325494289398,-0.28904831409454346,0.4424258768558502
1667824792313881300,7.19688134765625,-0.01720934733748436,-0.018446652218699455,0.35675573348999023
1667824792323889200,7.20688916015625,-0.2711681127548218,0.22244904935359955,0.2667480707168579
1667824792333897500,7.2168974609375,-0.5018748044967651,0.3626357316970825,0.1719142347574234
1667824792343904300,7.226904296875,-0.6786234974861145,0.3782053589820862,0.08823132514953613
1667824792353912300,7.236912353515625,-0.806807279586792,0.28611618280410767,0.028810875490307808
1667824792363920400,7.24692041015625,-0.902437686920166,0.1264740526676178,-0.017593907192349434
1667824792373927400,7.256927490234375,-0.962060272693634,-0.09453102946281433,-0.018077803775668144
1667824792383935500,7.266935546875,-0.9817708730697632,-0.34989169239997864,0.04692809283733368
1667824792393943300,7.276943359375,-0.9729797840118408,-0.5414102673530579,0.16465047001838684
1667824792403950300,7.286950439453125,-0.9629977345466614,-0.6141321063041687,0.31649699807167053
1667824792413958400,7.29695849609375,-0.9562492370605469,-0.5882038474082947,0.4851302206516266
1667824792423966500,7.306966552734375,-0.9492605924606323,-0.47037309408187866,0.6426202058792114
1667824792433973200,7.31697314453125,-0.9283869862556458,-0.31517258286476135,0.777062714099884
1667824792443981300,7.326981201171875,-0.9006355404853821,-0.11479102820158005,0.8799023032188416
1667824792453989400,7.3369892578125,-0.8616963624954224,0.09363008290529251,0.9339538216590881
1667824792463996400,7.346996337890625,-0.8244116306304932,0.2460441291332245,0.9377467036247253
1667824792474004200,7.357004150390625,-0.7850026488304138,0.3157598376274109,0.8986871838569641
1667824792484011500,7.367011474609375,-0.7474068403244019,0.30496975779533386,0.8017781972885132
1667824792494019300,7.377019287109375,-0.6985061168670654,0.2325054109096527,0.6636011600494385
1667824792504027400,7.38702734375,-0.6356560587882996,0.131631001830101,0.48861709237098694
1667824792514034200,7.3970341796875,-0.5688126087188721,0.033365413546562195,0.2976210415363312
1667824792524042200,7.407042236328125,-0.5103580951690674,-0.07045099884271622,0.12320049107074738
1667824792534050600,7.417050537109375,-0.47378355264663696,-0.17688582837581635,-0.01139806304126978
1667824792544057300,7.427057373046875,-0.4420410692691803,-0.2593570053577423,-0.09795399010181427
1667824792554065400,7.4370654296875,-0.40803515911102295,-0.32028186321258545,-0.1431523710489273
1667824792564073200,7.4470732421875,-0.3732590675354004,-0.3775313198566437,-0.15981443226337433
1667824792574080500,7.45708056640625,-0.3435709476470947,-0.43634748458862305,-0.1640419363975525
1667824792584088300,7.46708837890625,-0.3218075931072235,-0.4950787127017975,-0.16365471482276917
1667824792594095400,7.477095458984375,-0.30182668566703796,-0.5341022610664368,-0.17537128925323486
1667824792604103400,7.487103515625,-0.27288347482681274,-0.5387598872184753,-0.2105625569820404
1667824792614111500,7.497111572265625,-0.22239817678928375,-0.4997227191925049,-0.2810353934764862
1667824792624118300,7.5071181640625,-0.16158783435821533,-0.46454742550849915,-0.3472437262535095
1667824792634126300,7.517126220703125,-0.11638253927230835,-0.4525187313556671,-0.3798501193523407
1667824792644134400,7.527134521484375,-0.08515217900276184,-0.47236859798431396,-0.36330658197402954
1667824792654141400,7.537141357421875,-0.07494108378887177,-0.47993943095207214,-0.3077074885368347
1667824792664149200,7.547149169921875,-0.09604930132627487,-0.4743023216724396,-0.22951282560825348
1667824792674157300,7.5571572265625,-0.13131462037563324,-0.47623950242996216,-0.13320200145244598
1667824792684164400,7.567164306640625,-0.17932288348674774,-0.4926499128341675,-0.005933522712439299
1667824792694172400,7.57717236328125,-0.2204410284757614,-0.4953594207763672,0.16169382631778717
1667824792704180500,7.587180419921875,-0.22647787630558014,-0.4831109941005707,0.3535407483577728
1667824792714187300,7.597187255859375,-0.19652824103832245,-0.44388583302497864,0.5554056763648987
1667824792724195600,7.607195556640625,-0.15293441712856293,-0.35644227266311646,0.7628912329673767
1667824792734203400,7.617203369140625,-0.0569668784737587,-0.29178497195243835,0.943528950214386
1667824792744210400,7.62721044921875,0.05380783602595329,-0.22881293296813965,1.0967925786972046
1667824792754218200,7.63721826171875,0.14374864101409912,-0.17911942303180695,1.2377043962478638
1667824792764225500,7.6472255859375,0.20924749970436096,-0.17905576527118683,1.3598204851150513
1667824792774233300,7.6572333984375,0.2617245614528656,-0.2154340147972107,1.461159348487854
1667824792784241400,7.667241455078125,0.3048190176486969,-0.31167614459991455,1.535364031791687
1667824792794248400,7.67724853515625,0.34075573086738586,-0.4341892600059509,1.5829623937606812
1667824792804256500,7.687256591796875,0.36422455310821533,-0.5586041808128357,1.5771974325180054
1667824792814264300,7.697264404296875,0.3701793849468231,-0.6631731986999512,1.5185426473617554
1667824792824271400,7.707271240234375,0.3430633544921875,-0.7187885046005249,1.4166150093078613
1667824792834279400,7.717279541015625,0.3173220455646515,-0.7058271765708923,1.281095266342163
1667824792844287500,7.72728759765625,0.29187658429145813,-0.5893080234527588,1.1072241067886353
1667824792854294300,7.737294189453125,0.2808588445186615,-0.31780514121055603,0.9093272686004639
1667824792864302300,7.74730224609375,0.2746134400367737,0.06861448287963867,0.6950743794441223
1667824792874310100,7.75731005859375,0.2607192099094391,0.5204618573188782,0.4801245331764221
1667824792884317400,7.7673173828125,0.23112136125564575,0.9785955548286438,0.2696588933467865
1667824792894325200,7.7773251953125,0.20041485130786896,1.3708006143569946,0.04170270636677742
1667824792904333300,7.787333251953125,0.18912971019744873,1.6332104206085205,-0.2077247053384781
1667824792914340400,7.79734033203125,0.1990121752023697,1.7232273817062378,-0.4601324498653412
1667824792924348400,7.807348388671875,0.2299780696630478,1.6038352251052856,-0.6788155436515808
1667824792934355200,7.817355224609375,0.28991997241973877,1.3013269901275635,-0.8495768904685974
1667824792944363300,7.82736328125,0.3774130642414093,0.8799182772636414,-0.9745030999183655
1667824792954371300,7.837371337890625,0.47145941853523254,0.44816234707832336,-1.0598726272583008
1667824792964378400,7.84737841796875,0.5530362725257874,0.1077810600399971,-1.1047502756118774
1667824792974386400,7.857386474609375,0.6147111058235168,-0.11538411676883698,-1.109533667564392
1667824792984394200,7.867394287109375,0.6519687175750732,-0.2581583261489868,-1.085260272026062
1667824792994401500,7.877401611328125,0.6444668769836426,-0.29879122972488403,-1.0362889766693115
1667824793004409300,7.887409423828125,0.6055759191513062,-0.21919865906238556,-0.9824736714363098
1667824793014417400,7.89741748046875,0.5502897500991821,-0.04338395968079567,-0.9217541217803955
1667824793024424200,7.907424072265625,0.4895766079425812,0.1707429736852646,-0.8603836894035339
1667824793034432500,7.9174326171875,0.4426115155220032,0.40535736083984375,-0.795749843120575
1667824793044440300,7.9274404296875,0.39273929595947266,0.6222158670425415,-0.7545685768127441
1667824793054447400,7.937447265625,0.3471270799636841,0.7561728954315186,-0.7342979311943054
1667824793064455200,7.947455078125,0.30360010266304016,0.7846367359161377,-0.7396924495697021
1667824793074463500,7.95746337890625,0.2559657394886017,0.7271774411201477,-0.7497024536132812
1667824793084470300,7.96747021484375,0.2112102508544922,0.6163473725318909,-0.7611128091812134
1667824793094477600,7.9774775390625,0.18826524913311005,0.4992891848087311,-0.7668838500976562
1667824793104484600,7.987484619140625,0.16819673776626587,0.3825297951698303,-0.754790186882019
1667824793114492700,7.99749267578125,0.16073136031627655,0.29374027252197266,-0.7226218581199646
1667824793124500500,8.00750048828125,0.150872603058815,0.2412152886390686,-0.6581874489784241
1667824793134507800,8.0175078125,0.13972914218902588,0.22115129232406616,-0.5752662420272827
1667824793144515600,8.027515625,0.1328728348016739,0.2186918556690216,-0.48203614354133606
1667824793154523600,8.037523681640625,0.1314014345407486,0.22584004700183868,-0.39704883098602295
1667824793164530400,8.047530517578124,0.12941737473011017,0.2336292713880539,-0.3096846342086792
1667824793174538500,8.05753857421875,0.14340856671333313,0.22724194824695587,-0.2286432981491089
1667824793184546800,8.067546875,0.17544639110565186,0.22337263822555542,-0.1481654942035675
1667824793194553600,8.0775537109375,0.22077764570713043,0.2257833331823349,-0.05107463523745537
1667824793204561700,8.087561767578125,0.2741852104663849,0.2156848907470703,0.07241401076316833
1667824793214569500,8.097569580078124,0.3284580409526825,0.2344260811805725,0.21014711260795593
1667824793224576800,8.10757666015625,0.38734692335128784,0.277913361787796,0.3071615397930145
1667824793234584600,8.11758447265625,0.45264923572540283,0.3392353355884552,0.3405677080154419
1667824793244591600,8.127591552734375,0.5067604184150696,0.3905152976512909,0.313328355550766
1667824793254599700,8.137599609375,0.5409734845161438,0.42099517583847046,0.23044359683990479
1667824793264607700,8.147607666015626,0.5746070742607117,0.4179525077342987,0.10115830600261688
1667824793274614500,8.157614501953125,0.6073501110076904,0.3850017488002777,-0.038480281829833984
1667824793284622600,8.16762255859375,0.6387666463851929,0.2970694899559021,-0.1718766838312149
1667824793294630400,8.17763037109375,0.656686544418335,0.18754087388515472,-0.2698186933994293
1667824793304637700,8.1876376953125,0.6638680100440979,0.03641366586089134,-0.32196152210235596
1667824793314645500,8.1976455078125,0.656472384929657,-0.144802987575531,-0.31318455934524536
1667824793324653600,8.207653564453125,0.6467212438583374,-0.3243274688720703,-0.24993233382701874
1667824793334660600,8.21766064453125,0.6344859004020691,-0.4566633999347687,-0.14779798686504364
1667824793344668700,8.227668701171876,0.6048696637153625,-0.5296393632888794,-0.03690608590841293
1667824793354676700,8.2376767578125,0.5575692653656006,-0.5545164942741394,0.059067316353321075
1667824793364683500,8.24768359375,0.5073958039283752,-0.5570310354232788,0.1251014620065689
1667824793374691800,8.25769189453125,0.4620983898639679,-0.5418280959129333,0.16589656472206116
1667824793384699600,8.26769970703125,0.4192148447036743,-0.5074453949928284,0.172427698969841
1667824793394706700,8.277706787109375,0.35208001732826233,-0.4325823187828064,0.15967142581939697
1667824793404714500,8.287714599609375,0.22712530195713043,-0.31034189462661743,0.140001580119133
1667824793414721800,8.2977216796875,0.051422711461782455,-0.1728695183992386,0.11761744320392609
1667824793424729600,8.3077294921875,-0.14900119602680206,-0.04549238458275795,0.08554153144359589
1667824793434737700,8.317737548828125,-0.3643915355205536,0.09849487990140915,0.03665681555867195
1667824793444744700,8.32774462890625,-0.5742685794830322,0.24941009283065796,-0.04012691229581833
1667824793454752800,8.337752685546874,-0.7565771341323853,0.36336463689804077,-0.14172756671905518
1667824793464760600,8.347760498046876,-0.8935432434082031,0.4256588816642761,-0.24997255206108093
1667824793474767600,8.357767578125,-0.9841959476470947,0.42032110691070557,-0.3496498763561249
1667824793484775400,8.367775390625,-1.0236996412277222,0.35531309247016907,-0.41659003496170044
1667824793494783700,8.37778369140625,-1.0187126398086548,0.2196737676858902,-0.4234814941883087
1667824793504790500,8.38779052734375,-0.9800952076911926,0.034267425537109375,-0.35485076904296875
1667824793514798600,8.397798583984375,-0.9085427522659302,-0.1380087286233902,-0.22270071506500244
1667824793524806700,8.407806640625,-0.808742344379425,-0.2616046965122223,-0.05181020125746727
1667824793534813700,8.417813720703125,-0.6947222948074341,-0.3170229494571686,0.14723046123981476
1667824793544821800,8.42782177734375,-0.5835742354393005,-0.3034096658229828,0.3423711955547333
1667824793554828500,8.43782861328125,-0.48734116554260254,-0.2306649088859558,0.49686357378959656
1667824793564836900,8.4478369140625,-0.40288859605789185,-0.13366565108299255,0.5907351970672607
1667824793574844700,8.4578447265625,-0.33062291145324707,-0.03924141079187393,0.627993106842041
1667824793584851700,8.467851806640626,-0.25738945603370667,0.026921894401311874,0.6162490844726562
1667824793594859500,8.477859619140625,-0.2012643963098526,0.051477305591106415,0.5607118010520935
1667824793604867600,8.48786767578125,-0.16630083322525024,0.027232952415943146,0.4815506637096405
1667824793614874600,8.49787451171875,-0.13225257396697998,-0.061108894646167755,0.3852249085903168
1667824793624882700,8.507882568359374,-0.10880637168884277,-0.19252070784568787,0.30318865180015564
1667824793634890500,8.517890380859376,-0.08514764904975891,-0.33696576952934265,0.23270541429519653
1667824793644897800,8.527897705078125,-0.06568393856287003,-0.46640631556510925,0.18641088902950287
1667824793654905600,8.537905517578125,-0.049017343670129776,-0.5776990056037903,0.1525602489709854
1667824793664913700,8.54791357421875,-0.03389112278819084,-0.6708499789237976,0.1411515325307846
1667824793674920400,8.55792041015625,-0.03362241014838219,-0.7457175850868225,0.15703116357326508
1667824793684928800,8.5679287109375,-0.052430715411901474,-0.7739918231964111,0.18809880316257477
1667824793694935600,8.577935546875,-0.07980827987194061,-0.7538825869560242,0.221479132771492
1667824793704943600,8.587943603515624,-0.11572659760713577,-0.7097063064575195,0.2471645176410675
1667824793714951400,8.597951416015626,-0.1608583927154541,-0.6673902869224548,0.26047152280807495
1667824793724958700,8.607958740234375,-0.21541057527065277,-0.6280732750892639,0.2598571479320526
1667824793734966500,8.617966552734375,-0.28471747040748596,-0.5810628533363342,0.24980078637599945
1667824793744974600,8.627974609375,-0.36069613695144653,-0.5165358185768127,0.21885378658771515
1667824793754981600,8.637981689453126,-0.43761008977890015,-0.46484145522117615,0.17030702531337738
1667824793764989700,8.64798974609375,-0.5137597322463989,-0.445127934217453,0.13456100225448608
1667824793774997800,8.657997802734375,-0.5836615562438965,-0.429067999124527,0.11235104501247406
1667824793785004500,8.668004638671874,-0.6484986543655396,-0.38797861337661743,0.10442334413528442
1667824793795012600,8.6780126953125,-0.7193688154220581,-0.31421759724617004,0.10138840973377228
1667824793805020700,8.688020751953125,-0.7976061105728149,-0.2209014892578125,0.10733151435852051
1667824793815027700,8.69802783203125,-0.8714116215705872,-0.1431070864200592,0.13216948509216309
1667824793825035500,8.708035400390624,-0.9224774241447449,-0.10621591657400131,0.17986057698726654
1667824793835042800,8.718042724609376,-0.9257326126098633,-0.08885743468999863,0.25546106696128845
1667824793845050600,8.728050537109375,-0.8870890736579895,-0.06545064598321915,0.3468706011772156
1667824793855058700,8.73805859375,-0.8231287598609924,-0.04856034368276596,0.45277678966522217
1667824793865065500,8.7480654296875,-0.7364585995674133,-0.04908578842878342,0.5570741891860962
1667824793875073800,8.75807373046875,-0.6339252591133118,-0.07563803344964981,0.6472429633140564
1667824793885081600,8.76808154296875,-0.5208080410957336,-0.126779243350029,0.7456467747688293
1667824793895088600,8.778088623046875,-0.4158880114555359,-0.18286728858947754,0.8445038199424744
1667824793905096400,8.788096435546874,-0.3296644389629364,-0.22215530276298523,0.9373911619186401
1667824793915104500,8.7981044921875,-0.2690753936767578,-0.2538575828075409,1.0141704082489014
1667824793925111600,8.808111572265625,-0.2347475290298462,-0.2581188976764679,1.0659570693969727
1667824793935119600,8.81811962890625,-0.21616052091121674,-0.22721077501773834,1.0960025787353516
1667824793945127700,8.828127685546875,-0.20435260236263275,-0.1679823398590088,1.1255637407302856
1667824793955134700,8.838134765625,-0.2038727104663849,-0.08174413442611694,1.1460226774215698
1667824793965142800,8.848142822265626,-0.21911796927452087,0.043844420462846756,1.1478040218353271
1667824793975150600,8.858150634765625,-0.22726351022720337,0.20290571451187134,1.1236275434494019
1667824793985157600,8.86815771484375,-0.2165384292602539,0.3645840883255005,1.0702219009399414
1667824793995165700,8.878165771484374,-0.17539098858833313,0.4942033290863037,0.9918900728225708
1667824794005172700,8.8881728515625,-0.10301586240530014,0.6120010614395142,0.907362163066864
1667824794015180500,8.8981806640625,-0.0026935210917145014,0.7229270339012146,0.8188030123710632
1667824794025188600,8.908188720703125,0.1206744834780693,0.805149495601654,0.7083435654640198
1667824794035195600,8.918195556640624,0.2561691999435425,0.8440691828727722,0.564633846282959
1667824794045203700,8.92820361328125,0.3887200355529785,0.8364102244377136,0.38193830847740173
1667824794055211500,8.93821142578125,0.5034562349319458,0.7856301069259644,0.14009106159210205
1667824794065218600,8.948218505859375,0.6027937531471252,0.7115867733955383,-0.1488667130470276
1667824794075226600,8.9582265625,0.6774078011512756,0.5988522171974182,-0.48416775465011597
1667824794085234700,8.968234619140626,0.7199336886405945,0.4424205720424652,-0.8140218257904053
1667824794095242200,8.9782421875,0.7407774329185486,0.25556012988090515,-1.1209611892700195
1667824794105250300,8.988250244140625,0.7379224896430969,0.08080616593360901,-1.3782652616500854
1667824794115258000,8.998258056640625,0.7182963490486145,-0.07209230214357376,-1.5526833534240723
1667824794125265400,9.008265380859376,0.6857187151908875,-0.18070267140865326,-1.6539652347564697
1667824794135273200,9.018273193359375,0.65325528383255,-0.22393402457237244,-1.693756341934204
1667824794145281300,9.02828125,0.6288314461708069,-0.19675567746162415,-1.6913105249404907
1667824794155288300,9.038288330078124,0.6256087422370911,-0.09369640052318573,-1.6517670154571533
1667824794165296400,9.04829638671875,0.6394222974777222,0.0629829615354538,-1.6028839349746704
1667824794175304200,9.05830419921875,0.6665114760398865,0.21666866540908813,-1.5344250202178955
1667824794185311200,9.068311279296875,0.6935646533966064,0.35264885425567627,-1.4521859884262085
1667824794195319300,9.0783193359375,0.7078977823257446,0.4730546474456787,-1.3609544038772583
1667824794205326300,9.088326416015626,0.7083494663238525,0.5517515540122986,-1.2875885963439941
1667824794215334100,9.098334228515625,0.6987980008125305,0.5685082077980042,-1.2320137023925781
1667824794225342200,9.10834228515625,0.6800261735916138,0.5267391800880432,-1.191367506980896
1667824794235349200,9.118349365234375,0.6481806635856628,0.4523589611053467,-1.1563879251480103
1667824794245357300,9.128357421875,0.604168176651001,0.3637201488018036,-1.0974907875061035
1667824794255365400,9.138365478515626,0.535499632358551,0.3031710684299469,-1.028334140777588
1667824794265372200,9.1483720703125,0.4356284439563751,0.27952060103416443,-0.9580109715461731
1667824794275380500,9.15838037109375,0.3440242111682892,0.2707204520702362,-0.8864883184432983
1667824794285388300,9.16838818359375,0.2725348472595215,0.27150794863700867,-0.8111024498939514
1667824794295395300,9.178395263671876,0.2175869196653366,0.2846170961856842,-0.7172699570655823
1667824794305403100,9.188403076171875,0.18936753273010254,0.31503117084503174,-0.5894848704338074
1667824794315411500,9.198411376953125,0.17410388588905334,0.35996297001838684,-0.4285162091255188
1667824794325418200,9.208418212890624,0.17919665575027466,0.4064575135707855,-0.26546788215637207
1667824794335426300,9.21842626953125,0.20893536508083344,0.45111072063446045,-0.1380542814731598
1667824794345434000,9.22843408203125,0.2453801929950714,0.45364445447921753,-0.0572182834148407
1667824794355441400,9.23844140625,0.2709502875804901,0.42193740606307983,-0.01227371022105217
1667824794365449200,9.24844921875,0.28753191232681274,0.3510885238647461,0.010575679130852222
1667824794375456300,9.258456298828126,0.3069916367530823,0.23495684564113617,0.03458141162991524
1667824794385464000,9.268464111328125,0.3304940164089203,0.0807957798242569,0.06825628876686096
1667824794395472400,9.278472412109375,0.3523159623146057,-0.07383427768945694,0.11762197315692902
1667824794405479200,9.288479248046874,0.3639103174209595,-0.20057012140750885,0.1789495050907135
1667824794415487200,9.2984873046875,0.3554361164569855,-0.30581504106521606,0.2429434061050415
1667824794425495300,9.308495361328125,0.32631978392601013,-0.4040851593017578,0.30235958099365234
1667824794435502300,9.31850244140625,0.2745535373687744,-0.46290507912635803,0.3385913670063019
1667824794445510400,9.328510498046874,0.19436202943325043,-0.4504862129688263,0.33922305703163147
1667824794455518200,9.338518310546876,0.10014311224222183,-0.37277331948280334,0.30085277557373047
1667824794465525500,9.348525390625,-0.016874320805072784,-0.2202245146036148,0.22670131921768188
1667824794475533300,9.358533203125,-0.1492059975862503,-0.021761488169431686,0.13544650375843048
1667824794485541400,9.368541259765625,-0.28929972648620605,0.18095088005065918,0.03146018832921982
1667824794495548200,9.378548095703126,-0.41132017970085144,0.31997665762901306,-0.08114837855100632
1667824794505556200,9.38855615234375,-0.516226589679718,0.36958256363868713,-0.17176643013954163
1667824794515564300,9.398564208984375,-0.5974096059799194,0.3401341438293457,-0.23976998031139374
1667824794525571300,9.4085712890625,-0.6433454155921936,0.2563582956790924,-0.2937682271003723
1667824794535579100,9.4185791015625,-0.6471920609474182,0.10630965977907181,-0.32493600249290466
1667824794545587200,9.428587158203126,-0.6168858408927917,-0.1043224111199379,-0.3084696829319
1667824794555594200,9.43859423828125,-0.5697276592254639,-0.30077555775642395,-0.22397078573703766
1667824794565602300,9.448602294921875,-0.5286694169044495,-0.44075581431388855,-0.09117864817380905
1667824794575610400,9.4586103515625,-0.516830325126648,-0.5218541622161865,0.07123769074678421
1667824794585617400,9.468617431640626,-0.531764805316925,-0.5194975137710571,0.22766777873039246
1667824794595625500,9.47862548828125,-0.5518056154251099,-0.43657785654067993,0.3701215982437134
1667824794605632300,9.48863232421875,-0.5630841255187988,-0.2748861610889435,0.47663232684135437
1667824794615640300,9.498640380859374,-0.5587517023086548,-0.06887626647949219,0.537896990776062
1667824794625648400,9.5086484375,-0.5393463373184204,0.15582075715065002,0.5624130368232727
1667824794635655400,9.518655517578125,-0.5042724609375,0.34568125009536743,0.5365899205207825
1667824794645663200,9.528663330078125,-0.48645326495170593,0.43640634417533875,0.48239007592201233
1667824794655671300,9.53867138671875,-0.4851360619068146,0.43466252088546753,0.4037245512008667
1667824794665678300,9.54867822265625,-0.4900650382041931,0.3746412396430969,0.3290010690689087
1667824794675686400,9.558686279296875,-0.4827951490879059,0.269987016916275,0.25946858525276184
1667824794685694200,9.568694091796875,-0.4558636546134949,0.13854137063026428,0.21113035082817078
1667824794695701200,9.578701171875,-0.42117705941200256,0.021202489733695984,0.17735721170902252
1667824794705709300,9.588709228515626,-0.37730467319488525,-0.07380019128322601,0.1355019062757492
1667824794715717400,9.59871728515625,-0.3368997275829315,-0.1312648057937622,0.09810978919267654
1667824794725724200,9.60872412109375,-0.29956674575805664,-0.16626673936843872,0.05979089438915253
1667824794735732200,9.618732177734374,-0.2823890745639801,-0.18432164192199707,0.05117024481296539
1667824794745740300,9.628740234375,-0.27416762709617615,-0.1893097460269928,0.05505845695734024
1667824794755747300,9.638747314453125,-0.2822093069553375,-0.1701783835887909,0.06581150740385056
1667824794765755100,9.648755126953125,-0.30034518241882324,-0.1318773329257965,0.0698629692196846
1667824794775763200,9.65876318359375,-0.3182333707809448,-0.11010546237230301,0.06827359646558762
1667824794785770200,9.668770263671876,-0.32905805110931396,-0.12580905854701996,0.057734668254852295
1667824794795778300,9.6787783203125,-0.3319869935512543,-0.1623566895723343,0.04898671805858612
1667824794805785000,9.68878515625,-0.32424038648605347,-0.19837380945682526,0.03578143194317818
1667824794815793200,9.698793212890624,-0.3073681890964508,-0.22634418308734894,0.021752167493104935
1667824794825801500,9.708801513671874,-0.2899085283279419,-0.23505325615406036,0.012197277508676052
1667824794835808300,9.718808349609375,-0.2737700343132019,-0.2260778695344925,-0.00415373221039772
1667824794845816300,9.72881640625,-0.27180248498916626,-0.18495520949363708,-0.021215805783867836
1667824794855824100,9.73882421875,-0.27098649740219116,-0.14830371737480164,-0.03940999135375023
1667824794865831400,9.74883154296875,-0.2744714915752411,-0.13143418729305267,-0.04992707818746567
1667824794875839200,9.758839111328125,-0.28717905282974243,-0.12607990205287933,-0.05963483452796936
1667824794885847300,9.768847412109375,-0.29737308621406555,-0.1420583426952362,-0.0643552839756012
1667824794895854300,9.778854248046875,-0.30319610238075256,-0.17304448783397675,-0.043294742703437805
1667824794905862400,9.7888623046875,-0.30367201566696167,-0.2166667878627777,0.025123994797468185
1667824794915870200,9.7988701171875,-0.29013940691947937,-0.2605000436306,0.13741245865821838
1667824794925877200,9.808877197265625,-0.2562594711780548,-0.31782591342926025,0.29806286096572876
1667824794935885300,9.81888525390625,-0.20498031377792358,-0.3762412667274475,0.4993852972984314
1667824794945893400,9.828893310546874,-0.1294858157634735,-0.42590975761413574,0.7265776991844177
1667824794955900200,9.838900146484375,-0.04980430752038956,-0.4566117525100708,0.9601750373840332
1667824794965908200,9.848908203125,0.024713868275284767,-0.4877488911151886,1.1918479204177856
1667824794975916300,9.858916259765625,0.08189273625612259,-0.51734459400177,1.3992650508880615
1667824794985923300,9.86892333984375,0.12528735399246216,-0.5128419995307922,1.5584543943405151
1667824794995931400,9.878931396484376,0.14724723994731903,-0.45466312766075134,1.6614593267440796
1667824795005938200,9.888938232421875,0.14575640857219696,-0.32158443331718445,1.6887913942337036
1667824795015946500,9.898946533203125,0.11845074594020844,-0.10945751518011093,1.6378709077835083
1667824795025954300,9.908954345703124,0.09671695530414581,0.15993507206439972,1.5196313858032227
1667824795035961300,9.91896142578125,0.084989994764328,0.45641735196113586,1.3568224906921387
1667824795045969200,9.92896923828125,0.07563217729330063,0.747696042060852,1.1402356624603271
1667824795055977500,9.9389775390625,0.06220558285713196,0.9829658269882202,0.8828498721122742
1667824795065984300,9.948984375,0.05387654900550842,1.1400747299194336,0.5979821681976318
1667824795075992300,9.958992431640626,0.05896584689617157,1.179550290107727,0.302160382270813
1667824795086000000,9.969000244140625,0.07009705901145935,1.1029995679855347,0.028197016566991806
1667824795096007400,9.97900732421875,0.07657866179943085,0.9376199245452881,-0.2090352475643158
1667824795106015500,9.989015380859374,0.08445043861865997,0.7169570326805115,-0.4063057005405426
1667824795116023300,9.999023193359376,0.10261399298906326,0.48072001338005066,-0.5577524900436401
1667824795126030300,10.0090302734375,0.12609374523162842,0.26035141944885254,-0.6818893551826477
1667824795136038400,10.019038330078125,0.14882756769657135,0.10356554388999939,-0.7738352417945862
1667824795146046500,10.02904638671875,0.17026761174201965,0.017482055351138115,-0.8323787450790405
1667824795156053200,10.03905322265625,0.19313004612922668,-0.013866281136870384,-0.8389138579368591
1667824795166061300,10.049061279296875,0.21704868972301483,-0.0000655137628200464,-0.8112249374389648
1667824795176069400,10.0590693359375,0.22446373105049133,0.03355849161744118,-0.763908863067627
1667824795186076400,10.069076416015625,0.2100006341934204,0.0658613070845604,-0.698243260383606
1667824795196084500,10.07908447265625,0.18273839354515076,0.09180182218551636,-0.6274005174636841
1667824795206091500,10.089091552734375,0.13875575363636017,0.13064615428447723,-0.5640292763710022
1667824795216099600,10.099099609375,0.07869561016559601,0.17829596996307373,-0.5367404222488403
1667824795226107400,10.109107421875,0.014993863180279732,0.2371411770582199,-0.5383987426757812
1667824795236114400,10.119114501953124,-0.04718375578522682,0.31451451778411865,-0.5540784001350403
1667824795246122200,10.129122314453125,-0.10621405392885208,0.3839775025844574,-0.5721218585968018
1667824795256130600,10.139130615234375,-0.14447541534900665,0.432392418384552,-0.5730385184288025
1667824795266137300,10.149137451171875,-0.1666044294834137,0.444416880607605,-0.5408533811569214
1667824795276145400,10.1591455078125,-0.1774272471666336,0.43978217244148254,-0.4783268868923187
1667824795286153200,10.1691533203125,-0.1777857095003128,0.4256002902984619,-0.4025075137615204
1667824795296160500,10.179160400390625,-0.15905410051345825,0.38578125834465027,-0.31051793694496155
1667824795306168300,10.189168212890625,-0.1266825795173645,0.3159116208553314,-0.208984375
1667824795316176400,10.19917626953125,-0.06752444803714752,0.22890561819076538,-0.08854477852582932
1667824795326183400,10.209183349609376,0.024890968576073647,0.15263588726520538,0.040173519402742386
1667824795336191500,10.21919140625,0.13804708421230316,0.11243466287851334,0.15866687893867493
1667824795346199600,10.229199462890625,0.25870051980018616,0.10254501551389694,0.259755939245224
1667824795356206300,10.239206298828124,0.35154393315315247,0.09813695400953293,0.34654197096824646
1667824795366214400,10.24921435546875,0.4255688786506653,0.09991754591464996,0.40091919898986816
1667824795376222500,10.259222412109375,0.4637242555618286,0.09680750221014023,0.41316068172454834
1667824795386229500,10.2692294921875,0.4882564842700958,0.08275826275348663,0.38141900300979614
1667824795396237300,10.2792373046875,0.5092403292655945,0.05313326045870781,0.32632750272750854
1667824795406245400,10.289245361328126,0.5189752578735352,0.019330022856593132,0.26124677062034607
1667824795416252400,10.29925244140625,0.5343955159187317,-0.015223960392177105,0.1929825097322464
1667824795426260500,10.309260498046875,0.5624876022338867,-0.024380439892411232,0.12855611741542816
1667824795436267300,10.319267333984374,0.5900097489356995,-0.008086688816547394,0.04344574362039566
1667824795446275600,10.329275634765626,0.6022480726242065,0.07469314336776733,-0.07004539668560028
1667824795456283400,10.339283447265625,0.5979800820350647,0.24056386947631836,-0.23213815689086914
1667824795466290400,10.34929052734375,0.6102175712585449,0.4479846954345703,-0.48327213525772095
1667824795476298200,10.35929833984375,0.6376566290855408,0.5994645357131958,-0.7950824499130249
1667824795486306300,10.369306396484374,0.6639798283576965,0.613500714302063,-1.0858021974563599
1667824795496313300,10.379313232421875,0.6878031492233276,0.4848055839538574,-1.317264437675476
1667824795506321400,10.3893212890625,0.7161501049995422,0.2420368641614914,-1.4522504806518555
1667824795516329500,10.39932958984375,0.7536966800689697,-0.14862994849681854,-1.4652490615844727
1667824795526336500,10.40933642578125,0.7960997819900513,-0.6212696433067322,-1.3519635200500488
1667824795536344600,10.419344482421875,0.8019025921821594,-1.0364407300949097,-1.144081711769104
1667824795546352400,10.429352294921875,0.7480052709579468,-1.2989221811294556,-0.8841202259063721
1667824795556359400,10.439359375,0.6294634342193604,-1.383684515953064,-0.5966165065765381
1667824795566367500,10.449367431640624,0.48523807525634766,-1.2821680307388306,-0.281607449054718
1667824795576375600,10.45937548828125,0.31405967473983765,-0.981935977935791,0.010390855371952057
1667824795586382300,10.46938232421875,0.10337219387292862,-0.5224099159240723,0.24540549516677856
1667824795596390400,10.479390380859375,-0.16981805860996246,-0.02220676839351654,0.4024430513381958
1667824795606397400,10.4893974609375,-0.4847267270088196,0.376350998878479,0.4784992039203644
1667824795616405500,10.499405517578126,-0.7984556555747986,0.62650465965271,0.4531712234020233
1667824795626413300,10.509413330078125,-1.0662894248962402,0.7586296796798706,0.3245890140533447
1667824795636420600,10.519420654296875,-1.2785524129867554,0.7733180522918701,0.1477830708026886
1667824795646428400,10.529428466796874,-1.4414255619049072,0.7333424091339111,-0.0318324975669384
1667824795656436500,10.5394365234375,-1.5411909818649292,0.6738777756690979,-0.19928407669067383
1667824795666443300,10.549443359375,-1.5764211416244507,0.5941200852394104,-0.33067724108695984
1667824795676451300,10.559451416015625,-1.5539469718933105,0.4586429297924042,-0.41037046909332275
1667824795686459400,10.56945947265625,-1.4786826372146606,0.26874783635139465,-0.4147756099700928
1667824795696466400,10.579466552734376,-1.3716579675674438,0.07099881023168564,-0.36408182978630066
1667824795706474200,10.58947412109375,-1.2313247919082642,-0.10073833167552948,-0.26390540599823
1667824795716482300,10.599482421875,-1.0903767347335815,-0.22547094523906708,-0.12709403038024902
1667824795726489300,10.6094892578125,-0.9797793626785278,-0.29868629574775696,0.030225014314055443
1667824795736497400,10.619497314453126,-0.892802894115448,-0.3390483558177948,0.19115504622459412
1667824795746505500,10.62950537109375,-0.822796642780304,-0.33784249424934387,0.357522189617157
1667824795756512500,10.639512451171875,-0.7605285048484802,-0.3201463222503662,0.5028636455535889
1667824795766520600,10.6495205078125,-0.7115090489387512,-0.2704884707927704,0.6245368123054504
1667824795776527400,10.65952734375,-0.675736129283905,-0.19425763189792633,0.7168566584587097
1667824795786535400,10.669535400390625,-0.6571906805038452,-0.12410517036914825,0.7927783131599426
1667824795796543200,10.679543212890625,-0.638457715511322,-0.05505206808447838,0.8282819986343384
1667824795806550500,10.689550537109374,-0.613498330116272,0.017594972625374794,0.8131275177001953
1667824795816558300,10.699558349609376,-0.5763064622879028,0.05709657445549965,0.7532719373703003
1667824795826566400,10.70956640625,-0.5363513231277466,0.03272652253508568,0.6723477840423584
1667824795836573400,10.719573486328125,-0.4969000518321991,-0.029167473316192627,0.5828655362129211
1667824795846581500,10.72958154296875,-0.4553440809249878,-0.11086446791887283,0.4990806579589844
1667824795856589300,10.73958935546875,-0.3945004343986511,-0.22836366295814514,0.42950475215911865
1667824795866596400,10.749596435546875,-0.31205058097839355,-0.35892701148986816,0.3672320544719696
1667824795876604400,10.7596044921875,-0.20839768648147583,-0.46689021587371826,0.3025233745574951
1667824795886612500,10.769612548828125,-0.10236791521310806,-0.5241580605506897,0.22507812082767487
1667824795896619300,10.779619384765626,-0.0046544065698981285,-0.5095886588096619,0.1316451132297516
1667824795906627300,10.78962744140625,0.07570780813694,-0.480245977640152,0.01973855122923851
1667824795916635400,10.799635498046875,0.13356710970401764,-0.47831010818481445,-0.10044298321008682
1667824795926642400,10.809642333984375,0.16804972290992737,-0.5199715495109558,-0.19748377799987793
1667824795936650500,10.819650390625,0.1886570006608963,-0.604099452495575,-0.2537531852722168
1667824795946657500,10.829657470703125,0.194319948554039,-0.7048247456550598,-0.26582154631614685
1667824795956665600,10.83966552734375,0.18991240859031677,-0.779592752456665,-0.23848474025726318
1667824795966673400,10.84967333984375,0.17368018627166748,-0.8145437836647034,-0.16477829217910767
1667824795976680400,10.859680419921874,0.15138418972492218,-0.809482991695404,-0.06089344248175621
1667824795986688300,10.869688232421876,0.13455595076084137,-0.7477898001670837,0.05059367045760155
1667824795996696600,10.879696533203125,0.12827594578266144,-0.6606612801551819,0.1699024885892868
1667824796006703400,10.889703369140625,0.11719612777233124,-0.5688932538032532,0.29636508226394653
1667824796016711400,10.89971142578125,0.10590352863073349,-0.4694516360759735,0.4238937497138977
1667824796026719200,10.90971923828125,0.0947912260890007,-0.3799438774585724,0.5460577607154846
1667824796036726500,10.9197265625,0.0949598029255867,-0.3211391270160675,0.6536476016044617
1667824796046734300,10.929734375,0.09194403886795044,-0.3063197135925293,0.7361992001533508
1667824796056742400,10.939742431640624,0.09066944569349289,-0.35519298911094666,0.8171589970588684
1667824796066749400,10.94974951171875,0.07874860614538193,-0.420766144990921,0.9040393233299255
1667824796076757500,10.959757568359375,0.07516106218099594,-0.4634057283401489,0.9871432781219482
1667824796086765600,10.969765625,0.08393431454896927,-0.4735976457595825,1.0658042430877686
1667824796096771800,10.979771728515624,0.08435003459453583,-0.45512303709983826,1.135771632194519
1667824796106779600,10.989779541015626,0.06000181660056114,-0.3783033490180969,1.1951731443405151
1667824796116787700,10.99978759765625,0.016520120203495026,-0.22719773650169373,1.220442295074463
1667824796126794500,11.00979443359375,-0.02937173657119274,-0.007745271548628807,1.197548747062683
1667824796136802600,11.019802490234374,-0.0627233013510704,0.26994839310646057,1.108582615852356
1667824796146809600,11.0298095703125,-0.08226344734430313,0.5690469741821289,0.9543293714523315
1667824796156817700,11.039817626953125,-0.09432677179574966,0.8252677917480469,0.7594602704048157
1667824796166825500,11.049825439453125,-0.09656329452991486,1.0073864459991455,0.5176604390144348
1667824796176832800,11.059832763671874,-0.09694439172744751,1.0935043096542358,0.2595064043998718
1667824796186840600,11.069840576171876,-0.10004431009292603,1.0614819526672363,0.019471701234579086
1667824796196848600,11.0798486328125,-0.11257288604974747,0.909904956817627,-0.19980019330978394
1667824796206855400,11.08985546875,-0.1097230315208435,0.6950581669807434,-0.39500725269317627
1667824796216863700,11.09986376953125,-0.11648373305797577,0.47107377648353577,-0.5779754519462585
1667824796226871800,11.109871826171876,-0.12991219758987427,0.28468579053878784,-0.7514311075210571
1667824796236878600,11.119878662109375,-0.1499255746603012,0.16772322356700897,-0.9034693837165833
1667824796246886700,11.12988671875,-0.1859632134437561,0.1198507696390152,-1.0089420080184937
1667824796256894500,11.13989453125,-0.22812610864639282,0.12457069009542465,-1.0509328842163086
1667824796266901800,11.14990185546875,-0.2809557616710663,0.14261600375175476,-1.0384352207183838
1667824796276909600,11.15990966796875,-0.3353061079978943,0.14746855199337006,-0.9566764235496521
1667824796286916600,11.16991650390625,-0.38367390632629395,0.1483098417520523,-0.8108941912651062
1667824796296924700,11.179924560546874,-0.4260522425174713,0.14977137744426727,-0.6372177600860596
1667824796306932700,11.1899326171875,-0.45139753818511963,0.14455930888652802,-0.4508249759674072
1667824796316939500,11.199939453125,-0.46968787908554077,0.1361602395772934,-0.27329811453819275
1667824796326947600,11.209947509765625,-0.4808787405490875,0.1595126986503601,-0.11976901441812515
1667824796336955600,11.21995556640625,-0.4868391454219818,0.1728665828704834,0.005751362536102533
1667824796346962700,11.229962646484376,-0.47516146302223206,0.17053818702697754,0.10228562355041504
1667824796356970500,11.239970458984375,-0.4379967749118805,0.15096847712993622,0.1820472925901413
1667824796366978600,11.249978515625,-0.388908326625824,0.10802074521780014,0.2499845325946808
1667824796376985600,11.259985595703125,-0.33618733286857605,0.03905845433473587,0.31083589792251587
1667824796386993700,11.26999365234375,-0.3083314597606659,-0.027528829872608185,0.356256902217865
1667824796397001500,11.28000146484375,-0.3069618046283722,-0.08964386582374573,0.3823827803134918
1667824796407008800,11.2900087890625,-0.33493033051490784,-0.1450410783290863,0.4123084545135498
1667824796417016600,11.3000166015625,-0.37423965334892273,-0.16538123786449432,0.4320371747016907
1667824796427024600,11.310024658203124,-0.4223054349422455,-0.14096617698669434,0.45222577452659607
1667824796437031400,11.320031494140625,-0.4778432548046112,-0.0927957147359848,0.47591355443000793
1667824796447039500,11.33003955078125,-0.5321166515350342,-0.04470488801598549,0.5070440173149109
1667824796457046500,11.340046630859375,-0.5582981705665588,-0.008167648687958717,0.5492634177207947
1667824796467054600,11.3500546875,-0.5433983206748962,0.03356275334954262,0.581222414970398
1667824796477062700,11.360062744140626,-0.481513112783432,0.04915183410048485,0.5676764845848083
1667824796487069700,11.370069580078125,-0.37454643845558167,0.011573032476007938,0.5194634199142456
1667824796497077800,11.380077880859375,-0.24342437088489532,-0.09130754321813583,0.42539843916893005
1667824796507085600,11.39008544921875,-0.13202594220638275,-0.19963347911834717,0.29468995332717896
1667824796517092600,11.400092529296876,-0.052921004593372345,-0.24168799817562103,0.11720997840166092
1667824796527100700,11.4101005859375,-0.006876548286527395,-0.18275703489780426,-0.10277564823627472
1667824796537108700,11.420108642578125,0.022052304819226265,0.0009424926829524338,-0.37175729870796204
1667824796547115500,11.430115478515624,0.03253290802240372,0.24260598421096802,-0.6618751287460327
1667824796557123600,11.44012353515625,0.0036019254475831985,0.432536244392395,-0.9470610618591309
1667824796567131400,11.45013134765625,-0.06321865320205688,0.4895941913127899,-1.1798131465911865
1667824796577138700,11.460138671875,-0.13452158868312836,0.31273153424263,-1.3365209102630615
1667824796587146500,11.470146484375,-0.17884990572929382,-0.07211121171712875,-1.3679451942443848
1667824796597153500,11.480153564453126,-0.1851205825805664,-0.5715487003326416,-1.2841274738311768
1667824796607161600,11.49016162109375,-0.1590050905942917,-1.0719643831253052,-1.1178061962127686
1667824796617169700,11.500169677734375,-0.12879179418087006,-1.462285041809082,-0.8780399560928345
1667824796627176400,11.510176513671874,-0.1550028920173645,-1.6450923681259155,-0.609993040561676
1667824796637184500,11.5201845703125,-0.24019502103328705,-1.685045599937439,-0.34444499015808105
1667824796647192800,11.53019287109375,-0.3693876266479492,-1.6194370985031128,-0.1096295565366745
1667824796657199600,11.54019970703125,-0.5551721453666687,-1.5130597352981567,0.08173374831676483
1667824796667207700,11.550207763671875,-0.8166540861129761,-1.3761091232299805,0.24377404153347015
1667824796677215500,11.560215576171874,-1.1418402194976807,-1.2346385717391968,0.33489277958869934
1667824796687222800,11.570222900390625,-1.5063751935958862,-1.0176090002059937,0.3712606430053711
1667824796697230600,11.580230712890625,-1.8409780263900757,-0.7917812466621399,0.38962259888648987
1667824796707238700,11.59023876953125,-2.081214189529419,-0.6352694034576416,0.35524463653564453
1667824796717245700,11.60024560546875,-2.2094359397888184,-0.5437772870063782,0.27194178104400635
1667824796727253800,11.610253662109375,-2.2535877227783203,-0.4908328354358673,0.13739673793315887
1667824796737261600,11.620261474609375,-2.219649076461792,-0.4773250222206116,-0.02653360553085804
1667824796747268600,11.6302685546875,-2.1496939659118652,-0.5060474872589111,-0.17149718105793
1667824796757276400,11.6402763671875,-2.0780742168426514,-0.5494886636734009,-0.2640920877456665
1667824796767283700,11.65028369140625,-2.0136160850524902,-0.5925738215446472,-0.27465713024139404
1667824796777291500,11.66029150390625,-1.9446982145309448,-0.6119552850723267,-0.21707825362682343
1667824796787299600,11.670299560546875,-1.8850948810577393,-0.5880792140960693,-0.0671050027012825
1667824796797306600,11.680306640625,-1.844852089881897,-0.5680407881736755,0.16897358000278473
1667824796807314700,11.690314697265626,-1.8305981159210205,-0.5552621483802795,0.47563445568084717
1667824796817322800,11.70032275390625,-1.8507014513015747,-0.5178431272506714,0.7878443002700806
1667824796827329500,11.71032958984375,-1.8922302722930908,-0.4294035732746124,1.0592526197433472
1667824796837337900,11.720337890625,-1.94645094871521,-0.2936646342277527,1.2615056037902832
1667824796847345700,11.730345703125,-2.0130724906921387,-0.11193186044692993,1.3901748657226562
1667824796857352700,11.740352783203125,-2.090153217315674,0.08966570347547531,1.4364135265350342
1667824796867360500,11.750360595703125,-2.160482406616211,0.25792980194091797,1.4049162864685059
1667824796877368600,11.76036865234375,-2.2395565509796143,0.36196672916412354,1.3198096752166748
1667824796887375600,11.770375732421876,-2.3408024311065674,0.4098852574825287,1.2105337381362915
1667824796897383700,11.7803837890625,-2.454089641571045,0.4023115038871765,1.1177598237991333
1667824796907391500,11.7903916015625,-2.569793462753296,0.319828063249588,1.0874104499816895
1667824796917398800,11.800398681640624,-2.686472177505493,0.17693482339382172,1.1304165124893188
1667824796927406600,11.810406494140626,-2.7847633361816406,0.008552475832402706,1.2405662536621094
1667824796937413600,11.82041357421875,-2.858081102371216,-0.15144838392734528,1.3810772895812988
1667824796947421400,11.83042138671875,-2.9240968227386475,-0.26627057790756226,1.506525993347168
1667824796957429800,11.8404296875,-3.0013723373413086,-0.3681223690509796,1.5771127939224243
1667824796967436500,11.8504365234375,-3.0928375720977783,-0.5020447373390198,1.5783729553222656
1667824796977444600,11.860444580078125,-3.1753041744232178,-0.6473391056060791,1.506443738937378
1667824796987452400,11.870452392578125,-3.230551242828369,-0.7253435850143433,1.3633592128753662
1667824796997459700,11.880459716796874,-3.253986120223999,-0.6195471286773682,1.1225831508636475
1667824797007467500,11.890467529296876,-3.2635750770568848,-0.26410648226737976,0.7815024852752686
1667824797017475600,11.9004755859375,-3.274966239929199,0.2292419821023941,0.4061560332775116
1667824797027482600,11.910482666015625,-3.3052399158477783,0.6416990756988525,0.08882467448711395
1667824797037490700,11.92049072265625,-3.3620083332061768,0.9108541011810303,-0.09059514850378036
1667824797047498800,11.930498779296874,-3.387460947036743,0.9539893269538879,-0.1212497279047966
1667824797057505500,11.940505615234375,-3.347733736038208,0.6220456957817078,0.03894473612308502
1667824797067513600,11.950513671875,-3.2666852474212646,-0.044672928750514984,0.377284437417984
1667824797077520600,11.960520751953124,-3.1850714683532715,-0.8558204174041748,0.8174921870231628
1667824797087528700,11.97052880859375,-3.1381969451904297,-1.575637936592102,1.2474385499954224
1667824797097541000,11.980541015625,-3.1316823959350586,-2.196143865585327,1.5388394594192505
1667824797107548200,11.990548095703126,-3.1875486373901367,-2.6683902740478516,1.644168496131897
1667824797117556000,12.000555908203125,-3.3337650299072266,-2.836364269256592,1.6231762170791626
1667824797127564300,12.010564208984375,-3.512362480163574,-2.6278626918792725,1.5108290910720825
1667824797137571000,12.020571044921875,-3.6184396743774414,-2.1080048084259033,1.3656713962554932
1667824797147579100,12.0305791015625,-3.6066408157348633,-1.5133415460586548,1.2621256113052368
1667824797157587000,12.0405869140625,-3.4949769973754883,-1.0326253175735474,1.2236658334732056
1667824797167594200,12.05059423828125,-3.3622357845306396,-0.9064249992370605,1.2168294191360474
1667824797177602000,12.06060205078125,-3.3272202014923096,-1.1294900178909302,1.2214430570602417
1667824797187610000,12.070610107421874,-3.340996503829956,-1.3374056816101074,1.2567070722579956
1667824797197617200,12.0806171875,-3.3292386531829834,-1.3254328966140747,1.339686393737793
1667824797207625200,12.090625244140625,-3.2237184047698975,-1.3152247667312622,1.3787750005722046
1667824797217633000,12.100633056640625,-3.0287697315216064,-1.3217787742614746,1.3682469129562378
1667824797227640000,12.11064013671875,-2.7717761993408203,-1.3183776140213013,1.4125938415527344
1667824797237648100,12.120648193359376,-2.4503371715545654,-1.3865045309066772,1.5226967334747314
1667824797247655200,12.1306552734375,-2.085232734680176,-1.382951259613037,1.6707117557525635
1667824797257663000,12.1406630859375,-1.7372089624404907,-0.7404144406318665,1.6421650648117065
1667824797267671000,12.150671142578124,-1.461542010307312,-0.23896464705467224,1.6203750371932983
1667824797277678000,12.160677978515626,-1.298877477645874,-0.4503277540206909,1.7168678045272827
1667824797287686100,12.17068603515625,-1.2797207832336426,-0.8536903858184814,1.8821427822113037
1667824797297694200,12.180694091796875,-1.3075337409973145,-1.1598540544509888,2.0090644359588623
1667824797307701000,12.190700927734374,-1.249364972114563,-1.3048278093338013,2.068767547607422
1667824797317709300,12.200709228515626,-1.088917851448059,-1.4707618951797485,2.1227450370788574
1667824797327717000,12.210717041015625,-0.881809651851654,-1.6487832069396973,2.2005069255828857
1667824797337724200,12.22072412109375,-0.6469529271125793,-1.730749487876892,2.2868547439575195
1667824797347732000,12.23073193359375,-0.4059291183948517,-1.7359634637832642,2.384336471557617
1667824797357740300,12.240740234375,-0.16333885490894318,-1.6864304542541504,2.450312614440918
1667824797367747000,12.2507470703125,0.058944541960954666,-1.5618643760681152,2.442969799041748
1667824797377755100,12.260755126953125,0.20894628763198853,-1.3922785520553589,2.349325656890869
1667824797387762200,12.27076220703125,0.24805587530136108,-1.2563207149505615,2.1605613231658936
1667824797397770200,12.280770263671876,0.18348939716815948,-1.1965023279190063,1.8575894832611084
1667824797407778000,12.290778076171875,-0.014673484489321709,-1.2446504831314087,1.4515737295150757
1667824797417785000,12.30078515625,-0.3124023675918579,-1.5631786584854126,1.0293620824813843
1667824797427793200,12.310793212890625,-0.6227077841758728,-1.9599720239639282,0.6481404304504395
1667824797437801200,12.32080126953125,-0.8313621878623962,-2.183764934539795,0.3133006691932678
1667824797447808000,12.33080810546875,-0.9107645750045776,-2.2563767433166504,0.038248054683208466
1667824797457816000,12.340816162109375,-0.9009976983070374,-2.185304641723633,-0.21822208166122437
1667824797467824000,12.35082421875,-0.8581051230430603,-2.0411288738250732,-0.45631641149520874
1667824797477831200,12.3608310546875,-0.8152740597724915,-1.993694543838501,-0.6559083461761475
1667824797487839200,12.370839111328126,-0.7833065390586853,-2.1013550758361816,-0.763913094997406
1667824797497847000,12.380846923828125,-0.7633472084999084,-2.29618501663208,-0.8081855177879333
1667824797507854300,12.390854248046875,-0.7767319679260254,-2.4294939041137695,-0.8086771368980408
