time,seconds_elapsed,z,y,x
1667824785139651000,0.022651123046875,-0.2872728407382965,-0.5527734756469727,-0.30443036556243896
1667824785149658000,0.032658203125,-0.27046412229537964,-0.6444295644760132,-0.2934015989303589
1667824785159666200,0.042666259765625,-0.23555965721607208,-0.7292160987854004,-0.29359200596809387
1667824785169674200,0.05267431640625,-0.19039517641067505,-0.8199219703674316,-0.3049309253692627
1667824785179681000,0.062680908203125,-0.1510605663061142,-0.9824506640434265,-0.34853407740592957
1667824785189689000,0.072689208984375,-0.12398398667573929,-1.2012699842453003,-0.4120447635650635
1667824785199697000,0.08269677734375,-0.11152572184801102,-1.4607255458831787,-0.5068863034248352
1667824785209704200,0.0927041015625,-0.10967765748500824,-1.7073389291763306,-0.6122156381607056
1667824785219712000,0.1027119140625,-0.13250494003295898,-1.9583498239517212,-0.6924020648002625
1667824785229720000,0.112719970703125,-0.1716807782649994,-2.222580909729004,-0.755459725856781
1667824785239727000,0.12272705078125,-0.2319907248020172,-2.451387882232666,-0.806710958480835
1667824785249735200,0.132735107421875,-0.3101713955402374,-2.574687957763672,-0.8523972630500793
1667824785259742000,0.142741943359375,-0.37697359919548035,-2.6159775257110596,-0.9002180695533752
1667824785269750000,0.15275,-0.4132344424724579,-2.5625786781311035,-0.9236753582954407
1667824785279758300,0.16275830078125,-0.44628003239631653,-2.455796241760254,-0.9178462624549866
1667824785289765000,0.17276513671875,-0.44421282410621643,-2.2976512908935547,-0.8889387845993042
1667824785299773200,0.182773193359375,-0.42490091919898987,-2.0641822814941406,-0.8298403024673462
1667824785309781000,0.192781005859375,-0.30249667167663574,-1.886061191558838,-0.764802873134613
1667824785319788300,0.202788330078125,-0.09254184365272522,-1.8580598831176758,-0.7215318083763123
1667824785329796000,0.212796142578125,0.12317715585231781,-1.8829808235168457,-0.6543644666671753
1667824785339804200,0.22280419921875,0.31898635625839233,-1.7455846071243286,-0.5902587175369263
1667824785349811200,0.232811279296875,0.4763660430908203,-1.240606427192688,-0.5850649476051331
1667824785359819300,0.2428193359375,0.5720717906951904,-0.43634670972824097,-0.6635839939117432
1667824785369827000,0.2528271484375,0.493936687707901,0.3791358768939972,-0.8307974934577942
1667824785379834000,0.262834228515625,0.4225738048553467,1.1170456409454346,-1.0390084981918335
1667824785389842000,0.272842041015625,0.3272567093372345,1.806171178817749,-1.141830325126648
1667824785399849200,0.28284912109375,0.10004884749650955,2.461829900741577,-1.038741946220398
1667824785409857000,0.29285693359375,-0.15954747796058655,3.0739247798919678,-0.8319080471992493
1667824785419865000,0.302864990234375,-0.03090747259557247,3.393975257873535,-0.7021138072013855
1667824785429872000,0.3128720703125,0.42991235852241516,3.3650872707366943,-0.594430148601532
1667824785439880200,0.322880126953125,0.8546546101570129,2.867089033126831,-0.4460121691226959
1667824785449888300,0.33288818359375,0.8579996824264526,2.1497416496276855,-0.06694036722183228
1667824785459895000,0.34289501953125,0.6995248198509216,1.2617499828338623,0.32792413234710693
1667824785469903000,0.352903076171875,0.5741654634475708,0.009830594062805176,0.6378876566886902
1667824785479911200,0.3629111328125,0.39066433906555176,-1.2583539485931396,0.9798442125320435
1667824785489918200,0.372918212890625,0.19009192287921906,-2.4627881050109863,1.3426761627197266
1667824785499926000,0.382926025390625,0.006656048819422722,-3.5734517574310303,1.7101833820343018
1667824785509934000,0.39293408203125,-0.1394384205341339,-4.491924285888672,2.060149908065796
1667824785519941000,0.402941162109375,-0.15723419189453125,-1.7470998764038086,1.4887943267822266
1667824785529949200,0.41294921875,-0.3025660216808319,2.0452117919921875,0.7425702214241028
1667824785539957000,0.42295703125,-0.39624378085136414,2.434323310852051,0.8276802897453308
1667824785549964300,0.43296435546875,-0.471426397562027,1.6114718914031982,0.896395206451416
1667824785559972000,0.44297216796875,-0.7112696170806885,0.8073141574859619,0.8029454350471497
1667824785569979100,0.452979248046875,-1.0366424322128296,0.7832709550857544,0.590954601764679
1667824785579987000,0.462987060546875,-1.4113678932189941,0.7150977849960327,0.43637698888778687
1667824785589995300,0.472995361328125,-1.7208062410354614,0.499158650636673,0.3233160376548767
1667824785600002000,0.483001953125,-1.8935588598251343,0.17004361748695374,0.24679701030254364
1667824785610010000,0.493010009765625,-1.9326475858688354,-0.04389644041657448,0.209097757935524
1667824785620018000,0.503017822265625,-1.8794221878051758,-0.04696706309914589,0.20226143300533295
1667824785630025200,0.513025146484375,-1.7852554321289062,0.042059384286403656,0.23049230873584747
1667824785640033000,0.523032958984375,-1.7074203491210938,0.15791621804237366,0.28008195757865906
1667824785650041000,0.533041015625,-1.6607890129089355,0.32644665241241455,0.3220960199832916
1667824785660048100,0.543048095703125,-1.7787649631500244,0.5873512029647827,0.34426549077033997
1667824785670056200,0.55305615234375,-1.937748908996582,0.8548367619514465,0.3115161955356598
1667824785680064300,0.563064208984375,-2.034968614578247,1.0571401119232178,0.2310599833726883
1667824785690071000,0.573071044921875,-2.0993576049804688,1.1063785552978516,0.19087541103363037
1667824785700079000,0.5830791015625,-2.028707265853882,0.9368585348129272,0.18774168193340302
1667824785710086100,0.593086181640625,-1.9186351299285889,0.8400620222091675,0.15432335436344147
1667824785720094200,0.60309423828125,-1.802304983139038,0.748787522315979,0.10837236791849136
1667824785730102000,0.61310205078125,-1.6972941160202026,0.5715356469154358,0.07761353254318237
1667824785740109300,0.623109375,-1.6237589120864868,0.3749461770057678,0.06489560008049011
1667824785750117000,0.6331171875,-1.5121469497680664,0.16690576076507568,0.05802874639630318
1667824785760125200,0.643125244140625,-1.3589859008789062,0.05357307195663452,0.044059403240680695
1667824785770132000,0.653132080078125,-1.1967428922653198,0.07999806851148605,0.032196223735809326
1667824785780140300,0.663140380859375,-1.0454593896865845,0.20012527704238892,0.019511854276061058
1667824785790148000,0.673148193359375,-0.9016373157501221,0.36016449332237244,-0.01682840660214424
1667824785800155100,0.683155029296875,-0.757581889629364,0.5259936451911926,-0.0785229280591011
1667824785810163000,0.693162841796875,-0.6262738704681396,0.6811522245407104,-0.1665738821029663
1667824785820170200,0.703170166015625,-0.5051029920578003,0.7947211265563965,-0.2628926932811737
1667824785830178000,0.713177978515625,-0.4121130108833313,0.8545364737510681,-0.36171963810920715
1667824785840186000,0.72318603515625,-0.3491111397743225,0.8667047023773193,-0.45604613423347473
1667824785850193000,0.73319287109375,-0.31933045387268066,0.7748970985412598,-0.5461750030517578
1667824785860201200,0.743201171875,-0.3238096237182617,0.5960977673530579,-0.6294770836830139
1667824785870209300,0.753209228515625,-0.3594261407852173,0.3853229880332947,-0.6995116472244263
1667824785880216000,0.763216064453125,-0.41412800550460815,0.17395615577697754,-0.7542694211006165
1667824785890224000,0.77322412109375,-0.48449546098709106,-0.06301509588956833,-0.7689493298530579
1667824785900232200,0.783232177734375,-0.5450813174247742,-0.25120604038238525,-0.7405480146408081
1667824785910239200,0.7932392578125,-0.5601386427879333,-0.3470064401626587,-0.6653373837471008
1667824785920247000,0.8032470703125,-0.5215976238250732,-0.3529319763183594,-0.5530579686164856
1667824785930255000,0.813255126953125,-0.43873244524002075,-0.29115334153175354,-0.39855772256851196
1667824785940262100,0.82326220703125,-0.34627655148506165,-0.19708143174648285,-0.20916171371936798
1667824785950270200,0.833270263671875,-0.26875343918800354,-0.07313652336597443,-0.016421353444457054
1667824785960277000,0.843277099609375,-0.18822398781776428,0.06560032069683075,0.17137198150157928
1667824785970285000,0.85328515625,-0.10813342034816742,0.1971643716096878,0.33734893798828125
1667824785980293000,0.863293212890625,-0.037401724606752396,0.33767837285995483,0.46674367785453796
1667824785990300200,0.873300048828125,0.010584777221083641,0.4681882858276367,0.5629620552062988
1667824786000308000,0.883307861328125,0.02567105181515217,0.5233732461929321,0.6282928586006165
1667824786010316000,0.89331591796875,0.004698659293353558,0.515409529209137,0.6649259328842163
1667824786020323000,0.903322998046875,-0.04526010900735855,0.47878676652908325,0.6842452883720398
1667824786030331100,0.9133310546875,-0.10427917540073395,0.4361802935600281,0.6740341782569885
1667824786040339200,0.923339111328125,-0.14030136168003082,0.3679988384246826,0.6452845335006714
1667824786050346200,0.93334619140625,-0.17092613875865936,0.282195121049881,0.600297749042511
1667824786060354300,0.943354248046875,-0.19069477915763855,0.20614376664161682,0.5426408648490906
1667824786070362000,0.953362060546875,-0.17181427776813507,0.12180396169424057,0.4940933883190155
1667824786080369200,0.963369140625,-0.08377602696418762,-0.014759736135601997,0.4943051040172577
1667824786090377200,0.973377197265625,-0.0017888352740556002,-0.08855176717042923,0.5346046090126038
1667824786100384300,0.98338427734375,0.07231441885232925,-0.14993736147880554,0.5712376832962036
1667824786110392300,0.993392333984375,0.12215779721736908,-0.1850423663854599,0.5959079265594482
1667824786120400100,1.003400146484375,0.16761209070682526,-0.2082507461309433,0.6151444315910339
1667824786130407400,1.013407470703125,0.2339227795600891,-0.18743900954723358,0.6086792349815369
1667824786140415200,1.023415283203125,0.31995993852615356,-0.13185644149780273,0.5817983746528625
1667824786150423300,1.03342333984375,0.37916362285614014,-0.031146368011832237,0.5247467756271362
1667824786160430000,1.04343017578125,0.374885231256485,0.06125226989388466,0.4535469114780426
1667824786170438400,1.0534384765625,0.31916236877441406,0.076370969414711,0.3771097660064697
1667824786180446500,1.063446533203125,0.23046205937862396,0.03991469368338585,0.2882387638092041
1667824786190453200,1.073453369140625,0.13571955263614655,-0.02268488146364689,0.17976440489292145
1667824786200461300,1.08346142578125,0.036518655717372894,-0.09774608165025711,0.060329075902700424
1667824786210469000,1.09346923828125,-0.043870825320482254,-0.14451870322227478,-0.061837371438741684
1667824786220476400,1.103476318359375,-0.10638134181499481,-0.186456561088562,-0.19475866854190826
1667824786230484200,1.113484130859375,-0.13988284766674042,-0.2928653061389923,-0.32351160049438477
1667824786240491300,1.1234912109375,-0.1340358704328537,-0.27845412492752075,-0.3987389802932739
1667824786250499300,1.133499267578125,-0.07921004295349121,-0.1784842163324356,-0.4178648591041565
1667824786260507400,1.14350732421875,0.01671915128827095,-0.059394046664237976,-0.4378372132778168
1667824786270514200,1.15351416015625,0.11369749158620834,0.11851532012224197,-0.47573840618133545
1667824786280522200,1.163522216796875,0.21268638968467712,0.27724558115005493,-0.5208745002746582
1667824786290530300,1.1735302734375,0.32456889748573303,0.3070281147956848,-0.5436191558837891
1667824786300537300,1.183537353515625,0.40884914994239807,0.18520690500736237,-0.4854956865310669
1667824786310545200,1.193545166015625,0.46572345495224,-0.046691037714481354,-0.3661700487136841
1667824786320553200,1.20355322265625,0.5086110234260559,-0.24634529650211334,-0.24151307344436646
1667824786330560300,1.213560302734375,0.520682156085968,-0.3353714346885681,-0.12111980468034744
1667824786340568300,1.223568359375,0.4968084692955017,-0.3718703091144562,-0.008696327917277813
1667824786350576400,1.233576416015625,0.4508974254131317,-0.36858001351356506,0.07277017086744308
1667824786360583400,1.24358349609375,0.40269607305526733,-0.2900572419166565,0.09329009056091309
1667824786370591500,1.253591552734375,0.36695316433906555,-0.16269749402999878,0.07046256959438324
1667824786380598300,1.263598388671875,0.32715141773223877,-0.009591839276254177,0.038113150745630264
1667824786390606300,1.2736064453125,0.25441262125968933,0.15083275735378265,0.010872023180127144
1667824786400614100,1.2836142578125,0.16317273676395416,0.27664899826049805,0.013726131990551949
1667824786410621400,1.293621337890625,0.08243564516305923,0.3822947144508362,0.04185660183429718
1667824786420629200,1.303629150390625,0.017567699775099754,0.4796857237815857,0.08711915463209152
1667824786430637300,1.31363720703125,-0.03666186332702637,0.5570250749588013,0.1335165947675705
1667824786440644400,1.323644287109375,-0.09134961664676666,0.5958795547485352,0.15812259912490845
1667824786450652400,1.33365234375,-0.1514621526002884,0.582292377948761,0.1375972330570221
1667824786460660200,1.34366015625,-0.21620839834213257,0.4028528332710266,0.16103385388851166
1667824786470667300,1.353667236328125,-0.306250661611557,0.09515685588121414,0.23599441349506378
1667824786480675300,1.36367529296875,-0.41025349497795105,-0.14882545173168182,0.29562127590179443
1667824786490682400,1.373682373046875,-0.49393904209136963,-0.22392435371875763,0.304593026638031
1667824786500690200,1.383690185546875,-0.5457907319068909,-0.16807840764522552,0.28566673398017883
1667824786510698200,1.3936982421875,-0.5856353044509888,-0.029049571603536606,0.23564985394477844
1667824786520705300,1.403705322265625,-0.6226359605789185,0.14154160022735596,0.15344686806201935
1667824786530713300,1.41371337890625,-0.6635341048240662,0.27125295996665955,0.03906617313623428
1667824786540721200,1.42372119140625,-0.6897196769714355,0.32365092635154724,-0.06512387841939926
1667824786550728400,1.433728515625,-0.7106141448020935,0.33701473474502563,-0.1527784913778305
1667824786560736300,1.443736328125,-0.7170605659484863,0.3476122319698334,-0.24635984003543854
1667824786570744300,1.453744384765625,-0.7051544785499573,0.372806191444397,-0.3620448708534241
1667824786580751000,1.463751220703125,-0.6974267959594727,0.4228147566318512,-0.5141079425811768
1667824786590759200,1.47375927734375,-0.6944084167480469,0.49106284976005554,-0.6870635747909546
1667824786600767500,1.483767578125,-0.6908405423164368,0.5633758902549744,-0.8602036237716675
1667824786610774300,1.493774169921875,-0.6629126071929932,0.5696051716804504,-0.9639255404472351
1667824786620782300,1.5037822265625,-0.6233851909637451,0.4778802990913391,-0.9642991423606873
1667824786630789400,1.513789306640625,-0.55881667137146,0.3657945990562439,-0.8898086547851562
1667824786640797400,1.52379736328125,-0.47747308015823364,0.26448342204093933,-0.7658987045288086
1667824786650805200,1.53380517578125,-0.3972257971763611,0.13433298468589783,-0.5942528247833252
1667824786660812300,1.543812255859375,-0.32730209827423096,-0.017533786594867706,-0.4153219163417816
1667824786670820400,1.5538203125,-0.28597989678382874,-0.15224725008010864,-0.2770996689796448
1667824786680828400,1.563828369140625,-0.25405949354171753,-0.2345261424779892,-0.17865164577960968
1667824786690835200,1.573835205078125,-0.21645961701869965,-0.25607672333717346,-0.09718833118677139
1667824786700843300,1.58384326171875,-0.13103659451007843,-0.18485873937606812,0.022897332906723022
1667824786710851000,1.59385107421875,-0.02081245929002762,-0.005966080352663994,0.18492048978805542
1667824786720858400,1.6038583984375,0.07702861726284027,0.22804775834083557,0.335397332906723
1667824786730866200,1.6138662109375,0.1365499347448349,0.3748445212841034,0.45262840390205383
1667824786740874200,1.623874267578125,0.15763337910175323,0.4270579218864441,0.5369528532028198
1667824786750881300,1.63388134765625,0.16023747622966766,0.4024031162261963,0.5578493475914001
1667824786760889300,1.643889404296875,0.1442481279373169,0.3323092460632324,0.510188639163971
1667824786770897400,1.6538974609375,0.12897631525993347,0.23000963032245636,0.43954235315322876
1667824786780904200,1.663904296875,0.10907317698001862,0.09802575409412384,0.41938918828964233
1667824786790912500,1.67391259765625,0.07109784334897995,0.055052097886800766,0.45224428176879883
1667824786800919300,1.683919189453125,0.012926679104566574,0.28914448618888855,0.5233472585678101
1667824786810927400,1.69392724609375,-0.017960399389266968,0.5536129474639893,0.5975139141082764
1667824786820935200,1.70393505859375,-0.07198155671358109,0.5128506422042847,0.639398992061615
1667824786830942500,1.7139423828125,-0.23765313625335693,0.2916482985019684,0.6182888150215149
1667824786840950300,1.7239501953125,-0.4902459681034088,0.15042833983898163,0.49811074137687683
1667824786850958300,1.733958251953125,-0.7327491044998169,0.09550725668668747,0.30314862728118896
1667824786860965400,1.74396533203125,-0.9256772398948669,-0.05666762962937355,0.08589540421962738
1667824786870973400,1.753973388671875,-1.1039950847625732,-0.40670496225357056,-0.11002857983112335
1667824786880981200,1.763981201171875,-1.2905266284942627,-0.7141368389129639,-0.22317349910736084
1667824786890988300,1.77398828125,-1.3467572927474976,-0.8477407097816467,-0.23245419561862946
1667824786900996000,1.78399609375,-1.2056121826171875,-0.996920108795166,-0.19122393429279327
1667824786911004400,1.79400439453125,-0.9754872918128967,-1.0908880233764648,-0.08915828913450241
1667824786921011200,1.80401123046875,-0.7440465688705444,-1.1286876201629639,0.060168348252773285
1667824786931019300,1.814019287109375,-0.5310350060462952,-1.1121838092803955,0.237442284822464
1667824786941026300,1.8240263671875,-0.3287191689014435,-1.0431480407714844,0.42698559165000916
1667824786951034400,1.834034423828125,-0.15110021829605103,-0.9101036190986633,0.59311842918396
1667824786961042400,1.84404248046875,-0.017234835773706436,-0.7105132937431335,0.7321913838386536
1667824786971049200,1.85404931640625,0.05353429168462753,-0.4926881194114685,0.8491277694702148
1667824786981057300,1.864057373046875,0.06917929649353027,-0.31744521856307983,0.9574342370033264
1667824786991065300,1.8740654296875,0.044812191277742386,-0.20941030979156494,1.0846388339996338
1667824787001072400,1.884072265625,0.00794258899986744,-0.11425822228193283,1.202948808670044
1667824787011080200,1.894080078125,0.0031815236434340477,0.053026195615530014,1.277407169342041
1667824787021088300,1.904088134765625,0.07780888676643372,0.2974410057067871,1.2861846685409546
1667824787031095300,1.91409521484375,0.1849690079689026,0.47262707352638245,1.234882116317749
1667824787041103400,1.924103271484375,0.2706950902938843,0.4311254322528839,1.152104139328003
1667824787051111200,1.934111083984375,0.3496896028518677,0.2989954352378845,1.047493815422058
1667824787061118500,1.944118408203125,0.4455316960811615,0.1989348828792572,0.9318721294403076
1667824787071126300,1.954126220703125,0.5571528077125549,0.22435294091701508,0.8270931839942932
1667824787081132800,1.9641328125,0.6645549535751343,0.283028244972229,0.7219284176826477
1667824787091140900,1.974140869140625,0.760621190071106,0.2923066020011902,0.6197267174720764
1667824787101149000,1.98414892578125,0.8539442420005798,0.2391166090965271,0.5260772109031677
1667824787111155700,1.99415576171875,0.9149640798568726,0.1478450447320938,0.43907782435417175
1667824787121163800,2.004163818359375,0.9466181397438049,0.03463566303253174,0.36157262325286865
1667824787131171600,2.014171630859375,0.9726996421813965,-0.028693052008748055,0.2880036234855652
1667824787141179000,2.024178955078125,1.0171613693237305,-0.011019515804946423,0.20742326974868774
1667824787151186700,2.034186767578125,1.0847915410995483,0.10814368724822998,0.10120134055614471
1667824787161194800,2.04419482421875,1.131199598312378,0.20925273001194,-0.002199888229370117
1667824787171201800,2.054201904296875,1.09784734249115,0.2566874623298645,-0.10571794211864471
1667824787181209900,2.0642099609375,0.9979915618896484,0.3044555187225342,-0.2195528894662857
1667824787191218000,2.074218017578125,0.8787885308265686,0.3699726462364197,-0.3379674553871155
1667824787201224700,2.084224609375,0.7767455577850342,0.45107975602149963,-0.46279779076576233
1667824787211233000,2.09423291015625,0.7114537954330444,0.5513294339179993,-0.6131038665771484
1667824787221240800,2.10424072265625,0.6481773853302002,0.6792104244232178,-0.7711339592933655
1667824787231248000,2.114247802734375,0.5434625744819641,0.7974407076835632,-0.9134424328804016
1667824787241255700,2.124255615234375,0.42280006408691406,0.889592170715332,-1.0435388088226318
1667824787251263000,2.134262939453125,0.31812217831611633,0.9995245933532715,-1.1614218950271606
1667824787261270800,2.144270751953125,0.23189063370227814,1.1103768348693848,-1.2767252922058105
1667824787271278800,2.15427880859375,0.15797196328639984,1.162378191947937,-1.3694207668304443
1667824787281286000,2.164285888671875,0.08298907428979874,1.1067005395889282,-1.4255930185317993
1667824787291294000,2.1742939453125,0.0002817884087562561,0.9329918622970581,-1.452170491218567
1667824787301301800,2.1843017578125,-0.08085247874259949,0.7572535872459412,-1.4208009243011475
1667824787311308800,2.194308837890625,-0.14490698277950287,0.6530108451843262,-1.3460502624511719
1667824787321316600,2.204316650390625,-0.1651025265455246,0.6423920392990112,-1.2631468772888184
1667824787331325000,2.214324951171875,-0.1495523750782013,0.7062786221504211,-1.183685302734375
1667824787341331700,2.224331787109375,-0.11887489259243011,0.7990871071815491,-1.1154018640518188
1667824787351339800,2.23433984375,-0.10599681735038757,0.8728815317153931,-1.0675640106201172
1667824787361346800,2.244346923828125,-0.1040487140417099,0.8196492195129395,-0.9804163575172424
1667824787371355000,2.25435498046875,-0.10164222866296768,0.7014642953872681,-0.8244129419326782
1667824787381362700,2.26436279296875,-0.05758049339056015,0.6330399513244629,-0.6646795272827148
1667824787391369700,2.27436962890625,0.05570335313677788,0.6326658129692078,-0.5182499289512634
1667824787401377800,2.284377685546875,0.1961430311203003,0.6586335301399231,-0.3747396171092987
1667824787411385900,2.2943857421875,0.32048776745796204,0.6538850665092468,-0.2560636103153229
1667824787421392600,2.304392578125,0.41505077481269836,0.6274217963218689,-0.19437812268733978
1667824787431400700,2.314400634765625,0.5031698346138,0.6014238595962524,-0.19112429022789001
1667824787441408800,2.32440869140625,0.571088433265686,0.5210309624671936,-0.17919759452342987
1667824787451415800,2.334415771484375,0.6069402098655701,0.3456968665122986,-0.11422105878591537
1667824787461423900,2.344423828125,0.6246917843818665,0.16365596652030945,-0.026491474360227585
1667824787471431700,2.354431640625,0.6503295302391052,0.05464324727654457,0.06433727592229843
1667824787481439000,2.36443896484375,0.6834501624107361,0.017920387908816338,0.14062164723873138
1667824787491446800,2.37444677734375,0.714429497718811,0.008118546567857265,0.1683853715658188
1667824787501453800,2.384453857421875,0.7458241581916809,0.006667923182249069,0.14066798985004425
1667824787511461600,2.394461669921875,0.7697752714157104,0.02054402604699135,0.0682830959558487
1667824787521470000,2.404469970703125,0.7878006100654602,0.008827181532979012,-0.011136358603835106
1667824787531476700,2.414476806640625,0.7815394997596741,-0.06357812136411667,-0.04906633868813515
1667824787541484800,2.42448486328125,0.7443979978561401,-0.18584038317203522,-0.031013568863272667
1667824787551492600,2.43449267578125,0.7034761905670166,-0.34904512763023376,0.057286474853754044
1667824787561500000,2.4445,0.6701754927635193,-0.5259376168251038,0.19146239757537842
1667824787571507700,2.4545078125,0.6393367648124695,-0.6750406622886658,0.32128340005874634
1667824787581515800,2.464515869140625,0.5998125672340393,-0.7655724287033081,0.4011467695236206
1667824787591522800,2.474522705078125,0.5521442890167236,-0.7768151760101318,0.41287145018577576
1667824787601531000,2.48453076171875,0.4815364480018616,-0.7294663190841675,0.37330034375190735
1667824787611539000,2.4945390625,0.39947420358657837,-0.6343735456466675,0.30702346563339233
1667824787621545700,2.504545654296875,0.3035687208175659,-0.46619144082069397,0.23599642515182495
1667824787631553800,2.5145537109375,0.19403541088104248,-0.22082124650478363,0.1412854641675949
1667824787641561900,2.524561767578125,0.07347624003887177,0.07474595308303833,0.01743382029235363
1667824787651569000,2.53456884765625,-0.06336671113967896,0.3012472987174988,-0.1359868198633194
1667824787661576700,2.54457666015625,-0.21072234213352203,0.41653260588645935,-0.29924842715263367
1667824787671584000,2.554583984375,-0.3730704188346863,0.46633046865463257,-0.47150835394859314
1667824787681591800,2.564591796875,-0.5523309707641602,0.38388803601264954,-0.6228517889976501
1667824787691600000,2.574599853515625,-0.7386510372161865,0.08837549388408661,-0.6894659399986267
1667824787701606700,2.584606689453125,-0.8998289704322815,-0.2836681008338928,-0.6349414587020874
1667824787711614700,2.59461474609375,-1.0109513998031616,-0.5462805032730103,-0.47684141993522644
1667824787721622800,2.604622802734375,-1.0713294744491577,-0.640145480632782,-0.2568581998348236
1667824787731629800,2.6146298828125,-1.0967828035354614,-0.5806876420974731,-0.026825319975614548
1667824787741637600,2.6246376953125,-1.0973206758499146,-0.40123218297958374,0.1679241955280304
1667824787751645700,2.634645751953125,-1.0617951154708862,-0.14512354135513306,0.3130260407924652
1667824787761652700,2.64465283203125,-0.9809057712554932,0.1284576803445816,0.4126996397972107
1667824787771660800,2.654660888671875,-0.8659941554069519,0.37569859623908997,0.47643253207206726
1667824787781668900,2.6646689453125,-0.7436541318893433,0.572324275970459,0.49002718925476074
1667824787791676000,2.674676025390625,-0.6296737194061279,0.6551575660705566,0.44415509700775146
1667824787801684000,2.68468408203125,-0.5392045378684998,0.6370563507080078,0.3411291241645813
1667824787811690800,2.694690673828125,-0.48723846673965454,0.5191880464553833,0.19338972866535187
1667824787821698800,2.70469873046875,-0.4713529646396637,0.32746729254722595,0.02620660699903965
1667824787831707000,2.714706787109375,-0.49177587032318115,0.13319870829582214,-0.13736377656459808
1667824787841714000,2.7247138671875,-0.5373492240905762,-0.03955788537859917,-0.28689655661582947
1667824787851721700,2.7347216796875,-0.5941595435142517,-0.1728837639093399,-0.3908533453941345
1667824787861729800,2.744729736328125,-0.6595611572265625,-0.26907768845558167,-0.456572949886322
1667824787871736800,2.75473681640625,-0.7048285007476807,-0.3610398471355438,-0.4717957675457001
1667824787881745000,2.764744873046875,-0.7269076704978943,-0.4888329803943634,-0.3905791938304901
1667824787891752700,2.774752685546875,-0.7238301038742065,-0.6057350635528564,-0.21954882144927979
1667824787901759700,2.784759765625,-0.687032163143158,-0.6608502864837646,-0.014550930820405483
1667824787911767800,2.794767822265625,-0.6229307055473328,-0.6550627946853638,0.1816541850566864
1667824787921775900,2.80477587890625,-0.5603075623512268,-0.5931065082550049,0.33926668763160706
1667824787931782700,2.81478271484375,-0.5148488283157349,-0.49141591787338257,0.4596627950668335
1667824787941790700,2.824790771484375,-0.4786072075366974,-0.3454030454158783,0.5468357801437378
1667824787951798800,2.834798828125,-0.455808162689209,-0.16745735704898834,0.6085683703422546
1667824787961805800,2.844805908203125,-0.44403672218322754,-0.012025945819914341,0.6478241682052612
1667824787971813600,2.854813720703125,-0.45315873622894287,0.12039710581302643,0.6415833234786987
1667824787981821000,2.864821044921875,-0.48168545961380005,0.24293874204158783,0.6083865165710449
1667824787991828700,2.874828857421875,-0.49238330125808716,0.3040495216846466,0.5523796081542969
1667824788001836800,2.8848369140625,-0.49176546931266785,0.28991612792015076,0.48712900280952454
1667824788011843600,2.894843505859375,-0.47456619143486023,0.20785099267959595,0.41183358430862427
1667824788021852000,2.904851806640625,-0.4234989881515503,0.058181341737508774,0.3534810543060303
1667824788031860000,2.91485986328125,-0.3388613760471344,-0.12826134264469147,0.3298129439353943
1667824788041866800,2.92486669921875,-0.22496142983436584,-0.32471102476119995,0.3246365487575531
1667824788051874800,2.934874755859375,-0.08422970026731491,-0.4869720935821533,0.3366924524307251
1667824788061882600,2.944882568359375,0.07916136085987091,-0.603172779083252,0.36550307273864746
1667824788071890000,2.954889892578125,0.23149651288986206,-0.6889489889144897,0.43279799818992615
1667824788081898800,2.964898681640625,0.3627152442932129,-0.7799873352050781,0.5452669858932495
1667824788091906800,2.97490673828125,0.4572218060493469,-0.8584794998168945,0.7064355611801147
1667824788101913600,2.98491357421875,0.5082098841667175,-0.8704085946083069,0.8855147361755371
1667824788111921700,2.994921630859375,0.5426365733146667,-0.7812351584434509,1.0336743593215942
1667824788121929700,3.0049296875,0.5781874060630798,-0.5947837829589844,1.1053861379623413
1667824788131936800,3.014936767578125,0.617475152015686,-0.3285396099090576,1.0803250074386597
1667824788141944600,3.024944580078125,0.648637056350708,-0.0274514090269804,0.9606781601905823
1667824788151952000,3.034951904296875,0.6711426377296448,0.23866815865039825,0.7717511057853699
1667824788161959700,3.044959716796875,0.6805554032325745,0.40245047211647034,0.5570408701896667
1667824788171967700,3.0549677734375,0.6903456449508667,0.47337740659713745,0.338629812002182
1667824788181974500,3.064974609375,0.71341472864151,0.45954492688179016,0.14934323728084564
1667824788191982800,3.07498291015625,0.7299748659133911,0.35784491896629333,-0.0039545465260744095
1667824788201991000,3.084990966796875,0.7327256202697754,0.20085051655769348,-0.14078323543071747
1667824788211997700,3.094997802734375,0.7279292941093445,0.01679343357682228,-0.2525498867034912
1667824788222005800,3.105005859375,0.7112632393836975,-0.14409638941287994,-0.33968585729599
1667824788232013800,3.115013916015625,0.6833323240280151,-0.24182742834091187,-0.4040886163711548
1667824788242020900,3.125020751953125,0.6308521032333374,-0.2669343948364258,-0.4457907974720001
1667824788252028700,3.135028564453125,0.5597321391105652,-0.22890296578407288,-0.4720115065574646
1667824788262036700,3.14503662109375,0.4721035063266754,-0.13486063480377197,-0.49817973375320435
1667824788272043800,3.155043701171875,0.3714120090007782,-0.005273381248116493,-0.5335512757301331
1667824788282051800,3.1650517578125,0.26893091201782227,0.15416820347309113,-0.5702144503593445
1667824788292058600,3.17505859375,0.18952669203281403,0.3128294050693512,-0.6095549464225769
1667824788302066700,3.185066650390625,0.14440901577472687,0.42866334319114685,-0.6400526762008667
1667824788312074800,3.19507470703125,0.10572008043527603,0.49549251794815063,-0.652468740940094
1667824788322081800,3.205081787109375,0.07732892036437988,0.507561445236206,-0.6266347765922546
1667824788332089600,3.215089599609375,0.05437075346708298,0.4756849706172943,-0.5788233876228333
1667824788342097700,3.22509765625,0.040217384696006775,0.4139004349708557,-0.519895613193512
1667824788352104700,3.235104736328125,0.0182009506970644,0.3748389482498169,-0.46416303515434265
1667824788362112800,3.24511279296875,-0.012121534906327724,0.356041818857193,-0.4178698658943176
1667824788372120800,3.255120849609375,-0.04790892452001572,0.3405908942222595,-0.3577069938182831
1667824788382127900,3.2651279296875,-0.08195717632770538,0.33368584513664246,-0.28442105650901794
1667824788392136000,3.275135986328125,-0.09531541913747787,0.31233859062194824,-0.18808813393115997
1667824788402143700,3.285143798828125,-0.09254733473062515,0.2803092896938324,-0.05629095435142517
1667824788412150800,3.29515087890625,-0.06762194633483887,0.2872162461280823,0.07610376179218292
1667824788422158600,3.30515869140625,-0.007746093440800905,0.3335166275501251,0.1815260499715805
1667824788432167000,3.3151669921875,0.06935881078243256,0.40201181173324585,0.2713691294193268
1667824788442173700,3.325173583984375,0.153178870677948,0.5159990787506104,0.332776814699173
1667824788452181800,3.335181640625,0.21193572878837585,0.6560539603233337,0.35584479570388794
1667824788462188800,3.345188720703125,0.22454367578029633,0.779095470905304,0.3424528241157532
1667824788472196900,3.35519677734375,0.19693969190120697,0.8581093549728394,0.3191593289375305
1667824788482204700,3.36520458984375,0.15108458697795868,0.8591309189796448,0.28675106167793274
1667824788492211700,3.375211669921875,0.1100810095667839,0.8007493615150452,0.2269270271062851
1667824788502219800,3.3852197265625,0.08154656738042831,0.7010118365287781,0.13265778124332428
1667824788512227800,3.395227783203125,0.07776111364364624,0.5588878989219666,0.011131796054542065
1667824788522234600,3.405234619140625,0.11930030584335327,0.3967573046684265,-0.12504681944847107
1667824788532242700,3.41524267578125,0.20056822896003723,0.25490039587020874,-0.28863078355789185
1667824788542250800,3.425250732421875,0.31021803617477417,0.1507958173751831,-0.45852237939834595
1667824788552257800,3.4352578125,0.43234312534332275,0.08120150119066238,-0.6184604167938232
1667824788562265600,3.445265625,0.5441535115242004,0.03225313499569893,-0.7460037469863892
1667824788572273700,3.455273681640625,0.6567041873931885,-0.023146377876400948,-0.8078708648681641
1667824788582280700,3.46528076171875,0.7425420880317688,-0.10365906357765198,-0.7936826348304749
1667824788592288800,3.475288818359375,0.7996751070022583,-0.1752552092075348,-0.7326081991195679
1667824788602295600,3.485295654296875,0.8407378792762756,-0.23100528120994568,-0.6639966368675232
1667824788612303600,3.4953037109375,0.8691379427909851,-0.3013279139995575,-0.5851423144340515
1667824788622312000,3.50531201171875,0.8573814034461975,-0.4000896215438843,-0.50605309009552
1667824788632318700,3.515318603515625,0.809523344039917,-0.5150497555732727,-0.4034321904182434
1667824788642326800,3.525326904296875,0.7318733334541321,-0.6155822277069092,-0.2923552095890045
1667824788652334600,3.53533447265625,0.643429160118103,-0.6964095830917358,-0.15995347499847412
1667824788662342000,3.545341796875,0.5658153295516968,-0.7559637427330017,-0.014235958456993103
1667824788672349700,3.555349609375,0.4966582953929901,-0.7697867751121521,0.11511979252099991
1667824788682357800,3.565357666015625,0.4353903830051422,-0.724446177482605,0.2144128382205963
1667824788692364800,3.57536474609375,0.363796591758728,-0.6256398558616638,0.2714237868785858
1667824788702372900,3.585372802734375,0.24902045726776123,-0.43924760818481445,0.2792060673236847
1667824788712380700,3.595380615234375,0.05570688471198082,-0.16826066374778748,0.23780226707458496
1667824788722387700,3.6053876953125,-0.19858984649181366,0.14522162079811096,0.16032399237155914
1667824788732395800,3.615395751953125,-0.4459289014339447,0.48677492141723633,0.051826462149620056
1667824788742403800,3.62540380859375,-0.637436032295227,0.7904123067855835,-0.09543302655220032
1667824788752410600,3.63541064453125,-0.7621947526931763,0.9726613163948059,-0.2675701379776001
1667824788762418700,3.645418701171875,-0.8234564661979675,0.9602962136268616,-0.4657519459724426
1667824788772426800,3.6554267578125,-0.8279824256896973,0.7125757336616516,-0.6648321747779846
1667824788782433800,3.665433837890625,-0.8051292896270752,0.27725890278816223,-0.7989931702613831
1667824788792441900,3.67544189453125,-0.7706193923950195,-0.221302792429924,-0.8312838077545166
1667824788802448600,3.68544873046875,-0.7229999303817749,-0.6522347331047058,-0.7423946857452393
1667824788812457000,3.69545703125,-0.691620945930481,-0.940337598323822,-0.5837956070899963
1667824788822464800,3.70546484375,-0.6795077919960022,-1.0796539783477783,-0.37047821283340454
1667824788832471800,3.715471923828125,-0.6844477653503418,-1.1046558618545532,-0.13737279176712036
1667824788842479600,3.725479736328125,-0.6959917545318604,-1.0073562860488892,0.10258787125349045
1667824788852487700,3.73548779296875,-0.7199716567993164,-0.7998037934303284,0.3246992826461792
1667824788862494700,3.74549462890625,-0.7565147876739502,-0.5108955502510071,0.5072147846221924
1667824788872502800,3.755502685546875,-0.7777572274208069,-0.18196025490760803,0.6505078077316284
1667824788882510600,3.765510498046875,-0.7601513266563416,0.1472352147102356,0.7478695511817932
1667824788892518000,3.775517822265625,-0.7165322303771973,0.44217875599861145,0.7877272963523865
1667824788902525700,3.785525634765625,-0.6566300392150879,0.6513231992721558,0.7744340896606445
1667824788912533800,3.79553369140625,-0.6005111932754517,0.7661442160606384,0.7134606242179871
1667824788922540500,3.80554052734375,-0.5669915676116943,0.7843623757362366,0.6178305149078369
1667824788932548900,3.815548828125,-0.5602521300315857,0.7126317024230957,0.516388475894928
1667824788942555600,3.8255556640625,-0.5512210726737976,0.5998684167861938,0.42652249336242676
1667824788952563700,3.835563720703125,-0.5177018642425537,0.47801750898361206,0.3374624252319336
1667824788962571800,3.84557177734375,-0.4542083442211151,0.35346519947052,0.2585127651691437
1667824788972578800,3.855578857421875,-0.3790758550167084,0.2453330010175705,0.17306821048259735
1667824788982587000,3.8655869140625,-0.2899624705314636,0.15236710011959076,0.06389378011226654
1667824788992594700,3.8755947265625,-0.18662869930267334,0.0701233297586441,-0.07556923478841782
1667824789002602000,3.88560205078125,-0.10996295511722565,-0.015455488115549088,-0.2524697184562683
1667824789012609800,3.89560986328125,-0.07836258411407471,-0.10735250264406204,-0.43679559230804443
1667824789022617900,3.905617919921875,-0.08804131299257278,-0.21240781247615814,-0.5913580060005188
1667824789032624600,3.915624755859375,-0.13832569122314453,-0.3347722589969635,-0.6996913552284241
1667824789042632700,3.9256328125,-0.2125740945339203,-0.462878555059433,-0.7477257251739502
1667824789052640800,3.935640869140625,-0.2867521345615387,-0.5672993659973145,-0.7533389925956726
1667824789062647800,3.945647705078125,-0.3665124773979187,-0.6501449942588806,-0.7119689583778381
1667824789072655600,3.955655517578125,-0.44101816415786743,-0.7069337368011475,-0.6182374358177185
1667824789082663700,3.96566357421875,-0.4995102286338806,-0.7347108125686646,-0.47870534658432007
1667824789092670500,3.97567041015625,-0.5221736431121826,-0.7321162819862366,-0.3084784150123596
1667824789102678300,3.98567822265625,-0.5162925720214844,-0.6760932207107544,-0.10500305145978928
1667824789112686300,3.995686279296875,-0.4922405481338501,-0.5673452615737915,0.11015326529741287
1667824789122693400,4.005693359375,-0.4659106731414795,-0.4187549650669098,0.33279621601104736
1667824789132701400,4.015701416015625,-0.4496369957923889,-0.23132145404815674,0.5338477492332458
1667824789142708200,4.025708251953125,-0.4317794442176819,-0.05657573789358139,0.6969293355941772
1667824789152716300,4.03571630859375,-0.40673139691352844,0.06630367785692215,0.8143551349639893
1667824789162724400,4.045724365234375,-0.39677995443344116,0.13206884264945984,0.9173694252967834
1667824789172731400,4.0557314453125,-0.3925533890724182,0.1314602941274643,1.0137336254119873
1667824789182739200,4.0657392578125,-0.3730609118938446,0.08100725710391998,1.0888653993606567
1667824789192747300,4.075747314453125,-0.3440825641155243,0.007812081836163998,1.1376501321792603
1667824789202754300,4.08575439453125,-0.3160586357116699,-0.10388807952404022,1.1695548295974731
1667824789212762400,4.095762451171875,-0.31306391954421997,-0.24135439097881317,1.18936026096344
1667824789222770400,4.1057705078125,-0.3349103629589081,-0.36942926049232483,1.1939387321472168
1667824789232777500,4.115777587890625,-0.3796044588088989,-0.4582459628582001,1.1989843845367432
1667824789242785500,4.12578564453125,-0.4301778972148895,-0.5057271718978882,1.209097981452942
1667824789252793300,4.13579345703125,-0.4746082127094269,-0.48074424266815186,1.2089564800262451
1667824789262800400,4.14580029296875,-0.5264184474945068,-0.3828962445259094,1.204107403755188
1667824789272808200,4.15580810546875,-0.584792971611023,-0.21520835161209106,1.1863502264022827
1667824789282816500,4.16581640625,-0.6385499835014343,0.03330080211162567,1.1360194683074951
1667824789292823300,4.1758232421875,-0.6626659631729126,0.32965922355651855,1.0333889722824097
1667824789302831400,4.185831298828125,-0.6354048252105713,0.6227877736091614,0.8874906301498413
1667824789312838400,4.19583837890625,-0.5525836944580078,0.885481595993042,0.7019563913345337
1667824789322846500,4.205846435546875,-0.42205682396888733,1.0553275346755981,0.50916987657547
1667824789332854300,4.215854248046875,-0.2587466537952423,1.0861402750015259,0.32854366302490234
1667824789342861300,4.225861328125,-0.09731940180063248,0.9666162729263306,0.17234130203723907
1667824789352869400,4.235869384765625,0.04810403659939766,0.700373113155365,0.06981366872787476
1667824789362877400,4.24587744140625,0.15436816215515137,0.3407896161079407,0.034792304039001465
1667824789372884200,4.25588427734375,0.21745797991752625,-0.009898580610752106,0.035878535360097885
1667824789382892300,4.265892333984375,0.24956238269805908,-0.2327878475189209,0.01887797936797142
1667824789392900400,4.275900390625,0.23881034553050995,-0.35481661558151245,-0.015439440496265888
1667824789402907400,4.285907470703125,0.19575396180152893,-0.40583133697509766,-0.05915655940771103
1667824789412915500,4.29591552734375,0.1427195817232132,-0.38571086525917053,-0.13128326833248138
1667824789422923300,4.30592333984375,0.09015357494354248,-0.28985464572906494,-0.21391557157039642
1667824789432930600,4.3159306640625,0.06339973211288452,-0.14922307431697845,-0.29191815853118896
1667824789442938400,4.3259384765625,0.04801146313548088,-0.013856194913387299,-0.3495934307575226
1667824789452945400,4.3359453125,0.03312736749649048,0.08744627237319946,-0.3851661682128906
1667824789462953200,4.345953125,0.01875269040465355,0.15886478126049042,-0.41127607226371765
1667824789472961500,4.35596142578125,0.023389270529150963,0.17376923561096191,-0.4167083203792572
1667824789482968300,4.36596826171875,0.04222394526004791,0.14004962146282196,-0.402707040309906
1667824789492976400,4.375976318359375,0.06967640668153763,0.052431393414735794,-0.3686354458332062
1667824789502984200,4.385984130859375,0.0943940058350563,-0.07642965018749237,-0.32126978039741516
1667824789512991500,4.395991455078125,0.11621343344449997,-0.2237020581960678,-0.24628405272960663
1667824789522999300,4.405999267578125,0.14296302199363708,-0.3553788661956787,-0.16492155194282532
1667824789533007400,4.41600732421875,0.16455180943012238,-0.44216763973236084,-0.09880577027797699
1667824789543014400,4.426014404296875,0.18513618409633636,-0.4986855089664459,-0.043895646929740906
1667824789553022500,4.4360224609375,0.19074495136737823,-0.5286818146705627,-0.009873046539723873
1667824789563030500,4.446030517578125,0.19033774733543396,-0.5146056413650513,0.006645210552960634
1667824789573037300,4.456037353515625,0.1855829507112503,-0.449116587638855,0.005279849283397198
1667824789583045400,4.46604541015625,0.18444977700710297,-0.3386121988296509,-0.012931644916534424
1667824789593053400,4.476053466796875,0.19643543660640717,-0.2051585465669632,-0.047450169920921326
1667824789603060500,4.486060546875,0.21251080930233002,-0.09635989367961884,-0.07519844174385071
1667824789613068300,4.496068359375,0.21304894983768463,-0.0691034346818924,-0.0763329416513443
1667824789623076400,4.506076416015625,0.18638111650943756,-0.13159050047397614,-0.04231266304850578
1667824789633083400,4.51608349609375,0.1520783007144928,-0.259226530790329,0.0010311761870980263
1667824789643091500,4.526091552734375,0.11771579086780548,-0.411722332239151,0.027119502425193787
1667824789653098200,4.53609814453125,0.10442112386226654,-0.5684001445770264,0.02728569693863392
1667824789663106600,4.5461064453125,0.10929897427558899,-0.6891574859619141,0.005720748566091061
1667824789673114400,4.5561142578125,0.12352510541677475,-0.7573480010032654,-0.03744756802916527
1667824789683121400,4.566121337890625,0.14308762550354004,-0.7578046917915344,-0.11305896937847137
1667824789693129200,4.576129150390625,0.15546298027038574,-0.6845603585243225,-0.20396338403224945
1667824789703137300,4.58613720703125,0.15465044975280762,-0.5453569293022156,-0.27182894945144653
1667824789713144300,4.596144287109375,0.12229771912097931,-0.36646464467048645,-0.3000508248806
1667824789723152400,4.60615234375,0.0783449038863182,-0.17244961857795715,-0.2929345965385437
1667824789733160200,4.61616015625,0.03574497252702713,0.008035989478230476,-0.2588050961494446
1667824789743167500,4.62616748046875,0.007603351958096027,0.1351659893989563,-0.21104983985424042
1667824789753175300,4.63617529296875,-0.003178573213517666,0.19746899604797363,-0.1568484604358673
1667824789763182300,4.646182373046875,-0.010580829344689846,0.20971927046775818,-0.07944528013467789
1667824789773190100,4.656190185546875,-0.00041913706809282303,0.1708582490682602,0.02992314286530018
1667824789783198500,4.666198486328125,0.03608693927526474,0.08535320311784744,0.16466951370239258
1667824789793205200,4.676205322265625,0.07911086827516556,-0.027512162923812866,0.3023901879787445
1667824789803213300,4.68621337890625,0.10392807424068451,-0.13387082517147064,0.42772814631462097
1667824789813221400,4.696221435546875,0.11149276793003082,-0.24493294954299927,0.5248439908027649
1667824789823228400,4.706228515625,0.08912540972232819,-0.3692983090877533,0.5789951086044312
1667824789833236500,4.716236572265625,0.03679594397544861,-0.4974744915962219,0.5987809300422668
1667824789843244300,4.726244384765625,-0.05633586645126343,-0.6052983999252319,0.5989699959754944
1667824789853251600,4.73625146484375,-0.18140578269958496,-0.6632474064826965,0.5759041905403137
1667824789863259400,4.74625927734375,-0.320972204208374,-0.6428041458129883,0.5236055850982666
1667824789873267500,4.756267333984375,-0.4612983167171478,-0.5315302014350891,0.43622061610221863
1667824789883274200,4.766274169921875,-0.5986253023147583,-0.33104848861694336,0.3228312134742737
1667824789893282300,4.7762822265625,-0.711978018283844,-0.06229281425476074,0.16820035874843597
1667824789903290400,4.786290283203125,-0.7822362184524536,0.2134048193693161,-0.015134048648178577
1667824789913297400,4.79629736328125,-0.7786955833435059,0.44995784759521484,-0.22604583203792572
1667824789923305200,4.80630517578125,-0.7397943139076233,0.6145350933074951,-0.43221473693847656
1667824789933312500,4.8163125,-0.6985599398612976,0.6556344032287598,-0.6090736389160156
1667824789943320300,4.8263203125,-0.6700534224510193,0.5930501222610474,-0.7216814160346985
1667824789953328400,4.836328369140625,-0.6533393859863281,0.42342013120651245,-0.7582106590270996
1667824789963335200,4.846335205078125,-0.6407684683799744,0.16398537158966064,-0.6837023496627808
1667824789973343500,4.856343505859375,-0.6244490742683411,-0.09278501570224762,-0.5274261236190796
1667824789983351600,4.8663515625,-0.5839295983314514,-0.30240216851234436,-0.30355578660964966
1667824789993358300,4.8763583984375,-0.5192641615867615,-0.4346948266029358,-0.044933825731277466
1667824790003366400,4.886366455078125,-0.44529062509536743,-0.5040004253387451,0.19842661917209625
1667824790013374200,4.896374267578125,-0.3617919087409973,-0.5183340907096863,0.3856719136238098
1667824790023381500,4.906381591796875,-0.2733059823513031,-0.49944984912872314,0.49493342638015747
1667824790033389300,4.916389404296875,-0.19805219769477844,-0.44874149560928345,0.5212125182151794
1667824790043397400,4.9263974609375,-0.14435355365276337,-0.37571415305137634,0.47226443886756897
1667824790053404400,4.936404296875,-0.11697344481945038,-0.3079802393913269,0.3709523677825928
1667824790063412500,4.94641259765625,-0.11547994613647461,-0.2540925145149231,0.23934774100780487
1667824790073420300,4.956420166015625,-0.14667576551437378,-0.20528484880924225,0.09683723002672195
1667824790083426800,4.9664267578125,-0.21783730387687683,-0.1759892702102661,-0.009868979454040527
1667824790093434600,4.9764345703125,-0.31705987453460693,-0.20817457139492035,-0.05317079275846481
1667824790103441700,4.986441650390625,-0.4159124195575714,-0.26229503750801086,-0.039161767810583115
1667824790113449500,4.996449462890625,-0.4787179231643677,-0.2725406885147095,-0.007977153174579144
1667824790123457800,5.006457763671875,-0.49001556634902954,-0.2516127824783325,0.04196111112833023
1667824790133464600,5.016464599609375,-0.46293893456459045,-0.22168797254562378,0.08269613236188889
1667824790143472600,5.02647265625,-0.41811633110046387,-0.19439642131328583,0.10830801725387573
1667824790153480400,5.03648046875,-0.3481929302215576,-0.17428120970726013,0.11278379708528519
1667824790163487700,5.04648779296875,-0.2697087824344635,-0.18363264203071594,0.09950847178697586
1667824790173495600,5.05649560546875,-0.20118799805641174,-0.21658219397068024,0.07490932941436768
1667824790183503600,5.066503662109375,-0.14965929090976715,-0.26912447810173035,0.047599948942661285
1667824790193510700,5.0765107421875,-0.1213705986738205,-0.32657381892204285,0.02391321398317814
1667824790203518700,5.086518798828125,-0.10592985153198242,-0.3928612172603607,0.012411819770932198
1667824790213526800,5.09652685546875,-0.10153862833976746,-0.4467267096042633,0.0049616750329732895
1667824790223533600,5.106533447265625,-0.11329782009124756,-0.4989643394947052,-0.0031740160193294287
1667824790233541600,5.116541748046875,-0.13996824622154236,-0.5254614353179932,-0.010604574345052242
1667824790243548700,5.126548583984375,-0.1830398142337799,-0.5363394021987915,-0.0019772641826421022
1667824790253556700,5.136556640625,-0.24023649096488953,-0.5249645709991455,0.034018393605947495
1667824790263564500,5.146564453125,-0.29917117953300476,-0.47447022795677185,0.08226022869348526
1667824790273571800,5.15657177734375,-0.3455657958984375,-0.36456143856048584,0.1369258165359497
1667824790283579600,5.16657958984375,-0.3776587247848511,-0.2321847379207611,0.19254060089588165
1667824790293587700,5.176587646484375,-0.3975605368614197,-0.11121457070112228,0.2337963879108429
1667824790303594500,5.186594482421875,-0.4080544412136078,-0.036113690584897995,0.280217707157135
1667824790313602600,5.1966025390625,-0.3975377082824707,-0.012251184321939945,0.33174726366996765
1667824790323610600,5.206610595703125,-0.36763012409210205,-0.0340864434838295,0.39577019214630127
1667824790333617700,5.21661767578125,-0.32498490810394287,-0.07696668803691864,0.4575790464878082
1667824790343625500,5.22662548828125,-0.26917651295661926,-0.10936883836984634,0.49992889165878296
1667824790353633500,5.236633544921875,-0.20208275318145752,-0.12042499333620071,0.5130410194396973
1667824790363640600,5.246640625,-0.14017170667648315,-0.12777505815029144,0.5042257308959961
1667824790373648600,5.256648681640625,-0.09710388630628586,-0.15378513932228088,0.48897722363471985
1667824790383656700,5.26665673828125,-0.07253435999155045,-0.17792350053787231,0.4747128188610077
1667824790393663700,5.276663818359375,-0.06606540828943253,-0.1690874695777893,0.451037734746933
1667824790403671800,5.286671875,-0.06996827572584152,-0.13377901911735535,0.406169056892395
1667824790413678600,5.2966787109375,-0.08276602625846863,-0.10176645219326019,0.339775025844574
1667824790423686400,5.306686279296875,-0.08805213868618011,-0.06699275970458984,0.256988525390625
1667824790433694700,5.31669482421875,-0.07651056349277496,-0.0394912026822567,0.18352091312408447
1667824790443701500,5.326701416015625,-0.053696323186159134,-0.029380248859524727,0.13007979094982147
1667824790453709600,5.33670947265625,-0.02962324395775795,-0.03457556664943695,0.0960250124335289
1667824790463717600,5.346717529296875,-0.007547236979007721,-0.04265506565570831,0.09262175858020782
1667824790473724700,5.356724609375,0.018297825008630753,-0.06094435229897499,0.12109672278165817
1667824790483732700,5.366732666015625,0.048086345195770264,-0.09397101402282715,0.16537044942378998
1667824790493740500,5.376740478515625,0.07246958464384079,-0.1339198499917984,0.22282403707504272
1667824790503747600,5.38674755859375,0.10601556301116943,-0.13745146989822388,0.27038702368736267
1667824790513755600,5.396755615234375,0.12614706158638,-0.07990935444831848,0.30385586619377136
1667824790523763700,5.406763671875,0.1254703551530838,0.011212831363081932,0.2976997196674347
1667824790533770500,5.4167705078125,0.10866466909646988,0.11343112587928772,0.24581342935562134
1667824790543778600,5.426778564453125,0.08521021157503128,0.22792547941207886,0.1544819176197052
1667824790553786600,5.43678662109375,0.07074975967407227,0.3636007010936737,0.025105515494942665
1667824790563793700,5.446793701171875,0.06758192926645279,0.5293254852294922,-0.15159708261489868
1667824790573801500,5.456801513671875,0.11312390118837357,0.7138607501983643,-0.35381391644477844
1667824790583808800,5.466808837890625,0.21028107404708862,0.8600523471832275,-0.5719937086105347
1667824790593816600,5.476816650390625,0.34519055485725403,0.944336473941803,-0.7814664244651794
1667824790603824600,5.48682470703125,0.4590023159980774,0.9542796611785889,-0.944251298904419
1667824790613831400,5.49683154296875,0.5467921495437622,0.8843837380409241,-1.0438812971115112
1667824790623839700,5.50683984375,0.6071369647979736,0.7368294596672058,-1.0950063467025757
1667824790633847800,5.516847900390625,0.6349347233772278,0.5212804079055786,-1.0752276182174683
1667824790643854600,5.5268544921875,0.6280297040939331,0.28493601083755493,-0.9996565580368042
1667824790653862700,5.536862548828125,0.5999472737312317,0.0875549241900444,-0.8813118934631348
1667824790663870500,5.546870361328125,0.5665495991706848,-0.04344410449266434,-0.7403222918510437
1667824790673877800,5.556877685546875,0.5388618111610413,-0.08212564140558243,-0.5912051200866699
1667824790683885600,5.566885498046875,0.5291314721107483,-0.03964635729789734,-0.46419066190719604
1667824790693893600,5.5768935546875,0.5508715510368347,0.05768489092588425,-0.3611076772212982
1667824790703900700,5.586900634765625,0.5975059270858765,0.1893361359834671,-0.29438909888267517
1667824790713908700,5.59690869140625,0.6507537961006165,0.3284662067890167,-0.27790093421936035
1667824790723916500,5.60691650390625,0.6969625353813171,0.42732223868370056,-0.2985372245311737
1667824790733923600,5.616923583984375,0.7214428186416626,0.47646063566207886,-0.3626457154750824
1667824790743931600,5.626931640625,0.7321207523345947,0.4795994162559509,-0.45845827460289
1667824790753938700,5.636938720703125,0.7220324277877808,0.4467752277851105,-0.5651195645332336
1667824790763946500,5.646946533203125,0.6844692826271057,0.37967368960380554,-0.6520707011222839
1667824790773954600,5.65695458984375,0.624625027179718,0.2985823452472687,-0.7014011144638062
1667824790783961600,5.666961669921875,0.5562018156051636,0.20916937291622162,-0.7044703960418701
1667824790793969700,5.6769697265625,0.4912022650241852,0.15227285027503967,-0.6527630686759949
1667824790803977700,5.686977783203125,0.43118926882743835,0.16811572015285492,-0.5682833194732666
1667824790813984500,5.696984619140625,0.38762643933296204,0.23798230290412903,-0.4638410210609436
1667824790823992800,5.706992919921875,0.36950790882110596,0.3434789180755615,-0.3508518636226654
1667824790834000600,5.717000732421875,0.38214850425720215,0.4666856825351715,-0.24582308530807495
1667824790844007700,5.727007568359375,0.4173688292503357,0.5707787871360779,-0.1531948745250702
1667824790854015500,5.737015380859375,0.4584868252277374,0.6257323026657104,-0.07765501737594604
1667824790864023800,5.74702392578125,0.4811093211174011,0.6199042201042175,-0.025185685604810715
1667824790874030600,5.757030517578125,0.4948875904083252,0.5867409706115723,-0.02955123409628868
1667824790884038700,5.76703857421875,0.5045788288116455,0.5376322865486145,-0.07038681209087372
1667824790894046500,5.77704638671875,0.5186735987663269,0.46659502387046814,-0.13977709412574768
1667824790904053800,5.7870537109375,0.5306751728057861,0.40658336877822876,-0.21407130360603333
1667824790914061600,5.7970615234375,0.5315777063369751,0.35925787687301636,-0.28251296281814575
1667824790924068600,5.807068603515625,0.5272529721260071,0.3291891813278198,-0.34183168411254883
1667824790934076700,5.81707666015625,0.5175280570983887,0.3381792902946472,-0.39333802461624146
1667824790944084700,5.827084716796875,0.5125682353973389,0.3751367926597595,-0.4526607394218445
1667824790954091500,5.837091552734375,0.5067793726921082,0.4206414520740509,-0.5164986848831177
1667824790964099600,5.847099609375,0.5032211542129517,0.43328267335891724,-0.5853989124298096
1667824790974107400,5.857107421875,0.5021056532859802,0.4278673827648163,-0.6507593393325806
1667824790984114700,5.86711474609375,0.5242937803268433,0.43040964007377625,-0.7122466564178467
1667824790994122500,5.87712255859375,0.5688619613647461,0.4493881165981293,-0.7529417872428894
1667824791004130600,5.887130615234375,0.6227225661277771,0.45635920763015747,-0.7748180627822876
1667824791014137600,5.8971376953125,0.6835952401161194,0.46057796478271484,-0.7790217995643616
1667824791024145700,5.907145751953125,0.736892819404602,0.46855148673057556,-0.7538250684738159
1667824791034153700,5.91715380859375,0.7821842432022095,0.4633537232875824,-0.678351640701294
1667824791044160500,5.927160400390625,0.8219819664955139,0.45774325728416443,-0.5719868540763855
1667824791054168600,5.93716845703125,0.8567034006118774,0.4303394556045532,-0.455320805311203
1667824791064176600,5.9471767578125,0.8864016532897949,0.3672609031200409,-0.3414011597633362
1667824791074183700,5.95718359375,0.9116939902305603,0.247890442609787,-0.24505233764648438
1667824791084191700,5.967191650390625,0.9255767464637756,0.07407552003860474,-0.1729333996772766
1667824791094199000,5.977198974609375,0.9299539923667908,-0.15542057156562805,-0.11702468991279602
1667824791104206800,5.987206787109375,0.9038571715354919,-0.4074714481830597,-0.06088471785187721
1667824791114215000,5.99721484375,0.837649941444397,-0.6516534090042114,-0.007337366696447134
1667824791124221700,6.0072216796875,0.7234498858451843,-0.85903000831604,0.04248904436826706
1667824791134230000,6.01722998046875,0.5867615342140198,-0.9769268035888672,0.08419479429721832
1667824791144237800,6.02723779296875,0.4525459110736847,-0.9729555249214172,0.10355251282453537
1667824791154244900,6.037244873046875,0.3253980576992035,-0.8349590301513672,0.07740212231874466
1667824791164252700,6.047252685546875,0.18964049220085144,-0.6086878180503845,0.021576404571533203
1667824791174260700,6.0572607421875,0.02368844673037529,-0.3346690833568573,-0.03631571680307388
1667824791184267800,6.067267822265625,-0.1644875854253769,-0.0059335362166166306,-0.10810256004333496
1667824791194275800,6.07727587890625,-0.33802637457847595,0.3311220407485962,-0.1839095503091812
1667824791204284000,6.087283935546875,-0.4746004641056061,0.5964786410331726,-0.2477005124092102
1667824791214291000,6.097291015625,-0.553693950176239,0.7451558709144592,-0.30570435523986816
1667824791224299000,6.107299072265625,-0.5867616534233093,0.7779953479766846,-0.33870944380760193
1667824791234305800,6.117305908203125,-0.5786412954330444,0.6651626825332642,-0.34029698371887207
1667824791244313900,6.12731396484375,-0.5325864553451538,0.41444075107574463,-0.3003588914871216
1667824791254322000,6.137322021484375,-0.46246081590652466,0.10125093907117844,-0.20569470524787903
1667824791264329000,6.147328857421875,-0.39224788546562195,-0.20099733769893646,-0.06938692927360535
1667824791274336800,6.157336669921875,-0.3341633081436157,-0.43400561809539795,0.10215868800878525
1667824791284344800,6.1673447265625,-0.31255361437797546,-0.6265287399291992,0.2937563359737396
1667824791294352000,6.177351806640625,-0.31334614753723145,-0.7721818685531616,0.48198002576828003
1667824791304360000,6.18735986328125,-0.3194964528083801,-0.8211795091629028,0.6530563831329346
1667824791314367700,6.19736767578125,-0.3217473328113556,-0.754577100276947,0.7893627285957336
1667824791324375000,6.207375,-0.3239995837211609,-0.5845718383789062,0.880495548248291
1667824791334382800,6.2173828125,-0.3334140479564667,-0.35078316926956177,0.9227007627487183
1667824791344391000,6.227390869140625,-0.34730005264282227,-0.08349847793579102,0.9107178449630737
1667824791354397700,6.237397705078125,-0.3653499186038971,0.16313239932060242,0.8662173748016357
1667824791364405800,6.24740576171875,-0.3830844461917877,0.35654422640800476,0.7889614701271057
1667824791374414000,6.2574140625,-0.3912646472454071,0.5138697624206543,0.6661503911018372
1667824791384420900,6.2674208984375,-0.372181236743927,0.6365435123443604,0.48923632502555847
1667824791394429000,6.277428955078125,-0.3302047550678253,0.7169865369796753,0.25999096035957336
1667824791404436000,6.28743603515625,-0.28347721695899963,0.7005327343940735,0.011564377695322037
1667824791414444000,6.297444091796875,-0.23015734553337097,0.5571759939193726,-0.19954916834831238
1667824791424451800,6.307451904296875,-0.16202303767204285,0.34445124864578247,-0.34790295362472534
1667824791434459000,6.317458984375,-0.07969847321510315,0.11989451199769974,-0.4561185836791992
1667824791444467000,6.327467041015625,0.010679354891180992,-0.07898209989070892,-0.5238699316978455
1667824791454475000,6.33747509765625,0.09646514803171158,-0.260661780834198,-0.5518923401832581
1667824791464481800,6.347481689453125,0.17516660690307617,-0.40873435139656067,-0.5519503951072693
1667824791474489900,6.35748974609375,0.23164568841457367,-0.5040165781974792,-0.549199640750885
1667824791484497700,6.36749755859375,0.2652505338191986,-0.5764513611793518,-0.5537667274475098
1667824791494505000,6.3775048828125,0.2668914496898651,-0.6500064730644226,-0.5646553635597229
1667824791504512800,6.3875126953125,0.24790765345096588,-0.7101667523384094,-0.5746946930885315
1667824791514520800,6.397520751953125,0.2135573774576187,-0.7454858422279358,-0.5778729915618896
1667824791524527900,6.40752783203125,0.1608044058084488,-0.7505788803100586,-0.5667798519134521
1667824791534536000,6.417535888671875,0.08962158113718033,-0.7514699697494507,-0.5350509285926819
1667824791544544000,6.4275439453125,0.01686268299818039,-0.7591156363487244,-0.47879672050476074
1667824791554550800,6.43755078125,-0.0533585324883461,-0.7580010890960693,-0.40583664178848267
1667824791564559000,6.44755908203125,-0.11622510850429535,-0.7420351505279541,-0.31017163395881653
1667824791574566000,6.45756591796875,-0.1706821769475937,-0.7158651947975159,-0.19872958958148956
1667824791584574000,6.467573974609375,-0.2230420559644699,-0.64710932970047,-0.09093867242336273
1667824791594581800,6.477581787109375,-0.273515909910202,-0.5366196632385254,0.03017301671206951
1667824791604589000,6.487589111328125,-0.3266896605491638,-0.39854514598846436,0.15021206438541412
1667824791614596900,6.497596923828125,-0.37947797775268555,-0.24144065380096436,0.28193557262420654
1667824791624605000,6.50760498046875,-0.4153851270675659,-0.07951485365629196,0.4079957604408264
1667824791634612000,6.517612060546875,-0.4284701645374298,0.04435373842716217,0.5294727683067322
1667824791644620000,6.5276201171875,-0.4275937080383301,0.11551287025213242,0.6352258324623108
1667824791654627800,6.5376279296875,-0.41178643703460693,0.12547360360622406,0.7332054376602173
1667824791664635000,6.547634765625,-0.37034258246421814,0.0576665922999382,0.8509935736656189
1667824791674642700,6.557642578125,-0.30087676644325256,-0.0468231625854969,0.9944887161254883
1667824791684651000,6.567651123046875,-0.21731583774089813,-0.11525042355060577,1.1312189102172852
1667824791694657800,6.57765771484375,-0.1407157927751541,-0.16116443276405334,1.2477830648422241
1667824791704665900,6.587665771484375,-0.09312990307807922,-0.19941195845603943,1.3298081159591675
1667824791714673000,6.5976728515625,-0.056666433811187744,-0.21812385320663452,1.3493239879608154
1667824791724681000,6.607680908203125,-0.029897134751081467,-0.1980566680431366,1.296020269393921
1667824791734688800,6.617688720703125,-0.021982187405228615,-0.11909693479537964,1.1859484910964966
1667824791744695800,6.62769580078125,-0.03592037409543991,0.011843498796224594,1.0196974277496338
1667824791754704000,6.637703857421875,-0.06964654475450516,0.19617629051208496,0.8107243180274963
1667824791764712000,6.6477119140625,-0.09629972279071808,0.43393585085868835,0.577337384223938
1667824791774718700,6.65771875,-0.1052495464682579,0.7129508852958679,0.31525832414627075
1667824791784726800,6.667726806640625,-0.0909358486533165,0.9873267412185669,0.033365398645401
1667824791794734800,6.67773486328125,-0.047705598175525665,1.2084088325500488,-0.2570064067840576
1667824791804742000,6.687741943359375,0.01779964007437229,1.309116005897522,-0.5040106177330017
1667824791814750000,6.69775,0.10999580472707748,1.2593241930007935,-0.6814912557601929
1667824791824757800,6.7077578125,0.21145211160182953,1.0746276378631592,-0.7933003902435303
1667824791834765000,6.71776513671875,0.3005734086036682,0.7944765686988831,-0.8187025785446167
1667824791844772900,6.72777294921875,0.3646450638771057,0.4773702323436737,-0.7733817100524902
1667824791854781000,6.737781005859375,0.42066481709480286,0.20600032806396484,-0.6860394477844238
1667824791864787700,6.74778759765625,0.4673137962818146,0.03862704709172249,-0.5933566093444824
1667824791874796000,6.757796142578125,0.5001835823059082,-0.06924069672822952,-0.5021997690200806
1667824791884802800,6.767802734375,0.5217725038528442,-0.1398826390504837,-0.41964417695999146
1667824791894811000,6.777810791015625,0.5381042957305908,-0.14804522693157196,-0.3480040729045868
1667824791904818700,6.787818603515625,0.5451438426971436,-0.0937284603714943,-0.306554913520813
1667824791914826000,6.797825927734375,0.5534897446632385,-0.008209632709622383,-0.28780698776245117
1667824791924833800,6.807833740234375,0.5530325174331665,0.09457400441169739,-0.28989091515541077
1667824791934841900,6.817841796875,0.5554988980293274,0.20062397420406342,-0.3375820219516754
1667824791944849000,6.827848876953125,0.5445448160171509,0.28671786189079285,-0.4237515330314636
1667824791954857000,6.83785693359375,0.5193652510643005,0.3346826732158661,-0.5482364296913147
1667824791964865000,6.847864990234375,0.47619035840034485,0.3476293385028839,-0.6791366338729858
1667824791974871800,6.857871826171875,0.41893377900123596,0.33391445875167847,-0.8099846839904785
1667824791984879900,6.8678798828125,0.3609903156757355,0.3080034852027893,-0.9139395952224731
1667824791994888000,6.877887939453125,0.3064669668674469,0.28046250343322754,-0.9846113920211792
1667824792004895000,6.88789501953125,0.26502153277397156,0.26217857003211975,-1.0175230503082275
1667824792014902800,6.89790283203125,0.22898386418819427,0.25903457403182983,-1.0159494876861572
1667824792024910800,6.907910888671875,0.18988066911697388,0.24959366023540497,-0.9838943481445312
1667824792034918000,6.91791796875,0.16124293208122253,0.22649981081485748,-0.9330172538757324
1667824792044926000,6.927926025390625,0.13397029042243958,0.20588107407093048,-0.8751193284988403
1667824792054932700,6.9379326171875,0.1291704773902893,0.19539310038089752,-0.8010575771331787
1667824792064941000,6.947941162109375,0.13480626046657562,0.2098034769296646,-0.69875168800354
1667824792074948900,6.957948974609375,0.15127231180667877,0.26093590259552,-0.5765387415885925
1667824792084956400,6.967956298828125,0.18026535212993622,0.363557368516922,-0.4460718333721161
1667824792094964200,6.977964111328125,0.22747273743152618,0.4980418086051941,-0.3079272210597992
1667824792104972300,6.98797216796875,0.3075726330280304,0.6289433836936951,-0.16976216435432434
1667824792114979300,6.997979248046875,0.39842066168785095,0.7294988632202148,-0.05047129839658737
1667824792124987400,7.0079873046875,0.4733161926269531,0.7749848961830139,0.019071828573942184
1667824792134995500,7.017995361328125,0.5179199576377869,0.7647532224655151,0.013833651319146156
1667824792145002200,7.028002197265625,0.5646714568138123,0.6999651789665222,-0.06428884714841843
1667824792155010600,7.038010498046875,0.6171839237213135,0.6051801443099976,-0.19608719646930695
1667824792165018400,7.048018310546875,0.6663243174552917,0.48934248089790344,-0.36796334385871887
1667824792175025400,7.058025390625,0.7011113166809082,0.3750840127468109,-0.5308100581169128
1667824792185033200,7.068033203125,0.7175076007843018,0.26124107837677,-0.6445733904838562
1667824792195041500,7.07804150390625,0.7248766422271729,0.15139301121234894,-0.6788488626480103
1667824792205048300,7.08804833984375,0.7468887567520142,0.02238229475915432,-0.621860146522522
1667824792215056400,7.098056396484375,0.7722862362861633,-0.12264706194400787,-0.4720557630062103
1667824792225063400,7.1080634765625,0.7909635305404663,-0.2644177973270416,-0.252896785736084
1667824792235071500,7.118071533203125,0.7970056533813477,-0.38587650656700134,-0.007835467346012592
1667824792245079300,7.128079345703125,0.782188892364502,-0.4911123812198639,0.22393599152565002
1667824792255086300,7.13808642578125,0.7471174001693726,-0.5814217925071716,0.4040129482746124
1667824792265094400,7.148094482421875,0.6987488269805908,-0.6415138840675354,0.5137048363685608
1667824792275102500,7.1581025390625,0.6368333697319031,-0.649635374546051,0.5535377860069275
1667824792285109200,7.168109130859375,0.5401062965393066,-0.5987663269042969,0.5409706234931946
1667824792295117300,7.178117431640625,0.38910356163978577,-0.47158095240592957,0.49656087160110474
1667824792305125400,7.18812548828125,0.18677230179309845,-0.25602656602859497,0.4287588894367218
1667824792315132400,7.19813232421875,-0.05526212602853775,0.0178274754434824,0.34149596095085144
1667824792325140500,7.208140380859375,-0.30674174427986145,0.24965032935142517,0.25053542852401733
1667824792335148300,7.218148193359375,-0.5303329229354858,0.3726171553134918,0.15548790991306305
1667824792345155600,7.228155517578125,-0.7018468976020813,0.3729764223098755,0.07529827207326889
1667824792355163400,7.238163330078125,-0.8245688080787659,0.2702435255050659,0.020848143845796585
1667824792365171500,7.24817138671875,-0.9164459705352783,0.10183162242174149,-0.025228537619113922
1667824792375178200,7.25817822265625,-0.972170889377594,-0.12420804798603058,-0.016735613346099854
1667824792385186600,7.2681865234375,-0.9861064553260803,-0.3762839734554291,0.05302136391401291
1667824792395193300,7.278193359375,-0.9773526787757874,-0.5564756989479065,0.17763417959213257
1667824792405201400,7.288201416015625,-0.9670089483261108,-0.6166144013404846,0.33121389150619507
1667824792415209200,7.298209228515625,-0.9609600305557251,-0.574188768863678,0.49820300936698914
1667824792425216500,7.308216552734375,-0.9516919851303101,-0.4527163803577423,0.6570219397544861
1667824792435224300,7.318224365234375,-0.9310498237609863,-0.291490375995636,0.7869898676872253
1667824792445232400,7.328232421875,-0.9021475911140442,-0.08408764749765396,0.8839185833930969
1667824792455239200,7.3382392578125,-0.8614228963851929,0.12131937593221664,0.9341018795967102
1667824792465247500,7.34824755859375,-0.8231172561645508,0.2603635787963867,0.9295297861099243
1667824792475255600,7.358255615234375,-0.7877536416053772,0.3189848065376282,0.8826221823692322
1667824792485262300,7.368262451171875,-0.747655987739563,0.30129769444465637,0.7813831567764282
1667824792495270400,7.3782705078125,-0.695037841796875,0.22319677472114563,0.6391371488571167
1667824792505278500,7.388278564453125,-0.6314191818237305,0.12190955877304077,0.46057435870170593
1667824792515285500,7.398285400390625,-0.5638558864593506,0.02188771218061447,0.2674714922904968
1667824792525293300,7.408293212890625,-0.5081377625465393,-0.08215133845806122,0.09523555636405945
1667824792535300400,7.41830029296875,-0.47570905089378357,-0.1866561323404312,-0.0295668076723814
1667824792545308400,7.428308349609375,-0.44571226835250854,-0.2660899758338928,-0.11208591610193253
1667824792555316500,7.43831640625,-0.40774428844451904,-0.3254100978374481,-0.15110762417316437
1667824792565323300,7.4483232421875,-0.37418046593666077,-0.3815165162086487,-0.1663627326488495
1667824792575331300,7.458331298828125,-0.3465797007083893,-0.4398978650569916,-0.16989877820014954
1667824792585339400,7.46833935546875,-0.3243100941181183,-0.497098833322525,-0.1712266206741333
1667824792595346400,7.478346435546875,-0.30546334385871887,-0.5357354283332825,-0.18423692882061005
1667824792605354200,7.488354248046875,-0.2745720148086548,-0.5332701206207275,-0.22526133060455322
1667824792615362300,7.4983623046875,-0.22023966908454895,-0.4922226369380951,-0.29456472396850586
1667824792625369300,7.508369384765625,-0.1624986082315445,-0.46001917123794556,-0.3598310947418213
1667824792635377400,7.51837744140625,-0.11793751269578934,-0.4529731273651123,-0.3844010531902313
1667824792645385200,7.52838525390625,-0.08804113417863846,-0.47289329767227173,-0.3645288348197937
1667824792655392500,7.538392578125,-0.08204472064971924,-0.4763846695423126,-0.30714476108551025
1667824792665400300,7.548400390625,-0.10473832488059998,-0.46997711062431335,-0.2222391963005066
1667824792675407400,7.558407470703125,-0.14194172620773315,-0.476644366979599,-0.12489860504865646
1667824792685415200,7.568415283203125,-0.19067570567131042,-0.4912075996398926,0.0051139891147613525
1667824792695423500,7.578423583984375,-0.22662308812141418,-0.4923122227191925,0.17976558208465576
1667824792705430300,7.58843017578125,-0.23036989569664001,-0.4761106073856354,0.373680979013443
1667824792715438300,7.598438232421875,-0.19501271843910217,-0.4334719479084015,0.5764350891113281
1667824792725446400,7.6084462890625,-0.1493442952632904,-0.34214043617248535,0.7823432683944702
1667824792735453400,7.618453369140625,-0.04477619752287865,-0.28313449025154114,0.9572926163673401
1667824792745461500,7.62846142578125,0.06129138171672821,-0.21802100539207458,1.1087987422943115
1667824792755469300,7.63846923828125,0.1477500945329666,-0.1732594519853592,1.2514137029647827
1667824792765476400,7.648476318359375,0.2084760218858719,-0.17843103408813477,1.3682223558425903
1667824792775484400,7.658484375,0.2630915343761444,-0.22389444708824158,1.4656469821929932
1667824792785492500,7.668492431640625,0.3029729127883911,-0.3234100937843323,1.5387709140777588
1667824792795499300,7.678499267578125,0.3398808538913727,-0.44853365421295166,1.5785436630249023
1667824792805507300,7.68850732421875,0.3607661724090576,-0.5729309916496277,1.565774917602539
1667824792815515400,7.698515380859375,0.3631821870803833,-0.6721136569976807,1.4999192953109741
1667824792825522400,7.7085224609375,0.33525869250297546,-0.7196406722068787,1.3964402675628662
1667824792835530200,7.7185302734375,0.3105357587337494,-0.6963624954223633,1.2544775009155273
1667824792845537500,7.72853759765625,0.286577433347702,-0.5583953261375427,1.0772614479064941
1667824792855545300,7.73854541015625,0.2748595178127289,-0.27603402733802795,0.8779779076576233
1667824792865553400,7.748553466796875,0.2683835029602051,0.12611129879951477,0.6615867018699646
1667824792875560200,7.758560302734375,0.25065135955810547,0.5814133286476135,0.44904690980911255
1667824792885568300,7.768568359375,0.21851472556591034,1.0326670408248901,0.23721081018447876
1667824792895576600,7.77857666015625,0.192320317029953,1.4113200902938843,0.007220289669930935
1667824792905583400,7.788583251953125,0.18394413590431213,1.6567045450210571,-0.24738164246082306
1667824792915591400,7.79859130859375,0.19559645652770996,1.7228246927261353,-0.4940524399280548
1667824792925599200,7.80859912109375,0.23125778138637543,1.5793442726135254,-0.7081249952316284
1667824792935606500,7.8186064453125,0.2940926253795624,1.2549396753311157,-0.8734142184257507
1667824792945614300,7.8286142578125,0.3817324638366699,0.8286454081535339,-0.9948002696037292
1667824792955622400,7.838622314453125,0.47669127583503723,0.40156495571136475,-1.0729646682739258
1667824792965629400,7.84862939453125,0.5557053685188293,0.07762549817562103,-1.111646294593811
1667824792975637500,7.858637451171875,0.616046667098999,-0.13419607281684875,-1.1138994693756104
1667824792985645300,7.868645263671875,0.647945761680603,-0.2679826319217682,-1.0863873958587646
1667824792995652400,7.87865234375,0.6357840299606323,-0.2910098135471344,-1.0367511510849
1667824793005660400,7.888660400390625,0.5931452512741089,-0.1988748162984848,-0.9792050123214722
1667824793015667500,7.89866748046875,0.5360986590385437,-0.016465837135910988,-0.9200773239135742
1667824793025675300,7.90867529296875,0.4797748923301697,0.20145930349826813,-0.8589679002761841
1667824793035683300,7.918683349609375,0.4317728579044342,0.4376167356967926,-0.795059859752655
1667824793045690400,7.9286904296875,0.3822180926799774,0.645709753036499,-0.7554903626441956
1667824793055698400,7.938698486328125,0.33660608530044556,0.7664095163345337,-0.7385411262512207
1667824793065706500,7.94870654296875,0.29110702872276306,0.7846047282218933,-0.7478571534156799
1667824793075713300,7.95871337890625,0.24371477961540222,0.716758668422699,-0.757341206073761
1667824793085721300,7.968721435546875,0.20368266105651855,0.603712797164917,-0.7697917222976685
1667824793095728600,7.978728759765625,0.18200267851352692,0.4861568510532379,-0.7720760703086853
1667824793105735400,7.9887353515625,0.16334590315818787,0.37062758207321167,-0.7574214935302734
1667824793115743700,7.99874365234375,0.1542130559682846,0.28667572140693665,-0.7209406495094299
1667824793125751800,8.008751708984375,0.14302858710289001,0.23957692086696625,-0.6549603343009949
1667824793135758600,8.018758544921875,0.1323801875114441,0.2219962626695633,-0.5676859617233276
1667824793145766700,8.0287666015625,0.1272866278886795,0.22227376699447632,-0.47660449147224426
1667824793155774700,8.038774658203126,0.12461361289024353,0.228910893201828,-0.38818061351776123
1667824793165781800,8.04878173828125,0.1269982010126114,0.23506572842597961,-0.30485695600509644
1667824793175789600,8.05878955078125,0.1409207284450531,0.22783496975898743,-0.2250773012638092
1667824793185797600,8.068797607421875,0.1736999750137329,0.2284402996301651,-0.14283010363578796
1667824793195804700,8.0788046875,0.22243265807628632,0.2252231389284134,-0.0431651845574379
1667824793205812700,8.088812744140625,0.2746921479701996,0.21993890404701233,0.08499650657176971
1667824793215819500,8.098819580078125,0.32950863242149353,0.24023887515068054,0.21781109273433685
1667824793225827600,8.10882763671875,0.3890113830566406,0.2861696183681488,0.3088078498840332
1667824793235835600,8.118835693359374,0.4553920030593872,0.3485409617424011,0.3331928253173828
1667824793245842700,8.1288427734375,0.5069774389266968,0.39761021733283997,0.29814454913139343
1667824793255850500,8.1388505859375,0.5389654040336609,0.4277251958847046,0.213449627161026
1667824793265858600,8.148858642578125,0.5728656053543091,0.4167945086956024,0.07893974334001541
1667824793275865600,8.158865478515626,0.6049822568893433,0.3778393864631653,-0.06061974912881851
1667824793285873700,8.168873779296876,0.6360892057418823,0.2886686325073242,-0.1940230280160904
1667824793295881500,8.178881591796875,0.6515196561813354,0.1746525764465332,-0.28411707282066345
1667824793305888800,8.188888671875,0.6562470197677612,0.017664816230535507,-0.3298425078392029
1667824793315896600,8.198896484375,0.6494733691215515,-0.166838139295578,-0.31340527534484863
1667824793325904600,8.208904541015626,0.6405323147773743,-0.3398219048976898,-0.24430237710475922
1667824793335911400,8.218911376953125,0.6284950375556946,-0.4668322503566742,-0.14108650386333466
1667824793345919500,8.22891943359375,0.5951855182647705,-0.5343077182769775,-0.02844943106174469
1667824793355927800,8.238927734375,0.546578049659729,-0.5521546006202698,0.06249934434890747
1667824793365934600,8.2489345703125,0.49536460638046265,-0.554442286491394,0.12929968535900116
1667824793375942700,8.258942626953125,0.4516206681728363,-0.5347772836685181,0.16016612946987152
1667824793385949700,8.26894970703125,0.40790221095085144,-0.4979499876499176,0.16328522562980652
1667824793395957800,8.278957763671874,0.3325178921222687,-0.4180283546447754,0.15217125415802002
1667824793405965600,8.288965576171876,0.20297667384147644,-0.29178839921951294,0.130485400557518
1667824793415972600,8.29897265625,0.024041464552283287,-0.1532207578420639,0.10700594633817673
1667824793425980700,8.308980712890625,-0.18288135528564453,-0.02653418481349945,0.07419846206903458
1667824793435988700,8.31898876953125,-0.39602792263031006,0.11979164183139801,0.022324539721012115
1667824793445995500,8.32899560546875,-0.6028096079826355,0.2682546377182007,-0.05718865990638733
1667824793456003600,8.339003662109375,-0.7830203771591187,0.3767836093902588,-0.16056695580482483
1667824793466011600,8.34901171875,-0.9121173620223999,0.43114325404167175,-0.2694052755832672
1667824793476018700,8.359018798828124,-0.9947570562362671,0.4167514741420746,-0.3665437698364258
1667824793486026500,8.369026611328126,-1.0305736064910889,0.34327808022499084,-0.422223836183548
1667824793496034600,8.37903466796875,-1.020683765411377,0.20177844166755676,-0.42590633034706116
1667824793506041600,8.38904150390625,-0.9766150712966919,0.013925975188612938,-0.343282550573349
1667824793516049700,8.399049560546874,-0.9029372334480286,-0.1555357575416565,-0.2085847407579422
1667824793526056400,8.409056396484376,-0.7995362877845764,-0.2695328891277313,-0.03336099535226822
1667824793536064500,8.419064453125,-0.6832950115203857,-0.3185398578643799,0.16745156049728394
1667824793546072800,8.42907275390625,-0.5755440592765808,-0.2941801846027374,0.3596247434616089
1667824793556079600,8.43907958984375,-0.47801175713539124,-0.21697956323623657,0.506135880947113
1667824793566087700,8.449087646484376,-0.3983811140060425,-0.12039389461278915,0.5931442975997925
1667824793576095500,8.459095458984375,-0.32766616344451904,-0.028141478076577187,0.6257505416870117
1667824793586102800,8.469102783203125,-0.25301721692085266,0.03725403919816017,0.6042926907539368
1667824793596110600,8.479110595703125,-0.20113256573677063,0.05388118699193001,0.5470436811447144
1667824793606118700,8.48911865234375,-0.16416096687316895,0.022564010694622993,0.46512433886528015
1667824793616125700,8.499125732421875,-0.1357613205909729,-0.0755438506603241,0.3692767918109894
1667824793626133800,8.5091337890625,-0.11134731769561768,-0.20820656418800354,0.2864932119846344
1667824793636141600,8.5191416015625,-0.08847063779830933,-0.35391801595687866,0.22056202590465546
1667824793646148600,8.529148681640624,-0.06881225109100342,-0.4788042902946472,0.17569175362586975
1667824793656156400,8.539156494140625,-0.04945482313632965,-0.5859466791152954,0.14461016654968262
1667824793666164700,8.549164794921875,-0.03749296814203262,-0.6811459064483643,0.13689924776554108
1667824793676171500,8.559171630859375,-0.03955267742276192,-0.7492825984954834,0.1546984612941742
1667824793686179600,8.5691796875,-0.06007872521877289,-0.7716614007949829,0.18817518651485443
1667824793696186600,8.5791865234375,-0.08881962299346924,-0.7471820116043091,0.22040481865406036
1667824793706194700,8.589194580078125,-0.12914147973060608,-0.7033969759941101,0.2465466558933258
1667824793716202800,8.59920263671875,-0.1732458919286728,-0.657486617565155,0.25503021478652954
1667824793726209500,8.60920947265625,-0.22827479243278503,-0.6205166578292847,0.2556459307670593
1667824793736217900,8.6192177734375,-0.29867178201675415,-0.5729352235794067,0.23986469209194183
1667824793746225700,8.6292255859375,-0.37389490008354187,-0.5087919235229492,0.20716054737567902
1667824793756232700,8.639232666015625,-0.45295530557632446,-0.45618703961372375,0.16035164892673492
1667824793766240500,8.649240478515624,-0.5283470153808594,-0.44071462750434875,0.12423013150691986
1667824793776248600,8.65924853515625,-0.5984978675842285,-0.42488792538642883,0.105133555829525
1667824793786255600,8.669255615234375,-0.6605618000030518,-0.38060516119003296,0.09717442840337753
1667824793796263700,8.679263671875,-0.7349201440811157,-0.3007028102874756,0.09574435651302338
1667824793806271500,8.689271484375,-0.8134016394615173,-0.2076580822467804,0.1051383912563324
1667824793816278800,8.69927880859375,-0.8835254311561584,-0.13410289585590363,0.13137297332286835
1667824793826286600,8.70928662109375,-0.9286367297172546,-0.10131966322660446,0.1838897168636322
1667824793836293600,8.719293701171875,-0.9269633293151855,-0.08203615993261337,0.26194310188293457
1667824793846301400,8.729301513671874,-0.8847074508666992,-0.06088399887084961,0.35594630241394043
1667824793856309800,8.739309814453126,-0.8198412656784058,-0.04651062190532684,0.46025118231773376
1667824793866316500,8.749316650390625,-0.7288072109222412,-0.04731383174657822,0.5620971322059631
1667824793876324600,8.75932470703125,-0.624758243560791,-0.0784691721200943,0.6543209552764893
1667824793886332400,8.76933251953125,-0.5123072862625122,-0.13262268900871277,0.7522781491279602
1667824793896339700,8.779339599609376,-0.40956607460975647,-0.1884206384420395,0.8511850237846375
1667824793906347500,8.789347412109375,-0.32712098956108093,-0.22560527920722961,0.9427636861801147
1667824793916355600,8.79935546875,-0.2690422534942627,-0.2536589801311493,1.0190235376358032
1667824793926362600,8.809362548828124,-0.2373218536376953,-0.25572213530540466,1.06648850440979
1667824793936370700,8.81937060546875,-0.21803243458271027,-0.21935269236564636,1.0938111543655396
1667824793946378800,8.829378662109375,-0.20868873596191406,-0.15460804104804993,1.1227227449417114
1667824793956385500,8.839385498046875,-0.21011970937252045,-0.06648164987564087,1.140276312828064
1667824793966393600,8.8493935546875,-0.22520625591278076,0.0658247247338295,1.1405378580093384
1667824793976401700,8.859401611328124,-0.23277483880519867,0.22655729949474335,1.114197015762329
1667824793986408700,8.86940869140625,-0.21806193888187408,0.3848066031932831,1.0533180236816406
1667824793996416500,8.87941650390625,-0.1739642471075058,0.5109870433807373,0.9772469997406006
1667824794006423800,8.889423828125,-0.09969427436590195,0.6300439238548279,0.8923105001449585
1667824794016431600,8.899431640625,0.006303603295236826,0.7389810085296631,0.7999535799026489
1667824794026439700,8.909439697265626,0.12957707047462463,0.8152552247047424,0.6882629990577698
1667824794036446500,8.919446533203125,0.26862868666648865,0.8487246632575989,0.5378791689872742
1667824794046454800,8.929454833984375,0.39962345361709595,0.8339395523071289,0.3477702736854553
1667824794056462600,8.939462646484374,0.5148505568504333,0.7785583734512329,0.10391202569007874
1667824794066469600,8.9494697265625,0.6097594499588013,0.7036918997764587,-0.196492537856102
1667824794076477400,8.9594775390625,0.6784579753875732,0.5833298563957214,-0.5308913588523865
1667824794086485500,8.969485595703125,0.7185587882995605,0.42093056440353394,-0.8592931628227234
1667824794096493300,8.979493408203124,0.7353464961051941,0.23541074991226196,-1.1618783473968506
1667824794106501400,8.98950146484375,0.7331773638725281,0.061763864010572433,-1.4102610349655151
1667824794116509200,8.99950927734375,0.7098450660705566,-0.08838970959186554,-1.5749017000198364
1667824794126516200,9.00951611328125,0.6740138530731201,-0.18928569555282593,-1.6663289070129395
1667824794136524300,9.019524169921874,0.643327534198761,-0.223141610622406,-1.7033814191818237
1667824794146532400,9.029532470703124,0.6218177080154419,-0.18787789344787598,-1.693057656288147
1667824794156539100,9.0395390625,0.6216555237770081,-0.07389097660779953,-1.6515940427780151
1667824794166547200,9.049547119140625,0.6361607313156128,0.08348746597766876,-1.6016440391540527
1667824794176555500,9.059555419921875,0.6641432046890259,0.2332126796245575,-1.5314732789993286
1667824794186562300,9.069562255859376,0.6935655474662781,0.37136733531951904,-1.4476792812347412
1667824794196570400,9.0795703125,0.7045971751213074,0.4875565469264984,-1.3575794696807861
1667824794206577400,9.089577392578125,0.7017697095870972,0.5573947429656982,-1.2841061353683472
1667824794216585500,9.09958544921875,0.691213846206665,0.5653591156005859,-1.2320841550827026
1667824794226593300,9.10959326171875,0.6703833937644958,0.5205000042915344,-1.1942124366760254
1667824794236600300,9.119600341796875,0.6408984661102295,0.4421776235103607,-1.1540135145187378
1667824794246608400,9.1296083984375,0.5944728851318359,0.3561199903488159,-1.0953112840652466
1667824794256616400,9.139616455078125,0.5203317403793335,0.30215179920196533,-1.023806095123291
1667824794266623200,9.149623291015626,0.41684690117836,0.2817991077899933,-0.9542804956436157
1667824794276631300,9.15963134765625,0.3283560276031494,0.27169400453567505,-0.8845977187156677
1667824794286639000,9.16963916015625,0.2578032910823822,0.27436864376068115,-0.8055285215377808
1667824794296646400,9.179646484375,0.20575156807899475,0.2914336621761322,-0.7081702351570129
1667824794306654200,9.189654296875,0.18106086552143097,0.3220728039741516,-0.5761275291442871
1667824794316662300,9.199662353515626,0.16618065536022186,0.36821821331977844,-0.41257813572883606
1667824794326669300,9.20966943359375,0.1767273098230362,0.41448211669921875,-0.25174346566200256
1667824794336677400,9.219677490234375,0.20914091169834137,0.45717859268188477,-0.13067537546157837
1667824794346685200,9.229685302734374,0.24436761438846588,0.455145001411438,-0.052803222090005875
1667824794356692200,9.239692138671876,0.26933786273002625,0.4171486496925354,-0.014048846438527107
1667824794366700300,9.2497001953125,0.28527262806892395,0.3427322208881378,0.006451102439314127
1667824794376707300,9.259707275390625,0.30387505888938904,0.21838591992855072,0.03185523673892021
1667824794386715100,9.269715087890624,0.3286925256252289,0.06319739669561386,0.06740603595972061
1667824794396723200,9.27972314453125,0.3488590121269226,-0.08894723653793335,0.11883558332920074
1667824794406730200,9.289730224609375,0.3559076189994812,-0.2131299078464508,0.1792840212583542
1667824794416738300,9.29973828125,0.3513561189174652,-0.3155037760734558,0.24695853888988495
1667824794426746400,9.309746337890624,0.3175547420978546,-0.4130540192127228,0.30166494846343994
1667824794436753200,9.319753173828126,0.2619890570640564,-0.4613112211227417,0.33711186051368713
1667824794446761500,9.329761474609375,0.1783553957939148,-0.4415324330329895,0.330920547246933
1667824794456769300,9.339769287109375,0.0820675641298294,-0.35517391562461853,0.2908119857311249
1667824794466776300,9.3497763671875,-0.03729904070496559,-0.19661171734333038,0.21105217933654785
1667824794476784000,9.3597841796875,-0.1742333024740219,0.008252089843153954,0.11779803037643433
1667824794486792400,9.36979248046875,-0.31186893582344055,0.20601069927215576,0.011161064729094505
1667824794496799200,9.37979931640625,-0.4309799373149872,0.33289989829063416,-0.0990641638636589
1667824794506807300,9.389807373046875,-0.5333161354064941,0.3699801564216614,-0.18555724620819092
1667824794516815000,9.399815185546874,-0.6094785332679749,0.3355138599872589,-0.25237324833869934
1667824794526822400,9.409822509765625,-0.6503767371177673,0.2429913729429245,-0.30579495429992676
1667824794536830200,9.419830322265625,-0.6504114866256714,0.08110660314559937,-0.33275100588798523
1667824794546838300,9.42983837890625,-0.6182210445404053,-0.12746763229370117,-0.30683180689811707
1667824794556845300,9.43984521484375,-0.5699761509895325,-0.3182944357395172,-0.21541064977645874
1667824794566853400,9.449853271484375,-0.5335193276405334,-0.45166340470314026,-0.07786822319030762
1667824794576861400,9.459861328125,-0.5244424939155579,-0.5239006876945496,0.08601413667201996
1667824794586868200,9.4698681640625,-0.5394861698150635,-0.5082114338874817,0.24257871508598328
1667824794596876300,9.479876220703124,-0.5594776272773743,-0.41747385263442993,0.3791414201259613
1667824794606883300,9.48988330078125,-0.5690756440162659,-0.24979807436466217,0.4806501865386963
1667824794616891400,9.499891357421875,-0.563624382019043,-0.04076916724443436,0.5388423800468445
1667824794626899200,9.509899169921875,-0.5396764874458313,0.18539872765541077,0.5561808347702026
1667824794636906500,9.519906494140624,-0.5083655118942261,0.36611706018447876,0.5291796922683716
1667824794646914300,9.529914306640626,-0.49216708540916443,0.44418099522590637,0.46825268864631653
1667824794656922400,9.53992236328125,-0.4906720817089081,0.4301967918872833,0.3893562853336334
1667824794666929200,9.54992919921875,-0.49285614490509033,0.3641786277294159,0.31237947940826416
1667824794676937200,9.559937255859374,-0.4836811125278473,0.25640708208084106,0.24689549207687378
1667824794686945300,9.5699453125,-0.4574172794818878,0.12502934038639069,0.20195411145687103
1667824794696952300,9.579952392578125,-0.42241814732551575,0.008976041339337826,0.1670171171426773
1667824794706960100,9.589960205078125,-0.3753981590270996,-0.08013252913951874,0.1256646066904068
1667824794716968200,9.59996826171875,-0.3379178047180176,-0.13289710879325867,0.0875728577375412
1667824794726975200,9.609975341796876,-0.3009616732597351,-0.16769477725028992,0.05256001651287079
1667824794736983300,9.6199833984375,-0.2870297431945801,-0.1840520203113556,0.04523739963769913
1667824794746991400,9.629991455078125,-0.28031325340270996,-0.18509092926979065,0.047931186854839325
1667824794756998400,9.639998291015624,-0.28835296630859375,-0.1620422601699829,0.06069551035761833
1667824794767006500,9.65000634765625,-0.30707740783691406,-0.1259859800338745,0.06573633849620819
1667824794777014300,9.66001416015625,-0.327208936214447,-0.10632936656475067,0.06170135363936424
1667824794787021300,9.670021240234375,-0.3356780707836151,-0.12654514610767365,0.05260585993528366
1667824794797029400,9.680029296875,-0.33691269159317017,-0.1664709597826004,0.041883308440446854
1667824794807036400,9.690036376953126,-0.32839643955230713,-0.19861744344234467,0.031131595373153687
1667824794817044200,9.700044189453125,-0.3079877197742462,-0.22565557062625885,0.01527061965316534
1667824794827052300,9.71005224609375,-0.2914079427719116,-0.23566506803035736,0.004141002893447876
1667824794837059300,9.720059326171874,-0.2803627550601959,-0.2193743884563446,-0.011450273916125298
1667824794847067400,9.7300673828125,-0.2775552570819855,-0.17972658574581146,-0.03053208813071251
1667824794857075200,9.7400751953125,-0.276923805475235,-0.14299224317073822,-0.04644114896655083
1667824794867082200,9.750082275390625,-0.2817457318305969,-0.12727771699428558,-0.058156926184892654
1667824794877090300,9.76009033203125,-0.2943756580352783,-0.12633055448532104,-0.06718049943447113
1667824794887098400,9.770098388671874,-0.3049899637699127,-0.14418864250183105,-0.06694427877664566
1667824794897105200,9.780105224609375,-0.30905282497406006,-0.17331866919994354,-0.043565861880779266
1667824794907113200,9.79011328125,-0.30956655740737915,-0.21765577793121338,0.028942160308361053
1667824794917121300,9.800121337890625,-0.2940962612628937,-0.26757416129112244,0.1499590426683426
1667824794927128300,9.81012841796875,-0.2576565146446228,-0.325135201215744,0.3153533339500427
1667824794937136000,9.82013623046875,-0.20154918730258942,-0.3799242675304413,0.5198614597320557
1667824794947144200,9.830144287109375,-0.12507599592208862,-0.4282763600349426,0.7479108572006226
1667824794957151200,9.840151123046875,-0.044878941029310226,-0.4583743214607239,0.984388530254364
1667824794967159300,9.8501591796875,0.028709791600704193,-0.49000149965286255,1.2127058506011963
1667824794977167400,9.86016748046875,0.08304744213819504,-0.5182206630706787,1.4168518781661987
1667824794987174400,9.87017431640625,0.1235104501247406,-0.5078074336051941,1.5692880153656006
1667824794997182500,9.880182373046875,0.14436252415180206,-0.44180500507354736,1.6628305912017822
1667824795007189200,9.890189208984374,0.13770808279514313,-0.2963463366031647,1.6791925430297852
1667824795017197300,9.900197265625,0.10993703454732895,-0.07732868194580078,1.6215485334396362
1667824795027205000,9.910205078125,0.0899534747004509,0.1962357610464096,1.4964028596878052
1667824795037212400,9.92021240234375,0.07785487920045853,0.4948843717575073,1.3227413892745972
1667824795047220200,9.93022021484375,0.06951199471950531,0.7814745903015137,1.104832410812378
1667824795057228300,9.940228271484376,0.055246736854314804,1.0089303255081177,0.8421274423599243
1667824795067235300,9.9502353515625,0.05018779635429382,1.1537429094314575,0.5545715689659119
1667824795077243400,9.960243408203125,0.05629555881023407,1.1800682544708252,0.2619606554508209
1667824795087251200,9.970251220703124,0.06464217603206635,1.0890395641326904,-0.010105456225574017
1667824795097258200,9.98025830078125,0.07046948373317719,0.911766767501831,-0.2412184178829193
1667824795107266300,9.990266357421875,0.08302122354507446,0.6885597705841064,-0.431286096572876
1667824795117274600,10.000274658203125,0.101586252450943,0.45294511318206787,-0.5822762250900269
1667824795127281400,10.010281494140624,0.12561754882335663,0.23859979212284088,-0.7019768357276917
1667824795137289500,10.02028955078125,0.14746448397636414,0.09255585819482803,-0.7888309955596924
1667824795147297300,10.03029736328125,0.16895566880702972,0.013398190960288048,-0.8377745151519775
1667824795157304600,10.0403046875,0.1926749050617218,-0.012894261628389359,-0.8432010412216187
1667824795167312400,10.0503125,0.21212637424468994,0.003413072321563959,-0.813380241394043
1667824795177320400,10.060320556640624,0.21985435485839844,0.04012017697095871,-0.7616257071495056
1667824795187327500,10.070327392578125,0.20325247943401337,0.07137370854616165,-0.6949611902236938
1667824795197335600,10.08033544921875,0.17253780364990234,0.09730778634548187,-0.6263269186019897
1667824795207342300,10.09034228515625,0.12882281839847565,0.13727889955043793,-0.5659013986587524
1667824795217350400,10.100350341796876,0.06712120026350021,0.18667200207710266,-0.5403264760971069
1667824795227358500,10.1103583984375,0.002250863239169121,0.2475670427083969,-0.5435672998428345
1667824795237365500,10.120365478515625,-0.05823865532875061,0.32405194640159607,-0.5618991255760193
1667824795247373300,10.130373291015625,-0.11650355905294418,0.3934962749481201,-0.5791676044464111
1667824795257381400,10.14038134765625,-0.15266099572181702,0.4383016526699066,-0.5746816396713257
1667824795267388400,10.150388427734375,-0.17438332736492157,0.44675344228744507,-0.5393558144569397
1667824795277396500,10.160396484375,-0.18188044428825378,0.4418284595012665,-0.4749799370765686
1667824795287404300,10.170404296875,-0.17894962430000305,0.42476800084114075,-0.3985421359539032
1667824795297411300,10.180411376953124,-0.16131474077701569,0.3812604248523712,-0.305327832698822
1667824795307419400,10.19041943359375,-0.1272110939025879,0.30802324414253235,-0.19953987002372742
1667824795317427500,10.200427490234375,-0.06291194260120392,0.21984833478927612,-0.07980107516050339
1667824795327434200,10.210434326171875,0.03375600650906563,0.14776135981082916,0.048624806106090546
1667824795337442300,10.2204423828125,0.14757847785949707,0.11279455572366714,0.16534292697906494
1667824795347450400,10.230450439453126,0.27022287249565125,0.1034708246588707,0.26431265473365784
1667824795357457400,10.24045751953125,0.3572724461555481,0.10125808417797089,0.35015255212783813
1667824795367465500,10.250465576171875,0.4272957444190979,0.10060800611972809,0.39966925978660583
1667824795377473300,10.260473388671874,0.46175137162208557,0.09834317117929459,0.4055761694908142
1667824795387480600,10.27048046875,0.4874117076396942,0.08239669352769852,0.37138599157333374
1667824795397488400,10.28048828125,0.5066043138504028,0.048970382660627365,0.3110086917877197
1667824795407496400,10.290496337890625,0.5176665782928467,0.0165016558021307,0.24771997332572937
1667824795417503200,10.300503173828124,0.5308670401573181,-0.014883818104863167,0.18098923563957214
1667824795427511600,10.310511474609376,0.5591775178909302,-0.02363736182451248,0.11218380182981491
1667824795437518300,10.320518310546875,0.5861219763755798,-0.00016309507191181183,0.027513304725289345
1667824795447526400,10.3305263671875,0.5979864001274109,0.09096601605415344,-0.0922493189573288
1667824795457534200,10.3405341796875,0.5928439497947693,0.26929059624671936,-0.26223427057266235
1667824795467541500,10.35054150390625,0.6094663143157959,0.4750453531742096,-0.5261015892028809
1667824795477549300,10.36054931640625,0.6370481848716736,0.6123480200767517,-0.8396322727203369
1667824795487557400,10.370557373046875,0.6615505814552307,0.6060874462127686,-1.1247830390930176
1667824795497564400,10.380564453125,0.6837000250816345,0.46191179752349854,-1.3454371690750122
1667824795507572500,10.390572509765626,0.7157711386680603,0.203665629029274,-1.4674123525619507
1667824795517580500,10.40058056640625,0.7551102042198181,-0.20630672574043274,-1.4635474681854248
1667824795527587300,10.41058740234375,0.7928117513656616,-0.6778808832168579,-1.33913254737854
1667824795537595400,10.420595458984375,0.7953271865844727,-1.0761382579803467,-1.11891770362854
1667824795547603500,10.430603515625,0.7298464179039001,-1.3157212734222412,-0.8571592569351196
1667824795557610500,10.440610595703125,0.6052005887031555,-1.3773932456970215,-0.5632133483886719
1667824795567618300,10.450618408203125,0.45869743824005127,-1.254502296447754,-0.24953718483448029
1667824795577626400,10.46062646484375,0.2862720489501953,-0.9307452440261841,0.03985065221786499
1667824795587633400,10.47063330078125,0.06611942499876022,-0.4567459523677826,0.26098117232322693
1667824795597641500,10.480641357421876,-0.2131156176328659,0.03826311230659485,0.41214853525161743
1667824795607648300,10.490648193359375,-0.5300445556640625,0.4176117777824402,0.4736286699771881
1667824795617656600,10.500656494140625,-0.8420032262802124,0.6524089574813843,0.432922899723053
1667824795627664400,10.510664306640624,-1.1015084981918335,0.7665432691574097,0.2985991835594177
1667824795637671400,10.52067138671875,-1.307551622390747,0.7710011005401611,0.11803942918777466
1667824795647679200,10.53067919921875,-1.461396336555481,0.7277892231941223,-0.058538537472486496
1667824795657687600,10.5406875,-1.556168556213379,0.6681901812553406,-0.22242429852485657
1667824795667694300,10.5506943359375,-1.580795407295227,0.5848923921585083,-0.3496754765510559
1667824795677702400,10.560702392578126,-1.5521074533462524,0.43628305196762085,-0.4192735254764557
1667824795687710500,10.57071044921875,-1.4732677936553955,0.24436448514461517,-0.4180396795272827
1667824795697717500,10.580717529296875,-1.3593173027038574,0.04999818280339241,-0.3599171042442322
1667824795707725600,10.5907255859375,-1.2203649282455444,-0.11711064726114273,-0.254880428314209
1667824795717733400,10.6007333984375,-1.0803629159927368,-0.23485656082630157,-0.11284768581390381
1667824795727740400,10.610740478515625,-0.9698879718780518,-0.3040976822376251,0.04533875361084938
1667824795737748500,10.62074853515625,-0.8892319798469543,-0.33821341395378113,0.20770816504955292
1667824795747756500,10.630756591796874,-0.8204323649406433,-0.3331321179866791,0.3702020049095154
1667824795757763300,10.640763427734376,-0.758333683013916,-0.3130152225494385,0.5154745578765869
1667824795767771400,10.650771484375,-0.7130674123764038,-0.2594502568244934,0.6324658989906311
1667824795777778400,10.6607783203125,-0.6779270768165588,-0.18414638936519623,0.722748875617981
1667824795787786500,10.670786376953124,-0.6593179702758789,-0.11395610868930817,0.7937319874763489
1667824795797794300,10.680794189453126,-0.6403147578239441,-0.043405354022979736,0.8261181116104126
1667824795807801600,10.690801513671875,-0.6128343939781189,0.027897855266928673,0.8026929497718811
1667824795817809400,10.700809326171875,-0.5756465196609497,0.05762052908539772,0.7399641275405884
1667824795827817500,10.7108173828125,-0.5342556834220886,0.028952401131391525,0.6561715006828308
1667824795837824300,10.72082421875,-0.49671176075935364,-0.03780745714902878,0.5675228834152222
1667824795847832300,10.730832275390625,-0.4549030065536499,-0.12192504107952118,0.4834448993206024
1667824795857840400,10.74084033203125,-0.38721412420272827,-0.24295872449874878,0.4208899736404419
1667824795867847400,10.750847412109374,-0.30484920740127563,-0.37117740511894226,0.35375168919563293
1667824795877855200,10.760855224609376,-0.20158587396144867,-0.47461026906967163,0.2878498435020447
1667824795887863300,10.77086328125,-0.09470096230506897,-0.522249698638916,0.20909084379673004
1667824795897870300,10.780870361328125,0.00042294058948755264,-0.5035647749900818,0.11223073303699493
1667824795907878400,10.79087841796875,0.08094201982021332,-0.4749867022037506,-0.00041885022073984146
1667824795917886500,10.800886474609374,0.13335542380809784,-0.4767470359802246,-0.11970902234315872
1667824795927893500,10.8108935546875,0.16650351881980896,-0.5251939296722412,-0.21109193563461304
1667824795937901600,10.820901611328125,0.18219558894634247,-0.6162859797477722,-0.2616466283798218
1667824795947908400,10.830908447265625,0.18965138494968414,-0.7145880460739136,-0.27170830965042114
1667824795957916400,10.84091650390625,0.1817287802696228,-0.7832178473472595,-0.23302528262138367
1667824795967924500,10.850924560546876,0.16647127270698547,-0.8157632946968079,-0.15883255004882812
1667824795977931500,10.860931640625,0.1437559276819229,-0.8020097613334656,-0.0542115792632103
1667824795987939300,10.870939208984375,0.1274869441986084,-0.7374927997589111,0.05987930670380592
1667824795997947400,10.880947509765624,0.12199951708316803,-0.6480341553688049,0.18139834702014923
1667824796007954400,10.890954345703125,0.10936042666435242,-0.5538812875747681,0.304422527551651
1667824796017962500,10.90096240234375,0.0998406857252121,-0.4564359784126282,0.4336857199668884
1667824796027970300,10.91097021484375,0.0908152312040329,-0.37086114287376404,0.5570140480995178
1667824796037977300,10.920977294921874,0.08959873765707016,-0.3125286102294922,0.6625272631645203
1667824796047985400,10.9309853515625,0.08653104305267334,-0.3060150444507599,0.7412729859352112
1667824796057993500,10.940993408203125,0.08330298960208893,-0.3624519407749176,0.8221873641014099
1667824796068000300,10.951000244140625,0.0707499086856842,-0.422903835773468,0.9068804383277893
1667824796078008300,10.96100830078125,0.07070663571357727,-0.4643419086933136,0.9916847348213196
1667824796088016400,10.971016357421876,0.07763112336397171,-0.47032949328422546,1.0666143894195557
1667824796098022700,10.981022705078125,0.0776873454451561,-0.44704699516296387,1.1380369663238525
1667824796108030500,10.991030517578125,0.04961656779050827,-0.3611786961555481,1.1951305866241455
1667824796118038500,11.00103857421875,0.004557813983410597,-0.20057325065135956,1.213258147239685
1667824796128045600,11.011045654296876,-0.03955744951963425,0.026981346309185028,1.181523084640503
1667824796138053600,11.0210537109375,-0.06908195465803146,0.30932122468948364,1.0853662490844727
1667824796148060700,11.031060791015625,-0.0891195759177208,0.6065606474876404,0.9270024299621582
1667824796158068700,11.04106884765625,-0.10089682787656784,0.8560974597930908,0.7238113880157471
1667824796168076500,11.05107666015625,-0.10177407413721085,1.0248719453811646,0.47640693187713623
1667824796178083600,11.06108349609375,-0.101604163646698,1.100921869277954,0.2212800830602646
1667824796188091400,11.07109130859375,-0.11013400554656982,1.051222324371338,-0.017720777541399002
1667824796198099700,11.081099609375,-0.11743535846471786,0.8873353600502014,-0.22856548428535461
1667824796208106500,11.0911064453125,-0.11327150464057922,0.6690192222595215,-0.4231245815753937
1667824796218114600,11.101114501953125,-0.12258049845695496,0.4470885694026947,-0.6051743030548096
1667824796228122600,11.11112255859375,-0.13769713044166565,0.26766473054885864,-0.7758094072341919
1667824796238129700,11.121129638671874,-0.15727801620960236,0.16202017664909363,-0.9250798225402832
1667824796248137700,11.1311376953125,-0.19592635333538055,0.12038324773311615,-1.0220812559127808
1667824796258145500,11.1411455078125,-0.23966267704963684,0.12704509496688843,-1.0582728385925293
1667824796268152800,11.15115283203125,-0.2937040627002716,0.1474398374557495,-1.037480115890503
1667824796278160600,11.16116064453125,-0.3474333584308624,0.1504005491733551,-0.946252167224884
1667824796288167700,11.171167724609376,-0.3942844867706299,0.14790889620780945,-0.7951576709747314
1667824796298175500,11.181175537109375,-0.43501195311546326,0.15233881771564484,-0.6205047369003296
1667824796308183600,11.19118359375,-0.45976871252059937,0.14276714622974396,-0.43525099754333496
1667824796318190600,11.201190673828124,-0.47708287835121155,0.13962635397911072,-0.2601794898509979
1667824796328198700,11.21119873046875,-0.48628994822502136,0.164466992020607,-0.10811803489923477
1667824796338206500,11.22120654296875,-0.4945213496685028,0.17659859359264374,0.013733819127082825
1667824796348213800,11.2312138671875,-0.4766789674758911,0.17325766384601593,0.10669704526662827
1667824796358221600,11.2412216796875,-0.4363248646259308,0.14817269146442413,0.1841929703950882
1667824796368229600,11.251229736328124,-0.3864537179470062,0.10029011964797974,0.2510758638381958
1667824796378236400,11.261236328125,-0.3370119631290436,0.033216942101716995,0.30987635254859924
1667824796388244700,11.27124462890625,-0.3112115263938904,-0.03131118416786194,0.353596955537796
1667824796398252800,11.281252685546875,-0.3170212209224701,-0.09285452216863632,0.3804049491882324
1667824796408259600,11.291259521484376,-0.3458488881587982,-0.14728979766368866,0.4085657596588135
1667824796418267600,11.301267578125,-0.3860872685909271,-0.16296237707138062,0.4289717972278595
1667824796428275700,11.311275634765625,-0.43261030316352844,-0.13359224796295166,0.44906216859817505
1667824796438282800,11.32128271484375,-0.4910746216773987,-0.08378159254789352,0.4726816415786743
1667824796448290600,11.33129052734375,-0.5432896018028259,-0.03911931440234184,0.506924569606781
1667824796458297900,11.3412978515625,-0.5633489489555359,-0.001354616368189454,0.5523526668548584
1667824796468305700,11.3513056640625,-0.5454128384590149,0.042123086750507355,0.5804213285446167
1667824796478313700,11.361313720703125,-0.47538986802101135,0.04991065710783005,0.5592058300971985
1667824796488320500,11.371320556640624,-0.36444178223609924,0.004236646927893162,0.5039042830467224
1667824796498328600,11.38132861328125,-0.2328019142150879,-0.10170811414718628,0.40836194157600403
1667824796508336600,11.391336669921875,-0.12405093014240265,-0.20854055881500244,0.2709590494632721
1667824796518343700,11.40134375,-0.050738051533699036,-0.23969076573848724,0.0891398936510086
1667824796528351500,11.4113515625,-0.007225462701171637,-0.16235949099063873,-0.140142560005188
1667824796538359600,11.421359619140626,0.019775796681642532,0.03068826161324978,-0.4126228094100952
1667824796548366600,11.43136669921875,0.023690108209848404,0.2713805139064789,-0.70656418800354
1667824796558374700,11.441374755859375,-0.007737454492598772,0.45043662190437317,-0.9864574670791626
1667824796568382700,11.4513828125,-0.07852108031511307,0.4837746024131775,-1.2112644910812378
1667824796578389800,11.4613896484375,-0.1488036960363388,0.27560874819755554,-1.3533575534820557
1667824796588397800,11.471397705078125,-0.18485704064369202,-0.12965138256549835,-1.369113564491272
1667824796598404600,11.481404541015625,-0.1863207370042801,-0.6314098834991455,-1.274977207183838
1667824796608412400,11.491412353515624,-0.15921615064144135,-1.1290169954299927,-1.096621036529541
1667824796618420500,11.50142041015625,-0.13432858884334564,-1.4942619800567627,-0.8509640693664551
1667824796628427500,11.511427490234375,-0.16845805943012238,-1.6539366245269775,-0.5788640975952148
1667824796638435600,11.521435546875,-0.259390264749527,-1.6786160469055176,-0.31875792145729065
1667824796648443600,11.531443603515624,-0.3957531750202179,-1.6042683124542236,-0.08898144215345383
1667824796658450700,11.54145068359375,-0.5889011025428772,-1.4933974742889404,0.10005725175142288
1667824796668458800,11.551458740234375,-0.8577679991722107,-1.3573472499847412,0.2528425455093384
1667824796678466600,11.561466552734375,-1.1911543607711792,-1.2095749378204346,0.33437636494636536
1667824796688473600,11.5714736328125,-1.5555232763290405,-0.9847530722618103,0.368583083152771
1667824796698481700,11.581481689453126,-1.8816804885864258,-0.7658167481422424,0.3819640874862671
1667824796708489700,11.59148974609375,-2.1070945262908936,-0.619033932685852,0.343112051486969
1667824796718496500,11.60149658203125,-2.227010488510132,-0.5340505838394165,0.2523445188999176
1667824796728504600,11.611504638671875,-2.257380723953247,-0.4820678234100342,0.1125088781118393
1667824796738512600,11.6215126953125,-2.2169301509857178,-0.4781794846057892,-0.05231870338320732
1667824796748519700,11.631519775390625,-2.1471779346466064,-0.5087986588478088,-0.19330884516239166
1667824796758527500,11.641527587890625,-2.075867176055908,-0.5540144443511963,-0.2765286862850189
1667824796768534800,11.65153466796875,-2.0093400478363037,-0.5954595804214478,-0.2778725028038025
1667824796778542600,11.66154248046875,-1.9411293268203735,-0.6092483401298523,-0.21030673384666443
1667824796788550700,11.671550537109376,-1.8841962814331055,-0.5822523832321167,-0.04871251434087753
1667824796798557400,11.681557373046875,-1.8469843864440918,-0.5659158229827881,0.19875147938728333
1667824796808565500,11.6915654296875,-1.8358267545700073,-0.5533195734024048,0.50815749168396
1667824796818573800,11.70157373046875,-1.8608026504516602,-0.5066102743148804,0.8183881640434265
1667824796828580600,11.71158056640625,-1.902900218963623,-0.4119814336299896,1.084284782409668
1667824796838588700,11.721588623046875,-1.9574434757232666,-0.27264946699142456,1.2752079963684082
1667824796848596500,11.731596435546875,-2.028172731399536,-0.08438744395971298,1.3948819637298584
1667824796858603800,11.741603759765624,-2.105653762817383,0.11486496031284332,1.4313355684280396
1667824796868611600,11.751611572265626,-2.1756091117858887,0.2747204005718231,1.3917324542999268
1667824796878619600,11.76161962890625,-2.257056951522827,0.3736635744571686,1.3014522790908813
1667824796888626700,11.771626708984375,-2.360869884490967,0.4146328568458557,1.1910852193832397
1667824796898634800,11.781634765625,-2.471769094467163,0.3976741433143616,1.1043124198913574
1667824796908642600,11.791642578125,-2.5894861221313477,0.3071940541267395,1.084682822227478
1667824796918649600,11.801649658203125,-2.7047784328460693,0.15884330868721008,1.1353366374969482
1667824796928657400,11.811657470703125,-2.7986905574798584,-0.009373671375215054,1.2504767179489136
1667824796938664700,11.821664794921874,-2.8719170093536377,-0.16592316329479218,1.3922154903411865
1667824796948672500,11.831672607421876,-2.9371721744537354,-0.27544137835502625,1.5132032632827759
1667824796958680600,11.8416806640625,-3.016784906387329,-0.38099056482315063,1.5763334035873413
1667824796968687600,11.8516875,-3.110055446624756,-0.5173218250274658,1.566277027130127
1667824796978695700,11.86169580078125,-3.1891446113586426,-0.6580094695091248,1.4871249198913574
1667824796988703700,11.871703857421876,-3.242202043533325,-0.7227152585983276,1.3323310613632202
1667824796998710500,11.88171044921875,-3.260979652404785,-0.5862466096878052,1.0779392719268799
1667824797008718800,11.89171875,-3.2705447673797607,-0.20272932946681976,0.72982257604599
1667824797018726700,11.9017265625,-3.2820401191711426,0.2896716892719269,0.35446012020111084
1667824797028733700,11.911733642578126,-3.315305709838867,0.686019778251648,0.052218250930309296
1667824797038741500,11.921741455078125,-3.3716018199920654,0.9367738366127014,-0.10894501209259033
1667824797048749600,11.93174951171875,-3.389676332473755,0.9337375164031982,-0.11697444319725037
1667824797058756600,11.941756591796874,-3.3434958457946777,0.5554702281951904,0.06796300411224365
1667824797068764700,11.9517646484375,-3.261488199234009,-0.1420435905456543,0.42439836263656616
1667824797078771700,11.961771728515625,-3.1812219619750977,-0.9534026384353638,0.8664703369140625
1667824797088779800,11.97177978515625,-3.1416327953338623,-1.6549909114837646,1.287535309791565
1667824797098792200,11.981792236328126,-3.140233278274536,-2.266732692718506,1.5523649454116821
1667824797108799200,11.99179931640625,-3.2050514221191406,-2.7056498527526855,1.6448628902435303
1667824797118807000,12.00180712890625,-3.3617165088653564,-2.8285789489746094,1.6070934534072876
1667824797128815000,12.011815185546874,-3.5352187156677246,-2.575068235397339,1.4885908365249634
1667824797138822100,12.021822265625,-3.6267192363739014,-2.0321810245513916,1.3445656299591064
1667824797148830200,12.031830322265625,-3.6043076515197754,-1.4437214136123657,1.247848629951477
1667824797158838000,12.041838134765625,-3.479234457015991,-0.988970160484314,1.2159175872802734
1667824797168845000,12.051844970703126,-3.3601176738739014,-0.9199745655059814,1.2109031677246094
1667824797178853000,12.06185302734375,-3.334007740020752,-1.1654385328292847,1.2173372507095337
1667824797188861200,12.071861083984375,-3.3468849658966064,-1.3450632095336914,1.26140558719635
1667824797198868000,12.081867919921875,-3.327075242996216,-1.3164315223693848,1.3424162864685059
1667824797208876000,12.0918759765625,-3.208705425262451,-1.3170334100723267,1.3737281560897827
1667824797218883000,12.101883056640625,-3.0068578720092773,-1.3130391836166382,1.3675870895385742
1667824797228891100,12.11189111328125,-2.74293851852417,-1.3127126693725586,1.4156664609909058
1667824797238899200,12.121899169921875,-2.4110939502716064,-1.42631995677948,1.5402116775512695
1667824797248906200,12.13190625,-2.0461931228637695,-1.3225141763687134,1.6729246377944946
1667824797258914300,12.141914306640626,-1.7019104957580566,-0.6467629075050354,1.626233458518982
1667824797268922000,12.151922119140625,-1.4356454610824585,-0.23365838825702667,1.619227409362793
1667824797278929200,12.16192919921875,-1.2972172498703003,-0.4960552155971527,1.7282205820083618
1667824797288937200,12.171937255859374,-1.286928415298462,-0.8987105488777161,1.8971716165542603
1667824797298945300,12.1819453125,-1.313029170036316,-1.1814303398132324,2.012497901916504
1667824797308952000,12.1919521484375,-1.240896463394165,-1.3192720413208008,2.068674087524414
1667824797318960000,12.201960205078125,-1.0710604190826416,-1.4916589260101318,2.1256136894226074
1667824797328968000,12.211968017578124,-0.8580152988433838,-1.662828803062439,2.2059195041656494
1667824797338975200,12.221975341796876,-0.6210166215896606,-1.7327340841293335,2.2922966480255127
1667824797348983000,12.231983154296875,-0.3786630928516388,-1.7308554649353027,2.387759208679199
1667824797358990000,12.241989990234375,-0.1386413276195526,-1.6709072589874268,2.448047399520874
1667824797368998100,12.251998046875,0.07922788709402084,-1.5412178039550781,2.433187484741211
1667824797379006200,12.262006103515626,0.21387337148189545,-1.3686864376068115,2.3239731788635254
1667824797389013000,12.272012939453125,0.2435162216424942,-1.2435517311096191,2.123974561691284
1667824797399021000,12.28202099609375,0.16092702746391296,-1.1910840272903442,1.80553138256073
1667824797409029000,12.292029052734375,-0.0523490309715271,-1.26739501953125,1.393147349357605
1667824797419036200,12.3020361328125,-0.35717350244522095,-1.6147115230560303,0.975610613822937
1667824797429044000,12.3120439453125,-0.6603102684020996,-1.9964359998703003,0.5957921743392944
1667824797439052000,12.322052001953125,-0.8531263470649719,-2.199286937713623,0.270943820476532
1667824797449059000,12.33205908203125,-0.9198646545410156,-2.255690574645996,0.0010822480544447899
1667824797459067100,12.342067138671876,-0.9018673300743103,-2.1648128032684326,-0.25579243898391724
1667824797469075200,12.3520751953125,-0.8583424687385559,-2.0244357585906982,-0.48931702971458435
1667824797479082000,12.36208203125,-0.8138254284858704,-1.9962416887283325,-0.6808497905731201
1667824797489090300,12.37209033203125,-0.7869969606399536,-2.120595693588257,-0.7769784331321716
1667824797499098000,12.38209814453125,-0.7651618123054504,-2.315904378890991,-0.8132697939872742
1667824797509105200,12.392105224609375,-0.7853520512580872,-2.4331767559051514,-0.8154698610305786
1667824797519113000,12.402113037109375,-0.7990984916687012,-2.29297137260437,-0.8263841271400452
