time,seconds_elapsed,z,y,x
1667266574610335700,0.082335693359375,-0.03901786729693413,0.4713450074195862,0.7126296758651733
1667266574612733700,0.084733642578125,-0.0420721061527729,0.44996535778045654,0.7450809478759766
1667266574615131400,0.08713134765625,-0.04390464723110199,0.4298073947429657,0.7707365155220032
1667266574617529300,0.089529296875,-0.0426829531788826,0.4029301106929779,0.7970029711723328
1667266574619927000,0.091927001953125,-0.03901786729693413,0.3736094534397125,0.8226585388183594
1667266574622324700,0.09432470703125,-0.03290939703583717,0.34489962458610535,0.8452599048614502
1667266574624722700,0.09672265625,-0.026190076023340225,0.3149681091308594,0.8629744648933411
1667266574627120400,0.099120361328125,-0.015194825828075409,0.28137150406837463,0.876413106918335
1667266574629518300,0.101518310546875,-0.0023670331574976444,0.2477749139070511,0.8892409205436707
1667266574631916000,0.103916015625,0.012293301522731781,0.21173493564128876,0.8971819281578064
1667266574634314000,0.10631396484375,0.03061871975660324,0.1677539348602295,0.899625301361084
1667266574636711700,0.108711669921875,0.049554985016584396,0.13049224019050598,0.8965710401535034
1667266574639109600,0.111109619140625,0.06788039952516556,0.09628479927778244,0.8898517489433289
1667266574641507300,0.11350732421875,0.08681666851043701,0.06390989571809769,0.8806890249252319
1667266574643905300,0.1159052734375,0.10636378079652786,0.03886515647172928,0.867250382900238
1667266574646303000,0.118302978515625,0.12346750497817993,0.02420482225716114,0.8550334572792053
1667266574648700700,0.12070068359375,0.1393495351076126,0.010155336000025272,0.8409839868545532
1667266574651098600,0.1230986328125,0.15217731893062592,0.0064902519807219505,0.8263236284255981
1667266574653496300,0.125496337890625,0.16072918474674225,0.008322793990373611,0.8067765235900879
1667266574655894300,0.127894287109375,0.1680593490600586,0.0064902519807219505,0.7872294187545776
1667266574658292000,0.1302919921875,0.17050273716449738,0.008322793990373611,0.7682931423187256
1667266574660690000,0.13268994140625,0.17111359536647797,0.011377030052244663,0.7444701194763184
1667266574663087600,0.135087646484375,0.17294612526893616,0.010155336000025272,0.7205706834793091
1667266574665485600,0.137485595703125,0.17111359536647797,0.008322793990373611,0.6985802054405212
1667266574667883300,0.13988330078125,0.16989189386367798,0.004046862944960594,0.6753680109977722
1667266574670281200,0.14228125,0.1656159609556198,0.00038177953683771193,0.6484907269477844
1667266574672679000,0.144678955078125,0.15706409513950348,-0.0014507622690871358,0.6222242712974548
1667266574675076600,0.14707666015625,0.14729054272174835,-0.0014507622690871358,0.5916818976402283
1667266574677474600,0.149474609375,0.13873867690563202,-0.00022906772210262716,0.5611395835876465
1667266574679872300,0.151872314453125,0.1271325796842575,-0.0008399150101467967,0.5275429487228394
1667266574682270200,0.154270263671875,0.11735902726650238,0.004046862944960594,0.4933355152606964
1667266574684668000,0.15666796875,0.10392039269208908,0.009544488042593002,0.4566846787929535
1667266574687065900,0.15906591796875,0.09292513877153397,0.01382041908800602,0.42186638712882996
1667266574689463600,0.161463623046875,0.08254073560237885,0.01626380905508995,0.38521555066108704
1667266574691861500,0.163861572265625,0.07215633243322372,0.02176143415272236,0.34612134099006653
1667266574694259200,0.16625927734375,0.061771929264068604,0.032756682485342026,0.30580541491508484
1667266574696657200,0.1686572265625,0.05322006717324257,0.04497363045811653,0.26732203364372253
1667266574699054800,0.171054931640625,0.043446511030197144,0.05841226875782013,0.22517357766628265
1667266574701452500,0.17345263671875,0.035505495965480804,0.07062921673059464,0.18363595008850098
1667266574703850500,0.1758505859375,0.0293970238417387,0.08651123940944672,0.14454172551631927
1667266574706248200,0.178248291015625,0.024510245770215988,0.09994988143444061,0.10605835169553757
1667266574708646100,0.180646240234375,0.02023431472480297,0.1139993667602539,0.06696412712335587
1667266574711043800,0.1830439453125,0.018401773646473885,0.126216322183609,0.030313294380903244
1667266574713441800,0.18544189453125,0.015958385542035103,0.13537901639938354,-0.002061609411612153
1667266574715839500,0.187839599609375,0.015958385542035103,0.14393088221549988,-0.03443651273846626
1667266574718237400,0.190237548828125,0.022066857665777206,0.14698512852191925,-0.06375718116760254
1667266574720635100,0.19263525390625,0.02817532978951931,0.14759597182273865,-0.09063446521759033
1667266574723033000,0.195033203125,0.036727190017700195,0.14759597182273865,-0.11690089106559753
1667266574725430800,0.1974306640625,0.04527905210852623,0.14393088221549988,-0.14011308550834656
1667266574727828500,0.199828369140625,0.056274302303791046,0.13354648649692535,-0.1614927500486374
1667266574730226400,0.202226318359375,0.06849125027656555,0.12438376992940903,-0.18226155638694763
1667266574732624100,0.2046240234375,0.08192989230155945,0.11583191156387329,-0.20180866122245789
1667266574735022000,0.20702197265625,0.09414683282375336,0.10911259055137634,-0.21952323615550995
1667266574737419800,0.209419677734375,0.10758547484874725,0.1005607321858406,-0.23479440808296204
1667266574739817700,0.211817626953125,0.12285665422677994,0.09200886636972427,-0.24823305010795593
1667266574742215400,0.21421533203125,0.13629528880119324,0.09078717231750488,-0.2635042369365692
1667266574744613400,0.21661328125,0.14851224422454834,0.09139802306890488,-0.2757211923599243
1667266574747011000,0.219010986328125,0.16256172955036163,0.09261971712112427,-0.28793811798095703
1667266574749409000,0.221408935546875,0.17294612526893616,0.09811734408140182,-0.29648998379707336
1667266574751806700,0.223806640625,0.1808871477842331,0.10361496359109879,-0.30870693922042847
1667266574754204700,0.22620458984375,0.18821731209754944,0.11277767270803452,-0.3154262602329254
1667266574756602400,0.228602294921875,0.1937149316072464,0.12194038182497025,-0.3215347230434418
1667266574759000000,0.231,0.19921256601810455,0.13049224019050598,-0.3270323574542999
1667266574761398000,0.23339794921875,0.20104511082172394,0.13660071790218353,-0.32764318585395813
1667266574763795700,0.235795654296875,0.20043425261974335,0.14270919561386108,-0.3331408202648163
1667266574766193700,0.238193603515625,0.19982340931892395,0.14454172551631927,-0.33558422327041626
1667266574768591400,0.24059130859375,0.19738002121448517,0.14637427031993866,-0.33558422327041626
1667266574770989300,0.2429892578125,0.19066070020198822,0.14698512852191925,-0.33680590987205505
1667266574773387000,0.245386962890625,0.18577392399311066,0.14393088221549988,-0.33741676807403564
1667266574775785000,0.247784912109375,0.17661121487617493,0.13904410600662231,-0.3337516784667969
1667266574778182700,0.2501826171875,0.1680593490600586,0.13843326270580292,-0.3319191336631775
1667266574780580600,0.25258056640625,0.15828579664230347,0.13476817309856415,-0.3325299620628357
1667266574782978300,0.254978271484375,0.14729054272174835,0.13110309839248657,-0.3319191336631775
1667266574785376000,0.2573759765625,0.13690614700317383,0.126216322183609,-0.3300865888595581
1667266574787774000,0.25977392578125,0.1271325796842575,0.12316207587718964,-0.32458895444869995
1667266574790171600,0.262171630859375,0.11613733321428299,0.12071868777275085,-0.32275640964508057
1667266574792569600,0.264569580078125,0.10514208674430847,0.11644276231527328,-0.32336726784706116
1667266574794967300,0.26696728515625,0.09353598952293396,0.11583191156387329,-0.32275640964508057
1667266574797365200,0.269365234375,0.08681666851043701,0.1152210608124733,-0.320313036441803
1667266574799763000,0.271762939453125,0.07643226534128189,0.11949699372053146,-0.3184804916381836
1667266574802161000,0.274160888671875,0.06604786217212677,0.12499462068080902,-0.3166479468345642
1667266574804558600,0.27655859375,0.056274302303791046,0.13293562829494476,-0.3160370886325836
1667266574806956500,0.27895654296875,0.048333290964365005,0.14637427031993866,-0.31115031242370605
1667266574809354200,0.281354248046875,0.04222481697797775,0.16164545714855194,-0.30931776762008667
1667266574811752000,0.283751953125,0.03245126083493233,0.18241426348686218,-0.3068743944168091
1667266574814150000,0.28614990234375,0.027564482763409615,0.2050156146287918,-0.30015507340431213
1667266574816547600,0.288547607421875,0.022677704691886902,0.23555797338485718,-0.2928248941898346
1667266574818945500,0.290945556640625,0.0165692325681448,0.2697654068470001,-0.2806079685688019
1667266574821343200,0.29334326171875,0.013514995574951172,0.3100813329219818,-0.2659476399421692
1667266574823741000,0.295740966796875,0.011682453565299511,0.3522298038005829,-0.24456797540187836
1667266574826139000,0.298138916015625,0.01046075951308012,0.3925457298755646,-0.22379916906356812
1667266574828536600,0.30053662109375,0.01046075951308012,0.4285857081413269,-0.1987544298171997
1667266574830934500,0.3029345703125,0.011071606539189816,0.46279314160346985,-0.1730988472700119
1667266574833332200,0.305332275390625,0.014736690558493137,0.4921138286590576,-0.14255647361278534
1667266574835730200,0.307730224609375,0.01779092662036419,0.5183802843093872,-0.11201411485671997
1667266574838127900,0.3101279296875,0.02145601063966751,0.5360948443412781,-0.08635853230953217
1667266574840525800,0.31252587890625,0.02695363573729992,0.5513660311698914,-0.05948125198483467
1667266574842923500,0.314923583984375,0.0361163429915905,0.5629721283912659,-0.03321481868624687
1667266574845321500,0.317321533203125,0.04283566400408745,0.5672480463981628,-0.007559234742075205
1667266574847719200,0.31971923828125,0.0489441379904747,0.5684697031974792,0.015652960166335106
1667266574850117000,0.3221171875,0.05199837312102318,0.5599178671836853,0.03214583545923233
1667266574852514800,0.324514892578125,0.05810684710741043,0.549533486366272,0.04680617153644562
1667266574854912500,0.32691259765625,0.0623827762901783,0.5373165011405945,0.05841226875782013
1667266574857310500,0.329310546875,0.06360447406768799,0.5226562023162842,0.06574243307113647
1667266574859708200,0.331708251953125,0.06116108223795891,0.5049416422843933,0.06879667192697525
1667266574862106000,0.334106201171875,0.056274302303791046,0.49028128385543823,0.06757497787475586
1667266574864503800,0.33650390625,0.05016583204269409,0.47317755222320557,0.06390989571809769
1667266574866901800,0.33890185546875,0.043446511030197144,0.45118704438209534,0.05596888065338135
1667266574869299500,0.341299560546875,0.03489464893937111,0.43652671575546265,0.04680617153644562
1667266574871697400,0.343697509765625,0.023899398744106293,0.4188121557235718,0.033978380262851715
1667266574874095000,0.34609521484375,0.012293301522731781,0.3992650508880615,0.016874656081199646
1667266574876493000,0.3484931640625,0.00129805039614439,0.3791070878505707,-0.0032833039294928312
1667266574878890800,0.350890869140625,-0.012751436792314053,0.3607816696166992,-0.023441264405846596
1667266574881288400,0.353288330078125,-0.02435753494501114,0.34367793798446655,-0.047264307737350464
1667266574883686400,0.355686279296875,-0.03779617324471474,0.3271850645542145,-0.07414158433675766
1667266574886084000,0.358083984375,-0.050013117492198944,0.3125247359275818,-0.0949103906750679
1667266574888482000,0.36048193359375,-0.06528430432081223,0.2990860939025879,-0.11873343586921692
1667266574890879700,0.362879638671875,-0.07811209559440613,0.2874799966812134,-0.14194563031196594
1667266574893277700,0.365277587890625,-0.09155073016881943,0.2740413546562195,-0.16699036955833435
1667266574895675400,0.36767529296875,-0.10254598408937454,0.259991854429245,-0.19081340730190277
1667266574898073300,0.3700732421875,-0.11476293206214905,0.24838577210903168,-0.2140256017446518
1667266574900471000,0.372470947265625,-0.12514732778072357,0.2337254285812378,-0.2378486543893814
1667266574902869000,0.374868896484375,-0.1336991935968399,0.22395187616348267,-0.26045000553131104
1667266574905266700,0.3772666015625,-0.14041851460933685,0.21540001034736633,-0.28366219997406006
1667266574907664400,0.379664306640625,-0.1459161341190338,0.2062373012304306,-0.3080960810184479
1667266574910062300,0.382062255859375,-0.15507884323596954,0.19829629361629486,-0.3319191336631775
1667266574912460000,0.3844599609375,-0.1605764776468277,0.1946312040090561,-0.3545204699039459
1667266574914858000,0.38685791015625,-0.16363070905208588,0.1934095174074173,-0.37895438075065613
1667266574917255700,0.389255615234375,-0.16973918676376343,0.19707459211349487,-0.40155571699142456
1667266574919653600,0.391653564453125,-0.1740151196718216,0.19890713691711426,-0.4229353666305542
1667266574922051300,0.39405126953125,-0.17645850777626038,0.2062373012304306,-0.445536732673645
1667266574924449300,0.39644921875,-0.18073442578315735,0.21723255515098572,-0.46630552411079407
1667266574926847000,0.398846923828125,-0.18439951539039612,0.23067119717597961,-0.4846309423446655
1667266574929245000,0.401244873046875,-0.1856212168931961,0.2465532273054123,-0.5023455023765564
1667266574931642600,0.403642578125,-0.18439951539039612,0.2679328918457031,-0.5194492340087891
1667266574934040300,0.406040283203125,-0.18501035869121552,0.2887016832828522,-0.5371637940406799
1667266574936438300,0.408438232421875,-0.18378867208957672,0.3113030195236206,-0.5506024360656738
1667266574938836000,0.4108359375,-0.18195612728595734,0.3369586169719696,-0.5640410780906677
1667266574941234000,0.41323388671875,-0.17706935107707977,0.36017081141471863,-0.5774797201156616
1667266574943631600,0.415631591796875,-0.1740151196718216,0.3797179162502289,-0.5939726233482361
1667266574946029600,0.418029541015625,-0.16973918676376343,0.4017084240913391,-0.6031352877616882
1667266574948427300,0.42042724609375,-0.16607409715652466,0.42247724533081055,-0.6129088401794434
1667266574950825200,0.4228251953125,-0.1605764776468277,0.44752198457717896,-0.6190173625946045
1667266574953223000,0.425222900390625,-0.15446799993515015,0.4670690894126892,-0.6190173625946045
1667266574955620900,0.427620849609375,-0.1477486789226532,0.48967042565345764,-0.6190173625946045
1667266574958018600,0.4300185546875,-0.14164020121097565,0.5073850154876709,-0.6104654669761658
1667266574960416300,0.432416259765625,-0.13736428320407867,0.5196019411087036,-0.6013027429580688
1667266574962814200,0.434814208984375,-0.1336991935968399,0.5250995755195618,-0.5903075337409973
1667266574965212000,0.4372119140625,-0.12881241738796234,0.5250995755195618,-0.5744255185127258
1667266574967609900,0.43960986328125,-0.12453648447990417,0.5177693963050842,-0.5548783540725708
1667266574970007600,0.442007568359375,-0.1220930963754654,0.5049416422843933,-0.5365529656410217
1667266574972405500,0.444405517578125,-0.11903885751962662,0.48722705245018005,-0.5157841444015503
1667266574974803200,0.44680322265625,-0.11537377536296844,0.4670690894126892,-0.49379366636276245
1667266574977201200,0.449201171875,-0.11231953650712967,0.4414134919643402,-0.46874892711639404
1667266574979598800,0.451598876953125,-0.10926530510187149,0.4133145213127136,-0.4485909640789032
1667266574981996800,0.453996826171875,-0.10560022294521332,0.389491468667984,-0.4247679114341736
1667266574984394500,0.45639453125,-0.10437852889299393,0.3668901324272156,-0.4070533514022827
1667266574986792200,0.458792236328125,-0.10254598408937454,0.34367793798446655,-0.38933876156806946
1667266574989190100,0.461190185546875,-0.10437852889299393,0.3265742063522339,-0.373456746339798
1667266574991587800,0.463587890625,-0.10498937219381332,0.3119138777256012,-0.3594072461128235
1667266574993985800,0.46598583984375,-0.10621106624603271,0.3003077805042267,-0.3459686040878296
1667266574996383500,0.468383544921875,-0.11170869320631027,0.29053422808647156,-0.33741676807403564
1667266574998781400,0.470781494140625,-0.11842801421880722,0.283204048871994,-0.3288649022579193
1667266575001179100,0.47317919921875,-0.12270393967628479,0.27709558606147766,-0.3215347230434418
1667266575003576800,0.475576904296875,-0.12697987258434296,0.2728196680545807,-0.3166479468345642
1667266575005974800,0.477974853515625,-0.1349208950996399,0.2722088098526001,-0.3148154020309448
1667266575008372500,0.48037255859375,-0.14408360421657562,0.2715979516506195,-0.31298285722732544
1667266575010770400,0.4827705078125,-0.14530529081821442,0.2715979516506195,-0.31298285722732544
1667266575013168000,0.485168212890625,-0.15080291032791138,0.2728196680545807,-0.31359371542930603
1667266575015566000,0.487566162109375,-0.15691138803958893,0.2752630412578583,-0.317869633436203
1667266575017963800,0.4899638671875,-0.1587439328432083,0.27648472785949707,-0.3190913498401642
1667266575020361700,0.49236181640625,-0.1624090075492859,0.2825932204723358,-0.32275640964508057
1667266575022759400,0.494759521484375,-0.16424155235290527,0.29053422808647156,-0.32336726784706116
1667266575025157400,0.497157470703125,-0.16424155235290527,0.2990860939025879,-0.3282540440559387
1667266575027555000,0.49955517578125,-0.16301986575126648,0.3119138777256012,-0.3300865888595581
1667266575029952800,0.501952880859375,-0.15813308954238892,0.32046574354171753,-0.3288649022579193
1667266575032350700,0.504350830078125,-0.15446799993515015,0.32840675115585327,-0.3325299620628357
1667266575034748400,0.50674853515625,-0.1477486789226532,0.338791161775589,-0.3343625068664551
1667266575037146400,0.509146484375,-0.13980767130851746,0.34489962458610535,-0.3331408202648163
1667266575039544000,0.5115439453125,-0.13003410398960114,0.3528406620025635,-0.3319191336631775
1667266575041942000,0.51394189453125,-0.1214822456240654,0.3632250428199768,-0.3337516784667969
1667266575044339700,0.516339599609375,-0.10987614840269089,0.3656684458255768,-0.33558422327041626
1667266575046737700,0.518737548828125,-0.09888090193271637,0.37116608023643494,-0.33802759647369385
1667266575049135400,0.52113525390625,-0.08666395395994186,0.37177690863609314,-0.33924928307533264
1667266575051533300,0.523533203125,-0.07444700598716736,0.36933353543281555,-0.3429143726825714
1667266575053931000,0.525930908203125,-0.06284090876579285,0.37055522203445435,-0.347801148891449
1667266575056328700,0.52832861328125,-0.05123481526970863,0.36750099062919617,-0.35024455189704895
1667266575058726700,0.5307265625,-0.04390464723110199,0.3650575876235962,-0.3563530147075653
1667266575061124400,0.533124267578125,-0.03718532621860504,0.366279274225235,-0.3600181043148041
1667266575063522300,0.535522216796875,-0.03168770298361778,0.3668901324272156,-0.36429402232170105
1667266575065920000,0.537919921875,-0.02924431301653385,0.36750099062919617,-0.3685699701309204
1667266575068318000,0.54031787109375,-0.02802261710166931,0.37055522203445435,-0.3697916567325592
1667266575070715600,0.542715576171875,-0.02680092304944992,0.3736094534397125,-0.3697916567325592
1667266575073113600,0.545113525390625,-0.02680092304944992,0.3748311400413513,-0.3685699701309204
1667266575075511300,0.54751123046875,-0.028633465990424156,0.3742203116416931,-0.366737425327301
1667266575077909200,0.5499091796875,-0.03352024406194687,0.37116608023643494,-0.36490488052368164
1667266575080307000,0.552306884765625,-0.03840702027082443,0.3668901324272156,-0.36062896251678467
1667266575082704600,0.55470458984375,-0.0420721061527729,0.3613924980163574,-0.3539096415042877
1667266575085102600,0.5571025390625,-0.04695888236165047,0.35650572180747986,-0.3465794622898102
1667266575087500300,0.559500244140625,-0.05123481526970863,0.3491755723953247,-0.33802759647369385
1667266575089898200,0.561898193359375,-0.054899897426366806,0.3406237065792084,-0.3294757306575775
1667266575092296000,0.5642958984375,-0.05734328553080559,0.33329352736473083,-0.3172588050365448
1667266575094694000,0.56669384765625,-0.06345175951719284,0.3216874301433563,-0.30870693922042847
1667266575097091600,0.569091552734375,-0.06589514762163162,0.3119138777256012,-0.29648998379707336
1667266575099489500,0.571489501953125,-0.06711684167385101,0.3003077805042267,-0.28488388657569885
1667266575101887200,0.57388720703125,-0.07017108052968979,0.2887016832828522,-0.27449947595596313
1667266575104285200,0.57628515625,-0.07200361788272858,0.2740413546562195,-0.2635042369365692
1667266575106683000,0.578682861328125,-0.07383616268634796,0.2587701678276062,-0.2525089979171753
1667266575109080600,0.58108056640625,-0.07505785673856735,0.24288813769817352,-0.2402920424938202
1667266575111478500,0.583478515625,-0.07750124484300613,0.22456271946430206,-0.22990763187408447
1667266575113876200,0.585876220703125,-0.07566870748996735,0.2068481594324112,-0.21952323615550995
1667266575116274200,0.588274169921875,-0.07872293889522552,0.18852274119853973,-0.2121930718421936
1667266575118672000,0.590671875,-0.07872293889522552,0.17080816626548767,-0.20180866122245789
1667266575121069800,0.59306982421875,-0.07750124484300613,0.1530935913324356,-0.19631104171276093
1667266575123467500,0.595467529296875,-0.07811209559440613,0.13721156120300293,-0.19020256400108337
1667266575125865500,0.597865478515625,-0.07811209559440613,0.12194038182497025,-0.1877591758966446
1667266575128263200,0.60026318359375,-0.07811209559440613,0.11338852345943451,-0.1859266310930252
1667266575130661000,0.6026611328125,-0.07872293889522552,0.10422581434249878,-0.1847049444913864
1667266575133058800,0.605058837890625,-0.08055548369884491,0.09384141117334366,-0.1853157877922058
1667266575135456500,0.60745654296875,-0.08360971510410309,0.08651123940944672,-0.1871483325958252
1667266575137854500,0.6098544921875,-0.08971819281578064,0.07734853774309158,-0.1871483325958252
1667266575140252200,0.612252197265625,-0.09643751382827759,0.06452073901891708,-0.19081340730190277
1667266575142650000,0.614650146484375,-0.10376767814159393,0.057801421731710434,-0.19508934020996094
1667266575145047800,0.6170478515625,-0.11109784245491028,0.04741701856255531,-0.19631104171276093
1667266575147445800,0.61944580078125,-0.1214822456240654,0.03764346241950989,-0.1981435865163803
1667266575149843500,0.621843505859375,-0.1349208950996399,0.02664821222424507,-0.2011978179216385
1667266575152241200,0.6242412109375,-0.1465269923210144,0.016874656081199646,-0.20608459413051605
1667266575154639000,0.62663916015625,-0.1599656194448471,0.010766183026134968,-0.20913882553577423
1667266575157036800,0.629036865234375,-0.17157171666622162,0.005879404954612255,-0.2121930718421936
1667266575159434800,0.631434814453125,-0.1862320601940155,0.0028251686599105597,-0.2140256017446518
1667266575161832400,0.63383251953125,-0.19783815741539001,0.00038177953683771193,-0.21769069135189056
1667266575164230400,0.63623046875,-0.2112767994403839,0.0009926267666742206,-0.21646900475025177
1667266575166628000,0.638628173828125,-0.2253262847661972,0.0064902519807219505,-0.21707984805107117
1667266575169026000,0.641026123046875,-0.23571068048477173,0.015042114071547985,-0.21707984805107117
1667266575171423700,0.643423828125,-0.24548424780368805,0.024815669283270836,-0.21707984805107117
1667266575173821700,0.64582177734375,-0.2546469569206238,0.03764346241950989,-0.2140256017446518
1667266575176219400,0.648219482421875,-0.26197710633277893,0.048638712614774704,-0.211582213640213
1667266575178617000,0.6506171875,-0.2656421959400177,0.06452073901891708,-0.20974968373775482
1667266575181015000,0.65301513671875,-0.27113983035087585,0.07795938104391098,-0.20547375082969666
1667266575183412700,0.655412841796875,-0.26930728554725647,0.09323056042194366,-0.20364120602607727
1667266575185810700,0.657810791015625,-0.2680855989456177,0.11155597865581512,-0.1987544298171997
1667266575188208400,0.66020849609375,-0.2656421959400177,0.1286597102880478,-0.19508934020996094
1667266575190606300,0.6626064453125,-0.2613662779331207,0.14454172551631927,-0.19203510880470276
1667266575193004000,0.665004150390625,-0.2558686435222626,0.16286714375019073,-0.1859266310930252
1667266575195402000,0.667402099609375,-0.2503710091114044,0.18546849489212036,-0.18165069818496704
1667266575197799700,0.669799560546875,-0.24243000149726868,0.21234577894210815,-0.17615307867527008
1667266575200197600,0.67219775390625,-0.23448899388313293,0.23555797338485718,-0.16332527995109558
1667266575202595300,0.67459521484375,-0.2271588295698166,0.259991854429245,-0.15049749612808228
1667266575204993000,0.676992919921875,-0.21982865035533905,0.27770644426345825,-0.13644801080226898
1667266575207391000,0.679390869140625,-0.21066594123840332,0.28931254148483276,-0.1217876747250557
1667266575209788700,0.68178857421875,-0.20211409032344818,0.2954210042953491,-0.10407309979200363
1667266575212186600,0.6841865234375,-0.19478392601013184,0.2960318624973297,-0.08452598750591278
1667266575214584300,0.686584228515625,-0.18989713490009308,0.28931254148483276,-0.06253548711538315
1667266575216982300,0.688982177734375,-0.18928629159927368,0.27709558606147766,-0.0423775278031826
1667266575219380000,0.6913798828125,-0.1874537467956543,0.259991854429245,-0.019776180386543274
1667266575221778000,0.69377783203125,-0.19111883640289307,0.23800136148929596,0.0009926267666742206
1667266575224175600,0.696175537109375,-0.19295138120651245,0.2190650999546051,0.02298312820494175
1667266575226573600,0.698573486328125,-0.19722731411457062,0.19524206221103668,0.04558447748422623
1667266575228971300,0.70097119140625,-0.20516832172870636,0.17569494247436523,0.06696412712335587
1667266575231369000,0.703368896484375,-0.2143310308456421,0.154926136136055,0.08956547826528549
1667266575233767000,0.705766845703125,-0.2247154414653778,0.13598987460136414,0.10850174725055695
1667266575236164600,0.70816455078125,-0.2375432252883911,0.1152210608124733,0.1280488520860672
1667266575238562600,0.7105625,-0.24792763590812683,0.10361496359109879,0.14698512852191925
1667266575240960300,0.712960205078125,-0.26014456152915955,0.09200886636972427,0.16286714375019073
1667266575243358200,0.715358154296875,-0.27236151695251465,0.08040276914834976,0.1805817186832428
1667266575245756000,0.717755859375,-0.280913382768631,0.07062921673059464,0.1927986592054367
1667266575248153900,0.72015380859375,-0.28763270378112793,0.0626882016658783,0.2044047713279724
1667266575250551600,0.722551513671875,-0.2931303381919861,0.053525492548942566,0.21417832374572754
1667266575252949500,0.724949462890625,-0.29679539799690247,0.04741701856255531,0.22395187616348267
1667266575255347200,0.72734716796875,-0.29801711440086365,0.043141089379787445,0.23006035387516022
1667266575257745000,0.729744873046875,-0.29557371139526367,0.03703261539340019,0.2337254285812378
1667266575260142800,0.732142822265625,-0.29557371139526367,0.03092414326965809,0.23433628678321838
1667266575262540500,0.73454052734375,-0.2937411665916443,0.027259059250354767,0.2337254285812378
1667266575264938500,0.7369384765625,-0.28641101717948914,0.02298312820494175,0.231282040476799
1667266575267336200,0.739336181640625,-0.2796916961669922,0.019928891211748123,0.22761696577072144
1667266575269734100,0.741734130859375,-0.2754157483577728,0.012598725035786629,0.22395187616348267
1667266575272131800,0.7441318359375,-0.2680855989456177,0.0064902519807219505,0.21540001034736633
1667266575274529800,0.74652978515625,-0.2644205093383789,-0.0008399150101467967,0.2074590027332306
1667266575276927500,0.748927490234375,-0.25953373312950134,-0.010613471269607544,0.19707459211349487
1667266575279325400,0.751325439453125,-0.255257785320282,-0.02405211143195629,0.18913358449935913
1667266575281723100,0.75372314453125,-0.2503710091114044,-0.032603971660137177,0.17813833057880402
1667266575284120800,0.756120849609375,-0.24609509110450745,-0.03993413969874382,0.1689756214618683
1667266575286518800,0.758518798828125,-0.24304085969924927,-0.05031854286789894,0.15981291234493256
1667266575288916500,0.76091650390625,-0.2387649267911911,-0.06070294603705406,0.14881765842437744
1667266575291314400,0.763314453125,-0.23082390427589417,-0.0686439573764801,0.13660071790218353
1667266575293712100,0.765712158203125,-0.22349373996257782,-0.07475243508815765,0.12499462068080902
1667266575296110000,0.768110107421875,-0.2143310308456421,-0.08452598750591278,0.10850174725055695
1667266575298507800,0.7705078125,-0.20700086653232574,-0.09002361446619034,0.09261971712112427
1667266575300905700,0.77290576171875,-0.19783815741539001,-0.09063446521759033,0.07795938104391098
1667266575303303400,0.775303466796875,-0.18501035869121552,-0.09063446521759033,0.06146650388836861
1667266575305701400,0.777701416015625,-0.17706935107707977,-0.08330429345369339,0.04619532451033592
1667266575308099000,0.78009912109375,-0.16790664196014404,-0.07597412914037704,0.030313294380903244
1667266575310496800,0.782496826171875,-0.1617981642484665,-0.0686439573764801,0.018707197159528732
1667266575312894700,0.784894775390625,-0.15385715663433075,-0.05276193097233772,0.008933641016483307
1667266575315292400,0.78729248046875,-0.14469444751739502,-0.03504735976457596,0.0016034740256145597
1667266575317690400,0.7896904296875,-0.1343100368976593,-0.016721943393349648,-0.002672456670552492
1667266575320088000,0.792088134765625,-0.12514732778072357,0.0022143214009702206,-0.005726693198084831
1667266575322486000,0.794486083984375,-0.11170869320631027,0.019928891211748123,-0.0008399150101467967
1667266575324883700,0.7968837890625,-0.09643751382827759,0.03458922728896141,0.004657710436731577
1667266575327281700,0.79928173828125,-0.07994463294744492,0.0492495596408844,0.015652960166335106
1667266575329679400,0.801679443359375,-0.05856497958302498,0.06085565686225891,0.03214583545923233
1667266575332077300,0.804077392578125,-0.03779617324471474,0.07429429888725281,0.05535803362727165
1667266575334475000,0.80647509765625,-0.013362283818423748,0.08467870205640793,0.08651123940944672
1667266575336872700,0.808872802734375,0.012293301522731781,0.0889546349644661,0.12499462068080902
1667266575339270700,0.811270751953125,0.037948887795209885,0.08956547826528549,0.1683647781610489
1667266575341668400,0.81366845703125,0.06604786217212677,0.08162446320056915,0.22273017466068268
1667266575344066300,0.81606640625,0.09597937762737274,0.06329904496669769,0.2825932204723358
1667266575346464000,0.818464111328125,0.12346750497817993,0.041919391602277756,0.34612134099006653
1667266575348862000,0.820862060546875,0.14912308752536774,0.011987877078354359,0.4169796109199524
1667266575351259600,0.823259765625,0.17722205817699432,-0.019776180386543274,0.48783788084983826
1667266575353657600,0.82565771484375,0.2077644169330597,-0.05703786388039589,0.5617504119873047
1667266575356055300,0.82805517578125,0.23586340248584747,-0.0955212414264679,0.6356629133224487
1667266575358453200,0.830453369140625,0.26457321643829346,-0.13889139890670776,0.7120188474655151
1667266575360851000,0.832850830078125,0.2957264184951782,-0.18165069818496704,0.7866185307502747
1667266575363248600,0.83524853515625,0.3244362473487854,-0.2274642437696457,0.8617527484893799
1667266575365646600,0.837646484375,0.3531460762023926,-0.27327778935432434,0.9344435930252075
1667266575368044300,0.840044189453125,0.38307759165763855,-0.3184804916381836,1.0028585195541382
1667266575370442200,0.842442138671875,0.41056570410728455,-0.36123979091644287,1.0651649236679077
1667266575372840000,0.84483984375,0.43438875675201416,-0.41377267241477966,1.1274713277816772
1667266575375238000,0.84723779296875,0.4576009511947632,-0.4731011986732483,1.186112642288208
1667266575377635600,0.849635498046875,0.47714805603027344,-0.540905237197876,1.2416998147964478
1667266575380033500,0.852033447265625,0.4948626458644867,-0.6117635369300842,1.2911783456802368
1667266575382431200,0.85443115234375,0.5113555192947388,-0.6838434934616089,1.3382136821746826
1667266575384829200,0.8568291015625,0.5272375345230103,-0.7498149871826172,1.3791403770446777
1667266575387227000,0.859226806640625,0.5425087213516235,-0.8133431077003479,1.4157912731170654
1667266575389624600,0.86162451171875,0.5602232813835144,-0.8677085041999817,1.4487769603729248
1667266575392022500,0.8640224609375,0.5797703862190247,-0.9153546094894409,1.4835952520370483
1667266575394420200,0.866420166015625,0.6017609238624573,-0.9556705355644226,1.5165810585021973
1667266575396818200,0.868818115234375,0.6255839467048645,-0.9874345660209656,1.547734260559082
1667266575399215900,0.8712158203125,0.6524612307548523,-1.021031141281128,1.5825525522232056
1667266575401613800,0.87361376953125,0.6836144328117371,-1.0540169477462769,1.6185925006866455
1667266575404011500,0.876011474609375,0.7147676348686218,-1.0888352394104004,1.654632568359375
1667266575406409500,0.878409423828125,0.7489750981330872,-1.1260969638824463,1.6925050020217896
1667266575408807200,0.88080712890625,0.7862367630004883,-1.1731321811676025,1.7291558980941772
1667266575411205000,0.883205078125,0.8247201442718506,-1.2213890552520752,1.7664175033569336
1667266575413602800,0.885602783203125,0.8650360703468323,-1.2751436233520508,1.8012359142303467
1667266575416000500,0.88800048828125,0.9059628248214722,-1.3295090198516846,1.8329999446868896
1667266575418398500,0.8903984375,0.9444462060928345,-1.3820419311523438,1.8586554527282715
1667266575420796200,0.892796142578125,0.9823187589645386,-1.424801230430603,1.880645990371704
1667266575423194000,0.895194091796875,1.016526222229004,-1.466338872909546,1.897749662399292
1667266575425591800,0.897591796875,1.0464577674865723,-1.5023788213729858,1.9099667072296143
1667266575427989800,0.89998974609375,1.071502447128296,-1.53047776222229,1.916685938835144
1667266575430387500,0.902387451171875,1.0910495519638062,-1.5585768222808838,1.91790771484375
1667266575432785400,0.904785400390625,1.1069315671920776,-1.5811781883239746,1.9185185432434082
1667266575435183000,0.90718310546875,1.1148725748062134,-1.6031686067581177,1.9160751104354858
1667266575437581000,0.9095810546875,1.1142617464065552,-1.6214940547943115,1.909355878829956
1667266575439978800,0.911978759765625,1.1105966567993164,-1.6410411596298218,1.9026365280151367
1667266575442376400,0.91437646484375,1.1014339923858643,-1.6630316972732544,1.8922520875930786
1667266575444774400,0.9167744140625,1.0886061191558838,-1.6825788021087646,1.8824785947799683
1667266575447172000,0.919172119140625,1.0727241039276123,-1.7064018249511719,1.8678182363510132
1667266575449570000,0.921570068359375,1.0537878274917603,-1.7320574522018433,1.8507144451141357
1667266575451967700,0.9239677734375,1.0324082374572754,-1.763210654258728,1.8287240266799927
1667266575454365700,0.92636572265625,1.0085852146148682,-1.7931420803070068,1.802457571029663
1667266575456763400,0.928763427734375,0.9823187589645386,-1.8218519687652588,1.7737476825714111
1667266575459161300,0.931161376953125,0.9548306465148926,-1.8566702604293823,1.74137282371521
1667266575461559000,0.93355908203125,0.924288272857666,-1.8890451192855835,1.7047220468521118
1667266575463957000,0.93595703125,0.8931350708007812,-1.9220309257507324,1.667460322380066
1667266575466354700,0.938354736328125,0.8583167791366577,-1.9592925310134888,1.6247010231018066
1667266575468752600,0.940752685546875,0.8186116814613342,-2.0008301734924316,1.5801091194152832
1667266575471150300,0.943150390625,0.7801283001899719,-2.042367696762085,1.5355173349380493
1667266575473548000,0.945548095703125,0.7379798293113708,-2.0839054584503174,1.487260341644287
1667266575475946000,0.947946044921875,0.6933879852294922,-2.1254429817199707,1.440835952758789
1667266575478343700,0.95034375,0.6451310515403748,-2.1620938777923584,1.3925790786743164
1667266575480741600,0.95274169921875,0.5956524610519409,-2.190192937850952,1.343711256980896
1667266575483139300,0.955139404296875,0.5437304377555847,-2.2091290950775146,1.2991193532943726
1667266575485537300,0.957537353515625,0.49058669805526733,-2.221346139907837,1.2551383972167969
1667266575487935000,0.95993505859375,0.43499961495399475,-2.2237894535064697,1.2154333591461182
1667266575490333000,0.9623330078125,0.3806341886520386,-2.2140159606933594,1.1812258958816528
1667266575492730600,0.964730712890625,0.325047105550766,-2.195690393447876,1.1470184326171875
1667266575495128600,0.967128662109375,0.2706816792488098,-2.1706457138061523,1.1201411485671997
1667266575497526300,0.9695263671875,0.21570543944835663,-2.140103340148926,1.0999832153320312
1667266575499924000,0.971924072265625,0.16195088624954224,-2.10589599609375,1.084712028503418
1667266575502322000,0.974322021484375,0.11002886295318604,-2.0674126148223877,1.074938416481018
1667266575504719600,0.9767197265625,0.057496000081300735,-2.028318405151367,1.0731059312820435
1667266575507117600,0.97911767578125,0.004963133949786425,-1.9831156730651855,1.0755493640899658
1667266575509515300,0.981515380859375,-0.04085041210055351,-1.9348586797714233,1.0877662897109985
1667266575511913200,0.983913330078125,-0.08788564801216125,-1.881714940071106,1.1030374765396118
1667266575514311000,0.986310791015625,-0.12942326068878174,-1.8145217895507812,1.1280821561813354
1667266575516708900,0.988708984375,-0.16912832856178284,-1.744274377822876,1.1592353582382202
1667266575519106600,0.9911064453125,-0.20700086653232574,-1.6673076152801514,1.195886254310608
1667266575521504500,0.99350439453125,-0.24426254630088806,-1.5799564123153687,1.2362021207809448
1667266575523902200,0.995902099609375,-0.2778591513633728,-1.4864968061447144,1.283237338066101
1667266575526300000,0.9982998046875,-0.31092125177383423,-1.3881504535675049,1.339435338973999
1667266575528697900,1.00069775390625,-0.34573954343795776,-1.2910256385803223,1.3950223922729492
1667266575531095600,1.003095458984375,-0.37689274549484253,-1.2000094652175903,1.4579397439956665
1667266575533493500,1.005493408203125,-0.4080459773540497,-1.1126582622528076,1.5269653797149658
1667266575535891200,1.00789111328125,-0.44042086601257324,-1.035691499710083,1.5996562242507935
1667266575538289200,1.0102890625,-0.4727957844734192,-0.9660549163818359,1.6747905015945435
1667266575540686800,1.012686767578125,-0.5076140761375427,-0.9043593406677246,1.751757264137268
1667266575543084800,1.015084716796875,-0.5479300022125244,-0.8542698621749878,1.8287240266799927
1667266575545482500,1.017482421875,-0.5882459282875061,-0.8084563612937927,1.9044690132141113
1667266575547880400,1.01988037109375,-0.6316160559654236,-0.7699729800224304,1.9796032905578613
1667266575550278100,1.022278076171875,-0.6810947060585022,-0.7375980615615845,2.0529048442840576
1667266575552675800,1.02467578125,-0.7324058413505554,-0.7076665759086609,2.1225414276123047
1667266575555073800,1.02707373046875,-0.7873821258544922,-0.6826218366622925,2.1885130405426025
1667266575557471500,1.029471435546875,-0.8448017835617065,-0.6612421870231628,2.255706310272217
1667266575559869400,1.031869384765625,-0.9107732772827148,-0.6404733657836914,2.3180127143859863
1667266575562267100,1.03426708984375,-0.9791881442070007,-0.6227588057518005,2.3705453872680664
1667266575564665000,1.0366650390625,-1.0524898767471313,-0.6123743653297424,2.421245813369751
1667266575567062800,1.039062744140625,-1.1306782960891724,-0.6129852533340454,2.4682810306549072
1667266575569460700,1.041460693359375,-1.2137534618377686,-0.6258130073547363,2.5147054195404053
1667266575571858400,1.0438583984375,-1.299272060394287,-0.6490252017974854,2.5556321144104004
1667266575574256400,1.04625634765625,-1.388455867767334,-0.6795675754547119,2.5959482192993164
1667266575576654000,1.048654052734375,-1.4800828695297241,-0.7137750387191772,2.629544734954834
1667266575579051800,1.0510517578125,-1.5704883337020874,-0.7547017931938171,2.6625304222106934
1667266575581449700,1.05344970703125,-1.6572285890579224,-0.7937960028648376,2.690629482269287
1667266575583847400,1.055847412109375,-1.7415255308151245,-0.8328902125358582,2.716284990310669
1667266575586245400,1.058245361328125,-1.8246008157730103,-0.8707627654075623,2.7327778339385986
1667266575588643000,1.06064306640625,-1.8972915410995483,-0.9098569750785828,2.744994878768921
1667266575591041000,1.063041015625,-1.9638739824295044,-0.9507837295532227,2.751103401184082
1667266575593438700,1.065438720703125,-2.0212936401367188,-0.9910996556282043,2.7462165355682373
1667266575595836700,1.067836669921875,-2.0695505142211914,-1.0295830965042114,2.7327778339385986
1667266575598234400,1.070234375,-2.1080338954925537,-1.0692881345748901,2.710787534713745
1667266575600632300,1.07263232421875,-2.1343002319335938,-1.1028847694396973,2.6771907806396484
1667266575603030000,1.075030029296875,-2.152625799179077,-1.129762053489685,2.6344316005706787
1667266575605427700,1.077427734375,-2.1587343215942383,-1.1541959047317505,2.5843420028686523
1667266575607825700,1.07982568359375,-2.1538474559783936,-1.176186442375183,2.5293657779693604
1667266575610223400,1.082223388671875,-2.1416304111480713,-1.1908466815948486,2.465226888656616
1667266575612621300,1.084621337890625,-2.1214725971221924,-1.203063726425171,2.3962011337280273
1667266575615019000,1.08701904296875,-2.093984365463257,-1.207950472831726,2.320456027984619
1667266575617417000,1.0894169921875,-2.0616095066070557,-1.2073396444320679,2.2428784370422363
1667266575619814700,1.091814697265625,-2.0267910957336426,-1.201841950416565,2.1628575325012207
1667266575622212600,1.094212646484375,-1.9840319156646729,-1.1902358531951904,2.0822255611419678
1667266575624610300,1.0966103515625,-1.9406617879867554,-1.1755754947662354,2.0028154850006104
1667266575627008300,1.09900830078125,-1.8972915410995483,-1.1548067331314087,1.9215728044509888
1667266575629406000,1.101406005859375,-1.8520889282226562,-1.1309837102890015,1.8415517807006836
1667266575631803600,1.1038037109375,-1.8056645393371582,-1.100441336631775,1.7621415853500366
1667266575634201600,1.10620166015625,-1.7586292028427124,-1.0637905597686768,1.6839531660079956
1667266575636599300,1.108599365234375,-1.7122048139572144,-1.0204203128814697,1.6094298362731934
1667266575638997200,1.110997314453125,-1.660282850265503,-0.9709417223930359,1.5342955589294434
1667266575641395000,1.11339501953125,-1.6083608865737915,-0.906802773475647,1.4597722291946411
1667266575643793000,1.11579296875,-1.557660460472107,-0.8353336453437805,1.3889139890670776
1667266575646190600,1.118190673828125,-1.502684235572815,-0.7577560544013977,1.3198882341384888
1667266575648588500,1.120588623046875,-1.4464863538742065,-0.6667397618293762,1.2606359720230103
1667266575650986200,1.122986328125,-1.391510009765625,-0.5720584392547607,1.2038272619247437
1667266575653384200,1.12538427734375,-1.336533784866333,-0.4718795120716095,1.1525160074234009
1667266575655782000,1.127781982421875,-1.2797249555587769,-0.36246147751808167,1.1054807901382446
1667266575658179800,1.130179931640625,-1.2180293798446655,-0.23235101997852325,1.051726222038269
1667266575660577500,1.13257763671875,-1.1538904905319214,-0.09307785332202911,0.9930849075317383
1667266575662975500,1.1349755859375,-1.0897514820098877,0.04497363045811653,0.9362761378288269
1667266575665373200,1.137373291015625,-1.0292776823043823,0.17202985286712646,0.8788564801216125
1667266575667771000,1.13977099609375,-0.9688037633895874,0.29053422808647156,0.8257128000259399
1667266575670168800,1.1421689453125,-0.9150491952896118,0.4010975956916809,0.770125687122345
1667266575672566500,1.14456640625,-0.8594620823860168,0.5031090974807739,0.7156839370727539
1667266575674964500,1.146964599609375,-0.809983491897583,0.5751890540122986,0.6686486601829529
1667266575677362200,1.149362060546875,-0.767224133014679,0.6271110773086548,0.6148941516876221
1667266575679760100,1.151760009765625,-0.7256865501403809,0.6503232717514038,0.5690805912017822
1667266575682157800,1.15415771484375,-0.6853706240653992,0.6497124433517456,0.52571040391922
1667266575684555800,1.1565556640625,-0.6505523324012756,0.6265002489089966,0.48844873905181885
1667266575686953500,1.158953369140625,-0.6151232123374939,0.5733565092086792,0.45057621598243713
1667266575689351400,1.161351318359375,-0.5821374654769897,0.4963897466659546,0.4188121557235718
1667266575691749000,1.1637490234375,-0.546097457408905,0.4004867374897003,0.389491468667984
1667266575694146800,1.166146728515625,-0.5131117105484009,0.285647451877594,0.35955995321273804
1667266575696544800,1.168544677734375,-0.47707170248031616,0.15981291234493256,0.3339043855667114
1667266575698942500,1.1709423828125,-0.43614494800567627,0.027259059250354767,0.30702710151672363
1667266575701340400,1.17334033203125,-0.39643988013267517,-0.10712733864784241,0.2819823622703552
1667266575703738000,1.175738037109375,-0.3549022674560547,-0.237237811088562,0.2575484812259674
1667266575706136000,1.178135986328125,-0.314586341381073,-0.3704025149345398,0.2337254285812378
1667266575708533800,1.18053369140625,-0.2754157483577728,-0.5024218559265137,0.21417832374572754
1667266575710931700,1.182931640625,-0.2375432252883911,-0.6252021789550781,0.20012883841991425
1667266575713329400,1.185329345703125,-0.20272493362426758,-0.7437065243721008,0.18363595008850098
1667266575715727400,1.187727294921875,-0.173404261469841,-0.851215660572052,0.17325155436992645
1667266575718125000,1.190125,-0.1483595222234726,-0.9452861547470093,0.16347800195217133
1667266575720522800,1.192522705078125,-0.13064496219158173,-1.036913275718689,0.15798036754131317
1667266575722920700,1.194920654296875,-0.12453648447990417,-1.1267077922821045,0.1555369794368744
1667266575725318400,1.197318359375,-0.12697987258434296,-1.2134480476379395,0.1555369794368744
1667266575727716400,1.19971630859375,-0.14164020121097565,-1.2940798997879028,0.16103461384773254
1667266575730114000,1.202114013671875,-0.16485241055488586,-1.3728792667388916,0.1665322333574295
1667266575732512000,1.204511962890625,-0.2015032321214676,-1.443737506866455,0.17264071106910706
1667266575734909700,1.20690966796875,-0.24670593440532684,-1.5078765153884888,0.18546849489212036
1667266575737307600,1.2093076171875,-0.29984965920448303,-1.567739486694336,0.2044047713279724
1667266575739705300,1.211705322265625,-0.36101073026657104,-1.6196614503860474,0.22456271946430206
1667266575742103300,1.214103271484375,-0.42576053738594055,-1.6697509288787842,0.25082916021347046
1667266575744501000,1.2165009765625,-0.4960079789161682,-1.7057909965515137,0.28014981746673584
1667266575746898700,1.218898681640625,-0.5711421966552734,-1.7265597581863403,0.31618982553482056
1667266575749296600,1.221296630859375,-0.6499415040016174,-1.7290031909942627,0.35528403520584106
1667266575751694300,1.2236943359375,-0.7324058413505554,-1.7137320041656494,0.39865419268608093
1667266575754092300,1.22609228515625,-0.8154810667037964,-1.6874655485153198,0.44813281297683716
1667266575756490000,1.228489990234375,-0.8997780084609985,-1.6514256000518799,0.5012765526771545
1667266575758888000,1.230887939453125,-0.9810206890106201,-1.6068336963653564,0.5574744939804077
1667266575761285600,1.23328564453125,-1.0616525411605835,-1.5604093074798584,0.6155049800872803
1667266575763683600,1.23568359375,-1.1392301321029663,-1.5133740901947021,0.6796439290046692
1667266575766081300,1.238081298828125,-1.2106993198394775,-1.4724472761154175,0.7432484030723572
1667266575768479200,1.240479248046875,-1.2748382091522217,-1.437628984451294,0.8086090683937073
1667266575770877000,1.242876953125,-1.3292036056518555,-1.4107517004013062,0.8733588457107544
1667266575773274600,1.245274658203125,-1.372573733329773,-1.3875395059585571,0.9374978542327881
1667266575775672600,1.247672607421875,-1.4067811965942383,-1.3710466623306274,1.001025915145874
1667266575778070300,1.2500703125,-1.430604338645935,-1.3521103858947754,1.0621106624603271
1667266575780468200,1.25246826171875,-1.4440429210662842,-1.3429477214813232,1.120751976966858
1667266575782866000,1.254865966796875,-1.4458754062652588,-1.3325632810592651,1.1763391494750977
1667266575785263900,1.257263916015625,-1.4403778314590454,-1.3252331018447876,1.228261113166809
1667266575787661600,1.25966162109375,-1.4281609058380127,-1.319124698638916,1.2795722484588623
1667266575790059500,1.2620595703125,-1.4086138010025024,-1.3130161762237549,1.3253858089447021
1667266575792457200,1.264457275390625,-1.3835690021514893,-1.304464340209961,1.3699777126312256
1667266575794855200,1.266855224609375,-1.3530266284942627,-1.2953015565872192,1.4102935791015625
1667266575797252900,1.2692529296875,-1.3206517696380615,-1.2818629741668701,1.4499987363815308
1667266575799650800,1.27165087890625,-1.2907202243804932,-1.267202615737915,1.4890929460525513
1667266575802048500,1.274048583984375,-1.2577345371246338,-1.2476555109024048,1.5257437229156494
1667266575804446500,1.276446533203125,-1.22963547706604,-1.2256649732589722,1.5593403577804565
1667266575806844200,1.27884423828125,-1.2039799690246582,-1.1963443756103516,1.5972129106521606
1667266575809242000,1.2812421875,-1.183211088180542,-1.161526083946228,1.631420373916626
1667266575811639800,1.283639892578125,-1.165496587753296,-1.1267077922821045,1.6662386655807495
1667266575814037500,1.28603759765625,-1.151447057723999,-1.0894460678100586,1.7016677856445312
1667266575816435500,1.288435546875,-1.1459494829177856,-1.0497410297393799,1.737096905708313
1667266575818833200,1.290833251953125,-1.1410627365112305,-1.0057599544525146,1.7713043689727783
1667266575821231000,1.293231201171875,-1.138619303703308,-0.9630007147789001,1.802457571029663
1667266575823628800,1.29562890625,-1.1373976469039917,-0.9239065051078796,1.8317781686782837
1667266575826026800,1.29802685546875,-1.1355650424957275,-0.8854231238365173,1.853157877922058
1667266575828424400,1.300424560546875,-1.1331216096878052,-0.8561024069786072,1.8708724975585938
1667266575830822400,1.302822509765625,-1.1288456916809082,-0.8335011005401611,1.8824785947799683
1667266575833220000,1.30522021484375,-1.119683027267456,-0.8182299137115479,1.8879761695861816
1667266575835618000,1.3076181640625,-1.110520362854004,-0.8078454732894897,1.894695520401001
1667266575838015700,1.310015625,-1.1001359224319458,-0.7974610924720764,1.8953063488006592
1667266575840413400,1.312413330078125,-1.0915840864181519,-0.7864658236503601,1.8940846920013428
1667266575842811400,1.314811279296875,-1.0787562131881714,-0.7638645172119141,1.890419602394104
1667266575845209000,1.317208984375,-1.0683718919754028,-0.7369872331619263,1.8837002515792847
1667266575847607000,1.31960693359375,-1.0573766231536865,-0.7040014863014221,1.8720941543579102
1667266575850004700,1.322004638671875,-1.0433270931243896,-0.6557445526123047,1.8586554527282715
1667266575852402700,1.324402587890625,-1.0286667346954346,-0.6019899845123291,1.8421626091003418
1667266575854800400,1.32680029296875,-1.0103414058685303,-0.5415160655975342,1.8226155042648315
1667266575857198300,1.3291982421875,-0.9926267862319946,-0.47982051968574524,1.800624966621399
1667266575859596000,1.331595947265625,-0.9730796813964844,-0.41499435901641846,1.7737476825714111
1667266575861994000,1.333993896484375,-0.9504783153533936,-0.34902286529541016,1.7450379133224487
1667266575864391700,1.3363916015625,-0.9284878373146057,-0.2769428789615631,1.7126630544662476
1667266575866789400,1.338789306640625,-0.9083298444747925,-0.20180866122245789,1.6790664196014404
1667266575869187300,1.341187255859375,-0.8869501948356628,-0.12789614498615265,1.6473023891448975
1667266575871585000,1.3435849609375,-0.873511552810669,-0.06192464008927345,1.608208179473877
1667266575873983000,1.34598291015625,-0.8619054555892944,-0.0014507622690871358,1.5654487609863281
1667266575876380700,1.348380615234375,-0.8551861643791199,0.05047125369310379,1.5239112377166748
1667266575878778600,1.350778564453125,-0.8502993583679199,0.10300412029027939,1.4805409908294678
1667266575881176300,1.35317626953125,-0.8472451567649841,0.15859122574329376,1.4377816915512085
1667266575883574300,1.35557421875,-0.8484668135643005,0.21784339845180511,1.3907464742660522
1667266575885972000,1.357971923828125,-0.8533536195755005,0.2746522128582001,1.3461546897888184
1667266575888370000,1.360369873046875,-0.8594620823860168,0.32779592275619507,1.2985085248947144
1667266575890767600,1.362767578125,-0.8619054555892944,0.36933353543281555,1.2551383972167969
1667266575893165300,1.365165283203125,-0.8637380003929138,0.39559996128082275,1.2117682695388794
1667266575895563300,1.367563232421875,-0.8661814332008362,0.41942301392555237,1.1702306270599365
1667266575897961000,1.3699609375,-0.869846522808075,0.4414134919643402,1.1293038129806519
1667266575900359000,1.37235888671875,-0.8722898960113525,0.46096062660217285,1.0902096033096313
1667266575902756600,1.374756591796875,-0.8759549856185913,0.47317755222320557,1.0553913116455078
1667266575905154600,1.377154541015625,-0.8777875304222107,0.4701233208179474,1.019962191581726
1667266575907552300,1.37955224609375,-0.8790091872215271,0.4530195891857147,0.9881981611251831
1667266575909950200,1.3819501953125,-0.8741224408149719,0.42614230513572693,0.9582666158676147
1667266575912348000,1.384347900390625,-0.869846522808075,0.387658953666687,0.9332218766212463
1667266575914745900,1.386745849609375,-0.8637380003929138,0.34612134099006653,0.9112313985824585
1667266575917143600,1.3891435546875,-0.8545753359794617,0.30336201190948486,0.8892409205436707
1667266575919541500,1.39154150390625,-0.8429692387580872,0.2606027126312256,0.8703046441078186
1667266575921939200,1.393939208984375,-0.8283088803291321,0.21173493564128876,0.8513683676719666
1667266575924337000,1.3963369140625,-0.8105943202972412,0.15920206904411316,0.8324320912361145
1667266575926734800,1.39873486328125,-0.7928797602653503,0.09811734408140182,0.8147175312042236
1667266575929132500,1.401132568359375,-0.7708892226219177,0.031534988433122635,0.7945595979690552
1667266575931530500,1.403530517578125,-0.7470661997795105,-0.0295497365295887,0.7713474035263062
1667266575933928200,1.40592822265625,-0.7226322889328003,-0.08758022636175156,0.7475243210792542
1667266575936326100,1.408326171875,-0.6945333480834961,-0.14255647361278534,0.7193490266799927
1667266575938723800,1.410723876953125,-0.6646018028259277,-0.18898087739944458,0.6888066530227661
1667266575941121800,1.413121826171875,-0.6328377723693848,-0.23174017667770386,0.6564317345619202
1667266575943519500,1.41551953125,-0.5986303091049194,-0.26961269974708557,0.6179483532905579
1667266575945917400,1.41791748046875,-0.5656445622444153,-0.3062635362148285,0.5782433152198792
1667266575948315100,1.420315185546875,-0.5320479869842529,-0.3337516784667969,0.5354839563369751
1667266575950713000,1.422713134765625,-0.4990622103214264,-0.35329878330230713,0.4908921420574188
1667266575953110800,1.42511083984375,-0.46851983666419983,-0.3697916567325592,0.445078581571579
1667266575955508500,1.427508544921875,-0.43858832120895386,-0.37895438075065613,0.39865419268608093
1667266575957906400,1.429906494140625,-0.40987852215766907,-0.37895438075065613,0.3528406620025635
1667266575960304000,1.43230419921875,-0.38788801431655884,-0.37590011954307556,0.3076379597187042
1667266575962702000,1.4347021484375,-0.3658975064754486,-0.37406760454177856,0.259991854429245
1667266575965099800,1.437099853515625,-0.34512871503829956,-0.3691807985305786,0.21723255515098572
1667266575967497700,1.439497802734375,-0.33169007301330566,-0.36368319392204285,0.17080816626548767
1667266575969895400,1.4418955078125,-0.31825143098831177,-0.36123979091644287,0.1286597102880478
1667266575972293400,1.44429345703125,-0.30969956517219543,-0.3587964177131653,0.08651123940944672
1667266575974691000,1.446691162109375,-0.29923880100250244,-0.3563530147075653,0.048638712614774704
1667266575977089000,1.449089111328125,-0.2906869351863861,-0.35268792510032654,0.014431266114115715
1667266575979486700,1.45148681640625,-0.28702184557914734,-0.35146623849868774,-0.01794363744556904
1667266575981884400,1.453884521484375,-0.28274592757225037,-0.3423035442829132,-0.047264307737350464
1667266575984282400,1.456282470703125,-0.280913382768631,-0.3270323574542999,-0.07047650218009949
1667266575986680000,1.45868017578125,-0.2821350693702698,-0.3050418496131897,-0.09063446521759033
1667266575989078000,1.461078125,-0.28641101717948914,-0.28549474477767944,-0.1077381819486618
1667266575991475700,1.463475830078125,-0.2919086217880249,-0.26167169213294983,-0.11995512992143631
1667266575993873700,1.465873779296875,-0.29862794280052185,-0.24212458729743958,-0.12728530168533325
1667266575996271400,1.468271240234375,-0.30664533376693726,-0.2268534004688263,-0.1333937644958496
1667266575998669300,1.47066943359375,-0.3151971995830536,-0.21585814654827118,-0.13644801080226898
1667266576001067000,1.47306689453125,-0.3261924386024475,-0.20241950452327728,-0.1340046226978302
1667266576003465000,1.47546484375,-0.3365768492221832,-0.19020256400108337,-0.12911784648895264
1667266576005862700,1.477862548828125,-0.34635040163993835,-0.1730988472700119,-0.1211768239736557
1667266576008260600,1.480260498046875,-0.3549022674560547,-0.15049749612808228,-0.10712733864784241
1667266576010658300,1.482658203125,-0.3646758198738098,-0.12850698828697205,-0.09063446521759033
1667266576013056000,1.485055908203125,-0.3701734244823456,-0.10224056243896484,-0.0692548081278801
1667266576015454000,1.487453857421875,-0.37689274549484253,-0.07536327838897705,-0.04665346071124077
1667266576017851600,1.4898515625,-0.3811686933040619,-0.05215108394622803,-0.02160872146487236
1667266576020249600,1.49224951171875,-0.3823903799057007,-0.03565821051597595,0.0064902519807219505
1667266576022647300,1.494647216796875,-0.3817795515060425,-0.025273805484175682,0.032756682485342026
1667266576025045200,1.497045166015625,-0.3787252902984619,-0.030160583555698395,0.05963396281003952
1667266576027443000,1.49944287109375,-0.37200596928596497,-0.05459447205066681,0.08467870205640793
1667266576029841000,1.5018408203125,-0.36284327507019043,-0.08574768155813217,0.1023932695388794
1667266576032238600,1.504238525390625,-0.34879377484321594,-0.13095037639141083,0.1152210608124733
1667266576034636500,1.506636474609375,-0.3292466700077057,-0.18287239968776703,0.12316207587718964
1667266576037034200,1.5090341796875,-0.30664533376693726,-0.2390703409910202,0.12316207587718964
1667266576039432200,1.51143212890625,-0.2821350693702698,-0.2922140657901764,0.11827529966831207
1667266576041830000,1.513829833984375,-0.2540360987186432,-0.33863845467567444,0.10728005319833755
1667266576044227800,1.516227783203125,-0.2247154414653778,-0.37834352254867554,0.0883437842130661
1667266576046625500,1.51862548828125,-0.19539476931095123,-0.3972797989845276,0.06452073901891708
1667266576049023200,1.521023193359375,-0.16973918676376343,-0.40155571699142456,0.0358109213411808
1667266576051421200,1.523421142578125,-0.14408360421657562,-0.38689538836479187,0.0009926267666742206
1667266576053819000,1.52581884765625,-0.11964970827102661,-0.3557421863079071,-0.03382566571235657
1667266576056216800,1.528216796875,-0.0958266630768776,-0.3056527078151703,-0.07536327838897705
1667266576058614500,1.530614501953125,-0.07689040154218674,-0.24151372909545898,-0.1205659806728363
1667266576061012500,1.533012451171875,-0.059175826609134674,-0.17126630246639252,-0.16760121285915375
1667266576063410200,1.53541015625,-0.0420721061527729,-0.09857547283172607,-0.21769069135189056
1667266576065808100,1.53780810546875,-0.02557922899723053,-0.03565821051597595,-0.2677801549434662
1667266576068205800,1.540205810546875,-0.010918894782662392,0.02176143415272236,-0.3160370886325836
1667266576070603800,1.542603759765625,0.0037414394319057465,0.06879667192697525,-0.36429402232170105
1667266576073001500,1.54500146484375,0.0165692325681448,0.10666920244693756,-0.4101075828075409
1667266576075399200,1.547399169921875,0.02695363573729992,0.13904410600662231,-0.45531028509140015
1667266576077797000,1.549797119140625,0.040392275899648666,0.1689756214618683,-0.49745872616767883
1667266576080194800,1.55219482421875,0.0489441379904747,0.19707459211349487,-0.5341095924377441
1667266576082592800,1.5545927734375,0.05322006717324257,0.23067119717597961,-0.5695387125015259
1667266576084990500,1.556990478515625,0.056274302303791046,0.2679328918457031,-0.6031352877616882
1667266576087388400,1.559388427734375,0.055052608251571655,0.30641624331474304,-0.6324560046195984
1667266576089786000,1.5617861328125,0.05016583204269409,0.34428879618644714,-0.6587224006652832
1667266576092184000,1.56418408203125,0.04527905210852623,0.37299859523773193,-0.685599684715271
1667266576094581800,1.566581787109375,0.035505495965480804,0.3931565582752228,-0.7075902223587036
1667266576096979700,1.568979736328125,0.02695363573729992,0.4145362079143524,-0.7265264391899109
1667266576099377400,1.57137744140625,0.015347537584602833,0.4438568949699402,-0.7417976260185242
1667266576101775000,1.573775146484375,0.0019088976550847292,0.4774535000324249,-0.7515711784362793
1667266576104173000,1.576173095703125,-0.009697199799120426,0.5073850154876709,-0.7552362680435181
1667266576106570800,1.57857080078125,-0.021303297951817513,0.5422033071517944,-0.7552362680435181
1667266576108968700,1.58096875,-0.034131091088056564,0.572134792804718,-0.7472952604293823
1667266576111366400,1.583366455078125,-0.045737188309431076,0.6014555096626282,-0.7375217080116272
1667266576113764400,1.585764404296875,-0.054899897426366806,0.627721905708313,-0.7198071479797363
1667266576116162000,1.588162109375,-0.06406260281801224,0.6472690105438232,-0.6965949535369873
1667266576118560000,1.59056005859375,-0.0689493864774704,0.6631510257720947,-0.6697176694869995
1667266576120957700,1.592957763671875,-0.07444700598716736,0.6735354661941528,-0.6379535794258118
1667266576123355600,1.595355712890625,-0.07444700598716736,0.678422212600708,-0.6043570041656494
1667266576125753300,1.59775341796875,-0.07322531193494797,0.6808656454086304,-0.5670953392982483
1667266576128151000,1.600151123046875,-0.06772769242525101,0.6826981902122498,-0.5249468684196472
1667266576130549000,1.602549072265625,-0.05795413255691528,0.679033100605011,-0.48340925574302673
1667266576132946700,1.60494677734375,-0.050013117492198944,0.674146294593811,-0.44064992666244507
1667266576135344600,1.6073447265625,-0.03901786729693413,0.6607076525688171,-0.394225537776947
1667266576137742300,1.609742431640625,-0.02802261710166931,0.6381063461303711,-0.34841200709342957
1667266576140140300,1.612140380859375,-0.013362283818423748,0.6063422560691833,-0.3013767600059509
1667266576142538000,1.6145380859375,-0.0011453386396169662,0.5690805912017822,-0.2543415129184723
1667266576144936000,1.61693603515625,0.011682453565299511,0.5250995755195618,-0.20913882553577423
1667266576147333600,1.619333740234375,0.024510245770215988,0.4774535000324249,-0.1614927500486374
1667266576149731600,1.621731689453125,0.03489464893937111,0.4273640215396881,-0.11567919701337814
1667266576152129300,1.62412939453125,0.04650074616074562,0.3797179162502289,-0.07169819623231888
1667266576154527200,1.62652734375,0.056274302303791046,0.32962843775749207,-0.027717193588614464
1667266576156925000,1.628925048828125,0.06543701142072678,0.283204048871994,0.014431266114115715
1667266576159323000,1.631322998046875,0.07032378762960434,0.24166645109653473,0.05230379477143288
1667266576161720600,1.633720458984375,0.07826480269432068,0.2062373012304306,0.09261971712112427
1667266576164118300,1.6361181640625,0.08254073560237885,0.18424680829048157,0.13110309839248657
1667266576166516200,1.63851611328125,0.0880383625626564,0.17264071106910706,0.17080816626548767
1667266576168914000,1.640913818359375,0.09475768357515335,0.17202985286712646,0.20929154753684998
1667266576171311900,1.643311767578125,0.09720107167959213,0.1799708753824234,0.2477749139070511
1667266576173709600,1.64570947265625,0.10025530308485031,0.19524206221103668,0.2874799966812134
1667266576176107500,1.648107421875,0.10025530308485031,0.21662171185016632,0.32779592275619507
1667266576178505200,1.650505126953125,0.1008661538362503,0.2441098392009735,0.36750099062919617
1667266576180903200,1.652903076171875,0.10269869863986969,0.26610034704208374,0.40720605850219727
1667266576183300900,1.65530078125,0.10330954194068909,0.2844257652759552,0.44691112637519836
1667266576185698800,1.65769873046875,0.10697462409734726,0.2972535490989685,0.4835619628429413
1667266576188096500,1.660096435546875,0.10758547484874725,0.3003077805042267,0.5220453143119812
1667266576190494200,1.662494140625,0.10819631814956665,0.2972535490989685,0.5580853223800659
1667266576192892200,1.66489208984375,0.11247225105762482,0.283204048871994,0.5922927856445312
1667266576195289900,1.667289794921875,0.11858072131872177,0.26487863063812256,0.6240568161010742
1667266576197687800,1.669687744140625,0.11919157207012177,0.24227729439735413,0.6533774733543396
1667266576200085500,1.67208544921875,0.12468919903039932,0.21601086854934692,0.6826981902122498
1667266576202483500,1.6744833984375,0.1271325796842575,0.18791188299655914,0.7077429294586182
1667266576204881200,1.676881103515625,0.1295759677886963,0.16225630044937134,0.7303442358970642
1667266576207279000,1.679279052734375,0.13385190069675446,0.14270919561386108,0.7530219554901123
1667266576209676800,1.6816767578125,0.13568444550037384,0.1268271654844284,0.7725690603256226
1667266576212074800,1.68407470703125,0.1417929232120514,0.1152210608124733,0.793337881565094
1667266576214472400,1.686472412109375,0.14790138602256775,0.10666920244693756,0.8098307251930237
1667266576216870400,1.688870361328125,0.14729054272174835,0.10178242623806,0.8257128000259399
1667266576219268000,1.69126806640625,0.14973393082618713,0.10117157548666,0.8379297256469727
1667266576221665800,1.693665771484375,0.15034478902816772,0.09811734408140182,0.848924994468689
1667266576224063700,1.696063720703125,0.14973393082618713,0.08651123940944672,0.8593093752861023
1667266576226461400,1.69846142578125,0.14606885612010956,0.0749051421880722,0.867250382900238
1667266576228859400,1.700859375,0.14423631131649017,0.05719057470560074,0.872137188911438
1667266576231257000,1.703257080078125,0.14423631131649017,0.03764346241950989,0.876413106918335
1667266576233655000,1.705655029296875,0.14545799791812897,0.015042114071547985,0.8770239353179932
1667266576236052700,1.708052734375,0.14362546801567078,-0.006337540224194527,0.8709154725074768
1667266576238450700,1.71045068359375,0.14851224422454834,-0.02283041551709175,0.8690829277038574
1667266576240848400,1.712848388671875,0.15095563232898712,-0.038101598620414734,0.8599202036857605
1667266576243246300,1.715246337890625,0.1533990204334259,-0.04665346071124077,0.8513683676719666
1667266576245644000,1.71764404296875,0.15828579664230347,-0.04115583375096321,0.8391514420509338
1667266576248041700,1.720041748046875,0.16072918474674225,-0.0295497365295887,0.8244910836219788
1667266576250439700,1.722439697265625,0.16011834144592285,-0.013667707331478596,0.8098307251930237
1667266576252837400,1.72483740234375,0.16256172955036163,0.01382041908800602,0.7957812547683716
1667266576255235300,1.7272353515625,0.16011834144592285,0.04253023862838745,0.7798992395401001
1667266576257633000,1.729633056640625,0.15828579664230347,0.07979192584753036,0.7640172243118286
1667266576260031000,1.732031005859375,0.15217731893062592,0.11705360561609268,0.7481352090835571
1667266576262428700,1.7344287109375,0.14667969942092896,0.15614783763885498,0.7321767807006836
1667266576264826600,1.73682666015625,0.141182079911232,0.19096612930297852,0.7175164818763733
1667266576267224300,1.739224365234375,0.13751699030399323,0.2196759432554245,0.7028561234474182
1667266576269622300,1.741622314453125,0.13201937079429626,0.24288813769817352,0.6857523918151855
1667266576272020000,1.74402001953125,0.13140851259231567,0.2612135708332062,0.6662052869796753
1667266576274417700,1.746417724609375,0.13018682599067688,0.2679328918457031,0.6491015553474426
1667266576276815600,1.748815673828125,0.13385190069675446,0.2697654068470001,0.627721905708313
1667266576279213600,1.751213623046875,0.13507360219955444,0.26365694403648376,0.6038988828659058
1667266576281611300,1.753611328125,0.139960378408432,0.25205084681510925,0.5782433152198792
1667266576284009000,1.756009033203125,0.14423631131649017,0.23555797338485718,0.5501443147659302
1667266576286407000,1.758406982421875,0.1527881771326065,0.21784339845180511,0.5189911127090454
1667266576288804600,1.7608046875,0.15584240853786469,0.20012883841991425,0.4841728210449219
1667266576291202600,1.76320263671875,0.16134002804756165,0.18180342018604279,0.44752198457717896
1667266576293600300,1.765600341796875,0.16439427435398102,0.17264071106910706,0.41026028990745544
1667266576295998200,1.767998291015625,0.16256172955036163,0.1689756214618683,0.36811181902885437
1667266576298396000,1.77039599609375,0.15706409513950348,0.1677539348602295,0.32779592275619507
1667266576300793900,1.7727939453125,0.14484715461730957,0.17691664397716522,0.2850365936756134
1667266576303191600,1.775191650390625,0.13324105739593506,0.18730103969573975,0.24227729439735413
1667266576305589500,1.777589599609375,0.11858072131872177,0.19646374881267548,0.19768545031547546
1667266576307987200,1.7799873046875,0.09536852687597275,0.21295662224292755,0.15675868093967438
1667266576310385000,1.782385009765625,0.07093463838100433,0.22822780907154083,0.11338852345943451
1667266576312782800,1.784782958984375,0.045889899134635925,0.24166645109653473,0.07368344813585281
1667266576315180500,1.7871806640625,0.015347537584602833,0.2606027126312256,0.035200074315071106
1667266576317578500,1.78957861328125,-0.014583977870643139,0.27648472785949707,0.0016034740256145597
1667266576319976200,1.79197607421875,-0.04756972938776016,0.29236677289009094,-0.03565821051597595
1667266576322374100,1.7943740234375,-0.07689040154218674,0.308859646320343,-0.06558972597122192
1667266576324771800,1.796771728515625,-0.10621106624603271,0.31985488533973694,-0.09368869662284851
1667266576327169800,1.799169677734375,-0.1349208950996399,0.32840675115585327,-0.11812258511781693
1667266576329567500,1.8015673828125,-0.1593547761440277,0.33268269896507263,-0.14133478701114655
1667266576331965400,1.80396533203125,-0.17951273918151855,0.33146098256111145,-0.1608818918466568
1667266576334363100,1.806363037109375,-0.19661645591259003,0.33085015416145325,-0.1749313771724701
1667266576336760800,1.8087607421875,-0.2124984860420227,0.32779592275619507,-0.1871483325958252
1667266576339158800,1.81115869140625,-0.22105035185813904,0.3210766017436981,-0.19447849690914154
1667266576341556500,1.813556396484375,-0.22899135947227478,0.3149681091308594,-0.19753272831439972
1667266576343954400,1.815954345703125,-0.23571068048477173,0.3076379597187042,-0.19631104171276093
1667266576346352000,1.81835205078125,-0.24120831489562988,0.2990860939025879,-0.19081340730190277
1667266576348750000,1.82075,-0.24548424780368805,0.2954210042953491,-0.17981816828250885
1667266576351147800,1.823147705078125,-0.2503710091114044,0.29297763109207153,-0.1621035933494568
1667266576353545700,1.825545654296875,-0.2540360987186432,0.29175591468811035,-0.14255647361278534
1667266576355943400,1.827943359375,-0.25892287492752075,0.28992336988449097,-0.11629004776477814
1667266576358341400,1.83034130859375,-0.2650313675403595,0.28931254148483276,-0.08758022636175156
1667266576360739000,1.832739013671875,-0.26930728554725647,0.2862583100795746,-0.05337277799844742
1667266576363136800,1.83513671875,-0.2754157483577728,0.27587389945983887,-0.01794363744556904
1667266576365534700,1.83753466796875,-0.28396761417388916,0.255715936422348,0.02053973823785782
1667266576367932400,1.839932373046875,-0.28641101717948914,0.23006035387516022,0.06146650388836861
1667266576370330400,1.842330322265625,-0.2906869351863861,0.19646374881267548,0.1023932695388794
1667266576372728000,1.84472802734375,-0.2943520247936249,0.154926136136055,0.1408766508102417
1667266576375126000,1.8471259765625,-0.29618456959724426,0.11644276231527328,0.18180342018604279
1667266576377523700,1.849523681640625,-0.3011476993560791,0.07918107509613037,0.22273017466068268
1667266576379921700,1.851921630859375,-0.3011476993560791,0.04497363045811653,0.259991854429245
1667266576382319400,1.8543193359375,-0.3023693859577179,0.015042114071547985,0.29358845949172974
1667266576384717300,1.85671728515625,-0.3042019307613373,-0.010613471269607544,0.3253525197505951
1667266576387115000,1.859114990234375,-0.30725616216659546,-0.026495499536395073,0.3510081171989441
1667266576389512700,1.8615126953125,-0.31031039357185364,-0.04115583375096321,0.37116608023643494
1667266576391910700,1.86391064453125,-0.312142938375473,-0.05337277799844742,0.3901023268699646
1667266576394308600,1.86630859375,-0.3151971995830536,-0.05948125198483467,0.4035409688949585
1667266576396706300,1.868706298828125,-0.3176405727863312,-0.06131379306316376,0.415147066116333
1667266576399104000,1.87110400390625,-0.32069480419158936,-0.060092099010944366,0.4188121557235718
1667266576401502000,1.873501953125,-0.32252734899520874,-0.05703786388039589,0.42064470052719116
1667266576403899600,1.875899658203125,-0.3280249834060669,-0.05031854286789894,0.4182012975215912
1667266576406297600,1.878297607421875,-0.33230090141296387,-0.041766680777072906,0.415147066116333
1667266576408695300,1.8806953125,-0.33596599102020264,-0.027717193588614464,0.40842774510383606
1667266576411093200,1.88309326171875,-0.33718767762184143,-0.016111096367239952,0.39865419268608093
1667266576413491000,1.885490966796875,-0.33596599102020264,-0.0014507622690871358,0.3901023268699646
1667266576415889000,1.887888916015625,-0.3365768492221832,0.012598725035786629,0.3778853714466095
1667266576418286600,1.89028662109375,-0.3365768492221832,0.022372281178832054,0.366279274225235
1667266576420684500,1.8926845703125,-0.33352261781692505,0.03214583545923233,0.3522298038005829
1667266576423082200,1.895082275390625,-0.3298575282096863,0.03703261539340019,0.3357369303703308
1667266576425480200,1.897480224609375,-0.32313820719718933,0.041919391602277756,0.31924405694007874
1667266576427878000,1.8998779296875,-0.3115321099758148,0.04497363045811653,0.30397287011146545
1667266576430275600,1.902275634765625,-0.29679539799690247,0.04558447748422623,0.2862583100795746
1667266576432673500,1.904673583984375,-0.2790808379650116,0.04680617153644562,0.2679328918457031
1667266576435071200,1.9070712890625,-0.2558686435222626,0.051082100719213486,0.25021830201148987
1667266576437469200,1.90946923828125,-0.23021306097507477,0.060244809836149216,0.22944949567317963
1667266576439867000,1.911866943359375,-0.20272493362426758,0.0626882016658783,0.2056264579296112
1667266576442264800,1.914264892578125,-0.17584764957427979,0.06635328382253647,0.18607935309410095
1667266576444662500,1.91666259765625,-0.15141376852989197,0.07673768699169159,0.16347800195217133
1667266576447060500,1.919060546875,-0.12636902928352356,0.08712209016084671,0.14270919561386108
1667266576449458200,1.921458251953125,-0.10376767814159393,0.09078717231750488,0.12132953852415085
1667266576451856100,1.923856201171875,-0.08360971510410309,0.09933903813362122,0.10178242623806
1667266576454253800,1.92625390625,-0.06223006546497345,0.1152210608124733,0.08223531395196915
1667266576456651500,1.928651611328125,-0.045737188309431076,0.13537901639938354,0.06635328382253647
1667266576459049500,1.931049560546875,-0.02802261710166931,0.15675868093967438,0.05230379477143288
1667266576461447200,1.933447265625,-0.013973130844533443,0.17630578577518463,0.04741701856255531
1667266576463845000,1.93584521484375,-0.0011453386396169662,0.1946312040090561,0.04130854457616806
1667266576466242800,1.938242919921875,0.0165692325681448,0.20929154753684998,0.04008685052394867
1667266576468640800,1.940640869140625,0.03184041380882263,0.2196759432554245,0.04130854457616806
1667266576471038500,1.94303857421875,0.048333290964365005,0.22517357766628265,0.044362783432006836
1667266576473436400,1.9454365234375,0.06543701142072678,0.22700610756874084,0.049860406666994095
1667266576475834000,1.947834228515625,0.08254073560237885,0.22150848805904388,0.057801421731710434
1667266576478232000,1.950232177734375,0.1014770045876503,0.20990239083766937,0.06696412712335587
1667266576480629800,1.952629638671875,0.12102411687374115,0.19524206221103668,0.07368344813585281
1667266576483027500,1.95502734375,0.13812783360481262,0.17508409917354584,0.08162446320056915
1667266576485425400,1.95742529296875,0.1527881771326065,0.1524827480316162,0.09139802306890488
1667266576487823000,1.959822998046875,0.1680593490600586,0.12988139688968658,0.09994988143444061
1667266576490221000,1.962220947265625,0.1802763044834137,0.10911259055137634,0.10850174725055695
1667266576492618800,1.96461865234375,0.18760646879673004,0.09261971712112427,0.1139993667602539
1667266576495016700,1.9670166015625,0.193104088306427,0.07918107509613037,0.11766445636749268
1667266576497414400,1.969414306640625,0.193104088306427,0.06635328382253647,0.12316207587718964
1667266576499812400,1.971812255859375,0.18821731209754944,0.05474718660116196,0.1268271654844284
1667266576502210000,1.9742099609375,0.1790546029806137,0.04619532451033592,0.1274380087852478
1667266576504608000,1.97660791015625,0.168670192360878,0.03458922728896141,0.13110309839248657
1667266576507005700,1.979005615234375,0.1546207070350647,0.021150587126612663,0.13049224019050598
1667266576509403400,1.9814033203125,0.13690614700317383,0.007711946498602629,0.1286597102880478
1667266576511801300,1.98380126953125,0.12102411687374115,-0.010002624243497849,0.13049224019050598
1667266576514199300,1.98619921875,0.10392039269208908,-0.02710634656250477,0.13110309839248657
1667266576516597000,1.988596923828125,0.08376242965459824,-0.04787515476346016,0.13293562829494476
1667266576518994700,1.99099462890625,0.06849125027656555,-0.07353074103593826,0.13537901639938354
1667266576521392600,1.993392578125,0.05077667906880379,-0.10040801763534546,0.1414874941110611
1667266576523790300,1.995790283203125,0.03245126083493233,-0.12545275688171387,0.14759597182273865
1667266576526188300,1.998188232421875,0.015958385542035103,-0.15355172753334045,0.153704434633255
1667266576528586000,2.0005859375,0.000687203137204051,-0.17676392197608948,0.1653105467557907
1667266576530984000,2.00298388671875,-0.015194825828075409,-0.19325679540634155,0.17752748727798462
1667266576533381600,2.005381591796875,-0.024968381971120834,-0.20608459413051605,0.19585290551185608
1667266576535779600,2.007779541015625,-0.034131091088056564,-0.2134147584438324,0.21417832374572754
1667266576538177300,2.01017724609375,-0.03962871432304382,-0.21585814654827118,0.232503741979599
1667266576540575200,2.0125751953125,-0.04390464723110199,-0.21891239285469055,0.24899661540985107
1667266576542973000,2.014972900390625,-0.04818057641386986,-0.2250208556652069,0.26854372024536133
1667266576545370600,2.01737060546875,-0.05184566229581833,-0.22807510197162628,0.2844257652759552
1667266576547768600,2.0197685546875,-0.05062396824359894,-0.23479440808296204,0.30397287011146545
1667266576550166300,2.022166259765625,-0.04940227046608925,-0.24273543059825897,0.31802234053611755
1667266576552564200,2.024564208984375,-0.04879142343997955,-0.24945475161075592,0.3271850645542145
1667266576554962000,2.0269619140625,-0.04390464723110199,-0.26045000553131104,0.3351260721683502
1667266576557359900,2.02935986328125,-0.0420721061527729,-0.26961269974708557,0.3394020199775696
1667266576559757600,2.031757568359375,-0.036574479192495346,-0.2775537371635437,0.3394020199775696
1667266576562155500,2.034155517578125,-0.03352024406194687,-0.28549474477767944,0.33329352736473083
1667266576564553200,2.03655322265625,-0.030466007068753242,-0.28610557317733765,0.3229091465473175
1667266576566951200,2.038951171875,-0.026190076023340225,-0.28244051337242126,0.3094705045223236
1667266576569348900,2.041348876953125,-0.0231358390301466,-0.2751103341579437,0.28992336988449097
1667266576571746600,2.04374658203125,-0.021303297951817513,-0.26106083393096924,0.2679328918457031
1667266576574144500,2.04614453125,-0.017027366906404495,-0.2409028857946396,0.2434989959001541
1667266576576542200,2.048542236328125,-0.013362283818423748,-0.21524730324745178,0.21173493564128876
1667266576578940200,2.050940185546875,-0.010308047756552696,-0.1865374743938446,0.179360032081604
1667266576581337900,2.053337890625,-0.004199574701488018,-0.15843850374221802,0.14698512852191925
1667266576583735800,2.05573583984375,-0.0029778804164379835,-0.12850698828697205,0.11277767270803452
1667266576586133500,2.058133544921875,-0.0023670331574976444,-0.10224056243896484,0.0755159929394722
1667266576588531500,2.060531494140625,-0.004199574701488018,-0.07475243508815765,0.040697697550058365
1667266576590929200,2.06292919921875,-0.006032116711139679,-0.057648710906505585,0.005879404954612255
1667266576593327000,2.0653271484375,-0.00908635277301073,-0.04359922185540199,-0.02832804247736931
1667266576595724800,2.067724853515625,-0.015194825828075409,-0.028938889503479004,-0.060092099010944366
1667266576598122500,2.07012255859375,-0.02557922899723053,-0.01916533336043358,-0.08880192041397095
1667266576600520400,2.0725205078125,-0.03229855000972748,-0.013667707331478596,-0.11506835371255875
1667266576602918100,2.074918212890625,-0.043293800204992294,-0.0130568603053689,-0.13828055560588837
1667266576605316000,2.077316162109375,-0.05306735634803772,-0.010613471269607544,-0.15721681714057922
1667266576607713800,2.0797138671875,-0.06406260281801224,-0.008780929259955883,-0.1724879890680313
1667266576610111700,2.08211181640625,-0.07383616268634796,-0.010613471269607544,-0.1859266310930252
1667266576612509400,2.084509521484375,-0.08299887180328369,-0.013667707331478596,-0.19264595210552216
1667266576614907400,2.086907470703125,-0.09093988686800003,-0.020997874438762665,-0.19570018351078033
1667266576617305000,2.08930517578125,-0.10132429003715515,-0.0295497365295887,-0.19325679540634155
1667266576619703000,2.091703125,-0.10926530510187149,-0.0429883748292923,-0.1865374743938446
1667266576622100700,2.094100830078125,-0.11537377536296844,-0.06192464008927345,-0.17737478017807007
1667266576624498400,2.09649853515625,-0.1220930963754654,-0.08513683825731277,-0.16454698145389557
1667266576626896400,2.098896484375,-0.12392564117908478,-0.11445750296115875,-0.1486649513244629
1667266576629294000,2.101294189453125,-0.12697987258434296,-0.15110833942890167,-0.13156123459339142
1667266576631692000,2.103692138671875,-0.12697987258434296,-0.18409408628940582,-0.11567919701337814
1667266576634089700,2.10608984375,-0.12514732778072357,-0.21463645994663239,-0.09613208472728729
1667266576636487700,2.10848779296875,-0.12392564117908478,-0.24701136350631714,-0.07963921129703522
1667266576638885400,2.110885498046875,-0.11903885751962662,-0.2775537371635437,-0.06314633786678314
1667266576641283300,2.113283447265625,-0.11293038725852966,-0.3044309914112091,-0.04604261368513107
1667266576643681000,2.115680908203125,-0.11109784245491028,-0.32458895444869995,-0.03443651273846626
1667266576646079000,2.118078857421875,-0.10437852889299393,-0.3343625068664551,-0.022219568490982056
1667266576648476700,2.1204765625,-0.09888090193271637,-0.3343625068664551,-0.014278554357588291
1667266576650874600,2.12287451171875,-0.09643751382827759,-0.3270323574542999,-0.006948387715965509
1667266576653272300,2.125272216796875,-0.09277242422103882,-0.3142045736312866,-0.004504998680204153
1667266576655670300,2.127670166015625,-0.08971819281578064,-0.2922140657901764,-0.004504998680204153
1667266576658068000,2.13006787109375,-0.08910734206438065,-0.264725923538208,-0.006948387715965509
1667266576660466000,2.1324658203125,-0.08910734206438065,-0.23174017667770386,-0.006337540224194527
1667266576662863600,2.134863525390625,-0.08727480471134186,-0.19386765360832214,-0.009391776286065578
1667266576665261300,2.13726123046875,-0.08727480471134186,-0.15477342903614044,-0.011835165321826935
1667266576667659300,2.1396591796875,-0.08849649876356125,-0.11629004776477814,-0.014889402315020561
1667266576670057000,2.142056884765625,-0.08849649876356125,-0.07963921129703522,-0.016721943393349648
1667266576672455000,2.144454833984375,-0.08666395395994186,-0.04604261368513107,-0.01794363744556904
1667266576674852600,2.1468525390625,-0.08360971510410309,-0.014889402315020561,-0.017332790419459343
1667266576677250600,2.14925048828125,-0.07933378964662552,0.011987877078354359,-0.014278554357588291
1667266576679648300,2.151648193359375,-0.07444700598716736,0.031534988433122635,-0.0130568603053689
1667266576682046200,2.154046142578125,-0.06772769242525101,0.04130854457616806,-0.006337540224194527
1667266576684444000,2.15644384765625,-0.061619218438863754,0.051082100719213486,0.0034360159188508987
1667266576686841900,2.158841796875,-0.052456509321928024,0.051082100719213486,0.010155336000025272
1667266576689239600,2.161239501953125,-0.04512634128332138,0.04680617153644562,0.019928891211748123
1667266576691637200,2.16363720703125,-0.03352024406194687,0.0358109213411808,0.03092414326965809
1667266576694035200,2.16603515625,-0.021303297951817513,0.024815669283270836,0.044362783432006836
1667266576696433000,2.168432861328125,-0.010918894782662392,0.008933641016483307,0.05413633957505226
1667266576698830800,2.170830810546875,0.0031305921729654074,-0.007559234742075205,0.06818582862615585
1667266576701228500,2.173228515625,0.017180079594254494,-0.023441264405846596,0.08101361989974976
1667266576703626500,2.17562646484375,0.028786176815629005,-0.03687990456819534,0.09323056042194366
1667266576706024200,2.178024169921875,0.04283566400408745,-0.04421006888151169,0.1023932695388794
1667266576708422100,2.180422119140625,0.05322006717324257,-0.048486001789569855,0.10911259055137634
1667266576710819800,2.18281982421875,0.06482616811990738,-0.04909684881567955,0.11583191156387329
1667266576713217800,2.1852177734375,0.07276718318462372,-0.044820915907621384,0.12010784447193146
1667266576715615500,2.187615478515625,0.08070819079875946,-0.03565821051597595,0.12071868777275085
1667266576718013200,2.19001318359375,0.08620581775903702,-0.025273805484175682,0.12132953852415085
1667266576720411100,2.1924111328125,0.09170344471931458,-0.012446013279259205,0.11888615041971207
1667266576722808800,2.194808837890625,0.09292513877153397,0.0028251686599105597,0.11705360561609268
1667266576725206800,2.197206787109375,0.09353598952293396,0.018707197159528732,0.11277767270803452
1667266576727604500,2.1996044921875,0.09292513877153397,0.035200074315071106,0.10728005319833755
1667266576730002400,2.20200244140625,0.09170344471931458,0.04558447748422623,0.10178242623806
1667266576732400000,2.204400146484375,0.09170344471931458,0.05596888065338135,0.09139802306890488
1667266576734798000,2.206798095703125,0.08620581775903702,0.057801421731710434,0.08284615725278854
1667266576737195800,2.20919580078125,0.08315158635377884,0.05230379477143288,0.07429429888725281
1667266576739593700,2.21159375,0.07887565344572067,0.04680617153644562,0.06452073901891708
1667266576741991400,2.213991455078125,0.07276718318462372,0.0364217683672905,0.05596888065338135
1667266576744389000,2.21638916015625,0.06604786217212677,0.02420482225716114,0.04741701856255531
1667266576746787000,2.218787109375,0.05993938818573952,0.011987877078354359,0.043141089379787445
1667266576749184800,2.221184814453125,0.05016583204269409,0.00038177953683771193,0.04008685052394867
1667266576751582700,2.223582763671875,0.037948887795209885,-0.013667707331478596,0.03764346241950989
1667266576753980400,2.22598046875,0.02695363573729992,-0.02038702741265297,0.04130854457616806
1667266576756378400,2.22837841796875,0.015347537584602833,-0.027717193588614464,0.04558447748422623
1667266576758776000,2.230776123046875,0.00129805039614439,-0.03321481868624687,0.053525492548942566
1667266576761174000,2.233174072265625,-0.010918894782662392,-0.038101598620414734,0.06513158977031708
1667266576763571700,2.23557177734375,-0.021914144977927208,-0.04359922185540199,0.07918107509613037
1667266576765969700,2.2379697265625,-0.03474193811416626,-0.05215108394622803,0.09506310522556305
1667266576768367400,2.240367431640625,-0.044515494257211685,-0.058870404958724976,0.11277767270803452
1667266576770765000,2.24276513671875,-0.05306735634803772,-0.06436803191900253,0.13232478499412537
1667266576773163000,2.2451630859375,-0.05978667363524437,-0.07230904698371887,0.1524827480316162
1667266576775560700,2.247560791015625,-0.06650599837303162,-0.082082599401474,0.17508409917354584
1667266576777958700,2.249958740234375,-0.06711684167385101,-0.08880192041397095,0.19646374881267548
1667266576780356400,2.2523564453125,-0.06650599837303162,-0.09796462953090668,0.21601086854934692
1667266576782754300,2.25475439453125,-0.06528430432081223,-0.10895988345146179,0.23616881668567657
1667266576785152000,2.257152099609375,-0.06284090876579285,-0.12362021207809448,0.2563267946243286
1667266576787550000,2.259550048828125,-0.05734328553080559,-0.13828055560588837,0.2746522128582001
1667266576789947600,2.26194775390625,-0.050013117492198944,-0.1468324065208435,0.28931254148483276
1667266576792345600,2.264345703125,-0.04390464723110199,-0.1602710485458374,0.30397287011146545
1667266576794743300,2.266743408203125,-0.034131091088056564,-0.17126630246639252,0.31313556432724
1667266576797141000,2.26914111328125,-0.028633465990424156,-0.17920731008052826,0.31985488533973694
1667266576799539000,2.2715390625,-0.020692450925707817,-0.18042901158332825,0.3229091465473175
1667266576801937000,2.27393701171875,-0.010918894782662392,-0.17920731008052826,0.3210766017436981
1667266576804334600,2.27633447265625,-0.005421269219368696,-0.1743205338716507,0.31618982553482056
1667266576806732300,2.278732177734375,0.00007635590736754239,-0.16393613815307617,0.3106921911239624
1667266576809130200,2.281130126953125,0.006184828467667103,-0.15110833942890167,0.2972535490989685
1667266576811528000,2.28352783203125,0.0067956759594380856,-0.13644801080226898,0.2838149070739746
1667266576813926000,2.28592578125,0.006184828467667103,-0.1205659806728363,0.26854372024536133
1667266576816323600,2.288323486328125,0.0067956759594380856,-0.09918632358312607,0.24899661540985107
1667266576818721500,2.290721435546875,0.0067956759594380856,-0.07597412914037704,0.22700610756874084
1667266576821119200,2.293119140625,0.004352286923676729,-0.056427016854286194,0.2056264579296112
1667266576823517200,2.29551708984375,0.0019088976550847292,-0.03749075159430504,0.1805817186832428
1667266576825915000,2.297914794921875,-0.0005344913806766272,-0.02283041551709175,0.15614783763885498
1667266576828312800,2.300312744140625,-0.005421269219368696,-0.010002624243497849,0.13049224019050598
1667266576830710500,2.30271044921875,-0.012751436792314053,0.0034360159188508987,0.10728005319833755
1667266576833108200,2.305108154296875,-0.015805672854185104,0.012598725035786629,0.08223531395196915
1667266576835506200,2.307506103515625,-0.019470756873488426,0.02420482225716114,0.06085565686225891
1667266576837904000,2.30990380859375,-0.02680092304944992,0.032756682485342026,0.04253023862838745
1667266576840301800,2.3123017578125,-0.030466007068753242,0.04558447748422623,0.02420482225716114
1667266576842699500,2.314699462890625,-0.034131091088056564,0.05719057470560074,0.010155336000025272
1667266576845097500,2.317097412109375,-0.03840702027082443,0.06879667192697525,0.00038177953683771193
1667266576847495200,2.3194951171875,-0.04023956134915352,0.07857023179531097,-0.004504998680204153
1667266576849893000,2.32189306640625,-0.04390464723110199,0.08590039610862732,-0.010002624243497849
1667266576852290800,2.324290771484375,-0.04512634128332138,0.09017632901668549,-0.01122431829571724
1667266576854688800,2.326688720703125,-0.04390464723110199,0.09078717231750488,-0.008170082233846188
1667266576857086500,2.32908642578125,-0.0420721061527729,0.08590039610862732,-0.004504998680204153
1667266576859484200,2.331484130859375,-0.03718532621860504,0.07368344813585281,0.0022143214009702206
1667266576861882000,2.333882080078125,-0.031076854094862938,0.057801421731710434,0.008933641016483307
1667266576864279800,2.33627978515625,-0.024968381971120834,0.0358109213411808,0.015652960166335106
1667266576866677800,2.338677734375,-0.01885990984737873,0.0064902519807219505,0.028480753302574158
1667266576869075500,2.341075439453125,-0.014583977870643139,-0.023441264405846596,0.044362783432006836
1667266576871473400,2.343473388671875,-0.009697199799120426,-0.05825955793261528,0.06146650388836861
1667266576873871000,2.34587109375,-0.005421269219368696,-0.09185615926980972,0.08406785130500793
1667266576876269000,2.34826904296875,-0.0005344913806766272,-0.12850698828697205,0.10911259055137634
1667266576878666800,2.350666748046875,-0.0011453386396169662,-0.1602710485458374,0.13537901639938354
1667266576881064700,2.353064697265625,-0.0011453386396169662,-0.19203510880470276,0.16347800195217133
1667266576883462400,2.35546240234375,-0.0029778804164379835,-0.21707984805107117,0.19646374881267548
1667266576885860000,2.357860107421875,-0.004810422193259001,-0.23601610958576202,0.22883865237236023
1667266576888258000,2.360258056640625,-0.006642963737249374,-0.24762220680713654,0.2679328918457031
1667266576890655700,2.36265576171875,-0.009697199799120426,-0.2549523711204529,0.31313556432724
1667266576893053700,2.3650537109375,-0.010308047756552696,-0.25556322932243347,0.35833826661109924
1667266576895451400,2.367451416015625,-0.012140588834881783,-0.2512872815132141,0.4065952003002167
1667266576897849300,2.369849365234375,-0.013973130844533443,-0.24212458729743958,0.4536304473876953
1667266576900247000,2.3722470703125,-0.015805672854185104,-0.22929678857326508,0.498222291469574
1667266576902645000,2.37464501953125,-0.0164165198802948,-0.20791713893413544,0.5440358519554138
1667266576905042700,2.377042724609375,-0.0164165198802948,-0.18409408628940582,0.5819083452224731
1667266576907440600,2.379440673828125,-0.015194825828075409,-0.15843850374221802,0.6167266368865967
1667266576909838300,2.38183837890625,-0.012751436792314053,-0.1340046226978302,0.6429930925369263
1667266576912236000,2.384236083984375,-0.006642963737249374,-0.10590564459562302,0.6649835705757141
1667266576914634000,2.386634033203125,-0.0005344913806766272,-0.08025006204843521,0.6845307350158691
1667266576917031700,2.38903173828125,0.011071606539189816,-0.05337277799844742,0.6930825710296631
1667266576919429600,2.3914296875,0.022066857665777206,-0.025884652510285378,0.6973584890365601
1667266576921827300,2.393827392578125,0.036727190017700195,-0.0038941511884331703,0.6924717426300049
1667266576924225300,2.396225341796875,0.05932854115962982,0.02420482225716114,0.6802547574043274
1667266576926623000,2.398623046875,0.08192989230155945,0.051082100719213486,0.6613185405731201
1667266576929021000,2.40102099609375,0.10392039269208908,0.07429429888725281,0.6344412565231323
1667266576931418600,2.403418701171875,0.1277434378862381,0.09689565002918243,0.600233793258667
1667266576933816600,2.405816650390625,0.1540098637342453,0.11827529966831207,0.5586961507797241
1667266576936214300,2.40821435546875,0.1814979910850525,0.13598987460136414,0.5086066722869873
1667266576938612200,2.4106123046875,0.21570543944835663,0.1530935913324356,0.45057621598243713
1667266576941010000,2.413010009765625,0.25357797741889954,0.1689756214618683,0.3901023268699646
1667266576943407600,2.41540771484375,0.2853420376777649,0.18607935309410095,0.3259633779525757
1667266576945805600,2.4178056640625,0.3128301501274109,0.19829629361629486,0.26304611563682556
1667266576948203300,2.420203369140625,0.3384857475757599,0.2068481594324112,0.20012883841991425
1667266576950601200,2.422601318359375,0.35742199420928955,0.2068481594324112,0.13904410600662231
1667266576952999000,2.4249990234375,0.37147149443626404,0.20073968172073364,0.07918107509613037
1667266576955396900,2.42739697265625,0.38246673345565796,0.1927986592054367,0.02298312820494175
1667266576957794600,2.429794677734375,0.38368842005729675,0.18485765159130096,-0.0295497365295887
1667266576960192500,2.432192626953125,0.38491013646125793,0.17264071106910706,-0.07841751724481583
1667266576962590200,2.434590087890625,0.3806341886520386,0.16225630044937134,-0.1205659806728363
1667266576964988200,2.43698828125,0.37269318103790283,0.1530935913324356,-0.1590493619441986
1667266576967385900,2.4393857421875,0.36780640482902527,0.14332003891468048,-0.19142426550388336
1667266576969783600,2.441783447265625,0.3623087704181671,0.13843326270580292,-0.2140256017446518
1667266576972181500,2.444181396484375,0.3665847182273865,0.13415732979774475,-0.23112933337688446
1667266576974579200,2.4465791015625,0.3733040392398834,0.13537901639938354,-0.2409028857946396
1667266576976977200,2.44897705078125,0.38613182306289673,0.1408766508102417,-0.24212458729743958
1667266576979374800,2.451374755859375,0.40140300989151,0.15126104652881622,-0.23601610958576202
1667266576981772800,2.453772705078125,0.4160633385181427,0.1689756214618683,-0.2268534004688263
1667266576984170500,2.45617041015625,0.431334525346756,0.18791188299655914,-0.20974968373775482
1667266576986568400,2.458568359375,0.4417189359664917,0.21051323413848877,-0.19203510880470276
1667266576988966100,2.460966064453125,0.44904908537864685,0.2337254285812378,-0.16699036955833435
1667266576991364000,2.463364013671875,0.44904908537864685,0.25388339161872864,-0.13950224220752716
1667266576993761800,2.46576171875,0.4447731673717499,0.2752630412578583,-0.10957072675228119
1667266576996159500,2.468159423828125,0.4319453537464142,0.2954210042953491,-0.08086090534925461
1667266576998557400,2.470557373046875,0.4136199355125427,0.3125247359275818,-0.04665346071124077
1667266577000955100,2.472955078125,0.3928511440753937,0.32962843775749207,-0.014278554357588291
1667266577003353000,2.47535302734375,0.3647521734237671,0.34612134099006653,0.021150587126612663
1667266577005750800,2.477750732421875,0.3366532027721405,0.3638359010219574,0.05413633957505226
1667266577008148700,2.480148681640625,0.30488914251327515,0.3791070878505707,0.0883437842130661
1667266577010546400,2.48254638671875,0.2737359404563904,0.3888806402683258,0.11583191156387329
1667266577012944400,2.4849443359375,0.23952847719192505,0.3998758792877197,0.14576342701911926
1667266577015342000,2.487342041015625,0.2053210288286209,0.41209283471107483,0.17386239767074585
1667266577017740000,2.489739990234375,0.16928105056285858,0.42430979013442993,0.19707459211349487
1667266577020137700,2.4921376953125,0.13263021409511566,0.43652671575546265,0.22150848805904388
1667266577022535400,2.494535400390625,0.09842276573181152,0.4401918053627014,0.23800136148929596
1667266577024933400,2.496933349609375,0.06482616811990738,0.4389701187610626,0.25449424982070923
1667266577027331000,2.4993310546875,0.03306210786104202,0.4310291111469269,0.26854372024536133
1667266577029729000,2.50172900390625,0.00129805039614439,0.415147066116333,0.27953898906707764
1667266577032126700,2.504126708984375,-0.03229855000972748,0.391934871673584,0.2868691384792328
1667266577034524700,2.506524658203125,-0.06772769242525101,0.3650575876235962,0.29481014609336853
1667266577036922400,2.50892236328125,-0.09827005118131638,0.33329352736473083,0.2984752357006073
1667266577039320300,2.5113203125,-0.12881241738796234,0.2972535490989685,0.3003077805042267
1667266577041716200,2.51371630859375,-0.1624090075492859,0.26243525743484497,0.30397287011146545
1667266577044114000,2.516114013671875,-0.19295138120651245,0.22761696577072144,0.3015294671058655
1667266577046511900,2.518511962890625,-0.22166119515895844,0.18791188299655914,0.30397287011146545
1667266577048909600,2.52090966796875,-0.2515927255153656,0.14576342701911926,0.2996969223022461
1667266577051307500,2.5233076171875,-0.278469979763031,0.1023932695388794,0.2972535490989685
1667266577053705200,2.525705322265625,-0.3054236173629761,0.05963396281003952,0.2954210042953491
1667266577056103200,2.528103271484375,-0.3274141252040863,0.015652960166335106,0.29236677289009094
1667266577058500900,2.5305009765625,-0.34940463304519653,-0.027717193588614464,0.2874799966812134
1667266577060898800,2.53289892578125,-0.3689517378807068,-0.07108735293149948,0.2862583100795746
1667266577063296500,2.535296630859375,-0.3817795515060425,-0.1205659806728363,0.27892813086509705
1667266577065694200,2.537694091796875,-0.393385648727417,-0.16637952625751495,0.2734304964542389
1667266577068092200,2.540092041015625,-0.39888325333595276,-0.21463645994663239,0.26732203364372253
1667266577070489900,2.54248974609375,-0.4037700295448303,-0.25922831892967224,0.2587701678276062
1667266577072887800,2.5448876953125,-0.4074351191520691,-0.29893338680267334,0.24899661540985107
1667266577075285500,2.547285400390625,-0.4086568057537079,-0.33619505167007446,0.23616881668567657
1667266577077683500,2.549683349609375,-0.4080459773540497,-0.366737425327301,0.22456271946430206
1667266577080081200,2.5520810546875,-0.4062134325504303,-0.3954472541809082,0.21295662224292755
1667266577082479000,2.55447900390625,-0.4049917459487915,-0.41804859042167664,0.20073968172073364
1667266577084876800,2.556876708984375,-0.4043808877468109,-0.43889376521110535,0.18791188299655914
1667266577087274800,2.559274658203125,-0.40132665634155273,-0.4553866386413574,0.17630578577518463
1667266577089672400,2.56167236328125,-0.39949411153793335,-0.46577104926109314,0.1665322333574295
1667266577092070100,2.564070068359375,-0.39827242493629456,-0.4718795120716095,0.15736952424049377
1667266577094468000,2.566468017578125,-0.395218163728714,-0.47737714648246765,0.14576342701911926
1667266577096865800,2.56886572265625,-0.38788801431655884,-0.47859883308410645,0.13843326270580292
1667266577099263700,2.571263671875,-0.3836120665073395,-0.47615543007850647,0.13049224019050598
1667266577101661400,2.573661376953125,-0.3762819170951843,-0.4724903404712677,0.12194038182497025
1667266577104059400,2.576059326171875,-0.367730051279068,-0.46760356426239014,0.1152210608124733
1667266577106457000,2.57845703125,-0.3567348122596741,-0.4590517282485962,0.10911259055137634
1667266577108855000,2.58085498046875,-0.34635040163993835,-0.4492781460285187,0.1023932695388794
1667266577111252700,2.583252685546875,-0.33596599102020264,-0.43767204880714417,0.09689565002918243
1667266577113650700,2.585650634765625,-0.3249707520008087,-0.422324538230896,0.09078717231750488
1667266577116048400,2.58804833984375,-0.3127537965774536,-0.40522080659866333,0.08467870205640793
1667266577118446000,2.590446044921875,-0.29923880100250244,-0.3850628435611725,0.07979192584753036
1667266577120844000,2.592843994140625,-0.28702184557914734,-0.371013343334198,0.07307260483503342
1667266577123241700,2.59524169921875,-0.2748049199581146,-0.34841200709342957,0.06574243307113647
1667266577125639700,2.5976396484375,-0.25953373312950134,-0.3319191336631775,0.05596888065338135
1667266577128037400,2.600037353515625,-0.24609509110450745,-0.30992862582206726,0.043141089379787445
1667266577130435300,2.602435302734375,-0.23509983718395233,-0.2922140657901764,0.031534988433122635
1667266577132833000,2.6048330078125,-0.22349373996257782,-0.2763320207595825,0.01626380905508995
1667266577135231000,2.60723095703125,-0.21005509793758392,-0.26045000553131104,-0.0032833039294928312
1667266577137628700,2.609628662109375,-0.19661645591259003,-0.24640052020549774,-0.02405211143195629
1667266577140026600,2.612026611328125,-0.18867544829845428,-0.22807510197162628,-0.04543176665902138
1667266577142424300,2.61442431640625,-0.17829103767871857,-0.211582213640213,-0.06742226332426071
1667266577144822000,2.616822021484375,-0.16912832856178284,-0.19386765360832214,-0.09185615926980972
1667266577147220000,2.619219970703125,-0.1624090075492859,-0.17798562347888947,-0.11690089106559753
1667266577149617700,2.62161767578125,-0.15324631333351135,-0.1621035933494568,-0.14316733181476593
1667266577152015600,2.624015625,-0.1483595222234726,-0.1474432498216629,-0.16760121285915375
1667266577154413300,2.626413330078125,-0.14286190271377563,-0.1327829211950302,-0.19264595210552216
1667266577156811300,2.628811279296875,-0.1361425817012787,-0.11934428662061691,-0.21830153465270996
1667266577159209000,2.631208984375,-0.12881241738796234,-0.11262496560811996,-0.24334627389907837
1667266577161607000,2.63360693359375,-0.12392564117908478,-0.10651648789644241,-0.27022355794906616
1667266577164004600,2.636004638671875,-0.120871402323246,-0.10162971168756485,-0.29648998379707336
1667266577166402600,2.638402587890625,-0.11415208131074905,-0.09613208472728729,-0.3172588050365448
1667266577168800300,2.64080029296875,-0.11170869320631027,-0.09307785332202911,-0.3423035442829132
1667266577171198000,2.643197998046875,-0.1086544543504715,-0.09063446521759033,-0.36612656712532043
1667266577173596000,2.645595947265625,-0.10315682739019394,-0.08696937561035156,-0.38872793316841125
1667266577175993600,2.64799365234375,-0.10193513333797455,-0.08452598750591278,-0.4101075828075409
1667266577178391600,2.6503916015625,-0.09888090193271637,-0.07902836054563522,-0.42965468764305115
1667266577180789200,2.652789306640625,-0.10132429003715515,-0.07230904698371887,-0.4479801058769226
1667266577183187200,2.655187255859375,-0.10376767814159393,-0.06253548711538315,-0.4632512927055359
1667266577185585000,2.6575849609375,-0.1074327602982521,-0.05154023692011833,-0.4779116213321686
1667266577187982800,2.65998291015625,-0.11354123055934906,-0.03687990456819534,-0.4913502633571625
1667266577190380500,2.662380615234375,-0.1220930963754654,-0.018554486334323883,-0.5029563903808594
1667266577192778500,2.664778564453125,-0.1330883502960205,0.00038177953683771193,-0.5127299427986145
1667266577195176200,2.66717626953125,-0.1459161341190338,0.01626380905508995,-0.5200600624084473
1667266577197574000,2.669573974609375,-0.15752223134040833,0.035200074315071106,-0.5298336148262024
1667266577199971800,2.671971923828125,-0.17157171666622162,0.053525492548942566,-0.5347204208374023
1667266577202369500,2.67436962890625,-0.1862320601940155,0.07062921673059464,-0.5377746820449829
1667266577204767500,2.676767578125,-0.20333577692508698,0.08284615725278854,-0.5414397120475769
1667266577207165200,2.679165283203125,-0.22043950855731964,0.09384141117334366,-0.5463265180587769
1667266577209563100,2.681563232421875,-0.2381540685892105,0.1005607321858406,-0.5481590628623962
1667266577211960800,2.6839609375,-0.255257785320282,0.10972344130277634,-0.5512133240699768
1667266577214358800,2.68635888671875,-0.27113983035087585,0.1139993667602539,-0.551824152469635
1667266577216756500,2.688756591796875,-0.28518930077552795,0.11888615041971207,-0.5499916076660156
1667266577219154400,2.691154541015625,-0.29923880100250244,0.12377292662858963,-0.5487698912620544
1667266577221552000,2.69355224609375,-0.3127537965774536,0.126216322183609,-0.5444939732551575
1667266577223949800,2.69594970703125,-0.3261924386024475,0.1268271654844284,-0.5457156896591187
1667266577226347800,2.69834765625,-0.3365768492221832,0.13049224019050598,-0.5426614284515381
1667266577228745500,2.700745361328125,-0.3439069986343384,0.13415732979774475,-0.5408288836479187
1667266577231143400,2.703143310546875,-0.3500154912471771,0.13171394169330597,-0.5377746820449829
1667266577233541000,2.705541015625,-0.3555130958557129,0.13293562829494476,-0.5353312492370605
1667266577235939000,2.70793896484375,-0.35917818546295166,0.12988139688968658,-0.532887876033783
1667266577238336800,2.710336669921875,-0.36284327507019043,0.13110309839248657,-0.532887876033783
1667266577240734700,2.712734619140625,-0.36284327507019043,0.13354648649692535,-0.5322770476341248
1667266577243132400,2.71513232421875,-0.35978904366493225,0.13537901639938354,-0.5292227864265442
1667266577245530400,2.7175302734375,-0.3567348122596741,0.13293562829494476,-0.528611958026886
1667266577247928000,2.719927978515625,-0.3518480062484741,0.13904410600662231,-0.5267794132232666
1667266577250325800,2.72232568359375,-0.34451785683631897,0.1420983374118805,-0.528611958026886
1667266577252723700,2.7247236328125,-0.33413344621658325,0.14881765842437744,-0.5273902416229248
1667266577255121400,2.727121337890625,-0.32313820719718933,0.1543152928352356,-0.5292227864265442
1667266577257519400,2.729519287109375,-0.30603447556495667,0.16164545714855194,-0.5292227864265442
1667266577259917000,2.7319169921875,-0.28763270378112793,0.17080816626548767,-0.5292227864265442
1667266577262315000,2.73431494140625,-0.2686964273452759,0.179360032081604,-0.5316661596298218
1667266577264712700,2.736712646484375,-0.24792763590812683,0.1940203607082367,-0.5316661596298218
1667266577267110700,2.739110595703125,-0.22227205336093903,0.20990239083766937,-0.5310553312301636
1667266577269508400,2.74150830078125,-0.1984490007162094,0.22639526426792145,-0.5316661596298218
1667266577271906300,2.74390625,-0.17096087336540222,0.2434989959001541,-0.5298336148262024
1667266577274304000,2.746303955078125,-0.14286190271377563,0.26426780223846436,-0.5267794132232666
1667266577276701700,2.74870166015625,-0.11476293206214905,0.2844257652759552,-0.5255576968193054
1667266577279099600,2.751099609375,-0.08360971510410309,0.30458372831344604,-0.5231143236160278
1667266577281497300,2.753497314453125,-0.053678203374147415,0.3235199749469757,-0.5139515995979309
1667266577283895300,2.755895263671875,-0.02557922899723053,0.3357369303703308,-0.5096756815910339
1667266577286293000,2.75829296875,0.0031305921729654074,0.3522298038005829,-0.5017346739768982
1667266577288691000,2.76069091796875,0.03061871975660324,0.3638359010219574,-0.49501535296440125
1667266577291088600,2.763088623046875,0.05932854115962982,0.3736094534397125,-0.4852418005466461
1667266577293486600,2.765486572265625,0.08559497445821762,0.3791070878505707,-0.4748573899269104
1667266577295884300,2.76788427734375,0.10819631814956665,0.387658953666687,-0.4620296061038971
1667266577298282200,2.7702822265625,0.1283542811870575,0.391934871673584,-0.4510343372821808
1667266577300680000,2.772679931640625,0.14851224422454834,0.39621078968048096,-0.43881741166114807
1667266577303077600,2.77507763671875,0.16439427435398102,0.4017084240913391,-0.4253787696361542
1667266577305475600,2.7774755859375,0.1790546029806137,0.4041518270969391,-0.4101075828075409
1667266577307873300,2.779873291015625,0.1924932450056076,0.40598437190055847,-0.3930038511753082
1667266577310271200,2.782271240234375,0.20165595412254333,0.41026028990745544,-0.37467843294143677
1667266577312669000,2.7846689453125,0.20959696173667908,0.415147066116333,-0.3581855595111847
1667266577315067000,2.78706689453125,0.21631628274917603,0.42125552892684937,-0.3404709994792938
1667266577317464600,2.789464599609375,0.22425730526447296,0.4273640215396881,-0.3197021782398224
1667266577319862500,2.791862548828125,0.22608983516693115,0.43469417095184326,-0.29954421520233154
1667266577322260200,2.79426025390625,0.22853323817253113,0.4420243501663208,-0.2757211923599243
1667266577324658200,2.796658203125,0.22975492477416992,0.4530195891857147,-0.2561740577220917
1667266577327056000,2.799055908203125,0.23036576807498932,0.45912808179855347,-0.23479440808296204
1667266577329453600,2.80145361328125,0.22914408147335052,0.46340399980545044,-0.212803915143013
1667266577331851500,2.8038515625,0.22853323817253113,0.468290776014328,-0.18959172070026398
1667266577334249200,2.806249267578125,0.22425730526447296,0.4695124626159668,-0.17065545916557312
1667266577336647200,2.808647216796875,0.22181391716003418,0.4713450074195862,-0.1486649513244629
1667266577339044900,2.811044921875,0.2187596708536148,0.47439923882484436,-0.12911784648895264
1667266577341442800,2.81344287109375,0.21387289464473724,0.47256672382354736,-0.10957072675228119
1667266577343840500,2.815840576171875,0.21265120804309845,0.4695124626159668,-0.09368869662284851
1667266577346238500,2.818238525390625,0.2077644169330597,0.4695124626159668,-0.07597412914037704
1667266577348636200,2.82063623046875,0.2053210288286209,0.4664582312107086,-0.05825955793261528
1667266577351034000,2.8230341796875,0.19921256601810455,0.46279314160346985,-0.0429883748292923
1667266577353431800,2.825431884765625,0.1937149316072464,0.4566846787929535,-0.026495499536395073
1667266577355829500,2.82782958984375,0.1918824017047882,0.44996535778045654,-0.013667707331478596
1667266577358227500,2.8302275390625,0.18821731209754944,0.4438568949699402,0.00038177953683771193
1667266577360625200,2.832625244140625,0.18271969258785248,0.4316399395465851,0.011377030052244663
1667266577363023000,2.835023193359375,0.1802763044834137,0.42064470052719116,0.021150587126612663
1667266577365420800,2.8374208984375,0.17538951337337494,0.4047626554965973,0.030313294380903244
1667266577367818800,2.83981884765625,0.16989189386367798,0.3882697820663452,0.04130854457616806
1667266577370216400,2.842216552734375,0.1656159609556198,0.3748311400413513,0.049860406666994095
1667266577372614400,2.844614501953125,0.16195088624954224,0.35589489340782166,0.05413633957505226
1667266577375012000,2.84701220703125,0.15584240853786469,0.3381803035736084,0.059023115783929825
1667266577377409800,2.849409912109375,0.1552315652370453,0.3241308331489563,0.05963396281003952
1667266577379807700,2.851807861328125,0.15034478902816772,0.3106921911239624,0.06329904496669769
1667266577382205400,2.854205322265625,0.14790138602256775,0.2972535490989685,0.0620773509144783
1667266577384603400,2.856603271484375,0.14790138602256775,0.2825932204723358,0.059023115783929825
1667266577387001000,2.8590009765625,0.14362546801567078,0.26854372024536133,0.05535803362727165
1667266577389399000,2.86139892578125,0.1417929232120514,0.2563267946243286,0.05047125369310379
1667266577391796700,2.863796630859375,0.13812783360481262,0.24288813769817352,0.04497363045811653
1667266577394194700,2.866194580078125,0.13507360219955444,0.22944949567317963,0.0358109213411808
1667266577396592400,2.86859228515625,0.13263021409511566,0.21601086854934692,0.027259059250354767
1667266577398990000,2.870989990234375,0.13018682599067688,0.20073968172073364,0.01626380905508995
1667266577401388000,2.873387939453125,0.1283542811870575,0.18913358449935913,0.005268557462841272
1667266577403785700,2.87578564453125,0.12468919903039932,0.17447324097156525,-0.005726693198084831
1667266577406183700,2.87818359375,0.12163496017456055,0.154926136136055,-0.017332790419459343
1667266577408581400,2.880581298828125,0.11735902726650238,0.13721156120300293,-0.0295497365295887
1667266577410979300,2.882979248046875,0.11552648991346359,0.12010784447193146,-0.03993413969874382
1667266577413377000,2.885376953125,0.11002886295318604,0.09689565002918243,-0.053983625024557114
1667266577415775000,2.88777490234375,0.10758547484874725,0.0755159929394722,-0.06436803191900253
1667266577418172700,2.890172607421875,0.1014770045876503,0.05291464552283287,-0.07353074103593826
1667266577420570600,2.892570556640625,0.09536852687597275,0.032756682485342026,-0.08269345015287399
1667266577422968300,2.89496826171875,0.08987089991569519,0.013209572061896324,-0.09124530851840973
1667266577425366000,2.897365966796875,0.08070819079875946,0.00038177953683771193,-0.0955212414264679
1667266577427764000,2.899763916015625,0.07276718318462372,-0.01122431829571724,-0.09735377877950668
1667266577430161700,2.90216162109375,0.06543701142072678,-0.014278554357588291,-0.09796462953090668
1667266577432559600,2.9045595703125,0.05566345527768135,-0.016111096367239952,-0.09368869662284851
1667266577434957300,2.906957275390625,0.045889899134635925,-0.014889402315020561,-0.08880192041397095
1667266577437355300,2.909355224609375,0.03733803704380989,-0.010613471269607544,-0.07963921129703522
1667266577439753000,2.9117529296875,0.0293970238417387,-0.004504998680204153,-0.06742226332426071
1667266577442151000,2.91415087890625,0.024510245770215988,0.0016034740256145597,-0.05276193097233772
1667266577444548600,2.916548583984375,0.02023431472480297,0.010155336000025272,-0.03504735976457596
1667266577446946600,2.918946533203125,0.017180079594254494,0.018707197159528732,-0.020997874438762665
1667266577449344300,2.92134423828125,0.017180079594254494,0.026037365198135376,-0.0014507622690871358
1667266577451742000,2.923741943359375,0.017180079594254494,0.03214583545923233,0.01626380905508995
1667266577454140000,2.926139892578125,0.020845163613557816,0.035200074315071106,0.035200074315071106
1667266577456537600,2.92853759765625,0.02817532978951931,0.03458922728896141,0.05413633957505226
1667266577458935600,2.930935546875,0.034283801913261414,0.03092414326965809,0.07001836597919464
1667266577461333200,2.933333251953125,0.045889899134635925,0.02664821222424507,0.08345700800418854
1667266577463731200,2.935731201171875,0.05566345527768135,0.021150587126612663,0.09628479927778244
1667266577466129000,2.93812890625,0.06849125027656555,0.010766183026134968,0.10972344130277634
1667266577468526800,2.94052685546875,0.07643226534128189,0.0009926267666742206,0.12010784447193146
1667266577470924500,2.942924560546875,0.08559497445821762,-0.006948387715965509,0.12988139688968658
1667266577473322500,2.945322509765625,0.09231429547071457,-0.013667707331478596,0.1402658075094223
1667266577475720200,2.94772021484375,0.09903360903263092,-0.02038702741265297,0.14759597182273865
1667266577478118000,2.950117919921875,0.1008661538362503,-0.02283041551709175,0.154926136136055
1667266577480515800,2.952515869140625,0.10269869863986969,-0.025884652510285378,0.16042375564575195
1667266577482913500,2.95491357421875,0.10514208674430847,-0.031382277607917786,0.1653105467557907
1667266577485311500,2.9573115234375,0.10392039269208908,-0.03382566571235657,0.17386239767074585
1667266577487709200,2.959709228515625,0.09964445978403091,-0.038101598620414734,0.1799708753824234
1667266577490107100,2.962107177734375,0.09231429547071457,-0.039323292672634125,0.18607935309410095
1667266577492504800,2.9645048828125,0.08192989230155945,-0.039323292672634125,0.1915769726037979
1667266577494902500,2.966902587890625,0.07154548168182373,-0.03565821051597595,0.2056264579296112
1667266577497300500,2.969300537109375,0.05810684710741043,-0.03199312463402748,0.2184542566537857
1667266577499698200,2.9716982421875,0.04405735805630684,-0.02832804247736931,0.2318928837776184
1667266577502096100,2.97409619140625,0.02817532978951931,-0.02283041551709175,0.2477749139070511
1667266577504493800,2.976493896484375,0.01046075951308012,-0.01794363744556904,0.2679328918457031
1667266577506891800,2.978891845703125,-0.0035887276753783226,-0.013667707331478596,0.2880908250808716
1667266577509289500,2.98128955078125,-0.0164165198802948,-0.0130568603053689,0.3076379597187042
1667266577511687400,2.9836875,-0.027411770075559616,-0.014889402315020561,0.3271850645542145
1667266577514085000,2.986085205078125,-0.035352785140275955,-0.01916533336043358,0.34428879618644714
1667266577516483000,2.988483154296875,-0.04085041210055351,-0.026495499536395073,0.3626142144203186
1667266577518880800,2.990880859375,-0.04634803533554077,-0.03321481868624687,0.3766636848449707
1667266577521278500,2.993278564453125,-0.04879142343997955,-0.047264307737350464,0.391934871673584
1667266577523676400,2.995676513671875,-0.05184566229581833,-0.06070294603705406,0.4017084240913391
1667266577526074000,2.99807421875,-0.0555107444524765,-0.07597412914037704,0.41087114810943604
1667266577528472000,3.00047216796875,-0.06039752438664436,-0.09185615926980972,0.415147066116333
1667266577530869800,3.002869873046875,-0.06711684167385101,-0.10651648789644241,0.4182012975215912
1667266577533267700,3.005267822265625,-0.07200361788272858,-0.1205659806728363,0.4169796109199524
1667266577535665400,3.00766552734375,-0.07872293889522552,-0.13705885410308838,0.4145362079143524
1667266577538063400,3.0100634765625,-0.08666395395994186,-0.1492757946252823,0.40720605850219727
1667266577540461000,3.0124609375,-0.09399411827325821,-0.16454698145389557,0.39865419268608093
1667266577542859000,3.01485888671875,-0.10437852889299393,-0.1730988472700119,0.387658953666687
1667266577545256700,3.017256591796875,-0.11415208131074905,-0.17920731008052826,0.3772745430469513
1667266577547654400,3.019654296875,-0.12759071588516235,-0.18042901158332825,0.3626142144203186
1667266577550052400,3.02205224609375,-0.13858596980571747,-0.17554223537445068,0.3491755723953247
1667266577552450000,3.024449951171875,-0.14958122372627258,-0.16882291436195374,0.336347758769989
1667266577554848000,3.026847900390625,-0.1617981642484665,-0.16271443665027618,0.3229091465473175
1667266577557245700,3.02924560546875,-0.16851748526096344,-0.15416257083415985,0.3100813329219818
1667266577559643600,3.0316435546875,-0.17645850777626038,-0.1480541080236435,0.29481014609336853
1667266577562041300,3.034041259765625,-0.18378867208957672,-0.14377817511558533,0.27892813086509705
