time,seconds_elapsed,z,y,x
1667266574610335700,0.082335693359375,-0.029320668429136276,0.474017471075058,0.7012526392936707
1667266574612733700,0.084733642578125,-0.03237490355968475,0.45263782143592834,0.7336275577545166
1667266574615131400,0.08713134765625,-0.03420744836330414,0.4324798583984375,0.7592831254005432
1667266574617529300,0.089529296875,-0.03298575058579445,0.4056025743484497,0.7855495810508728
1667266574619927000,0.091927001953125,-0.029320668429136276,0.3762819170951843,0.8112051486968994
1667266574622324700,0.09432470703125,-0.023212196305394173,0.34757208824157715,0.8338065147399902
1667266574624722700,0.09672265625,-0.016492875292897224,0.3176405727863312,0.8515210747718811
1667266574627120400,0.099120361328125,-0.005497625097632408,0.28404396772384644,0.864959716796875
1667266574629518300,0.101518310546875,0.007330167107284069,0.2504473626613617,0.8777875304222107
1667266574631916000,0.103916015625,0.021990500390529633,0.21440738439559937,0.8857285380363464
1667266574634314000,0.10631396484375,0.04031591862440109,0.1704263836145401,0.888171911239624
1667266574636711700,0.108711669921875,0.05925218388438225,0.13316470384597778,0.8851176500320435
1667266574639109600,0.111109619140625,0.07757759839296341,0.09895725548267365,0.8783983588218689
1667266574641507300,0.11350732421875,0.09651386737823486,0.06658235192298889,0.869235634803772
1667266574643905300,0.1159052734375,0.11606097966432571,0.04153761267662048,0.8557969927787781
1667266574646303000,0.118302978515625,0.13316470384597778,0.026877280324697495,0.8435800671577454
1667266574648700700,0.12070068359375,0.14904673397541046,0.012827792204916477,0.8295305967330933
1667266574651098600,0.1230986328125,0.16187451779842377,0.00916270911693573,0.8148702383041382
1667266574653496300,0.125496337890625,0.1704263836145401,0.010995250195264816,0.7953231334686279
1667266574655894300,0.127894287109375,0.17775654792785645,0.00916270911693573,0.7757760286331177
1667266574658292000,0.1302919921875,0.18019993603229523,0.010995250195264816,0.7568397521972656
1667266574660690000,0.13268994140625,0.18081079423427582,0.014049487188458443,0.7330167293548584
1667266574663087600,0.135087646484375,0.182643324136734,0.012827792204916477,0.7091936469078064
1667266574665485600,0.137485595703125,0.18081079423427582,0.010995250195264816,0.6872031688690186
1667266574667883300,0.13988330078125,0.17958909273147583,0.006719320081174374,0.6639909744262695
1667266574670281200,0.14228125,0.17531315982341766,0.0030542362947016954,0.6371136903762817
1667266574672679000,0.144678955078125,0.16676130890846252,0.0012216945178806782,0.6108472347259521
1667266574675076600,0.14707666015625,0.1569877415895462,0.0012216945178806782,0.5803049206733704
1667266574677474600,0.149474609375,0.14843589067459106,0.0024433890357613564,0.5497625470161438
1667266574679872300,0.151872314453125,0.13682979345321655,0.0018325417768210173,0.5161659121513367
1667266574682270200,0.154270263671875,0.12705622613430023,0.006719320081174374,0.4819584786891937
1667266574684668000,0.15666796875,0.11361759155988693,0.012216945178806782,0.4453076422214508
1667266574687065900,0.15906591796875,0.10262233763933182,0.016492875292897224,0.41048935055732727
1667266574689463600,0.161463623046875,0.0922379344701767,0.018936265259981155,0.37383851408958435
1667266574691861500,0.163861572265625,0.08185353130102158,0.024433890357613564,0.33474430441856384
1667266574694259200,0.16625927734375,0.07146912813186646,0.03542914241552353,0.29442837834358215
1667266574696657200,0.1686572265625,0.06291726976633072,0.047646086663007736,0.25594499707221985
1667266574699054800,0.171054931640625,0.053143709897994995,0.061084724962711334,0.21379654109477997
1667266574701452500,0.17345263671875,0.045202698558568954,0.07330167293548584,0.17225892841815948
1667266574703850500,0.1758505859375,0.0390942245721817,0.08918370306491852,0.13316470384597778
1667266574706248200,0.178248291015625,0.03420744836330414,0.10262233763933182,0.09468132257461548
1667266574708646100,0.180646240234375,0.02993151545524597,0.11667182296514511,0.055587101727724075
1667266574711043800,0.1830439453125,0.028098974376916885,0.12888877093791962,0.018936265259981155
1667266574713441800,0.18544189453125,0.025655584409832954,0.13805148005485535,-0.013438640162348747
1667266574715839500,0.187839599609375,0.025655584409832954,0.14660334587097168,-0.04581354558467865
1667266574718237400,0.190237548828125,0.03176405653357506,0.14965757727622986,-0.07513421028852463
1667266574720635100,0.19263525390625,0.03787253051996231,0.15026842057704926,-0.10201149433851242
1667266574723033000,0.195033203125,0.046424392610788345,0.15026842057704926,-0.12827792763710022
1667266574725430800,0.1974306640625,0.05497625470161438,0.14660334587097168,-0.15149012207984924
1667266574727828500,0.199828369140625,0.0659715011715889,0.13621893525123596,-0.17286977171897888
1667266574730226400,0.202226318359375,0.0781884491443634,0.12705622613430023,-0.19363857805728912
1667266574732624100,0.2046240234375,0.0916270911693573,0.1185043677687645,-0.21318569779396057
1667266574735022000,0.20702197265625,0.10384403169155121,0.11178504675626755,-0.23090025782585144
1667266574737419800,0.209419677734375,0.1172826737165451,0.10323318839073181,-0.24617144465446472
1667266574739817700,0.211817626953125,0.1325538605451584,0.09468132257461548,-0.2596100866794586
1667266574742215400,0.21421533203125,0.1459924876689911,0.09345962852239609,-0.2748812735080719
1667266574744613400,0.21661328125,0.1582094430923462,0.09407047927379608,-0.2870981991291046
1667266574747011000,0.219010986328125,0.17225892841815948,0.09529217332601547,-0.2993151545524597
1667266574749409000,0.221408935546875,0.182643324136734,0.10078980028629303,-0.30786702036857605
1667266574751806700,0.223806640625,0.19058434665203094,0.10628741979598999,-0.32008397579193115
1667266574754204700,0.22620458984375,0.1979145109653473,0.11545012891292572,-0.3268032968044281
1667266574756602400,0.228602294921875,0.20341213047504425,0.12461283802986145,-0.33291175961494446
1667266574759000000,0.231,0.2089097648859024,0.13316470384597778,-0.3384093940258026
1667266574761398000,0.23339794921875,0.2107423096895218,0.13927318155765533,-0.3390202224254608
1667266574763795700,0.235795654296875,0.2101314514875412,0.1453816443681717,-0.34451785683631897
1667266574766193700,0.238193603515625,0.2095206081867218,0.14721418917179108,-0.34696123003959656
1667266574768591400,0.24059130859375,0.20707722008228302,0.14904673397541046,-0.34696123003959656
1667266574770989300,0.2429892578125,0.20035789906978607,0.14965757727622986,-0.34818294644355774
1667266574773387000,0.245386962890625,0.1954711228609085,0.14660334587097168,-0.34879377484321594
1667266574775785000,0.247784912109375,0.18630841374397278,0.14171656966209412,-0.34512871503829956
1667266574778182700,0.2501826171875,0.17775654792785645,0.14110571146011353,-0.3432961702346802
1667266574780580600,0.25258056640625,0.16798299551010132,0.13744063675403595,-0.3439069986343384
1667266574782978300,0.254978271484375,0.1569877415895462,0.13377554714679718,-0.3432961702346802
1667266574785376000,0.2573759765625,0.14660334587097168,0.12888877093791962,-0.3414636254310608
1667266574787774000,0.25977392578125,0.13682979345321655,0.12583453953266144,-0.33596599102020264
1667266574790171600,0.262171630859375,0.12583453953266144,0.12339114397764206,-0.33413344621658325
1667266574792569600,0.264569580078125,0.11483928561210632,0.11911521852016449,-0.33474430441856384
1667266574794967300,0.26696728515625,0.10323318839073181,0.1185043677687645,-0.33413344621658325
1667266574797365200,0.269365234375,0.09651386737823486,0.1178935244679451,-0.33169007301330566
1667266574799763000,0.271762939453125,0.08612946420907974,0.12216944992542267,-0.3298575282096863
1667266574802161000,0.274160888671875,0.07574506103992462,0.12766708433628082,-0.3280249834060669
1667266574804558600,0.27655859375,0.0659715011715889,0.13560809195041656,-0.3274141252040863
1667266574806956500,0.27895654296875,0.05803048983216286,0.14904673397541046,-0.32252734899520874
1667266574809354200,0.281354248046875,0.051922015845775604,0.16431790590286255,-0.32069480419158936
1667266574811752000,0.283751953125,0.04214845970273018,0.1850867122411728,-0.31825143098831177
1667266574814150000,0.28614990234375,0.037261683493852615,0.20768806338310242,-0.3115321099758148
1667266574816547600,0.288547607421875,0.03237490355968475,0.23823043704032898,-0.3042019307613373
1667266574818945500,0.290945556640625,0.02626643143594265,0.2724378705024719,-0.2919849753379822
1667266574821343200,0.29334326171875,0.023212196305394173,0.3127537965774536,-0.2773246467113495
1667266574823741000,0.295740966796875,0.021379653364419937,0.3549022674560547,-0.25594499707221985
1667266574826139000,0.298138916015625,0.020157959312200546,0.395218163728714,-0.2351761907339096
1667266574828536600,0.30053662109375,0.020157959312200546,0.4312581717967987,-0.2101314514875412
1667266574830934500,0.3029345703125,0.02076880633831024,0.46546560525894165,-0.1844758689403534
1667266574833332200,0.305332275390625,0.024433890357613564,0.4947862923145294,-0.15393351018428802
1667266574835730200,0.307730224609375,0.02748812735080719,0.5210527181625366,-0.12339114397764206
1667266574838127900,0.3101279296875,0.031153209507465363,0.5387672781944275,-0.09773556143045425
1667266574840525800,0.31252587890625,0.03665083646774292,0.5540384650230408,-0.07085828483104706
1667266574842923500,0.314923583984375,0.04581354558467865,0.5656445622444153,-0.04459185153245926
1667266574845321500,0.317321533203125,0.0525328628718853,0.5699204802513123,-0.018936265259981155
1667266574847719200,0.31971923828125,0.05864133685827255,0.5711421966552734,0.004275931045413017
1667266574850117000,0.3221171875,0.06169557198882103,0.5625903010368347,0.02076880633831024
1667266574852514800,0.324514892578125,0.06780404597520828,0.5522059202194214,0.03542914241552353
1667266574854912500,0.32691259765625,0.07207997888326645,0.5399889945983887,0.04703523963689804
1667266574857310500,0.329310546875,0.07330167293548584,0.5253286361694336,0.054365407675504684
1667266574859708200,0.331708251953125,0.07085828483104706,0.5076140761375427,0.05741964280605316
1667266574862106000,0.334106201171875,0.0659715011715889,0.49295374751091003,0.05619794875383377
1667266574864503800,0.33650390625,0.05986303091049194,0.47585001587867737,0.0525328628718853
1667266574866901800,0.33890185546875,0.053143709897994995,0.45385950803756714,0.04459185153245926
1667266574869299500,0.341299560546875,0.04459185153245926,0.43919917941093445,0.03542914241552353
1667266574871697400,0.343697509765625,0.033596597611904144,0.4214846193790436,0.022601349279284477
1667266574874095000,0.34609521484375,0.021990500390529633,0.40193748474121094,0.005497625097632408
1667266574876493000,0.3484931640625,0.010995250195264816,0.3817795515060425,-0.014660334214568138
1667266574878890800,0.350890869140625,-0.0030542362947016954,0.363454133272171,-0.034818295389413834
1667266574881288400,0.353288330078125,-0.014660334214568138,0.34635040163993835,-0.05864133685827255
1667266574883686400,0.355686279296875,-0.028098974376916885,0.3298575282096863,-0.08551861345767975
1667266574886084000,0.358083984375,-0.04031591862440109,0.3151971995830536,-0.10628741979598999
1667266574888482000,0.36048193359375,-0.055587101727724075,0.3017585575580597,-0.1301104724407196
1667266574890879700,0.362879638671875,-0.06841489672660828,0.2901524603366852,-0.15332266688346863
1667266574893277700,0.365277587890625,-0.08185353130102158,0.2767138183116913,-0.17836740612983704
1667266574895675400,0.36767529296875,-0.09284878522157669,0.2626643180847168,-0.20219044387340546
1667266574898073300,0.3700732421875,-0.1050657257437706,0.2510582208633423,-0.22540263831615448
1667266574900471000,0.372470947265625,-0.11545012891292572,0.2363978922367096,-0.2492256760597229
1667266574902869000,0.374868896484375,-0.12400199472904205,0.22662433981895447,-0.2718270421028137
1667266574905266700,0.3772666015625,-0.130721315741539,0.21807247400283813,-0.29503923654556274
1667266574907664400,0.379664306640625,-0.13621893525123596,0.2089097648859024,-0.31947311758995056
1667266574910062300,0.382062255859375,-0.1453816443681717,0.20096874237060547,-0.3432961702346802
1667266574912460000,0.3844599609375,-0.15087927877902985,0.1973036676645279,-0.3658975064754486
1667266574914858000,0.38685791015625,-0.15393351018428802,0.1960819661617279,-0.3903313875198364
1667266574917255700,0.389255615234375,-0.16004198789596558,0.19974705576896667,-0.41293275356292725
1667266574919653600,0.391653564453125,-0.16431790590286255,0.20157960057258606,-0.4343124032020569
1667266574922051300,0.39405126953125,-0.16676130890846252,0.2089097648859024,-0.4569137394428253
1667266574924449300,0.39644921875,-0.1710372269153595,0.21990501880645752,-0.47768256068229675
1667266574926847000,0.398846923828125,-0.17470231652259827,0.23334364593029022,-0.4960079789161682
1667266574929245000,0.401244873046875,-0.17592400312423706,0.2492256760597229,-0.5137225389480591
1667266574931642600,0.403642578125,-0.17470231652259827,0.27060532569885254,-0.5308262705802917
1667266574934040300,0.406040283203125,-0.17531315982341766,0.291374146938324,-0.5485408306121826
1667266574936438300,0.408438232421875,-0.17409147322177887,0.3139754831790924,-0.5619794726371765
1667266574938836000,0.4108359375,-0.17225892841815948,0.3396310806274414,-0.5754181146621704
1667266574941234000,0.41323388671875,-0.16737215220928192,0.36284327507019043,-0.5888567566871643
1667266574943631600,0.415631591796875,-0.16431790590286255,0.3823903799057007,-0.6053496599197388
1667266574946029600,0.418029541015625,-0.16004198789596558,0.4043808877468109,-0.6145123243331909
1667266574948427300,0.42042724609375,-0.1563768982887268,0.42514967918395996,-0.624285876750946
1667266574950825200,0.4228251953125,-0.15087927877902985,0.45019441843032837,-0.6303943991661072
1667266574953223000,0.425222900390625,-0.1447708010673523,0.469741553068161,-0.6303943991661072
1667266574955620900,0.427620849609375,-0.13805148005485535,0.49234288930892944,-0.6303943991661072
1667266574958018600,0.4300185546875,-0.1319430023431778,0.5100574493408203,-0.6218425035476685
1667266574960416300,0.432416259765625,-0.12766708433628082,0.5222744345664978,-0.6126797795295715
1667266574962814200,0.434814208984375,-0.12400199472904205,0.5277720093727112,-0.6016845703125
1667266574965212000,0.4372119140625,-0.11911521852016449,0.5277720093727112,-0.5858024954795837
1667266574967609900,0.43960986328125,-0.11483928561210632,0.5204418897628784,-0.5662553906440735
1667266574970007600,0.442007568359375,-0.11239589750766754,0.5076140761375427,-0.5479300022125244
1667266574972405500,0.444405517578125,-0.10934165865182877,0.48989951610565186,-0.527161180973053
1667266574974803200,0.44680322265625,-0.1056765764951706,0.469741553068161,-0.5051707029342651
1667266574977201200,0.449201171875,-0.10262233763933182,0.444085955619812,-0.48012593388557434
1667266574979598800,0.451598876953125,-0.09956810623407364,0.4159869849681854,-0.4599680006504059
1667266574981996800,0.453996826171875,-0.09590301662683487,0.3921639323234558,-0.43614494800567627
1667266574984394500,0.45639453125,-0.09468132257461548,0.3695625960826874,-0.418430358171463
1667266574986792200,0.458792236328125,-0.09284878522157669,0.34635040163993835,-0.40071579813957214
1667266574989190100,0.461190185546875,-0.09468132257461548,0.3292466700077057,-0.38483378291130066
1667266574991587800,0.463587890625,-0.09529217332601547,0.314586341381073,-0.37078428268432617
1667266574993985800,0.46598583984375,-0.09651386737823486,0.3029802441596985,-0.3573456406593323
1667266574996383500,0.468383544921875,-0.10201149433851242,0.29320669174194336,-0.34879377484321594
1667266574998781400,0.470781494140625,-0.10873081535100937,0.2858765125274658,-0.3402419090270996
1667266575001179100,0.47317919921875,-0.11300674080848694,0.27976804971694946,-0.33291175961494446
1667266575003576800,0.475576904296875,-0.1172826737165451,0.2754921019077301,-0.3280249834060669
1667266575005974800,0.477974853515625,-0.12522368133068085,0.2748812735080719,-0.3261924386024475
1667266575008372500,0.48037255859375,-0.13438639044761658,0.2742704153060913,-0.3243598937988281
1667266575010770400,0.4827705078125,-0.13560809195041656,0.2742704153060913,-0.3243598937988281
1667266575013168000,0.485168212890625,-0.14110571146011353,0.2754921019077301,-0.3249707520008087
1667266575015566000,0.487566162109375,-0.14721418917179108,0.2779355049133301,-0.3292466700077057
1667266575017963800,0.4899638671875,-0.14904673397541046,0.27915719151496887,-0.3304683566093445
1667266575020361700,0.49236181640625,-0.15271180868148804,0.2852656841278076,-0.33413344621658325
1667266575022759400,0.494759521484375,-0.15454435348510742,0.29320669174194336,-0.33474430441856384
1667266575025157400,0.497157470703125,-0.15454435348510742,0.3017585575580597,-0.3396310806274414
1667266575027555000,0.49955517578125,-0.15332266688346863,0.314586341381073,-0.3414636254310608
1667266575029952800,0.501952880859375,-0.14843589067459106,0.32313820719718933,-0.3402419090270996
1667266575032350700,0.504350830078125,-0.1447708010673523,0.3310792148113251,-0.3439069986343384
1667266575034748400,0.50674853515625,-0.13805148005485535,0.3414636254310608,-0.34573954343795776
1667266575037146400,0.509146484375,-0.1301104724407196,0.34757208824157715,-0.34451785683631897
1667266575039544000,0.5115439453125,-0.12033691257238388,0.3555130958557129,-0.3432961702346802
1667266575041942000,0.51394189453125,-0.11178504675626755,0.3658975064754486,-0.34512871503829956
1667266575044339700,0.516339599609375,-0.10017894953489304,0.3683409094810486,-0.34696123003959656
1667266575046737700,0.518737548828125,-0.08918370306491852,0.37383851408958435,-0.34940463304519653
1667266575049135400,0.52113525390625,-0.07696675509214401,0.37444937229156494,-0.3506263196468353
1667266575051533300,0.523533203125,-0.0647498071193695,0.37200596928596497,-0.3542914092540741
1667266575053931000,0.525930908203125,-0.053143709897994995,0.37322768568992615,-0.35917818546295166
1667266575056328700,0.52832861328125,-0.04153761267662048,0.3701734244823456,-0.36162158846855164
1667266575058726700,0.5307265625,-0.03420744836330414,0.367730051279068,-0.367730051279068
1667266575061124400,0.533124267578125,-0.02748812735080719,0.3689517378807068,-0.37139514088630676
1667266575063522300,0.535522216796875,-0.021990500390529633,0.3695625960826874,-0.37567105889320374
1667266575065920000,0.537919921875,-0.01954711228609085,0.3701734244823456,-0.3799470067024231
1667266575068318000,0.54031787109375,-0.01832541823387146,0.37322768568992615,-0.3811686933040619
1667266575070715600,0.542715576171875,-0.01710372418165207,0.3762819170951843,-0.3811686933040619
1667266575073113600,0.545113525390625,-0.01710372418165207,0.3775036036968231,-0.3799470067024231
1667266575075511300,0.54751123046875,-0.018936265259981155,0.37689274549484253,-0.3781144618988037
1667266575077909200,0.5499091796875,-0.023823043331503868,0.37383851408958435,-0.3762819170951843
1667266575080307000,0.552306884765625,-0.02870982140302658,0.3695625960826874,-0.37200596928596497
1667266575082704600,0.55470458984375,-0.03237490355968475,0.3640649616718292,-0.365286648273468
1667266575085102600,0.5571025390625,-0.037261683493852615,0.35917818546295166,-0.35795649886131287
1667266575087500300,0.559500244140625,-0.04153761267662048,0.3518480062484741,-0.34940463304519653
1667266575089898200,0.561898193359375,-0.045202698558568954,0.3432961702346802,-0.3408527672290802
1667266575092296000,0.5642958984375,-0.047646086663007736,0.33596599102020264,-0.3286358118057251
1667266575094694000,0.56669384765625,-0.05375456064939499,0.3243598937988281,-0.32008397579193115
1667266575097091600,0.569091552734375,-0.05619794875383377,0.314586341381073,-0.30786702036857605
1667266575099489500,0.571489501953125,-0.05741964280605316,0.3029802441596985,-0.29626092314720154
1667266575101887200,0.57388720703125,-0.06047387793660164,0.291374146938324,-0.2858765125274658
1667266575104285200,0.57628515625,-0.062306419014930725,0.2767138183116913,-0.2748812735080719
1667266575106683000,0.578682861328125,-0.06413896381855011,0.261442631483078,-0.2638860046863556
1667266575109080600,0.58108056640625,-0.0653606578707695,0.24556060135364532,-0.2516690790653229
1667266575111478500,0.583478515625,-0.06780404597520828,0.22723518311977386,-0.24128466844558716
1667266575113876200,0.585876220703125,-0.0659715011715889,0.2095206081867218,-0.23090025782585144
1667266575116274200,0.588274169921875,-0.06902574002742767,0.19119518995285034,-0.2235700935125351
1667266575118672000,0.590671875,-0.06902574002742767,0.17348061501979828,-0.21318569779396057
1667266575121069800,0.59306982421875,-0.06780404597520828,0.1557660549879074,-0.20768806338310242
1667266575123467500,0.595467529296875,-0.06841489672660828,0.13988402485847473,-0.20157960057258606
1667266575125865500,0.597865478515625,-0.06841489672660828,0.12461283802986145,-0.19913621246814728
1667266575128263200,0.60026318359375,-0.06841489672660828,0.11606097966432571,-0.1973036676645279
1667266575130661000,0.6026611328125,-0.06902574002742767,0.10689827054738998,-0.1960819661617279
1667266575133058800,0.605058837890625,-0.07085828483104706,0.09651386737823486,-0.1966928243637085
1667266575135456500,0.60745654296875,-0.07391251623630524,0.08918370306491852,-0.1985253542661667
1667266575137854500,0.6098544921875,-0.08002099394798279,0.08002099394798279,-0.1985253542661667
1667266575140252200,0.612252197265625,-0.08674030750989914,0.06719319522380829,-0.20219044387340546
1667266575142650000,0.614650146484375,-0.09407047927379608,0.06047387793660164,-0.20646637678146362
1667266575145047800,0.6170478515625,-0.10140064358711243,0.05008947476744652,-0.20768806338310242
1667266575147445800,0.61944580078125,-0.11178504675626755,0.04031591862440109,-0.2095206081867218
1667266575149843500,0.621843505859375,-0.12522368133068085,0.029320668429136276,-0.21257483959197998
1667266575152241200,0.6242412109375,-0.13682979345321655,0.01954711228609085,-0.21746163070201874
1667266575154639000,0.62663916015625,-0.15026842057704926,0.013438640162348747,-0.22051586210727692
1667266575157036800,0.629036865234375,-0.16187451779842377,0.008551862090826035,-0.2235700935125351
1667266575159434800,0.631434814453125,-0.17653486132621765,0.005497625097632408,-0.22540263831615448
1667266575161832400,0.63383251953125,-0.18814095854759216,0.0030542362947016954,-0.22906772792339325
1667266575164230400,0.63623046875,-0.20157960057258606,0.0036650835536420345,-0.22784602642059326
1667266575166628000,0.638628173828125,-0.21562908589839935,0.00916270911693573,-0.22845686972141266
1667266575169026000,0.641026123046875,-0.22601348161697388,0.017714571207761765,-0.22845686972141266
1667266575171423700,0.643423828125,-0.2357870489358902,0.02748812735080719,-0.22845686972141266
1667266575173821700,0.64582177734375,-0.24494975805282593,0.04031591862440109,-0.22540263831615448
1667266575176219400,0.648219482421875,-0.2522799074649811,0.05131116881966591,-0.2229592502117157
1667266575178617000,0.6506171875,-0.25594499707221985,0.06719319522380829,-0.2211267054080963
1667266575181015000,0.65301513671875,-0.261442631483078,0.08063183724880219,-0.21685077250003815
1667266575183412700,0.655412841796875,-0.2596100866794586,0.09590301662683487,-0.21501824259757996
1667266575185810700,0.657810791015625,-0.2583884000778198,0.11422843486070633,-0.2101314514875412
1667266575188208400,0.66020849609375,-0.25594499707221985,0.1313321590423584,-0.20646637678146362
1667266575190606300,0.6626064453125,-0.2516690790653229,0.14721418917179108,-0.20341213047504425
1667266575193004000,0.665004150390625,-0.24617144465446472,0.16553960740566254,-0.1973036676645279
1667266575195402000,0.667402099609375,-0.24067382514476776,0.18814095854759216,-0.19302773475646973
1667266575197799700,0.669799560546875,-0.23273280262947083,0.21501824259757996,-0.18753011524677277
1667266575200197600,0.67219775390625,-0.22479179501533508,0.23823043704032898,-0.17470231652259827
1667266575202595300,0.67459521484375,-0.21746163070201874,0.2626643180847168,-0.16187451779842377
1667266575204993000,0.676992919921875,-0.2101314514875412,0.28037887811660767,-0.14782503247261047
1667266575207391000,0.679390869140625,-0.20096874237060547,0.2919849753379822,-0.13316470384597778
1667266575209788700,0.68178857421875,-0.19241689145565033,0.2980934679508209,-0.11545012891292572
1667266575212186600,0.6841865234375,-0.1850867122411728,0.2987042963504791,-0.09590301662683487
1667266575214584300,0.686584228515625,-0.18019993603229523,0.2919849753379822,-0.07391251623630524
1667266575216982300,0.688982177734375,-0.17958909273147583,0.27976804971694946,-0.05375456064939499
1667266575219380000,0.6913798828125,-0.17775654792785645,0.2626643180847168,-0.031153209507465363
1667266575221778000,0.69377783203125,-0.18142163753509521,0.24067382514476776,-0.01038440316915512
1667266575224175600,0.696175537109375,-0.1832541823387146,0.2217375487089157,0.011606098152697086
1667266575226573600,0.698573486328125,-0.18753011524677277,0.1979145109653473,0.03420744836330414
1667266575228971300,0.70097119140625,-0.1954711228609085,0.17836740612983704,0.055587101727724075
1667266575231369000,0.703368896484375,-0.20463383197784424,0.1575985997915268,0.0781884491443634
1667266575233767000,0.705766845703125,-0.21501824259757996,0.13866232335567474,0.09712471067905426
1667266575236164600,0.70816455078125,-0.22784602642059326,0.1178935244679451,0.11667182296514511
1667266575238562600,0.7105625,-0.23823043704032898,0.10628741979598999,0.13560809195041656
1667266575240960300,0.712960205078125,-0.2504473626613617,0.09468132257461548,0.15149012207984924
1667266575243358200,0.715358154296875,-0.2626643180847168,0.08307522535324097,0.1692046970129013
1667266575245756000,0.717755859375,-0.27121618390083313,0.07330167293548584,0.18142163753509521
1667266575248153900,0.72015380859375,-0.2779355049133301,0.0653606578707695,0.19302773475646973
1667266575250551600,0.722551513671875,-0.28343313932418823,0.05619794875383377,0.20280128717422485
1667266575252949500,0.724949462890625,-0.2870981991291046,0.05008947476744652,0.21257483959197998
1667266575255347200,0.72734716796875,-0.2883199155330658,0.04581354558467865,0.21868331730365753
1667266575257745000,0.729744873046875,-0.2858765125274658,0.0397050715982914,0.2223484069108963
1667266575260142800,0.732142822265625,-0.2858765125274658,0.033596597611904144,0.2229592502117157
1667266575262540500,0.73454052734375,-0.28404396772384644,0.02993151545524597,0.2223484069108963
1667266575264938500,0.7369384765625,-0.2767138183116913,0.025655584409832954,0.21990501880645752
1667266575267336200,0.739336181640625,-0.26999449729919434,0.022601349279284477,0.21623992919921875
1667266575269734100,0.741734130859375,-0.265718549489975,0.015271181240677834,0.21257483959197998
1667266575272131800,0.7441318359375,-0.2583884000778198,0.00916270911693573,0.20402298867702484
1667266575274529800,0.74652978515625,-0.25472331047058105,0.0018325417768210173,0.1960819661617279
1667266575276927500,0.748927490234375,-0.2498365342617035,-0.007941014133393764,0.18569757044315338
1667266575279325400,0.751325439453125,-0.24556060135364532,-0.021379653364419937,0.17775654792785645
1667266575281723100,0.75372314453125,-0.24067382514476776,-0.02993151545524597,0.16676130890846252
1667266575284120800,0.756120849609375,-0.2363978922367096,-0.037261683493852615,0.1575985997915268
1667266575286518800,0.758518798828125,-0.23334364593029022,-0.047646086663007736,0.14843589067459106
1667266575288916500,0.76091650390625,-0.22906772792339325,-0.05803048983216286,0.13744063675403595
1667266575291314400,0.763314453125,-0.2211267054080963,-0.0659715011715889,0.12522368133068085
1667266575293712100,0.765712158203125,-0.21379654109477997,-0.07207997888326645,0.11361759155988693
1667266575296110000,0.768110107421875,-0.20463383197784424,-0.08185353130102158,0.09712471067905426
1667266575298507800,0.7705078125,-0.1973036676645279,-0.08735115826129913,0.08124268800020218
1667266575300905700,0.77290576171875,-0.18814095854759216,-0.08796200156211853,0.06658235192298889
1667266575303303400,0.775303466796875,-0.17531315982341766,-0.08796200156211853,0.05008947476744652
1667266575305701400,0.777701416015625,-0.16737215220928192,-0.08063183724880219,0.034818295389413834
1667266575308099000,0.78009912109375,-0.1582094430923462,-0.07330167293548584,0.018936265259981155
1667266575310496800,0.782496826171875,-0.15210096538066864,-0.0659715011715889,0.007330167107284069
1667266575312894700,0.784894775390625,-0.1441599577665329,-0.05008947476744652,-0.0024433890357613564
1667266575315292400,0.78729248046875,-0.13499724864959717,-0.03237490355968475,-0.009773556143045425
1667266575317690400,0.7896904296875,-0.12461283802986145,-0.014049487188458443,-0.014049487188458443
1667266575320088000,0.792088134765625,-0.11545012891292572,0.004886778071522713,-0.01710372418165207
1667266575322486000,0.794486083984375,-0.10201149433851242,0.022601349279284477,-0.012216945178806782
1667266575324883700,0.7968837890625,-0.08674030750989914,0.037261683493852615,-0.006719320081174374
1667266575327281700,0.79928173828125,-0.07024743407964706,0.051922015845775604,0.004275931045413017
1667266575329679400,0.801679443359375,-0.04886778071522713,0.06352811306715012,0.02076880633831024
1667266575332077300,0.804077392578125,-0.028098974376916885,0.07696675509214401,0.043981000781059265
1667266575334475000,0.80647509765625,-0.0036650835536420345,0.08735115826129913,0.07513421028852463
1667266575336872700,0.808872802734375,0.021990500390529633,0.0916270911693573,0.11361759155988693
1667266575339270700,0.811270751953125,0.047646086663007736,0.0922379344701767,0.1569877415895462
1667266575341668400,0.81366845703125,0.07574506103992462,0.08429691940546036,0.2113531529903412
1667266575344066300,0.81606640625,0.1056765764951706,0.0659715011715889,0.27121618390083313
1667266575346464000,0.818464111328125,0.13316470384597778,0.04459185153245926,0.33474430441856384
1667266575348862000,0.820862060546875,0.1588202863931656,0.014660334214568138,0.4056025743484497
1667266575351259600,0.823259765625,0.18691925704479218,-0.01710372418165207,0.47646087408065796
1667266575353657600,0.82565771484375,0.21746163070201874,-0.054365407675504684,0.550373375415802
1667266575356055300,0.82805517578125,0.24556060135364532,-0.09284878522157669,0.624285876750946
1667266575358453200,0.830453369140625,0.2742704153060913,-0.13621893525123596,0.7006418108940125
1667266575360851000,0.832850830078125,0.3054236173629761,-0.17897824943065643,0.7751652002334595
1667266575363248600,0.83524853515625,0.33413344621658325,-0.22479179501533508,0.8502993583679199
1667266575365646600,0.837646484375,0.36284327507019043,-0.27060532569885254,0.9229902029037476
1667266575368044300,0.840044189453125,0.3927747905254364,-0.3158080279827118,0.9914051294326782
1667266575370442200,0.842442138671875,0.4202629029750824,-0.35856732726097107,1.0537115335464478
1667266575372840000,0.84483984375,0.444085955619812,-0.41110020875930786,1.1160179376602173
1667266575375238000,0.84723779296875,0.46729815006256104,-0.4703523814678192,1.174659252166748
1667266575377635600,0.849635498046875,0.4868452548980713,-0.5381564497947693,1.2302464246749878
1667266575380033500,0.852033447265625,0.5045598149299622,-0.6090146899223328,1.2797249555587769
1667266575382431200,0.85443115234375,0.5210527181625366,-0.6810947060585022,1.3267602920532227
1667266575384829200,0.8568291015625,0.5369347333908081,-0.7470661997795105,1.3677634000778198
1667266575387227000,0.859226806640625,0.5522059202194214,-0.8105943202972412,1.404414176940918
1667266575389624600,0.86162451171875,0.5699204802513123,-0.864959716796875,1.437399983406067
1667266575392022500,0.8640224609375,0.5894675850868225,-0.9126058220863342,1.4722182750701904
1667266575394420200,0.866420166015625,0.6114581227302551,-0.9529217481613159,1.5052039623260498
1667266575396818200,0.868818115234375,0.6352811455726624,-0.9846857786178589,1.5363571643829346
1667266575399215900,0.8712158203125,0.6621584296226501,-1.018282413482666,1.571175456047058
1667266575401613800,0.87361376953125,0.6933116316795349,-1.0512681007385254,1.6072155237197876
1667266575404011500,0.876011474609375,0.7244648337364197,-1.086086392402649,1.6432554721832275
1667266575406409500,0.878409423828125,0.758672297000885,-1.1233481168746948,1.6811280250549316
1667266575408807200,0.88080712890625,0.7959339618682861,-1.170383334159851,1.7177788019180298
1667266575411205000,0.883205078125,0.8344173431396484,-1.2186403274536133,1.7550405263900757
1667266575413602800,0.885602783203125,0.8747332692146301,-1.2723948955535889,1.7898588180541992
1667266575416000500,0.88800048828125,0.91566002368927,-1.3267602920532227,1.8216228485107422
1667266575418398500,0.8903984375,0.9541434049606323,-1.3793694972991943,1.8472784757614136
1667266575420796200,0.892796142578125,0.9920159578323364,-1.4221287965774536,1.8692690134048462
1667266575423194000,0.895194091796875,1.0262234210968018,-1.4636664390563965,1.886372685432434
1667266575425591800,0.897591796875,1.0561549663543701,-1.4997063875198364,1.8985896110534668
1667266575427989800,0.89998974609375,1.0811996459960938,-1.5278053283691406,1.9053089618682861
1667266575430387500,0.902387451171875,1.100746750831604,-1.5559042692184448,1.9065306186676025
1667266575432785400,0.904785400390625,1.1166287660598755,-1.5785056352615356,1.9071414470672607
1667266575435183000,0.90718310546875,1.1245697736740112,-1.6004961729049683,1.904698133468628
1667266575437581000,0.9095810546875,1.123958945274353,-1.618821620941162,1.8979787826538086
1667266575439978800,0.911978759765625,1.1202938556671143,-1.6383687257766724,1.8912594318389893
1667266575442376400,0.91437646484375,1.111131191253662,-1.660359263420105,1.8808751106262207
1667266575444774400,0.9167744140625,1.0983033180236816,-1.6799063682556152,1.8711014986038208
1667266575447172000,0.919172119140625,1.0824213027954102,-1.7037293910980225,1.8564411401748657
1667266575449570000,0.921570068359375,1.063485026359558,-1.7293848991394043,1.8393374681472778
1667266575451967700,0.9239677734375,1.0421054363250732,-1.760538101196289,1.8173469305038452
1667266575454365700,0.92636572265625,1.018282413482666,-1.7904696464538574,1.7910804748535156
1667266575456763400,0.928763427734375,0.9920159578323364,-1.8191795349121094,1.7623707056045532
1667266575459161300,0.931161376953125,0.9645278453826904,-1.853997826576233,1.729995846748352
1667266575461559000,0.93355908203125,0.9339854717254639,-1.886372685432434,1.6933449506759644
1667266575463957000,0.93595703125,0.9028322696685791,-1.919358491897583,1.6560832262039185
1667266575466354700,0.938354736328125,0.8680139780044556,-1.9566200971603394,1.6133239269256592
1667266575468752600,0.940752685546875,0.8283088803291321,-1.9981577396392822,1.5687321424484253
1667266575471150300,0.943150390625,0.7898254990577698,-2.0396952629089355,1.5241402387619019
1667266575473548000,0.945548095703125,0.7476770281791687,-2.081233024597168,1.4758833646774292
1667266575475946000,0.947946044921875,0.70308518409729,-2.1227705478668213,1.4294589757919312
1667266575478343700,0.95034375,0.6548282504081726,-2.159421443939209,1.381201982498169
1667266575480741600,0.95274169921875,0.6053496599197388,-2.1875205039978027,1.332257866859436
1667266575483139300,0.955139404296875,0.5534276366233826,-2.2064566612243652,1.2876659631729126
1667266575485537300,0.957537353515625,0.5002838969230652,-2.2186737060546875,1.243685007095337
1667266575487935000,0.95993505859375,0.4446968138217926,-2.2211170196533203,1.2039799690246582
1667266575490333000,0.9623330078125,0.3903313875198364,-2.21134352684021,1.1697725057601929
1667266575492730600,0.964730712890625,0.33474430441856384,-2.1930179595947266,1.1355650424957275
1667266575495128600,0.967128662109375,0.28037887811660767,-2.167973279953003,1.1086877584457397
1667266575497526300,0.9695263671875,0.22540263831615448,-2.1374309062957764,1.0885298252105713
1667266575499924000,0.971924072265625,0.1716480851173401,-2.1032235622406006,1.073258638381958
1667266575502322000,0.974322021484375,0.11972606182098389,-2.0647401809692383,1.063485026359558
1667266575504719600,0.9767197265625,0.06719319522380829,-2.0256459712982178,1.0616525411605835
1667266575507117600,0.97911767578125,0.014660334214568138,-1.9804431200027466,1.0640959739685059
1667266575509515300,0.981515380859375,-0.031153209507465363,-1.932186245918274,1.0763128995895386
1667266575511913200,0.983913330078125,-0.0781884491443634,-1.8790425062179565,1.0915840864181519
1667266575514311000,0.986310791015625,-0.11972606182098389,-1.8118493556976318,1.1166287660598755
1667266575516708900,0.988708984375,-0.15943112969398499,-1.7416019439697266,1.1477819681167603
1667266575519106600,0.9911064453125,-0.1973036676645279,-1.664635181427002,1.184432864189148
1667266575521504500,0.99350439453125,-0.2345653474330902,-1.5772839784622192,1.2247487306594849
1667266575523902200,0.995902099609375,-0.26816195249557495,-1.483824372291565,1.2717839479446411
1667266575526300000,0.9982998046875,-0.3011476993560791,-1.385477900505066,1.327981948852539
1667266575528697900,1.00069775390625,-0.33596599102020264,-1.2882769107818604,1.3836454153060913
1667266575531095600,1.003095458984375,-0.3671191930770874,-1.1972606182098389,1.446562647819519
1667266575533493500,1.005493408203125,-0.39827242493629456,-1.1099094152450562,1.515588402748108
1667266575535891200,1.00789111328125,-0.4306473135948181,-1.032942771911621,1.5882792472839355
1667266575538289200,1.0102890625,-0.46302223205566406,-0.9633061289787292,1.663413405418396
1667266575540686800,1.012686767578125,-0.4978405237197876,-0.9016105532646179,1.7403801679611206
1667266575543084800,1.015084716796875,-0.5381564497947693,-0.8515210747718811,1.8173469305038452
1667266575545482500,1.017482421875,-0.578472375869751,-0.8057075142860413,1.8930920362472534
1667266575547880400,1.01988037109375,-0.6218425035476685,-0.767224133014679,1.9682261943817139
1667266575550278100,1.022278076171875,-0.6713211536407471,-0.7348492741584778,2.0415279865264893
1667266575552675800,1.02467578125,-0.7226322889328003,-0.7049177289009094,2.1111645698547363
1667266575555073800,1.02707373046875,-0.7776085734367371,-0.679872989654541,2.177135944366455
1667266575557471500,1.029471435546875,-0.8350282311439514,-0.6584933400154114,2.2443292140960693
1667266575559869400,1.031869384765625,-0.9009997248649597,-0.6377245187759399,2.306635618209839
1667266575562267100,1.03426708984375,-0.9694145917892456,-0.6200099587440491,2.359168529510498
1667266575564665000,1.0366650390625,-1.0427162647247314,-0.6096255779266357,2.4098687171936035
1667266575567062800,1.039062744140625,-1.1209046840667725,-0.610236406326294,2.4569039344787598
1667266575569460700,1.041460693359375,-1.2039799690246582,-0.6230642199516296,2.503328323364258
1667266575571858400,1.0438583984375,-1.2894985675811768,-0.6462764143943787,2.544255256652832
1667266575574256400,1.04625634765625,-1.3787586688995361,-0.6768187880516052,2.584571123123169
1667266575576654000,1.048654052734375,-1.4703856706619263,-0.7110261917114258,2.6181676387786865
1667266575579051800,1.0510517578125,-1.5607911348342896,-0.7519529461860657,2.651153564453125
1667266575581449700,1.05344970703125,-1.6475313901901245,-0.791047215461731,2.6792523860931396
1667266575583847400,1.055847412109375,-1.7318283319473267,-0.8301414251327515,2.7049081325531006
1667266575586245400,1.058245361328125,-1.8149036169052124,-0.8680139780044556,2.7214009761810303
1667266575588643000,1.06064306640625,-1.8875943422317505,-0.9071081876754761,2.7336177825927734
1667266575591041000,1.063041015625,-1.9541767835617065,-0.948034942150116,2.7397263050079346
1667266575593438700,1.065438720703125,-2.011596441268921,-0.9883508682250977,2.73483943939209
1667266575595836700,1.067836669921875,-2.0598533153533936,-1.02683424949646,2.7214009761810303
1667266575598234400,1.070234375,-2.098336696624756,-1.0665392875671387,2.6994104385375977
1667266575600632300,1.07263232421875,-2.124603033065796,-1.1001359224319458,2.665813684463501
1667266575603030000,1.075030029296875,-2.1429286003112793,-1.1270132064819336,2.6230545043945312
1667266575605427700,1.077427734375,-2.1490371227264404,-1.151447057723999,2.572964906692505
1667266575607825700,1.07982568359375,-2.1441502571105957,-1.1734375953674316,2.517988681793213
1667266575610223400,1.082223388671875,-2.1319332122802734,-1.1880979537963867,2.4538497924804688
1667266575612621300,1.084621337890625,-2.1117753982543945,-1.2003148794174194,2.38482403755188
1667266575615019000,1.08701904296875,-2.084287166595459,-1.2052016258239746,2.3090789318084717
1667266575617417000,1.0894169921875,-2.051912307739258,-1.2045907974243164,2.231501340866089
1667266575619814700,1.091814697265625,-2.0170938968658447,-1.199093222618103,2.1514804363250732
1667266575622212600,1.094212646484375,-1.974334716796875,-1.1874871253967285,2.0708484649658203
1667266575624610300,1.0966103515625,-1.9309645891189575,-1.1728267669677734,1.991438388824463
1667266575627008300,1.09900830078125,-1.8875943422317505,-1.1520578861236572,1.9101957082748413
1667266575629406000,1.101406005859375,-1.8423917293548584,-1.12823486328125,1.8301746845245361
1667266575631803600,1.1038037109375,-1.7959673404693604,-1.0976924896240234,1.7507646083831787
1667266575634201600,1.10620166015625,-1.7489320039749146,-1.0610417127609253,1.6725761890411377
1667266575636599300,1.108599365234375,-1.7025076150894165,-1.0176715850830078,1.598052740097046
1667266575638997200,1.110997314453125,-1.650585651397705,-0.9681929349899292,1.5229185819625854
1667266575641395000,1.11339501953125,-1.5986636877059937,-0.9040539264678955,1.4483952522277832
1667266575643793000,1.11579296875,-1.547963261604309,-0.832584798336029,1.3775368928909302
1667266575646190600,1.118190673828125,-1.492987036705017,-0.7550072073936462,1.3084348440170288
1667266575648588500,1.120588623046875,-1.4367891550064087,-0.6639909744262695,1.2491827011108398
1667266575650986200,1.122986328125,-1.3818128108978271,-0.569309651851654,1.1923738718032837
1667266575653384200,1.12538427734375,-1.3267602920532227,-0.4691306948661804,1.1410627365112305
1667266575655782000,1.127781982421875,-1.2699514627456665,-0.35978904366493225,1.0940274000167847
1667266575658179800,1.130179931640625,-1.2082558870315552,-0.22967857122421265,1.040272831916809
1667266575660577500,1.13257763671875,-1.1441168785095215,-0.09040539711713791,0.9816315174102783
1667266575662975500,1.1349755859375,-1.0799779891967773,0.047646086663007736,0.9248227477073669
1667266575665373200,1.137373291015625,-1.0195040702819824,0.17470231652259827,0.8674030900001526
1667266575667771000,1.13977099609375,-0.9590302109718323,0.29320669174194336,0.81425940990448
1667266575670168800,1.1421689453125,-0.9052756428718567,0.4037700295448303,0.758672297000885
1667266575672566500,1.14456640625,-0.8496885299682617,0.5057815313339233,0.7043069005012512
1667266575674964500,1.146964599609375,-0.8002098798751831,0.577861487865448,0.6572716236114502
1667266575677362200,1.149362060546875,-0.7574505805969238,0.6297835111618042,0.6035171151161194
1667266575679760100,1.151760009765625,-0.7159129977226257,0.6529957056045532,0.5577035546302795
1667266575682157800,1.15415771484375,-0.675597071647644,0.652384877204895,0.5143333673477173
1667266575684555800,1.1565556640625,-0.6407787799835205,0.629172682762146,0.47707170248031616
1667266575686953500,1.158953369140625,-0.6053496599197388,0.5760289430618286,0.43919917941093445
1667266575689351400,1.161351318359375,-0.5723638534545898,0.4990622103214264,0.4074351191520691
1667266575691749000,1.1637490234375,-0.5363239049911499,0.4031592011451721,0.3781144618988037
1667266575694146800,1.166146728515625,-0.5033381581306458,0.2883199155330658,0.34818294644355774
1667266575696544800,1.168544677734375,-0.46729815006256104,0.16248537600040436,0.32252734899520874
1667266575698942500,1.1709423828125,-0.42637139558792114,0.02993151545524597,0.29565006494522095
1667266575701340400,1.17334033203125,-0.38666632771492004,-0.1044548824429512,0.27060532569885254
1667266575703738000,1.175738037109375,-0.34512871503829956,-0.2345653474330902,0.24617144465446472
1667266575706136000,1.178135986328125,-0.30481278896331787,-0.367730051279068,0.2223484069108963
1667266575708533800,1.18053369140625,-0.265718549489975,-0.499673068523407,0.20280128717422485
1667266575710931700,1.182931640625,-0.22784602642059326,-0.6224533319473267,0.18875180184841156
1667266575713329400,1.185329345703125,-0.19302773475646973,-0.7409577369689941,0.17225892841815948
1667266575715727400,1.187727294921875,-0.16370706260204315,-0.8484668135643005,0.16187451779842377
1667266575718125000,1.190125,-0.13866232335567474,-0.9425373077392578,0.15210096538066864
1667266575720522800,1.192522705078125,-0.12094775587320328,-1.0341644287109375,0.14660334587097168
1667266575722920700,1.194920654296875,-0.11483928561210632,-1.123958945274353,0.1441599577665329
1667266575725318400,1.197318359375,-0.1172826737165451,-1.2106993198394775,0.1441599577665329
1667266575727716400,1.19971630859375,-0.1319430023431778,-1.2913310527801514,0.14965757727622986
1667266575730114000,1.202114013671875,-0.15515519678592682,-1.3702067136764526,0.15515519678592682
1667266575732512000,1.204511962890625,-0.19180603325366974,-1.4410650730133057,0.16126367449760437
1667266575734909700,1.20690966796875,-0.237008735537529,-1.5052039623260498,0.17409147322177887
1667266575737307600,1.2093076171875,-0.2901524603366852,-1.5650670528411865,0.19302773475646973
1667266575739705300,1.211705322265625,-0.3512371778488159,-1.616989016532898,0.21318569779396057
1667266575742103300,1.214103271484375,-0.4159869849681854,-1.6670784950256348,0.23945212364196777
1667266575744501000,1.2165009765625,-0.4862344264984131,-1.7031185626983643,0.26877278089523315
1667266575746898700,1.218898681640625,-0.5613686442375183,-1.723887324333191,0.30481278896331787
1667266575749296600,1.221296630859375,-0.6401679515838623,-1.7263307571411133,0.3439069986343384
1667266575751694300,1.2236943359375,-0.7226322889328003,-1.7110595703125,0.38727715611457825
1667266575754092300,1.22609228515625,-0.8057075142860413,-1.6847931146621704,0.4367557764053345
1667266575756490000,1.228489990234375,-0.8900044560432434,-1.6487531661987305,0.48989951610565186
1667266575758888000,1.230887939453125,-0.971247136592865,-1.604161262512207,0.546097457408905
1667266575761285600,1.23328564453125,-1.0518789291381836,-1.557736873626709,0.6041279435157776
1667266575763683600,1.23568359375,-1.129456639289856,-1.5107016563415527,0.6682668924331665
1667266575766081300,1.238081298828125,-1.2009257078170776,-1.469774842262268,0.7317950129508972
1667266575768479200,1.240479248046875,-1.2650647163391113,-1.4349565505981445,0.7971556782722473
1667266575770877000,1.242876953125,-1.3194301128387451,-1.4080792665481567,0.8619054555892944
1667266575773274600,1.245274658203125,-1.362876534461975,-1.3848670721054077,0.9260444641113281
1667266575775672600,1.247672607421875,-1.3970839977264404,-1.368374228477478,0.9895725846290588
1667266575778070300,1.2500703125,-1.4209071397781372,-1.349437952041626,1.0506572723388672
1667266575780468200,1.25246826171875,-1.4343457221984863,-1.3402752876281738,1.109298586845398
1667266575782866000,1.254865966796875,-1.436178207397461,-1.3298144340515137,1.1648857593536377
1667266575785263900,1.257263916015625,-1.4306806325912476,-1.3224843740463257,1.2168077230453491
1667266575787661600,1.25966162109375,-1.4184637069702148,-1.3163758516311646,1.2681188583374023
1667266575790059500,1.2620595703125,-1.3989166021347046,-1.3102673292160034,1.3139324188232422
1667266575792457200,1.264457275390625,-1.3738718032836914,-1.3017154932022095,1.3586006164550781
1667266575794855200,1.266855224609375,-1.3433294296264648,-1.2925528287887573,1.3989166021347046
1667266575797252900,1.2692529296875,-1.3108782768249512,-1.2791141271591187,1.4386216402053833
1667266575799650800,1.27165087890625,-1.2809467315673828,-1.2644537687301636,1.4777158498764038
1667266575802048500,1.274048583984375,-1.2479609251022339,-1.2449066638946533,1.5143667459487915
1667266575804446500,1.276446533203125,-1.2198619842529297,-1.2229162454605103,1.547963261604309
1667266575806844200,1.27884423828125,-1.1942063570022583,-1.1935955286026,1.5858358144760132
1667266575809242000,1.2812421875,-1.1734375953674316,-1.1587772369384766,1.6200432777404785
1667266575811639800,1.283639892578125,-1.155722975730896,-1.123958945274353,1.654861569404602
1667266575814037500,1.28603759765625,-1.1416735649108887,-1.0866972208023071,1.6902906894683838
1667266575816435500,1.288435546875,-1.1361758708953857,-1.0469921827316284,1.7257198095321655
1667266575818833200,1.290833251953125,-1.1312891244888306,-1.0030112266540527,1.7599272727966309
1667266575821231000,1.293231201171875,-1.1288456916809082,-0.9602518677711487,1.7910804748535156
1667266575823628800,1.29562890625,-1.1276240348815918,-0.9211576581001282,1.8204011917114258
1667266575826026800,1.29802685546875,-1.1257915496826172,-0.8826742768287659,1.8417809009552002
1667266575828424400,1.300424560546875,-1.1233481168746948,-0.8533536195755005,1.8594954013824463
1667266575830822400,1.302822509765625,-1.1190721988677979,-0.8307522535324097,1.8711014986038208
1667266575833220000,1.30522021484375,-1.1099094152450562,-0.8154810667037964,1.8765991926193237
1667266575835618000,1.3076181640625,-1.100746750831604,-0.8050966858863831,1.8833184242248535
1667266575838015700,1.310015625,-1.090362310409546,-0.7947123050689697,1.8839292526245117
1667266575840413400,1.312413330078125,-1.081810474395752,-0.7837170362472534,1.8827075958251953
1667266575842811400,1.314811279296875,-1.068982720375061,-0.7611156702041626,1.8790425062179565
1667266575845209000,1.317208984375,-1.058598279953003,-0.7342383861541748,1.8723231554031372
1667266575847607000,1.31960693359375,-1.0476030111312866,-0.7012526392936707,1.8607170581817627
1667266575850004700,1.322004638671875,-1.0335536003112793,-0.6529957056045532,1.8472784757614136
1667266575852402700,1.324402587890625,-1.0188932418823242,-0.5992411375045776,1.8307856321334839
1667266575854800400,1.32680029296875,-1.0005677938461304,-0.5387672781944275,1.8112385272979736
1667266575857198300,1.3291982421875,-0.9828532338142395,-0.47707170248031616,1.789247989654541
1667266575859596000,1.331595947265625,-0.9633061289787292,-0.41232189536094666,1.7623707056045532
1667266575861994000,1.333993896484375,-0.9407047629356384,-0.34635040163993835,1.7336609363555908
1667266575864391700,1.3363916015625,-0.9187142848968506,-0.2742704153060913,1.7012859582901
1667266575866789400,1.338789306640625,-0.8985562920570374,-0.19913621246814728,1.667689323425293
1667266575869187300,1.341187255859375,-0.8771766424179077,-0.12522368133068085,1.63592529296875
1667266575871585000,1.3435849609375,-0.8637380003929138,-0.05925218388438225,1.5968310832977295
1667266575873983000,1.34598291015625,-0.8521319031715393,0.0012216945178806782,1.5540717840194702
1667266575876380700,1.348380615234375,-0.8454126119613647,0.053143709897994995,1.5125341415405273
1667266575878778600,1.350778564453125,-0.8405258059501648,0.1056765764951706,1.4691640138626099
1667266575881176300,1.35317626953125,-0.837471604347229,0.16126367449760437,1.4264047145843506
1667266575883574300,1.35557421875,-0.8386932611465454,0.22051586210727692,1.3793694972991943
1667266575885972000,1.357971923828125,-0.8435800671577454,0.2773246467113495,1.334777593612671
1667266575888370000,1.360369873046875,-0.8496885299682617,0.3304683566093445,1.2870551347732544
1667266575890767600,1.362767578125,-0.8521319031715393,0.37200596928596497,1.243685007095337
1667266575893165300,1.365165283203125,-0.8539644479751587,0.39827242493629456,1.2003148794174194
1667266575895563300,1.367563232421875,-0.856407880783081,0.4220954477787018,1.1587772369384766
1667266575897961000,1.3699609375,-0.8600729703903198,0.444085955619812,1.1178505420684814
1667266575900359000,1.37235888671875,-0.8625163435935974,0.46363306045532227,1.0787562131881714
1667266575902756600,1.374756591796875,-0.8661814332008362,0.47585001587867737,1.0439379215240479
1667266575905154600,1.377154541015625,-0.8680139780044556,0.4727957844734192,1.0085088014602661
1667266575907552300,1.37955224609375,-0.869235634803772,0.4556920528411865,0.9767447710037231
1667266575909950200,1.3819501953125,-0.8643488883972168,0.42881476879119873,0.9468132257461548
1667266575912348000,1.384347900390625,-0.8600729703903198,0.3903313875198364,0.9217684864997864
1667266575914745900,1.386745849609375,-0.8539644479751587,0.34879377484321594,0.8997780084609985
1667266575917143600,1.3891435546875,-0.8448017835617065,0.30603447556495667,0.8777875304222107
1667266575919541500,1.39154150390625,-0.833195686340332,0.2632751762866974,0.8588512539863586
1667266575921939200,1.393939208984375,-0.818535327911377,0.21440738439559937,0.8399149775505066
1667266575924337000,1.3963369140625,-0.8008207678794861,0.16187451779842377,0.8209787011146545
1667266575926734800,1.39873486328125,-0.7831062078475952,0.10078980028629303,0.8032641410827637
1667266575929132500,1.401132568359375,-0.7611156702041626,0.03420744836330414,0.7831062078475952
1667266575931530500,1.403530517578125,-0.7372926473617554,-0.026877280324697495,0.7598940134048462
1667266575933928200,1.40592822265625,-0.7128587365150452,-0.08490777015686035,0.7360709309577942
1667266575936326100,1.408326171875,-0.684759795665741,-0.13988402485847473,0.70797199010849
1667266575938723800,1.410723876953125,-0.6548282504081726,-0.18630841374397278,0.6774296164512634
1667266575941121800,1.413121826171875,-0.6230642199516296,-0.22906772792339325,0.6450546979904175
1667266575943519500,1.41551953125,-0.5888567566871643,-0.26694026589393616,0.6065713167190552
1667266575945917400,1.41791748046875,-0.5558710098266602,-0.3035911023616791,0.5668662786483765
1667266575948315100,1.420315185546875,-0.5222744345664978,-0.3310792148113251,0.5241069197654724
1667266575950713000,1.422713134765625,-0.48928865790367126,-0.3506263196468353,0.47951510548591614
1667266575953110800,1.42511083984375,-0.4587462842464447,-0.3671191930770874,0.4337015450000763
1667266575955508500,1.427508544921875,-0.42881476879119873,-0.3762819170951843,0.38727715611457825
1667266575957906400,1.429906494140625,-0.40010493993759155,-0.3762819170951843,0.3414636254310608
1667266575960304000,1.43230419921875,-0.3781144618988037,-0.37322768568992615,0.29626092314720154
1667266575962702000,1.4347021484375,-0.3561239540576935,-0.37139514088630676,0.2486148327589035
1667266575965099800,1.437099853515625,-0.33535513281822205,-0.3665083646774292,0.20585553348064423
1667266575967497700,1.439497802734375,-0.32191649079322815,-0.36101073026657104,0.15943112969398499
1667266575969895400,1.4418955078125,-0.30847787857055664,-0.35856732726097107,0.1172826737165451
1667266575972293400,1.44429345703125,-0.2999260127544403,-0.3561239540576935,0.07513421028852463
1667266575974691000,1.446691162109375,-0.2895416021347046,-0.3536805510520935,0.037261683493852615
1667266575977089000,1.449089111328125,-0.28098973631858826,-0.3500154912471771,0.0030542362947016954
1667266575979486700,1.45148681640625,-0.2773246467113495,-0.34879377484321594,-0.029320668429136276
1667266575981884400,1.453884521484375,-0.2730487287044525,-0.3396310806274414,-0.05864133685827255
1667266575984282400,1.456282470703125,-0.27121618390083313,-0.3243598937988281,-0.08185353130102158
1667266575986680000,1.45868017578125,-0.2724378705024719,-0.3023693859577179,-0.10201149433851242
1667266575989078000,1.461078125,-0.2767138183116913,-0.28282228112220764,-0.11911521852016449
1667266575991475700,1.463475830078125,-0.28221142292022705,-0.258999228477478,-0.1313321590423584
1667266575993873700,1.465873779296875,-0.288930743932724,-0.23945212364196777,-0.13866232335567474
1667266575996271400,1.468271240234375,-0.29687178134918213,-0.2241809368133545,-0.1447708010673523
1667266575998669300,1.47066943359375,-0.3054236173629761,-0.21318569779396057,-0.14782503247261047
1667266576001067000,1.47306689453125,-0.3164188861846924,-0.19974705576896667,-0.1453816443681717
1667266576003465000,1.47546484375,-0.3268032968044281,-0.18753011524677277,-0.14049486815929413
1667266576005862700,1.477862548828125,-0.3365768492221832,-0.1704263836145401,-0.1325538605451584
1667266576008260600,1.480260498046875,-0.34512871503829956,-0.14782503247261047,-0.1185043677687645
1667266576010658300,1.482658203125,-0.3549022674560547,-0.12583453953266144,-0.10201149433851242
1667266576013056000,1.485055908203125,-0.36039987206459045,-0.09956810623407364,-0.08063183724880219
1667266576015454000,1.487453857421875,-0.3671191930770874,-0.07269082218408585,-0.05803048983216286
1667266576017851600,1.4898515625,-0.37139514088630676,-0.04947862774133682,-0.03298575058579445
1667266576020249600,1.49224951171875,-0.37261682748794556,-0.03298575058579445,-0.004886778071522713
1667266576022647300,1.494647216796875,-0.37200596928596497,-0.022601349279284477,0.021379653364419937
1667266576025045200,1.497045166015625,-0.3689517378807068,-0.02748812735080719,0.04825693368911743
1667266576027443000,1.49944287109375,-0.36223241686820984,-0.051922015845775604,0.07330167293548584
1667266576029841000,1.5018408203125,-0.3530697226524353,-0.08307522535324097,0.0910162404179573
1667266576032238600,1.504238525390625,-0.3390202224254608,-0.12827792763710022,0.10384403169155121
1667266576034636500,1.506636474609375,-0.31947311758995056,-0.18019993603229523,0.11178504675626755
1667266576037034200,1.5090341796875,-0.29687178134918213,-0.2363978922367096,0.11178504675626755
1667266576039432200,1.51143212890625,-0.2724378705024719,-0.2895416021347046,0.10689827054738998
1667266576041830000,1.513829833984375,-0.24433889985084534,-0.33596599102020264,0.09590301662683487
1667266576044227800,1.516227783203125,-0.21501824259757996,-0.37567105889320374,0.07696675509214401
1667266576046625500,1.51862548828125,-0.18569757044315338,-0.3946073353290558,0.053143709897994995
1667266576049023200,1.521023193359375,-0.16004198789596558,-0.39888325333595276,0.024433890357613564
1667266576051421200,1.523421142578125,-0.13438639044761658,-0.38422292470932007,-0.01038440316915512
1667266576053819000,1.52581884765625,-0.10995250940322876,-0.3530697226524353,-0.045202698558568954
1667266576056216800,1.528216796875,-0.08612946420907974,-0.3029802441596985,-0.08674030750989914
1667266576058614500,1.530614501953125,-0.06719319522380829,-0.23884128034114838,-0.1319430023431778
1667266576061012500,1.533012451171875,-0.04947862774133682,-0.16859383881092072,-0.17897824943065643
1667266576063410200,1.53541015625,-0.03237490355968475,-0.09590301662683487,-0.22906772792339325
1667266576065808100,1.53780810546875,-0.01588202826678753,-0.03298575058579445,-0.27915719151496887
1667266576068205800,1.540205810546875,-0.0012216945178806782,0.024433890357613564,-0.3274141252040863
1667266576070603800,1.542603759765625,0.013438640162348747,0.07146912813186646,-0.37567105889320374
1667266576073001500,1.54500146484375,0.02626643143594265,0.10934165865182877,-0.4214846193790436
1667266576075399200,1.547399169921875,0.03665083646774292,0.14171656966209412,-0.46668729186058044
1667266576077797000,1.549797119140625,0.05008947476744652,0.1716480851173401,-0.5088357925415039
1667266576080194800,1.55219482421875,0.05864133685827255,0.19974705576896667,-0.5454866290092468
1667266576082592800,1.5545927734375,0.06291726976633072,0.23334364593029022,-0.5809157490730286
1667266576084990500,1.556990478515625,0.0659715011715889,0.27060532569885254,-0.6145123243331909
1667266576087388400,1.559388427734375,0.0647498071193695,0.30908870697021484,-0.6438329815864563
1667266576089786000,1.5617861328125,0.05986303091049194,0.34696123003959656,-0.6700994372367859
1667266576092184000,1.56418408203125,0.05497625470161438,0.37567105889320374,-0.6969767212867737
1667266576094581800,1.566581787109375,0.045202698558568954,0.3958290219306946,-0.7189671993255615
1667266576096979700,1.568979736328125,0.03665083646774292,0.4172086715698242,-0.7379034757614136
1667266576099377400,1.57137744140625,0.02504473738372326,0.446529358625412,-0.7531746625900269
1667266576101775000,1.573775146484375,0.011606098152697086,0.48012593388557434,-0.762948215007782
1667266576104173000,1.576173095703125,0,0.5100574493408203,-0.7666133046150208
1667266576106570800,1.57857080078125,-0.011606098152697086,0.5448757410049438,-0.7666133046150208
1667266576108968700,1.58096875,-0.024433890357613564,0.5748072862625122,-0.758672297000885
1667266576111366400,1.583366455078125,-0.036039989441633224,0.6041279435157776,-0.7488987445831299
1667266576113764400,1.585764404296875,-0.045202698558568954,0.6303943991661072,-0.731184184551239
1667266576116162000,1.588162109375,-0.054365407675504684,0.6499415040016174,-0.70797199010849
1667266576118560000,1.59056005859375,-0.05925218388438225,0.6658235192298889,-0.6810947060585022
1667266576120957700,1.592957763671875,-0.0647498071193695,0.6762079000473022,-0.6493306159973145
1667266576123355600,1.595355712890625,-0.0647498071193695,0.6810947060585022,-0.6157340407371521
1667266576125753300,1.59775341796875,-0.06352811306715012,0.6835380792617798,-0.578472375869751
1667266576128151000,1.600151123046875,-0.05803048983216286,0.6853706240653992,-0.5363239049911499
1667266576130549000,1.602549072265625,-0.04825693368911743,0.6817055344581604,-0.4947862923145294
1667266576132946700,1.60494677734375,-0.04031591862440109,0.6768187880516052,-0.45202696323394775
1667266576135344600,1.6073447265625,-0.029320668429136276,0.6633801460266113,-0.4056025743484497
1667266576137742300,1.609742431640625,-0.01832541823387146,0.6407787799835205,-0.35978904366493225
1667266576140140300,1.612140380859375,-0.0036650835536420345,0.6090146899223328,-0.3127537965774536
1667266576142538000,1.6145380859375,0.008551862090826035,0.5717530250549316,-0.265718549489975
1667266576144936000,1.61693603515625,0.021379653364419937,0.5277720093727112,-0.22051586210727692
1667266576147333600,1.619333740234375,0.03420744836330414,0.48012593388557434,-0.17286977171897888
1667266576149731600,1.621731689453125,0.04459185153245926,0.4300364851951599,-0.12705622613430023
1667266576152129300,1.62412939453125,0.05619794875383377,0.3823903799057007,-0.08307522535324097
1667266576154527200,1.62652734375,0.0659715011715889,0.33230090141296387,-0.0390942245721817
1667266576156925000,1.628925048828125,0.07513421028852463,0.2858765125274658,0.0030542362947016954
1667266576159323000,1.631322998046875,0.08002099394798279,0.24433889985084534,0.04092676565051079
1667266576161720600,1.633720458984375,0.08796200156211853,0.2089097648859024,0.08124268800020218
1667266576164118300,1.6361181640625,0.0922379344701767,0.18691925704479218,0.11972606182098389
1667266576166516200,1.63851611328125,0.09773556143045425,0.17531315982341766,0.15943112969398499
1667266576168914000,1.640913818359375,0.1044548824429512,0.17470231652259827,0.1979145109653473
1667266576171311900,1.643311767578125,0.10689827054738998,0.182643324136734,0.2363978922367096
1667266576173709600,1.64570947265625,0.10995250940322876,0.1979145109653473,0.2761029601097107
1667266576176107500,1.648107421875,0.10995250940322876,0.21929416060447693,0.3164188861846924
1667266576178505200,1.650505126953125,0.11056335270404816,0.24678228795528412,0.3561239540576935
1667266576180903200,1.652903076171875,0.11239589750766754,0.26877278089523315,0.3958290219306946
1667266576183300900,1.65530078125,0.11300674080848694,0.2870981991291046,0.4355340898036957
1667266576185698800,1.65769873046875,0.11667182296514511,0.2999260127544403,0.4721849262714386
1667266576188096500,1.660096435546875,0.1172826737165451,0.3029802441596985,0.5106683373451233
1667266576190494200,1.662494140625,0.1178935244679451,0.2999260127544403,0.5467082858085632
1667266576192892200,1.66489208984375,0.12216944992542267,0.2858765125274658,0.5809157490730286
1667266576195289900,1.667289794921875,0.12827792763710022,0.26755109429359436,0.6126797795295715
1667266576197687800,1.669687744140625,0.12888877093791962,0.24494975805282593,0.6420004963874817
1667266576200085500,1.67208544921875,0.13438639044761658,0.21868331730365753,0.6713211536407471
1667266576202483500,1.6744833984375,0.13682979345321655,0.19058434665203094,0.6963658928871155
1667266576204881200,1.676881103515625,0.13927318155765533,0.16492876410484314,0.7189671993255615
1667266576207279000,1.679279052734375,0.1435490995645523,0.1453816443681717,0.7415685653686523
1667266576209676800,1.6816767578125,0.1453816443681717,0.129499614238739,0.7611156702041626
1667266576212074800,1.68407470703125,0.15149012207984924,0.1178935244679451,0.781884491443634
1667266576214472400,1.686472412109375,0.1575985997915268,0.10934165865182877,0.7983773946762085
1667266576216870400,1.688870361328125,0.1569877415895462,0.1044548824429512,0.81425940990448
1667266576219268000,1.69126806640625,0.15943112969398499,0.10384403169155121,0.8264763355255127
1667266576221665800,1.693665771484375,0.16004198789596558,0.10078980028629303,0.837471604347229
1667266576224063700,1.696063720703125,0.15943112969398499,0.08918370306491852,0.8478559851646423
1667266576226461400,1.69846142578125,0.1557660549879074,0.07757759839296341,0.8557969927787781
1667266576228859400,1.700859375,0.15393351018428802,0.05986303091049194,0.860683798789978
1667266576231257000,1.703257080078125,0.15393351018428802,0.04031591862440109,0.864959716796875
1667266576233655000,1.705655029296875,0.15515519678592682,0.017714571207761765,0.8655705451965332
1667266576236052700,1.708052734375,0.15332266688346863,-0.0036650835536420345,0.8594620823860168
1667266576238450700,1.71045068359375,0.1582094430923462,-0.020157959312200546,0.8576295375823975
1667266576240848400,1.712848388671875,0.16065283119678497,-0.03542914241552353,0.8484668135643005
1667266576243246300,1.715246337890625,0.16309621930122375,-0.043981000781059265,0.8399149775505066
1667266576245644000,1.71764404296875,0.16798299551010132,-0.038483377546072006,0.8276980519294739
1667266576248041700,1.720041748046875,0.1704263836145401,-0.026877280324697495,0.8130376935005188
1667266576250439700,1.722439697265625,0.1698155403137207,-0.010995250195264816,0.7983773946762085
1667266576252837400,1.72483740234375,0.17225892841815948,0.016492875292897224,0.7843278646469116
1667266576255235300,1.7272353515625,0.1698155403137207,0.045202698558568954,0.7684458494186401
1667266576257633000,1.729633056640625,0.16798299551010132,0.08246438205242157,0.7525638341903687
1667266576260031000,1.732031005859375,0.16187451779842377,0.11972606182098389,0.7366818189620972
1667266576262428700,1.7344287109375,0.1563768982887268,0.1588202863931656,0.7207997441291809
1667266576264826600,1.73682666015625,0.15087927877902985,0.19363857805728912,0.7061394453048706
1667266576267224300,1.739224365234375,0.14721418917179108,0.2223484069108963,0.6914790868759155
1667266576269622300,1.741622314453125,0.14171656966209412,0.24556060135364532,0.6743753552436829
1667266576272020000,1.74402001953125,0.14110571146011353,0.2638860046863556,0.6548282504081726
1667266576274417700,1.746417724609375,0.13988402485847473,0.27060532569885254,0.6377245187759399
1667266576276815600,1.748815673828125,0.1435490995645523,0.2724378705024719,0.6163448691368103
1667266576279213600,1.751213623046875,0.1447708010673523,0.26632940769195557,0.5925218462944031
1667266576281611300,1.753611328125,0.14965757727622986,0.25472331047058105,0.5668662786483765
1667266576284009000,1.756009033203125,0.15393351018428802,0.23823043704032898,0.5387672781944275
1667266576286407000,1.758406982421875,0.16248537600040436,0.22051586210727692,0.5076140761375427
1667266576288804600,1.7608046875,0.16553960740566254,0.20280128717422485,0.4727957844734192
1667266576291202600,1.76320263671875,0.1710372269153595,0.1844758689403534,0.43614494800567627
1667266576293600300,1.765600341796875,0.17409147322177887,0.17531315982341766,0.39888325333595276
1667266576295998200,1.767998291015625,0.17225892841815948,0.1716480851173401,0.3567348122596741
1667266576298396000,1.77039599609375,0.16676130890846252,0.1704263836145401,0.3164188861846924
1667266576300793900,1.7727939453125,0.15454435348510742,0.17958909273147583,0.2736595869064331
1667266576303191600,1.775191650390625,0.1429382562637329,0.18997350335121155,0.23090025782585144
1667266576305589500,1.777589599609375,0.12827792763710022,0.19913621246814728,0.18630841374397278
1667266576307987200,1.7799873046875,0.1050657257437706,0.21562908589839935,0.1453816443681717
1667266576310385000,1.782385009765625,0.08063183724880219,0.23090025782585144,0.10201149433851242
1667266576312782800,1.784782958984375,0.055587101727724075,0.24433889985084534,0.062306419014930725
1667266576315180500,1.7871806640625,0.02504473738372326,0.2632751762866974,0.023823043331503868
1667266576317578500,1.78957861328125,-0.004886778071522713,0.27915719151496887,-0.009773556143045425
1667266576319976200,1.79197607421875,-0.03787253051996231,0.29503923654556274,-0.04703523963689804
1667266576322374100,1.7943740234375,-0.06719319522380829,0.3115321099758148,-0.07696675509214401
1667266576324771800,1.796771728515625,-0.09651386737823486,0.32252734899520874,-0.1050657257437706
1667266576327169800,1.799169677734375,-0.12522368133068085,0.3310792148113251,-0.129499614238739
1667266576329567500,1.8015673828125,-0.14965757727622986,0.33535513281822205,-0.15271180868148804
1667266576331965400,1.80396533203125,-0.1698155403137207,0.33413344621658325,-0.17225892841815948
1667266576334363100,1.806363037109375,-0.18691925704479218,0.33352261781692505,-0.18630841374397278
1667266576336760800,1.8087607421875,-0.20280128717422485,0.3304683566093445,-0.1985253542661667
1667266576339158800,1.81115869140625,-0.2113531529903412,0.32374903559684753,-0.20585553348064423
1667266576341556500,1.813556396484375,-0.21929416060447693,0.3176405727863312,-0.2089097648859024
1667266576343954400,1.815954345703125,-0.22601348161697388,0.31031039357185364,-0.20768806338310242
1667266576346352000,1.81835205078125,-0.23151111602783203,0.3017585575580597,-0.20219044387340546
1667266576348750000,1.82075,-0.2357870489358902,0.2980934679508209,-0.19119518995285034
1667266576351147800,1.823147705078125,-0.24067382514476776,0.29565006494522095,-0.17348061501979828
1667266576353545700,1.825545654296875,-0.24433889985084534,0.29442837834358215,-0.15393351018428802
1667266576355943400,1.827943359375,-0.2492256760597229,0.29259583353996277,-0.12766708433628082
1667266576358341400,1.83034130859375,-0.25533416867256165,0.2919849753379822,-0.09895725548267365
1667266576360739000,1.832739013671875,-0.2596100866794586,0.288930743932724,-0.0647498071193695
1667266576363136800,1.83513671875,-0.265718549489975,0.27854636311531067,-0.029320668429136276
1667266576365534700,1.83753466796875,-0.2742704153060913,0.2583884000778198,0.00916270911693573
1667266576367932400,1.839932373046875,-0.2767138183116913,0.23273280262947083,0.05008947476744652
1667266576370330400,1.842330322265625,-0.28098973631858826,0.19913621246814728,0.0910162404179573
1667266576372728000,1.84472802734375,-0.284654825925827,0.1575985997915268,0.129499614238739
1667266576375126000,1.8471259765625,-0.2864873707294464,0.11911521852016449,0.1704263836145401
1667266576377523700,1.849523681640625,-0.291374146938324,0.08185353130102158,0.2113531529903412
1667266576379921700,1.851921630859375,-0.291374146938324,0.047646086663007736,0.2486148327589035
1667266576382319400,1.8543193359375,-0.29259583353996277,0.017714571207761765,0.28221142292022705
1667266576384717300,1.85671728515625,-0.29442837834358215,-0.007941014133393764,0.3139754831790924
1667266576387115000,1.859114990234375,-0.29748260974884033,-0.023823043331503868,0.3396310806274414
1667266576389512700,1.8615126953125,-0.3005368411540985,-0.038483377546072006,0.35978904366493225
1667266576391910700,1.86391064453125,-0.3023693859577179,-0.05070032179355621,0.3787252902984619
1667266576394308600,1.86630859375,-0.3054236173629761,-0.056808795779943466,0.3921639323234558
1667266576396706300,1.868706298828125,-0.30786702036857605,-0.05864133685827255,0.4037700295448303
1667266576399104000,1.87110400390625,-0.31092125177383423,-0.05741964280605316,0.4074351191520691
1667266576401502000,1.873501953125,-0.3127537965774536,-0.054365407675504684,0.4092676639556885
1667266576403899600,1.875899658203125,-0.31825143098831177,-0.047646086663007736,0.4068242609500885
1667266576406297600,1.878297607421875,-0.32252734899520874,-0.0390942245721817,0.4037700295448303
1667266576408695300,1.8806953125,-0.3261924386024475,-0.02504473738372326,0.3970507085323334
1667266576411093200,1.88309326171875,-0.3274141252040863,-0.013438640162348747,0.38727715611457825
1667266576413491000,1.885490966796875,-0.3261924386024475,0.0012216945178806782,0.3787252902984619
1667266576415889000,1.887888916015625,-0.3268032968044281,0.015271181240677834,0.3665083646774292
1667266576418286600,1.89028662109375,-0.3268032968044281,0.02504473738372326,0.3549022674560547
1667266576420684500,1.8926845703125,-0.32374903559684753,0.034818295389413834,0.3408527672290802
1667266576423082200,1.895082275390625,-0.32008397579193115,0.0397050715982914,0.3243598937988281
1667266576425480200,1.897480224609375,-0.3133646547794342,0.04459185153245926,0.30786702036857605
1667266576427878000,1.8998779296875,-0.3017585575580597,0.047646086663007736,0.29259583353996277
1667266576430275600,1.902275634765625,-0.2870981991291046,0.04825693368911743,0.2748812735080719
1667266576432673500,1.904673583984375,-0.26938363909721375,0.04947862774133682,0.25655585527420044
1667266576435071200,1.9070712890625,-0.24617144465446472,0.05375456064939499,0.23884128034114838
1667266576437469200,1.90946923828125,-0.22051586210727692,0.06291726976633072,0.21807247400283813
1667266576439867000,1.911866943359375,-0.19302773475646973,0.0653606578707695,0.19424942135810852
1667266576442264800,1.914264892578125,-0.16615045070648193,0.06902574002742767,0.17470231652259827
1667266576444662500,1.91666259765625,-0.14171656966209412,0.0794101431965828,0.15210096538066864
1667266576447060500,1.919060546875,-0.11667182296514511,0.08979454636573792,0.1313321590423584
1667266576449458200,1.921458251953125,-0.09407047927379608,0.09345962852239609,0.10995250940322876
1667266576451856100,1.923856201171875,-0.07391251623630524,0.10201149433851242,0.09040539711713791
1667266576454253800,1.92625390625,-0.0525328628718853,0.1178935244679451,0.07085828483104706
1667266576456651500,1.928651611328125,-0.036039989441633224,0.13805148005485535,0.05497625470161438
1667266576459049500,1.931049560546875,-0.01832541823387146,0.15943112969398499,0.04092676565051079
1667266576461447200,1.933447265625,-0.004275931045413017,0.17897824943065643,0.036039989441633224
1667266576463845000,1.93584521484375,0.008551862090826035,0.1973036676645279,0.02993151545524597
1667266576466242800,1.938242919921875,0.02626643143594265,0.21196399629116058,0.02870982140302658
1667266576468640800,1.940640869140625,0.04153761267662048,0.2223484069108963,0.02993151545524597
1667266576471038500,1.94303857421875,0.05803048983216286,0.22784602642059326,0.03298575058579445
1667266576473436400,1.9454365234375,0.07513421028852463,0.22967857122421265,0.038483377546072006
1667266576475834000,1.947834228515625,0.0922379344701767,0.2241809368133545,0.046424392610788345
1667266576478232000,1.950232177734375,0.11117420345544815,0.21257483959197998,0.055587101727724075
1667266576480629800,1.952629638671875,0.130721315741539,0.1979145109653473,0.062306419014930725
1667266576483027500,1.95502734375,0.14782503247261047,0.17775654792785645,0.07024743407964706
1667266576485425400,1.95742529296875,0.16248537600040436,0.15515519678592682,0.08002099394798279
1667266576487823000,1.959822998046875,0.17775654792785645,0.1325538605451584,0.08857285231351852
1667266576490221000,1.962220947265625,0.18997350335121155,0.11178504675626755,0.09712471067905426
1667266576492618800,1.96461865234375,0.1973036676645279,0.09529217332601547,0.10262233763933182
1667266576495016700,1.9670166015625,0.20280128717422485,0.08185353130102158,0.10628741979598999
1667266576497414400,1.969414306640625,0.20280128717422485,0.06902574002742767,0.11178504675626755
1667266576499812400,1.971812255859375,0.1979145109653473,0.05741964280605316,0.11545012891292572
1667266576502210000,1.9742099609375,0.18875180184841156,0.04886778071522713,0.11606097966432571
1667266576504608000,1.97660791015625,0.17836740612983704,0.037261683493852615,0.11972606182098389
1667266576507005700,1.979005615234375,0.16431790590286255,0.023823043331503868,0.11911521852016449
1667266576509403400,1.9814033203125,0.14660334587097168,0.01038440316915512,0.1172826737165451
1667266576511801300,1.98380126953125,0.130721315741539,-0.007330167107284069,0.11911521852016449
1667266576514199300,1.98619921875,0.11361759155988693,-0.024433890357613564,0.11972606182098389
1667266576516597000,1.988596923828125,0.09345962852239609,-0.045202698558568954,0.12155860662460327
1667266576518994700,1.99099462890625,0.0781884491443634,-0.07085828483104706,0.12400199472904205
1667266576521392600,1.993392578125,0.06047387793660164,-0.09773556143045425,0.1301104724407196
1667266576523790300,1.995790283203125,0.04214845970273018,-0.12278030067682266,0.13621893525123596
1667266576526188300,1.998188232421875,0.025655584409832954,-0.15087927877902985,0.1423274129629135
1667266576528586000,2.0005859375,0.01038440316915512,-0.17409147322177887,0.15393351018428802
1667266576530984000,2.00298388671875,-0.005497625097632408,-0.19058434665203094,0.16615045070648193
1667266576533381600,2.005381591796875,-0.015271181240677834,-0.20341213047504425,0.1844758689403534
1667266576535779600,2.007779541015625,-0.024433890357613564,-0.2107423096895218,0.20280128717422485
1667266576538177300,2.01017724609375,-0.02993151545524597,-0.21318569779396057,0.2211267054080963
1667266576540575200,2.0125751953125,-0.03420744836330414,-0.21623992919921875,0.2376195788383484
1667266576542973000,2.014972900390625,-0.038483377546072006,-0.2223484069108963,0.25716668367385864
1667266576545370600,2.01737060546875,-0.04214845970273018,-0.22540263831615448,0.2730487287044525
1667266576547768600,2.0197685546875,-0.04092676565051079,-0.23212195932865143,0.29259583353996277
1667266576550166300,2.022166259765625,-0.0397050715982914,-0.24006296694278717,0.30664533376693726
1667266576552564200,2.024564208984375,-0.0390942245721817,-0.24678228795528412,0.3158080279827118
1667266576554962000,2.0269619140625,-0.03420744836330414,-0.25777754187583923,0.32374903559684753
1667266576557359900,2.02935986328125,-0.03237490355968475,-0.26694026589393616,0.3280249834060669
1667266576559757600,2.031757568359375,-0.026877280324697495,-0.2748812735080719,0.3280249834060669
1667266576562155500,2.034155517578125,-0.023823043331503868,-0.28282228112220764,0.32191649079322815
1667266576564553200,2.03655322265625,-0.02076880633831024,-0.28343313932418823,0.3115321099758148
1667266576566951200,2.038951171875,-0.016492875292897224,-0.27976804971694946,0.2980934679508209
1667266576569348900,2.041348876953125,-0.013438640162348747,-0.2724378705024719,0.27854636311531067
1667266576571746600,2.04374658203125,-0.011606098152697086,-0.2583884000778198,0.25655585527420044
1667266576574144500,2.04614453125,-0.007330167107284069,-0.23823043704032898,0.23212195932865143
1667266576576542200,2.048542236328125,-0.0036650835536420345,-0.21257483959197998,0.20035789906978607
1667266576578940200,2.050940185546875,-0.0006108472589403391,-0.183865025639534,0.16798299551010132
1667266576581337900,2.053337890625,0.005497625097632408,-0.1557660549879074,0.13560809195041656
1667266576583735800,2.05573583984375,0.006719320081174374,-0.12583453953266144,0.10140064358711243
1667266576586133500,2.058133544921875,0.007330167107284069,-0.09956810623407364,0.06413896381855011
1667266576588531500,2.060531494140625,0.005497625097632408,-0.07207997888326645,0.029320668429136276
1667266576590929200,2.06292919921875,0.0036650835536420345,-0.05497625470161438,-0.005497625097632408
1667266576593327000,2.0653271484375,0.0006108472589403391,-0.04092676565051079,-0.0397050715982914
1667266576595724800,2.067724853515625,-0.005497625097632408,-0.02626643143594265,-0.07146912813186646
1667266576598122500,2.07012255859375,-0.01588202826678753,-0.016492875292897224,-0.10017894953489304
1667266576600520400,2.0725205078125,-0.022601349279284477,-0.010995250195264816,-0.12644538283348083
1667266576602918100,2.074918212890625,-0.033596597611904144,-0.01038440316915512,-0.14965757727622986
1667266576605316000,2.077316162109375,-0.04337015375494957,-0.007941014133393764,-0.16859383881092072
1667266576607713800,2.0797138671875,-0.054365407675504684,-0.006108472589403391,-0.183865025639534
1667266576610111700,2.08211181640625,-0.06413896381855011,-0.007941014133393764,-0.1973036676645279
1667266576612509400,2.084509521484375,-0.07330167293548584,-0.010995250195264816,-0.20402298867702484
1667266576614907400,2.086907470703125,-0.08124268800020218,-0.01832541823387146,-0.20707722008228302
1667266576617305000,2.08930517578125,-0.0916270911693573,-0.026877280324697495,-0.20463383197784424
1667266576619703000,2.091703125,-0.09956810623407364,-0.04031591862440109,-0.1979145109653473
1667266576622100700,2.094100830078125,-0.1056765764951706,-0.05925218388438225,-0.18875180184841156
1667266576624498400,2.09649853515625,-0.11239589750766754,-0.08246438205242157,-0.17592400312423706
1667266576626896400,2.098896484375,-0.11422843486070633,-0.11178504675626755,-0.16004198789596558
1667266576629294000,2.101294189453125,-0.1172826737165451,-0.14843589067459106,-0.1429382562637329
1667266576631692000,2.103692138671875,-0.1172826737165451,-0.18142163753509521,-0.12705622613430023
1667266576634089700,2.10608984375,-0.11545012891292572,-0.21196399629116058,-0.10750912129878998
1667266576636487700,2.10848779296875,-0.11422843486070633,-0.24433889985084534,-0.0910162404179573
1667266576638885400,2.110885498046875,-0.10934165865182877,-0.2748812735080719,-0.07452336698770523
1667266576641283300,2.113283447265625,-0.10323318839073181,-0.3017585575580597,-0.05741964280605316
1667266576643681000,2.115680908203125,-0.10140064358711243,-0.32191649079322815,-0.04581354558467865
1667266576646079000,2.118078857421875,-0.09468132257461548,-0.33169007301330566,-0.033596597611904144
1667266576648476700,2.1204765625,-0.08918370306491852,-0.33169007301330566,-0.025655584409832954
1667266576650874600,2.12287451171875,-0.08674030750989914,-0.3243598937988281,-0.01832541823387146
1667266576653272300,2.125272216796875,-0.08307522535324097,-0.3115321099758148,-0.01588202826678753
1667266576655670300,2.127670166015625,-0.08002099394798279,-0.2895416021347046,-0.01588202826678753
1667266576658068000,2.13006787109375,-0.0794101431965828,-0.2620534598827362,-0.01832541823387146
1667266576660466000,2.1324658203125,-0.0794101431965828,-0.22906772792339325,-0.017714571207761765
1667266576662863600,2.134863525390625,-0.07757759839296341,-0.19119518995285034,-0.02076880633831024
1667266576665261300,2.13726123046875,-0.07757759839296341,-0.15210096538066864,-0.023212196305394173
1667266576667659300,2.1396591796875,-0.0787992998957634,-0.11361759155988693,-0.02626643143594265
1667266576670057000,2.142056884765625,-0.0787992998957634,-0.07696675509214401,-0.028098974376916885
1667266576672455000,2.144454833984375,-0.07696675509214401,-0.04337015375494957,-0.029320668429136276
1667266576674852600,2.1468525390625,-0.07391251623630524,-0.012216945178806782,-0.02870982140302658
1667266576677250600,2.14925048828125,-0.06963659077882767,0.014660334214568138,-0.025655584409832954
1667266576679648300,2.151648193359375,-0.0647498071193695,0.03420744836330414,-0.024433890357613564
1667266576682046200,2.154046142578125,-0.05803048983216286,0.043981000781059265,-0.017714571207761765
1667266576684444000,2.15644384765625,-0.051922015845775604,0.05375456064939499,-0.007941014133393764
1667266576686841900,2.158841796875,-0.042759306728839874,0.05375456064939499,-0.0012216945178806782
1667266576689239600,2.161239501953125,-0.03542914241552353,0.04947862774133682,0.008551862090826035
1667266576691637200,2.16363720703125,-0.023823043331503868,0.038483377546072006,0.01954711228609085
1667266576694035200,2.16603515625,-0.011606098152697086,0.02748812735080719,0.03298575058579445
1667266576696433000,2.168432861328125,-0.0012216945178806782,0.011606098152697086,0.042759306728839874
1667266576698830800,2.170830810546875,0.012827792204916477,-0.004886778071522713,0.056808795779943466
1667266576701228500,2.173228515625,0.026877280324697495,-0.02076880633831024,0.06963659077882767
1667266576703626500,2.17562646484375,0.038483377546072006,-0.03420744836330414,0.08185353130102158
1667266576706024200,2.178024169921875,0.0525328628718853,-0.04153761267662048,0.0910162404179573
1667266576708422100,2.180422119140625,0.06291726976633072,-0.04581354558467865,0.09773556143045425
1667266576710819800,2.18281982421875,0.07452336698770523,-0.046424392610788345,0.1044548824429512
1667266576713217800,2.1852177734375,0.08246438205242157,-0.04214845970273018,0.10873081535100937
1667266576715615500,2.187615478515625,0.09040539711713791,-0.03298575058579445,0.10934165865182877
1667266576718013200,2.19001318359375,0.09590301662683487,-0.022601349279284477,0.10995250940322876
1667266576720411100,2.1924111328125,0.10140064358711243,-0.009773556143045425,0.10750912129878998
1667266576722808800,2.194808837890625,0.10262233763933182,0.005497625097632408,0.1056765764951706
1667266576725206800,2.197206787109375,0.10323318839073181,0.021379653364419937,0.10140064358711243
1667266576727604500,2.1996044921875,0.10262233763933182,0.03787253051996231,0.09590301662683487
1667266576730002400,2.20200244140625,0.10140064358711243,0.04825693368911743,0.09040539711713791
1667266576732400000,2.204400146484375,0.10140064358711243,0.05864133685827255,0.08002099394798279
1667266576734798000,2.206798095703125,0.09590301662683487,0.06047387793660164,0.07146912813186646
1667266576737195800,2.20919580078125,0.09284878522157669,0.05497625470161438,0.06291726976633072
1667266576739593700,2.21159375,0.08857285231351852,0.04947862774133682,0.053143709897994995
1667266576741991400,2.213991455078125,0.08246438205242157,0.0390942245721817,0.04459185153245926
1667266576744389000,2.21638916015625,0.07574506103992462,0.026877280324697495,0.036039989441633224
1667266576746787000,2.218787109375,0.06963659077882767,0.014660334214568138,0.03176405653357506
1667266576749184800,2.221184814453125,0.05986303091049194,0.0030542362947016954,0.02870982140302658
1667266576751582700,2.223582763671875,0.047646086663007736,-0.010995250195264816,0.02626643143594265
1667266576753980400,2.22598046875,0.03665083646774292,-0.017714571207761765,0.02993151545524597
1667266576756378400,2.22837841796875,0.02504473738372326,-0.02504473738372326,0.03420744836330414
1667266576758776000,2.230776123046875,0.010995250195264816,-0.030542362481355667,0.04214845970273018
1667266576761174000,2.233174072265625,-0.0012216945178806782,-0.03542914241552353,0.05375456064939499
1667266576763571700,2.23557177734375,-0.012216945178806782,-0.04092676565051079,0.06780404597520828
1667266576765969700,2.2379697265625,-0.02504473738372326,-0.04947862774133682,0.08368607610464096
1667266576768367400,2.240367431640625,-0.034818295389413834,-0.05619794875383377,0.10140064358711243
1667266576770765000,2.24276513671875,-0.04337015375494957,-0.06169557198882103,0.12094775587320328
1667266576773163000,2.2451630859375,-0.05008947476744652,-0.06963659077882767,0.14110571146011353
1667266576775560700,2.247560791015625,-0.056808795779943466,-0.0794101431965828,0.16370706260204315
1667266576777958700,2.249958740234375,-0.05741964280605316,-0.08612946420907974,0.1850867122411728
1667266576780356400,2.2523564453125,-0.056808795779943466,-0.09529217332601547,0.20463383197784424
1667266576782754300,2.25475439453125,-0.055587101727724075,-0.10628741979598999,0.22479179501533508
1667266576785152000,2.257152099609375,-0.053143709897994995,-0.12094775587320328,0.24494975805282593
1667266576787550000,2.259550048828125,-0.047646086663007736,-0.13560809195041656,0.2632751762866974
1667266576789947600,2.26194775390625,-0.04031591862440109,-0.1441599577665329,0.2779355049133301
1667266576792345600,2.264345703125,-0.03420744836330414,-0.1575985997915268,0.29259583353996277
1667266576794743300,2.266743408203125,-0.024433890357613564,-0.16859383881092072,0.3017585575580597
1667266576797141000,2.26914111328125,-0.018936265259981155,-0.17653486132621765,0.30847787857055664
1667266576799539000,2.2715390625,-0.010995250195264816,-0.17775654792785645,0.3115321099758148
1667266576801937000,2.27393701171875,-0.0012216945178806782,-0.17653486132621765,0.30969956517219543
1667266576804334600,2.27633447265625,0.004275931045413017,-0.1716480851173401,0.30481278896331787
1667266576806732300,2.278732177734375,0.009773556143045425,-0.16126367449760437,0.2993151545524597
1667266576809130200,2.281130126953125,0.01588202826678753,-0.14843589067459106,0.2858765125274658
1667266576811528000,2.28352783203125,0.016492875292897224,-0.13377554714679718,0.2724378705024719
1667266576813926000,2.28592578125,0.01588202826678753,-0.1178935244679451,0.25716668367385864
1667266576816323600,2.288323486328125,0.016492875292897224,-0.09651386737823486,0.2376195788383484
1667266576818721500,2.290721435546875,0.016492875292897224,-0.07330167293548584,0.21562908589839935
1667266576821119200,2.293119140625,0.014049487188458443,-0.05375456064939499,0.19424942135810852
1667266576823517200,2.29551708984375,0.011606098152697086,-0.034818295389413834,0.1692046970129013
1667266576825915000,2.297914794921875,0.00916270911693573,-0.020157959312200546,0.1447708010673523
1667266576828312800,2.300312744140625,0.004275931045413017,-0.007330167107284069,0.11911521852016449
1667266576830710500,2.30271044921875,-0.0030542362947016954,0.006108472589403391,0.09590301662683487
1667266576833108200,2.305108154296875,-0.006108472589403391,0.015271181240677834,0.07085828483104706
1667266576835506200,2.307506103515625,-0.009773556143045425,0.026877280324697495,0.04947862774133682
1667266576837904000,2.30990380859375,-0.01710372418165207,0.03542914241552353,0.031153209507465363
1667266576840301800,2.3123017578125,-0.02076880633831024,0.04825693368911743,0.012827792204916477
1667266576842699500,2.314699462890625,-0.024433890357613564,0.05986303091049194,-0.0012216945178806782
1667266576845097500,2.317097412109375,-0.02870982140302658,0.07146912813186646,-0.010995250195264816
1667266576847495200,2.3194951171875,-0.030542362481355667,0.08124268800020218,-0.01588202826678753
1667266576849893000,2.32189306640625,-0.03420744836330414,0.08857285231351852,-0.021379653364419937
1667266576852290800,2.324290771484375,-0.03542914241552353,0.09284878522157669,-0.022601349279284477
1667266576854688800,2.326688720703125,-0.03420744836330414,0.09345962852239609,-0.01954711228609085
1667266576857086500,2.32908642578125,-0.03237490355968475,0.08857285231351852,-0.01588202826678753
1667266576859484200,2.331484130859375,-0.02748812735080719,0.07635590434074402,-0.00916270911693573
1667266576861882000,2.333882080078125,-0.021379653364419937,0.06047387793660164,-0.0024433890357613564
1667266576864279800,2.33627978515625,-0.015271181240677834,0.038483377546072006,0.004275931045413017
1667266576866677800,2.338677734375,-0.00916270911693573,0.00916270911693573,0.01710372418165207
1667266576869075500,2.341075439453125,-0.004886778071522713,-0.02076880633831024,0.03298575058579445
1667266576871473400,2.343473388671875,0,-0.055587101727724075,0.05008947476744652
1667266576873871000,2.34587109375,0.004275931045413017,-0.08918370306491852,0.07269082218408585
1667266576876269000,2.34826904296875,0.00916270911693573,-0.12583453953266144,0.09773556143045425
1667266576878666800,2.350666748046875,0.008551862090826035,-0.1575985997915268,0.12400199472904205
1667266576881064700,2.353064697265625,0.008551862090826035,-0.18936264514923096,0.15210096538066864
1667266576883462400,2.35546240234375,0.006719320081174374,-0.21440738439559937,0.1850867122411728
1667266576885860000,2.357860107421875,0.004886778071522713,-0.23334364593029022,0.21746163070201874
1667266576888258000,2.360258056640625,0.0030542362947016954,-0.24494975805282593,0.25655585527420044
1667266576890655700,2.36265576171875,0,-0.2522799074649811,0.3017585575580597
1667266576893053700,2.3650537109375,-0.0006108472589403391,-0.25289076566696167,0.34696123003959656
1667266576895451400,2.367451416015625,-0.0024433890357613564,-0.2486148327589035,0.395218163728714
1667266576897849300,2.369849365234375,-0.004275931045413017,-0.23945212364196777,0.4422534108161926
1667266576900247000,2.3722470703125,-0.006108472589403391,-0.22662433981895447,0.4868452548980713
1667266576902645000,2.37464501953125,-0.006719320081174374,-0.20524467527866364,0.5326588153839111
1667266576905042700,2.377042724609375,-0.006719320081174374,-0.18142163753509521,0.5705313682556152
1667266576907440600,2.379440673828125,-0.005497625097632408,-0.1557660549879074,0.6053496599197388
1667266576909838300,2.38183837890625,-0.0030542362947016954,-0.1313321590423584,0.6316160559654236
1667266576912236000,2.384236083984375,0.0030542362947016954,-0.10323318839073181,0.6536065936088562
1667266576914634000,2.386634033203125,0.00916270911693573,-0.07757759839296341,0.6731536984443665
1667266576917031700,2.38903173828125,0.02076880633831024,-0.05070032179355621,0.6817055344581604
1667266576919429600,2.3914296875,0.03176405653357506,-0.023212196305394173,0.6859814524650574
1667266576921827300,2.393827392578125,0.046424392610788345,-0.0012216945178806782,0.6810947060585022
1667266576924225300,2.396225341796875,0.06902574002742767,0.026877280324697495,0.6688777208328247
1667266576926623000,2.398623046875,0.0916270911693573,0.05375456064939499,0.6499415040016174
1667266576929021000,2.40102099609375,0.11361759155988693,0.07696675509214401,0.6230642199516296
1667266576931418600,2.403418701171875,0.13744063675403595,0.09956810623407364,0.5888567566871643
1667266576933816600,2.405816650390625,0.16370706260204315,0.12094775587320328,0.5473191738128662
1667266576936214300,2.40821435546875,0.19119518995285034,0.13866232335567474,0.497229665517807
1667266576938612200,2.4106123046875,0.22540263831615448,0.1557660549879074,0.43919917941093445
1667266576941010000,2.413010009765625,0.2632751762866974,0.1716480851173401,0.3787252902984619
1667266576943407600,2.41540771484375,0.29503923654556274,0.18875180184841156,0.314586341381073
1667266576945805600,2.4178056640625,0.32252734899520874,0.20096874237060547,0.2516690790653229
1667266576948203300,2.420203369140625,0.34818294644355774,0.2095206081867218,0.18875180184841156
1667266576950601200,2.422601318359375,0.3671191930770874,0.2095206081867218,0.12766708433628082
1667266576952999000,2.4249990234375,0.3811686933040619,0.20341213047504425,0.06780404597520828
1667266576955396900,2.42739697265625,0.3921639323234558,0.1954711228609085,0.011606098152697086
1667266576957794600,2.429794677734375,0.393385648727417,0.18753011524677277,-0.04092676565051079
1667266576960192500,2.432192626953125,0.3946073353290558,0.17531315982341766,-0.08979454636573792
1667266576962590200,2.434590087890625,0.3903313875198364,0.16492876410484314,-0.1319430023431778
1667266576964988200,2.43698828125,0.3823903799057007,0.1557660549879074,-0.1704263836145401
1667266576967385900,2.4393857421875,0.3775036036968231,0.1459924876689911,-0.20280128717422485
1667266576969783600,2.441783447265625,0.37200596928596497,0.14110571146011353,-0.22540263831615448
1667266576972181500,2.444181396484375,0.3762819170951843,0.13682979345321655,-0.24250635504722595
1667266576974579200,2.4465791015625,0.3830012381076813,0.13805148005485535,-0.2522799074649811
1667266576976977200,2.44897705078125,0.3958290219306946,0.1435490995645523,-0.25350162386894226
1667266576979374800,2.451374755859375,0.41110020875930786,0.15393351018428802,-0.2473931461572647
1667266576981772800,2.453772705078125,0.42576053738594055,0.1716480851173401,-0.23823043704032898
1667266576984170500,2.45617041015625,0.44103172421455383,0.19058434665203094,-0.2211267054080963
1667266576986568400,2.458568359375,0.45141613483428955,0.21318569779396057,-0.20341213047504425
1667266576988966100,2.460966064453125,0.4587462842464447,0.2363978922367096,-0.17836740612983704
1667266576991364000,2.463364013671875,0.4587462842464447,0.25655585527420044,-0.15087927877902985
1667266576993761800,2.46576171875,0.45447036623954773,0.2779355049133301,-0.12094775587320328
1667266576996159500,2.468159423828125,0.4416425824165344,0.2980934679508209,-0.0922379344701767
1667266576998557400,2.470557373046875,0.42331716418266296,0.3151971995830536,-0.05803048983216286
1667266577000955100,2.472955078125,0.40254834294319153,0.33230090141296387,-0.025655584409832954
1667266577003353000,2.47535302734375,0.37444937229156494,0.34879377484321594,0.009773556143045425
1667266577005750800,2.477750732421875,0.34635040163993835,0.3665083646774292,0.042759306728839874
1667266577008148700,2.480148681640625,0.314586341381073,0.3817795515060425,0.07696675509214401
1667266577010546400,2.48254638671875,0.28343313932418823,0.3915531039237976,0.1044548824429512
1667266577012944400,2.4849443359375,0.2492256760597229,0.40254834294319153,0.13438639044761658
1667266577015342000,2.487342041015625,0.21501824259757996,0.41476529836654663,0.16248537600040436
1667266577017740000,2.489739990234375,0.17897824943065643,0.42698222398757935,0.18569757044315338
1667266577020137700,2.4921376953125,0.1423274129629135,0.43919917941093445,0.2101314514875412
1667266577022535400,2.494535400390625,0.10811996459960938,0.4428642690181732,0.22662433981895447
1667266577024933400,2.496933349609375,0.07452336698770523,0.4416425824165344,0.24311721324920654
1667266577027331000,2.4993310546875,0.042759306728839874,0.4337015450000763,0.25716668367385864
1667266577029729000,2.50172900390625,0.010995250195264816,0.4178195297718048,0.26816195249557495
1667266577032126700,2.504126708984375,-0.022601349279284477,0.3946073353290558,0.2754921019077301
1667266577034524700,2.506524658203125,-0.05803048983216286,0.367730051279068,0.28343313932418823
1667266577036922400,2.50892236328125,-0.08857285231351852,0.33596599102020264,0.2870981991291046
1667266577039320300,2.5113203125,-0.11911521852016449,0.2999260127544403,0.288930743932724
1667266577041716200,2.51371630859375,-0.15271180868148804,0.2651077210903168,0.29259583353996277
1667266577044114000,2.516114013671875,-0.1832541823387146,0.23028941452503204,0.2901524603366852
1667266577046511900,2.518511962890625,-0.21196399629116058,0.19058434665203094,0.29259583353996277
1667266577048909600,2.52090966796875,-0.24189551174640656,0.14843589067459106,0.2883199155330658
1667266577051307500,2.5233076171875,-0.26877278089523315,0.1050657257437706,0.2858765125274658
1667266577053705200,2.525705322265625,-0.29565006494522095,0.062306419014930725,0.28404396772384644
1667266577056103200,2.528103271484375,-0.3176405727863312,0.01832541823387146,0.28098973631858826
1667266577058500900,2.5305009765625,-0.3396310806274414,-0.02504473738372326,0.2761029601097107
1667266577060898800,2.53289892578125,-0.35917818546295166,-0.06841489672660828,0.2748812735080719
1667266577063296500,2.535296630859375,-0.37200596928596497,-0.1178935244679451,0.26755109429359436
1667266577065694200,2.537694091796875,-0.3836120665073395,-0.16370706260204315,0.2620534598827362
1667266577068092200,2.540092041015625,-0.38910970091819763,-0.21196399629116058,0.25594499707221985
1667266577070489900,2.54248974609375,-0.3939964771270752,-0.25655585527420044,0.2473931461572647
1667266577072887800,2.5448876953125,-0.39766156673431396,-0.29626092314720154,0.2376195788383484
1667266577075285500,2.547285400390625,-0.39888325333595276,-0.33352261781692505,0.22479179501533508
1667266577077683500,2.549683349609375,-0.39827242493629456,-0.3640649616718292,0.21318569779396057
1667266577080081200,2.5520810546875,-0.39643988013267517,-0.3927747905254364,0.20157960057258606
1667266577082479000,2.55447900390625,-0.395218163728714,-0.41537612676620483,0.18936264514923096
1667266577084876800,2.556876708984375,-0.3946073353290558,-0.43614494800567627,0.17653486132621765
1667266577087274800,2.559274658203125,-0.3915531039237976,-0.45263782143592834,0.16492876410484314
1667266577089672400,2.56167236328125,-0.3897205591201782,-0.46302223205566406,0.15515519678592682
1667266577092070100,2.564070068359375,-0.38849884271621704,-0.4691306948661804,0.1459924876689911
1667266577094468000,2.566468017578125,-0.38544461131095886,-0.4746283292770386,0.13438639044761658
1667266577096865800,2.56886572265625,-0.3781144618988037,-0.47585001587867737,0.12705622613430023
1667266577099263700,2.571263671875,-0.37383851408958435,-0.4734066128730774,0.11911521852016449
1667266577101661400,2.573661376953125,-0.3665083646774292,-0.469741553068161,0.11056335270404816
1667266577104059400,2.576059326171875,-0.35795649886131287,-0.46485477685928345,0.10384403169155121
1667266577106457000,2.57845703125,-0.34696123003959656,-0.4563029110431671,0.09773556143045425
1667266577108855000,2.58085498046875,-0.3365768492221832,-0.446529358625412,0.0910162404179573
1667266577111252700,2.583252685546875,-0.3261924386024475,-0.4349232614040375,0.08551861345767975
1667266577113650700,2.585650634765625,-0.3151971995830536,-0.4196520745754242,0.0794101431965828
1667266577116048400,2.58804833984375,-0.3029802441596985,-0.40254834294319153,0.07330167293548584
1667266577118446000,2.590446044921875,-0.2895416021347046,-0.3823903799057007,0.06841489672660828
1667266577120844000,2.592843994140625,-0.2773246467113495,-0.3683409094810486,0.06169557198882103
1667266577123241700,2.59524169921875,-0.2651077210903168,-0.34573954343795776,0.054365407675504684
1667266577125639700,2.5976396484375,-0.2498365342617035,-0.3292466700077057,0.04459185153245926
1667266577128037400,2.600037353515625,-0.2363978922367096,-0.30725616216659546,0.03176405653357506
1667266577130435300,2.602435302734375,-0.22540263831615448,-0.2895416021347046,0.020157959312200546
1667266577132833000,2.6048330078125,-0.21379654109477997,-0.2736595869064331,0.004886778071522713
1667266577135231000,2.60723095703125,-0.20035789906978607,-0.25777754187583923,-0.014660334214568138
1667266577137628700,2.609628662109375,-0.18691925704479218,-0.24372805655002594,-0.03542914241552353
1667266577140026600,2.612026611328125,-0.17897824943065643,-0.22540263831615448,-0.056808795779943466
1667266577142424300,2.61442431640625,-0.16859383881092072,-0.2089097648859024,-0.0787992998957634
1667266577144822000,2.616822021484375,-0.15943112969398499,-0.19119518995285034,-0.10323318839073181
1667266577147220000,2.619219970703125,-0.15271180868148804,-0.17531315982341766,-0.12827792763710022
1667266577149617700,2.62161767578125,-0.1435490995645523,-0.15943112969398499,-0.15454435348510742
1667266577152015600,2.624015625,-0.13866232335567474,-0.1447708010673523,-0.17897824943065643
1667266577154413300,2.626413330078125,-0.13316470384597778,-0.1301104724407196,-0.20402298867702484
1667266577156811300,2.628811279296875,-0.12644538283348083,-0.11667182296514511,-0.22967857122421265
1667266577159209000,2.631208984375,-0.11911521852016449,-0.10995250940322876,-0.25472331047058105
1667266577161607000,2.63360693359375,-0.11422843486070633,-0.10384403169155121,-0.28160059452056885
1667266577164004600,2.636004638671875,-0.11117420345544815,-0.09895725548267365,-0.30786702036857605
1667266577166402600,2.638402587890625,-0.1044548824429512,-0.09345962852239609,-0.3286358118057251
1667266577168800300,2.64080029296875,-0.10201149433851242,-0.09040539711713791,-0.3536805510520935
1667266577171198000,2.643197998046875,-0.09895725548267365,-0.08796200156211853,-0.3775036036968231
1667266577173596000,2.645595947265625,-0.09345962852239609,-0.08429691940546036,-0.40010493993759155
1667266577175993600,2.64799365234375,-0.0922379344701767,-0.08185353130102158,-0.4214846193790436
1667266577178391600,2.6503916015625,-0.08918370306491852,-0.07635590434074402,-0.44103172421455383
1667266577180789200,2.652789306640625,-0.0916270911693573,-0.06963659077882767,-0.4593571424484253
1667266577183187200,2.655187255859375,-0.09407047927379608,-0.05986303091049194,-0.4746283292770386
1667266577185585000,2.6575849609375,-0.09773556143045425,-0.04886778071522713,-0.48928865790367126
1667266577187982800,2.65998291015625,-0.10384403169155121,-0.03420744836330414,-0.5027272701263428
1667266577190380500,2.662380615234375,-0.11239589750766754,-0.01588202826678753,-0.5143333673477173
1667266577192778500,2.664778564453125,-0.12339114397764206,0.0030542362947016954,-0.5241069197654724
1667266577195176200,2.66717626953125,-0.13621893525123596,0.018936265259981155,-0.53143709897995
1667266577197574000,2.669573974609375,-0.14782503247261047,0.03787253051996231,-0.5412106513977051
1667266577199971800,2.671971923828125,-0.16187451779842377,0.05619794875383377,-0.546097457408905
1667266577202369500,2.67436962890625,-0.17653486132621765,0.07330167293548584,-0.5491516590118408
1667266577204767500,2.676767578125,-0.19363857805728912,0.08551861345767975,-0.5528167486190796
1667266577207165200,2.679165283203125,-0.2107423096895218,0.09651386737823486,-0.5577035546302795
1667266577209563100,2.681563232421875,-0.22845686972141266,0.10323318839073181,-0.5595360994338989
1667266577211960800,2.6839609375,-0.24556060135364532,0.11239589750766754,-0.5625903010368347
1667266577214358800,2.68635888671875,-0.261442631483078,0.11667182296514511,-0.5632011890411377
1667266577216756500,2.688756591796875,-0.2754921019077301,0.12155860662460327,-0.5613686442375183
1667266577219154400,2.691154541015625,-0.2895416021347046,0.12644538283348083,-0.5601469278335571
1667266577221552000,2.69355224609375,-0.3029802441596985,0.12888877093791962,-0.5558710098266602
1667266577223949800,2.69594970703125,-0.3164188861846924,0.129499614238739,-0.5570927262306213
1667266577226347800,2.69834765625,-0.3268032968044281,0.13316470384597778,-0.5540384650230408
1667266577228745500,2.700745361328125,-0.33413344621658325,0.13682979345321655,-0.5522059202194214
1667266577231143400,2.703143310546875,-0.3402419090270996,0.13438639044761658,-0.5491516590118408
1667266577233541000,2.705541015625,-0.34573954343795776,0.13560809195041656,-0.5467082858085632
1667266577235939000,2.70793896484375,-0.34940463304519653,0.1325538605451584,-0.5442649126052856
1667266577238336800,2.710336669921875,-0.3530697226524353,0.13377554714679718,-0.5442649126052856
1667266577240734700,2.712734619140625,-0.3530697226524353,0.13621893525123596,-0.5436540842056274
1667266577243132400,2.71513232421875,-0.3500154912471771,0.13805148005485535,-0.5405998229980469
1667266577245530400,2.7175302734375,-0.34696123003959656,0.13560809195041656,-0.5399889945983887
1667266577247928000,2.719927978515625,-0.342074453830719,0.14171656966209412,-0.5381564497947693
1667266577250325800,2.72232568359375,-0.33474430441856384,0.1447708010673523,-0.5399889945983887
1667266577252723700,2.7247236328125,-0.3243598937988281,0.15149012207984924,-0.5387672781944275
1667266577255121400,2.727121337890625,-0.3133646547794342,0.1569877415895462,-0.5405998229980469
1667266577257519400,2.729519287109375,-0.29626092314720154,0.16431790590286255,-0.5405998229980469
1667266577259917000,2.7319169921875,-0.2779355049133301,0.17348061501979828,-0.5405998229980469
1667266577262315000,2.73431494140625,-0.258999228477478,0.1820324808359146,-0.5430431962013245
1667266577264712700,2.736712646484375,-0.23823043704032898,0.1966928243637085,-0.5430431962013245
1667266577267110700,2.739110595703125,-0.21257483959197998,0.21257483959197998,-0.5424323678016663
1667266577269508400,2.74150830078125,-0.18875180184841156,0.22906772792339325,-0.5430431962013245
1667266577271906300,2.74390625,-0.16126367449760437,0.24617144465446472,-0.5412106513977051
1667266577274304000,2.746303955078125,-0.13316470384597778,0.26694026589393616,-0.5381564497947693
1667266577276701700,2.74870166015625,-0.1050657257437706,0.2870981991291046,-0.5369347333908081
1667266577279099600,2.751099609375,-0.07391251623630524,0.30725616216659546,-0.5344913601875305
1667266577281497300,2.753497314453125,-0.043981000781059265,0.3261924386024475,-0.5253286361694336
1667266577283895300,2.755895263671875,-0.01588202826678753,0.3384093940258026,-0.5210527181625366
1667266577286293000,2.75829296875,0.012827792204916477,0.3549022674560547,-0.5131117105484009
1667266577288691000,2.76069091796875,0.04031591862440109,0.3665083646774292,-0.5063923597335815
1667266577291088600,2.763088623046875,0.06902574002742767,0.3762819170951843,-0.4966188073158264
1667266577293486600,2.765486572265625,0.09529217332601547,0.3817795515060425,-0.4862344264984131
1667266577295884300,2.76788427734375,0.1178935244679451,0.3903313875198364,-0.4734066128730774
1667266577298282200,2.7702822265625,0.13805148005485535,0.3946073353290558,-0.46241137385368347
1667266577300680000,2.772679931640625,0.1582094430923462,0.39888325333595276,-0.45019441843032837
1667266577303077600,2.77507763671875,0.17409147322177887,0.4043808877468109,-0.4367557764053345
1667266577305475600,2.7774755859375,0.18875180184841156,0.4068242609500885,-0.4214846193790436
1667266577307873300,2.779873291015625,0.20219044387340546,0.4086568057537079,-0.4043808877468109
1667266577310271200,2.782271240234375,0.2113531529903412,0.41293275356292725,-0.38605546951293945
1667266577312669000,2.7846689453125,0.21929416060447693,0.4178195297718048,-0.3695625960826874
1667266577315067000,2.78706689453125,0.22601348161697388,0.42392799258232117,-0.3518480062484741
1667266577317464600,2.789464599609375,0.2339545041322708,0.4300364851951599,-0.3310792148113251
1667266577319862500,2.791862548828125,0.2357870489358902,0.43736663460731506,-0.31092125177383423
1667266577322260200,2.79426025390625,0.23823043704032898,0.4446968138217926,-0.2870981991291046
1667266577324658200,2.796658203125,0.23945212364196777,0.4556920528411865,-0.26755109429359436
1667266577327056000,2.799055908203125,0.24006296694278717,0.4618005156517029,-0.24617144465446472
1667266577329453600,2.80145361328125,0.23884128034114838,0.46607646346092224,-0.2241809368133545
1667266577331851500,2.8038515625,0.23823043704032898,0.4709632396697998,-0.20096874237060547
1667266577334249200,2.806249267578125,0.2339545041322708,0.4721849262714386,-0.1820324808359146
1667266577336647200,2.808647216796875,0.23151111602783203,0.474017471075058,-0.16004198789596558
1667266577339044900,2.811044921875,0.22845686972141266,0.47707170248031616,-0.14049486815929413
1667266577341442800,2.81344287109375,0.2235700935125351,0.4752391576766968,-0.12094775587320328
1667266577343840500,2.815840576171875,0.2223484069108963,0.4721849262714386,-0.1050657257437706
1667266577346238500,2.818238525390625,0.21746163070201874,0.4721849262714386,-0.08735115826129913
1667266577348636200,2.82063623046875,0.21501824259757996,0.4691306948661804,-0.06963659077882767
1667266577351034000,2.8230341796875,0.2089097648859024,0.46546560525894165,-0.054365407675504684
1667266577353431800,2.825431884765625,0.20341213047504425,0.4593571424484253,-0.03787253051996231
1667266577355829500,2.82782958984375,0.20157960057258606,0.45263782143592834,-0.02504473738372326
1667266577358227500,2.8302275390625,0.1979145109653473,0.446529358625412,-0.010995250195264816
1667266577360625200,2.832625244140625,0.19241689145565033,0.4343124032020569,0
1667266577363023000,2.835023193359375,0.18997350335121155,0.42331716418266296,0.009773556143045425
1667266577365420800,2.8374208984375,0.1850867122411728,0.4074351191520691,0.018936265259981155
1667266577367818800,2.83981884765625,0.17958909273147583,0.390942245721817,0.02993151545524597
1667266577370216400,2.842216552734375,0.17531315982341766,0.3775036036968231,0.038483377546072006
1667266577372614400,2.844614501953125,0.1716480851173401,0.35856732726097107,0.042759306728839874
1667266577375012000,2.84701220703125,0.16553960740566254,0.3408527672290802,0.047646086663007736
1667266577377409800,2.849409912109375,0.16492876410484314,0.3268032968044281,0.04825693368911743
1667266577379807700,2.851807861328125,0.16004198789596558,0.3133646547794342,0.051922015845775604
1667266577382205400,2.854205322265625,0.1575985997915268,0.2999260127544403,0.05070032179355621
1667266577384603400,2.856603271484375,0.1575985997915268,0.2852656841278076,0.047646086663007736
1667266577387001000,2.8590009765625,0.15332266688346863,0.27121618390083313,0.043981000781059265
1667266577389399000,2.86139892578125,0.15149012207984924,0.258999228477478,0.0390942245721817
1667266577391796700,2.863796630859375,0.14782503247261047,0.24556060135364532,0.033596597611904144
1667266577394194700,2.866194580078125,0.1447708010673523,0.23212195932865143,0.024433890357613564
1667266577396592400,2.86859228515625,0.1423274129629135,0.21868331730365753,0.01588202826678753
1667266577398990000,2.870989990234375,0.13988402485847473,0.20341213047504425,0.004886778071522713
1667266577401388000,2.873387939453125,0.13805148005485535,0.19180603325366974,-0.006108472589403391
1667266577403785700,2.87578564453125,0.13438639044761658,0.17714570462703705,-0.01710372418165207
1667266577406183700,2.87818359375,0.1313321590423584,0.1575985997915268,-0.02870982140302658
1667266577408581400,2.880581298828125,0.12705622613430023,0.13988402485847473,-0.04092676565051079
1667266577410979300,2.882979248046875,0.12522368133068085,0.12278030067682266,-0.05131116881966591
1667266577413377000,2.885376953125,0.11972606182098389,0.09956810623407364,-0.0653606578707695
1667266577415775000,2.88777490234375,0.1172826737165451,0.0781884491443634,-0.07574506103992462
1667266577418172700,2.890172607421875,0.11117420345544815,0.055587101727724075,-0.08490777015686035
1667266577420570600,2.892570556640625,0.1050657257437706,0.03542914241552353,-0.09407047927379608
1667266577422968300,2.89496826171875,0.09956810623407364,0.01588202826678753,-0.10262233763933182
1667266577425366000,2.897365966796875,0.09040539711713791,0.0030542362947016954,-0.10689827054738998
1667266577427764000,2.899763916015625,0.08246438205242157,-0.008551862090826035,-0.10873081535100937
1667266577430161700,2.90216162109375,0.07513421028852463,-0.011606098152697086,-0.10934165865182877
1667266577432559600,2.9045595703125,0.0653606578707695,-0.013438640162348747,-0.1050657257437706
1667266577434957300,2.906957275390625,0.055587101727724075,-0.012216945178806782,-0.10017894953489304
1667266577437355300,2.909355224609375,0.04703523963689804,-0.007941014133393764,-0.0910162404179573
1667266577439753000,2.9117529296875,0.0390942245721817,-0.0018325417768210173,-0.0787992998957634
1667266577442151000,2.91415087890625,0.03420744836330414,0.004275931045413017,-0.06413896381855011
1667266577444548600,2.916548583984375,0.02993151545524597,0.012827792204916477,-0.046424392610788345
1667266577446946600,2.918946533203125,0.026877280324697495,0.021379653364419937,-0.03237490355968475
1667266577449344300,2.92134423828125,0.026877280324697495,0.02870982140302658,-0.012827792204916477
1667266577451742000,2.923741943359375,0.026877280324697495,0.034818295389413834,0.004886778071522713
1667266577454140000,2.926139892578125,0.030542362481355667,0.03787253051996231,0.023823043331503868
1667266577456537600,2.92853759765625,0.03787253051996231,0.037261683493852615,0.042759306728839874
1667266577458935600,2.930935546875,0.043981000781059265,0.033596597611904144,0.05864133685827255
1667266577461333200,2.933333251953125,0.055587101727724075,0.029320668429136276,0.07207997888326645
1667266577463731200,2.935731201171875,0.0653606578707695,0.023823043331503868,0.08490777015686035
1667266577466129000,2.93812890625,0.0781884491443634,0.013438640162348747,0.09834641218185425
1667266577468526800,2.94052685546875,0.08612946420907974,0.0036650835536420345,0.10873081535100937
1667266577470924500,2.942924560546875,0.09529217332601547,-0.004275931045413017,0.1185043677687645
1667266577473322500,2.945322509765625,0.10201149433851242,-0.010995250195264816,0.12888877093791962
1667266577475720200,2.94772021484375,0.10873081535100937,-0.017714571207761765,0.13621893525123596
1667266577478118000,2.950117919921875,0.11056335270404816,-0.020157959312200546,0.1435490995645523
1667266577480515800,2.952515869140625,0.11239589750766754,-0.023212196305394173,0.14904673397541046
1667266577482913500,2.95491357421875,0.11483928561210632,-0.02870982140302658,0.15393351018428802
1667266577485311500,2.9573115234375,0.11361759155988693,-0.031153209507465363,0.16248537600040436
1667266577487709200,2.959709228515625,0.10934165865182877,-0.03542914241552353,0.16859383881092072
1667266577490107100,2.962107177734375,0.10201149433851242,-0.03665083646774292,0.17470231652259827
1667266577492504800,2.9645048828125,0.0916270911693573,-0.03665083646774292,0.18019993603229523
1667266577494902500,2.966902587890625,0.08124268800020218,-0.03298575058579445,0.19424942135810852
1667266577497300500,2.969300537109375,0.06780404597520828,-0.029320668429136276,0.20707722008228302
1667266577499698200,2.9716982421875,0.05375456064939499,-0.025655584409832954,0.22051586210727692
1667266577502096100,2.97409619140625,0.03787253051996231,-0.020157959312200546,0.2363978922367096
1667266577504493800,2.976493896484375,0.020157959312200546,-0.015271181240677834,0.25655585527420044
1667266577506891800,2.978891845703125,0.006108472589403391,-0.010995250195264816,0.2767138183116913
1667266577509289500,2.98128955078125,-0.006719320081174374,-0.01038440316915512,0.29626092314720154
1667266577511687400,2.9836875,-0.017714571207761765,-0.012216945178806782,0.3158080279827118
1667266577514085000,2.986085205078125,-0.025655584409832954,-0.016492875292897224,0.33291175961494446
1667266577516483000,2.988483154296875,-0.031153209507465363,-0.023823043331503868,0.3512371778488159
1667266577518880800,2.990880859375,-0.03665083646774292,-0.030542362481355667,0.365286648273468
1667266577521278500,2.993278564453125,-0.0390942245721817,-0.04459185153245926,0.3805578351020813
1667266577523676400,2.995676513671875,-0.04214845970273018,-0.05803048983216286,0.3903313875198364
1667266577526074000,2.99807421875,-0.04581354558467865,-0.07330167293548584,0.39949411153793335
1667266577528472000,3.00047216796875,-0.05070032179355621,-0.08918370306491852,0.4037700295448303
1667266577530869800,3.002869873046875,-0.05741964280605316,-0.10384403169155121,0.4068242609500885
1667266577533267700,3.005267822265625,-0.062306419014930725,-0.1178935244679451,0.4056025743484497
1667266577535665400,3.00766552734375,-0.06902574002742767,-0.13438639044761658,0.4031592011451721
1667266577538063400,3.0100634765625,-0.07696675509214401,-0.14660334587097168,0.3958290219306946
1667266577540461000,3.0124609375,-0.08429691940546036,-0.16187451779842377,0.38727715611457825
1667266577542859000,3.01485888671875,-0.09468132257461548,-0.1704263836145401,0.3762819170951843
1667266577545256700,3.017256591796875,-0.1044548824429512,-0.17653486132621765,0.3658975064754486
1667266577547654400,3.019654296875,-0.1178935244679451,-0.17775654792785645,0.3512371778488159
1667266577550052400,3.02205224609375,-0.12888877093791962,-0.17286977171897888,0.337798535823822
1667266577552450000,3.024449951171875,-0.13988402485847473,-0.16615045070648193,0.3249707520008087
1667266577554848000,3.026847900390625,-0.15210096538066864,-0.16004198789596558,0.3115321099758148
1667266577557245700,3.02924560546875,-0.1588202863931656,-0.15149012207984924,0.2987042963504791
1667266577559643600,3.0316435546875,-0.16676130890846252,-0.1453816443681717,0.28343313932418823
1667266577562041300,3.034041259765625,-0.17409147322177887,-0.14110571146011353,0.26755109429359436
1667266577564439300,3.036439208984375,-0.17897824943065643,-0.13988402485847473,0.25350162386894226
1667266577566837000,3.0388369140625,-0.18691925704479218,-0.1429382562637329,0.23823043704032898
