time,seconds_elapsed,z,y,x
1667266574625252600,0.097252685546875,9.358628273010254,-3.7348971366882324,-3.8449668884277344
1667266574627650600,0.099650634765625,9.176474571228027,-3.7851462364196777,-3.904787540435791
1667266574630048300,0.10204833984375,8.987442016601562,-3.8377883434295654,-3.9646079540252686
1667266574632446200,0.1044462890625,8.764909744262695,-3.9071803092956543,-3.9957146644592285
1667266574634844000,0.106843994140625,8.549256324768066,-3.9717864990234375,-4.022035598754883
1667266574637241900,0.109241943359375,8.338687896728516,-4.014857292175293,-4.017250061035156
1667266574639639600,0.1116396484375,8.221439361572266,-4.072285175323486,-4.000500202178955
1667266574642037200,0.114037353515625,8.173583030700684,-4.086641788482666,-3.9502511024475098
1667266574644435200,0.116435302734375,8.187939643859863,-4.079463481903076,-3.8832521438598633
1667266574646833000,0.1188330078125,8.216653823852539,-4.053142547607422,-3.7971103191375732
1667266574649230800,0.12123095703125,8.238189697265625,-4.031607151031494,-3.684647798538208
1667266574651628500,0.123628662109375,8.250153541564941,-4.00528621673584,-3.6029927730560303
1667266574654026500,0.126026611328125,8.197511672973633,-3.9478583335876465,-3.500101327896118
1667266574656424200,0.128424072265625,8.11824893951416,-3.9143588542938232,-3.4139597415924072
1667266574658822100,0.130822265625,8.027321815490723,-3.880859136581421,-3.318246841430664
1667266574661219800,0.1332197265625,7.9316086769104,-3.835395574569702,-3.239283561706543
1667266574663617800,0.13561767578125,7.83111047744751,-3.7971103191375732,-3.1722846031188965
1667266574666015500,0.138015380859375,7.701898097991943,-3.76361083984375,-3.098107099533081
1667266574668413200,0.1404130859375,7.579864025115967,-3.7253258228302,-3.0332016944885254
1667266574670811100,0.14281103515625,7.481459140777588,-3.7061831951141357,-2.968595504760742
1667266574673208800,0.145208740234375,7.371389389038086,-3.677469253540039,-2.918346405029297
1667266574675606800,0.147606689453125,7.270890712738037,-3.653541088104248,-2.8896324634552
1667266574678004500,0.15000439453125,7.172784805297852,-3.61017107963562,-2.856132984161377
1667266574680402400,0.15240234375,7.0770721435546875,-3.5982069969177246,-2.817847728729248
1667266574682800000,0.154800048828125,6.985845565795898,-3.5575289726257324,-2.801098108291626
1667266574685198000,0.157197998046875,6.914061069488525,-3.538386583328247,-2.801098108291626
1667266574687595800,0.159595703125,6.854240417480469,-3.5096726417541504,-2.786741018295288
1667266574689993700,0.16199365234375,6.803991317749023,-3.466601848602295,-2.7819554805755615
1667266574692391400,0.164391357421875,6.770491600036621,-3.4139597415924072,-2.786741018295288
1667266574694789000,0.1667890625,6.73938512802124,-3.387638568878174,-2.7891337871551514
1667266574697187000,0.16918701171875,6.725028038024902,-3.3469607830047607,-2.810669183731079
1667266574699584800,0.171584716796875,6.725028038024902,-3.3134610652923584,-2.8058836460113525
1667266574701982700,0.173982666015625,6.758527755737305,-3.279961585998535,-2.8202404975891113
1667266574704380400,0.17638037109375,6.803991317749023,-3.263211965560913,-2.841775894165039
1667266574706778400,0.1787783203125,6.87099027633667,-3.2440693378448486,-2.880061149597168
1667266574709176000,0.181176025390625,6.926024913787842,-3.2440693378448486,-2.9614171981811523
1667266574711574000,0.183573974609375,6.971488952636719,-3.2512478828430176,-3.0667014122009277
1667266574713971700,0.1859716796875,7.019644260406494,-3.246462106704712,-3.160320520401001
1667266574716369700,0.18836962890625,7.1010003089904785,-3.239283561706543,-3.2584261894226074
1667266574718767400,0.190767333984375,7.1249284744262695,-3.2344980239868164,-3.3613176345825195
1667266574721165000,0.1931650390625,7.177570819854736,-3.253640651702881,-3.442673683166504
1667266574723563000,0.19556298828125,7.227819919586182,-3.2679975032806396,-3.521636724472046
1667266574725960700,0.197960693359375,7.270890712738037,-3.2823543548583984,-3.5742788314819336
1667266574728358700,0.200358642578125,7.311568737030029,-3.2608189582824707,-3.6269209384918213
1667266574730756400,0.20275634765625,7.373782157897949,-3.253640651702881,-3.64127779006958
1667266574733154300,0.205154296875,7.450352191925049,-3.2727832794189453,-3.6655051708221436
1667266574735552000,0.207552001953125,7.500601768493652,-3.284747362136841,-3.6942191123962402
1667266574737950000,0.209949951171875,7.591827869415283,-3.2727832794189453,-3.739682674407959
1667266574740347600,0.21234765625,7.63729190826416,-3.308675527572632,-3.7755749225616455
1667266574742745600,0.21474560546875,7.7114691734313965,-3.339782238006592,-3.7683966159820557
1667266574745143300,0.217143310546875,7.771289825439453,-3.3613176345825195,-3.746861219406128
1667266574747541000,0.219541015625,7.840681552886963,-3.4067811965942383,-3.7277185916900635
1667266574749939000,0.22193896484375,7.912466049194336,-3.435495138168335,-3.6870405673980713
1667266574752336600,0.224336669921875,8.00100040435791,-3.4809587001800537,-3.6559338569641113
1667266574754734600,0.226734619140625,8.051250457763672,-3.4881372451782227,-3.61017107963562
1667266574757132300,0.22913232421875,8.099106788635254,-3.5168511867523193,-3.5503506660461426
1667266574759530200,0.2315302734375,8.11824893951416,-3.538386583328247,-3.5120654106140137
1667266574761928000,0.233927978515625,8.13260555267334,-3.5647075176239014,-3.492922782897949
1667266574764326000,0.236325927734375,8.12542724609375,-3.5742788314819336,-3.483351469039917
1667266574766723600,0.2387236328125,8.137690544128418,-3.607778310775757,-3.4570305347442627
1667266574769121500,0.24112158203125,8.11824893951416,-3.6293137073516846,-3.435495138168335
1667266574771519200,0.243519287109375,8.108677864074707,-3.631706476211548,-3.404388427734375
1667266574773917000,0.2459169921875,8.09671401977539,-3.6631124019622803,-3.3924243450164795
1667266574776315000,0.24831494140625,8.084749221801758,-3.7037904262542725,-3.4091739654541016
1667266574778712600,0.250712646484375,8.053643226623535,-3.739682674407959,-3.4331023693084717
1667266574781110500,0.253110595703125,8.041678428649902,-3.770789384841919,-3.4378879070281982
1667266574783508200,0.25550830078125,8.005785942077637,-3.7899320125579834,-3.468994617462158
1667266574785906200,0.25790625,7.9316086769104,-3.8234314918518066,-3.4618160724639893
1667266574788304000,0.260303955078125,7.8693952560424805,-3.849752426147461,-3.4785659313201904
1667266574790701800,0.262701904296875,7.8287177085876465,-3.8760735988616943,-3.492922782897949
1667266574793099500,0.265099609375,7.797610759735107,-3.890430450439453,-3.5120654106140137
1667266574795497500,0.26749755859375,7.77607536315918,-3.895216226577759,-3.524029493331909
1667266574797895200,0.269895263671875,7.77607536315918,-3.935894250869751,-3.5336008071899414
1667266574800292900,0.27229296875,7.76889705657959,-3.945465326309204,-3.531208038330078
1667266574802690800,0.27469091796875,7.740182876586914,-3.9311084747314453,-3.5192439556121826
1667266574805088500,0.277088623046875,7.725826263427734,-3.928715705871582,-3.5024940967559814
1667266574807486500,0.279486572265625,7.728219032287598,-3.9239299297332764,-3.4881372451782227
1667266574809884200,0.28188427734375,7.754539966583252,-3.9071803092956543,-3.4881372451782227
1667266574812282000,0.2842822265625,7.821538925170898,-3.9000017642974854,-3.492922782897949
1667266574814679800,0.2866796875,7.977072715759277,-3.859323740005493,-3.4809587001800537
1667266574817077800,0.289077880859375,8.180761337280273,-3.804288864135742,-3.4953157901763916
1667266574819475500,0.291475341796875,8.393722534179688,-3.7683966159820557,-3.5168511867523193
1667266574821873400,0.293873291015625,8.609076499938965,-3.739682674407959,-3.5048868656158447
1667266574824271000,0.29627099609375,8.805587768554688,-3.7301113605499268,-3.5048868656158447
1667266574826668800,0.298668701171875,8.944371223449707,-3.715754508972168,-3.5336008071899414
1667266574829066800,0.301066650390625,9.032905578613281,-3.7181472778320312,-3.5647075176239014
1667266574831464400,0.30346435546875,9.09990406036377,-3.746861219406128,-3.5958142280578613
1667266574833862400,0.3058623046875,9.104690551757812,-3.7660038471221924,-3.6583266258239746
1667266574836260000,0.308260009765625,9.066405296325684,-3.8162529468536377,-3.691826343536377
1667266574838658000,0.310657958984375,8.999405860900879,-3.8856449127197266,-3.76361083984375
1667266574841055700,0.3130556640625,8.922835350036621,-3.9406797885894775,-3.8138601779937744
1667266574843453400,0.315453369140625,8.82233715057373,-3.974179267883301,-3.859323740005493
1667266574845851400,0.317851318359375,8.707481384277344,-4.014857292175293,-3.890430450439453
1667266574848249000,0.3202490234375,8.577970504760742,-4.055535316467285,-3.890430450439453
1667266574850647000,0.32264697265625,8.463114738464355,-4.050749778747559,-3.8856449127197266
1667266574853044700,0.325044677734375,8.333902359008789,-4.072285175323486,-3.873680830001831
1667266574855442700,0.327442626953125,8.187939643859863,-4.067499160766602,-3.8617167472839355
1667266574857840400,0.32984033203125,8.060821533203125,-4.065106391906738,-3.82582426071167
1667266574860238300,0.33223828125,7.969893932342529,-4.024428367614746,-3.7612180709838867
1667266574862636000,0.334635986328125,7.850253105163574,-4.017250061035156,-3.7133617401123047
1667266574865034000,0.337033935546875,7.725826263427734,-4.017250061035156,-3.7061831951141357
1667266574867431700,0.339431640625,7.620542049407959,-4.01246452331543,-3.6822550296783447
1667266574869829400,0.341829345703125,7.491030216217041,-4.010071754455566,-3.660719633102417
1667266574872227300,0.344227294921875,7.361817836761475,-4.026821613311768,-3.6269209384918213
1667266574874625000,0.346625,7.244569778442383,-4.029214382171631,-3.600599765777588
1667266574877023000,0.34902294921875,7.139285564422607,-4.033999919891357,-3.583850145339966
1667266574879420700,0.351420654296875,7.079464912414551,-4.017250061035156,-3.5671002864837646
1667266574881818600,0.353818603515625,7.022037029266357,-4.0196428298950195,-3.555136203765869
1667266574884216300,0.35621630859375,6.988238334655762,-4.00528621673584,-3.5479576587677
1667266574886614300,0.3586142578125,6.978667259216309,-4.017250061035156,-3.5431721210479736
1667266574889012000,0.361011962890625,6.973881721496582,-3.9861433506011963,-3.531208038330078
1667266574891410000,0.363409912109375,6.949953556060791,-3.9717864990234375,-3.5168511867523193
1667266574893807600,0.3658076171875,6.914061069488525,-3.9813578128814697,-3.5192439556121826
1667266574896205300,0.368205322265625,6.868597507476807,-4.00528621673584,-3.521636724472046
1667266574898603300,0.370603271484375,6.839883327484131,-4.041178226470947,-3.524029493331909
1667266574901001000,0.3730009765625,6.818347930908203,-4.055535316467285,-3.538386583328247
1667266574903399000,0.37539892578125,6.794419765472412,-4.065106391906738,-3.5910286903381348
1667266574905796600,0.377796630859375,6.756134510040283,-4.07467794418335,-3.6460635662078857
1667266574908194600,0.380194580078125,6.73938512802124,-4.084249019622803,-3.675076484680176
1667266574910592300,0.38259228515625,6.6939215660095215,-4.0818562507629395,-3.699004650115967
1667266574912990200,0.384990234375,6.6939215660095215,-4.0818562507629395,-3.7133617401123047
1667266574915388000,0.387387939453125,6.679564476013184,-4.072285175323486,-3.7540395259857178
1667266574917785900,0.389785888671875,6.698707103729248,-4.060320854187012,-3.7660038471221924
1667266574920183600,0.39218359375,6.736992359161377,-4.029214382171631,-3.7899320125579834
1667266574922581200,0.394581298828125,6.770491600036621,-3.990929126739502,-3.78753924369812
1667266574924979200,0.396979248046875,6.806384086608887,-3.9502511024475098,-3.7995033264160156
1667266574927377000,0.399376953125,6.861418724060059,-3.9143588542938232,-3.7923247814178467
1667266574929774800,0.40177490234375,6.930810928344727,-3.9023945331573486,-3.801896095275879
1667266574932172500,0.404172607421875,6.976274490356445,-3.9239299297332764,-3.8210387229919434
1667266574934570500,0.406570556640625,7.038786888122559,-3.9167516231536865,-3.8449668884277344
1667266574936968200,0.40896826171875,7.093822002410889,-3.921537160873413,-3.8760735988616943
1667266574939366100,0.4113662109375,7.144071102142334,-3.935894250869751,-3.9071803092956543
1667266574941763800,0.413763916015625,7.199106216430664,-3.9311084747314453,-3.9406797885894775
1667266574944161800,0.416161865234375,7.270890712738037,-3.9406797885894775,-3.9311084747314453
1667266574946559500,0.4185595703125,7.373782157897949,-3.928715705871582,-3.9717864990234375
1667266574948957200,0.420957275390625,7.567600727081299,-3.9382870197296143,-3.9957146644592285
1667266574951355100,0.423355224609375,7.807182312011719,-3.9143588542938232,-4.024428367614746
1667266574953752800,0.4257529296875,8.036892890930176,-3.904787540435791,-4.0818562507629395
1667266574956150800,0.42815087890625,8.242975234985352,-3.9335012435913086,-4.127319812774658
1667266574958548500,0.430548583984375,8.41286563873291,-3.9717864990234375,-4.146462440490723
1667266574960946400,0.432946533203125,8.542078018188477,-3.990929126739502,-4.1608195304870605
1667266574963344100,0.43534423828125,8.680861473083496,-4.024428367614746,-4.156033992767334
1667266574965742000,0.4377421875,8.772088050842285,-4.069892406463623,-4.153641223907471
1667266574968139800,0.440139892578125,8.8438720703125,-4.096213340759277,-4.177569389343262
1667266574970537700,0.442537841796875,8.913264274597168,-4.127319812774658,-4.184747695922852
1667266574972935400,0.444935302734375,8.975478172302246,-4.151247978210449,-4.170390605926514
1667266574975333000,0.4473330078125,9.018548965454102,-4.172783374786377,-4.172783374786377
1667266574977731000,0.44973095703125,9.028120040893555,-4.189533233642578,-4.189533233642578
1667266574980128800,0.452128662109375,9.042476654052734,-4.211368083953857,-4.189533233642578
1667266574982526700,0.454526611328125,9.044869422912598,-4.213760852813721,-4.165605068206787
1667266574984924400,0.45692431640625,9.030512809753418,-4.2281174659729,-4.127319812774658
1667266574987322400,0.459322265625,8.994620323181152,-4.225724697113037,-4.098606109619141
1667266574989720000,0.461719970703125,8.951549530029297,-4.218546390533447,-4.062713623046875
1667266574992117800,0.46411767578125,8.891729354858398,-4.230510234832764,-4.014857292175293
1667266574994515700,0.466515625,8.827122688293457,-4.218546390533447,-3.959822416305542
1667266574996913400,0.468913330078125,8.7505521774292,-4.206283092498779,-3.911965847015381
1667266574999311400,0.471311279296875,8.678468704223633,-4.182354927062988,-3.873680830001831
1667266575001709000,0.473708984375,8.625826835632324,-4.153641223907471,-3.849752426147461
1667266575004107000,0.47610693359375,8.554041862487793,-4.1297125816345215,-3.8066816329956055
1667266575006504700,0.478504638671875,8.482256889343262,-4.1297125816345215,-3.780360698699951
1667266575008902700,0.480902587890625,8.422436714172363,-4.100998878479004,-3.7827534675598145
1667266575011300400,0.48330029296875,8.367402076721191,-4.089034557342529,-3.7923247814178467
1667266575013698300,0.4856982421875,8.31715202331543,-4.060320854187012,-3.81864595413208
1667266575016096000,0.488095947265625,8.290831565856934,-4.060320854187012,-3.8234314918518066
1667266575018493700,0.49049365234375,8.271688461303711,-4.060320854187012,-3.849752426147461
1667266575020891600,0.4928916015625,8.28126049041748,-4.053142547607422,-3.8928234577178955
1667266575023289300,0.495289306640625,8.286046028137207,-4.057928085327148,-3.9335012435913086
1667266575025687300,0.497687255859375,8.30279541015625,-4.050749778747559,-3.9717864990234375
1667266575028085000,0.5000849609375,8.319544792175293,-4.053142547607422,-4.01246452331543
1667266575030483000,0.50248291015625,8.338687896728516,-4.093820571899414,-4.048357009887695
1667266575032880600,0.504880615234375,8.333902359008789,-4.072285175323486,-4.0818562507629395
1667266575035278600,0.507278564453125,8.31715202331543,-4.060320854187012,-4.122534275054932
1667266575037676300,0.50967626953125,8.319544792175293,-4.086641788482666,-4.148855209350586
1667266575040074200,0.51207421875,8.321938514709473,-4.096213340759277,-4.175176620483398
1667266575042472000,0.514471923828125,8.314759254455566,-4.1297125816345215,-4.206283092498779
1667266575044869600,0.51686962890625,8.28126049041748,-4.146462440490723,-4.240081787109375
1667266575047267600,0.519267578125,8.214261054992676,-4.170390605926514,-4.268795490264893
1667266575049665300,0.521665283203125,8.154440879821777,-4.1991047859191895,-4.287938117980957
1667266575052063200,0.524063232421875,8.094321250915527,-4.1991047859191895,-4.299902439117432
1667266575054461000,0.5264609375,8.056035995483398,-4.201497554779053,-4.302295207977295
1667266575056859000,0.52885888671875,8.034500122070312,-4.223331928253174,-4.268795490264893
1667266575059256600,0.531256591796875,8.058428764343262,-4.230510234832764,-4.225724697113037
1667266575061654500,0.533654541015625,8.123034477233887,-4.237689018249512,-4.182354927062988
1667266575064052200,0.53605224609375,8.183154106140137,-4.213760852813721,-4.165605068206787
1667266575066450200,0.5384501953125,8.235795974731445,-4.237689018249512,-4.103391647338867
1667266575068847900,0.540847900390625,8.333902359008789,-4.218546390533447,-4.077070713043213
1667266575071245600,0.54324560546875,8.41286563873291,-4.211368083953857,-4.036392688751221
1667266575073643500,0.5456435546875,8.477471351623535,-4.196712017059326,-4.00528621673584
1667266575076041200,0.548041259765625,8.54447078704834,-4.201497554779053,-3.969393730163574
1667266575078439200,0.550439208984375,8.618648529052734,-4.2209391593933105,-3.9622151851654053
1667266575080836900,0.5528369140625,8.697610855102539,-4.211368083953857,-3.9789650440216064
1667266575083234800,0.55523486328125,8.767302513122559,-4.1991047859191895,-3.935894250869751
1667266575085632500,0.557632568359375,8.8438720703125,-4.201497554779053,-3.9239299297332764
1667266575088030500,0.560030517578125,8.93240737915039,-4.201497554779053,-3.9071803092956543
1667266575090428200,0.56242822265625,8.982656478881836,-4.1991047859191895,-3.9071803092956543
1667266575092826000,0.564826171875,9.013762474060059,-4.225724697113037,-3.9000017642974854
1667266575095223800,0.567223876953125,9.056833267211914,-4.254438877105713,-3.897608995437622
1667266575097621500,0.56962158203125,9.095118522644043,-4.29033088684082,-3.911965847015381
1667266575100019500,0.57201953125,9.123832702636719,-4.304687976837158,-3.897608995437622
1667266575102417200,0.574417236328125,9.109476089477539,-4.328616142272949,-3.8928234577178955
1667266575104815000,0.576815185546875,9.090332984924316,-4.347758769989014,-3.890430450439453
1667266575107212800,0.579212890625,9.061619758605957,-4.3549370765686035,-3.9095730781555176
1667266575109610800,0.58161083984375,9.030512809753418,-4.393222332000732,-3.9095730781555176
1667266575112008400,0.584008544921875,8.9850492477417,-4.417150497436523,-3.9023945331573486
1667266575114406400,0.586406494140625,8.925228118896484,-4.431507587432861,-3.8856449127197266
1667266575116804000,0.58880419921875,8.865407943725586,-4.457828521728516,-3.897608995437622
1667266575119202000,0.5912021484375,8.784051895141602,-4.481756687164307,-3.9071803092956543
1667266575121599700,0.593599853515625,8.702695846557617,-4.515256404876709,-3.911965847015381
1667266575123997400,0.59599755859375,8.628219604492188,-4.517649173736572,-3.9143588542938232
1667266575126395400,0.5983955078125,8.55164909362793,-4.53200626373291,-3.890430450439453
1667266575128793000,0.60079296875,8.463114738464355,-4.5200419425964355,-3.8521454334259033
1667266575131191000,0.60319091796875,8.41286563873291,-4.510470867156982,-3.81864595413208
1667266575133588700,0.605588623046875,8.367402076721191,-4.498506546020508,-3.75643253326416
1667266575135986700,0.607986572265625,8.343473434448242,-4.486542224884033,-3.70139741897583
1667266575138384400,0.61038427734375,8.293224334716797,-4.486542224884033,-3.6559338569641113
1667266575140782300,0.6127822265625,8.262117385864258,-4.467400074005127,-3.6029927730560303
1667266575143180000,0.615179931640625,8.245368003845215,-4.445864677429199,-3.5431721210479736
1667266575145577700,0.61757763671875,8.216653823852539,-4.457828521728516,-3.5024940967559814
1667266575147975700,0.6199755859375,8.187939643859863,-4.438685894012451,-3.4618160724639893
1667266575150373400,0.622373291015625,8.166404724121094,-4.398007869720459,-3.4235310554504395
1667266575152771300,0.624771240234375,8.152048110961914,-4.383651256561279,-3.397209882736206
1667266575155169000,0.6271689453125,8.15683364868164,-4.383651256561279,-3.3613176345825195
1667266575157567000,0.62956689453125,8.166404724121094,-4.3549370765686035,-3.3589248657226562
1667266575159964700,0.631964599609375,8.197511672973633,-4.328616142272949,-3.3373894691467285
1667266575162362600,0.634362548828125,8.214261054992676,-4.319045066833496,-3.339782238006592
1667266575164760300,0.63676025390625,8.269295692443848,-4.2831525802612305,-3.3708889484405518
1667266575167158000,0.639157958984375,8.312366485595703,-4.249652862548828,-3.397209882736206
1667266575169556000,0.641555908203125,8.367402076721191,-4.235296249389648,-3.4259238243103027
1667266575171953700,0.64395361328125,8.410472869873047,-4.216153621673584,-3.4737801551818848
1667266575174351600,0.6463515625,8.44157886505127,-4.194318771362305,-3.500101327896118
1667266575176749300,0.648749267578125,8.458329200744629,-4.175176620483398,-3.552743434906006
1667266575179147300,0.651147216796875,8.463114738464355,-4.179962158203125,-3.61017107963562
1667266575181545000,0.653544921875,8.472685813903809,-4.194318771362305,-3.6559338569641113
1667266575183943000,0.65594287109375,8.470293045043945,-4.194318771362305,-3.7372899055480957
1667266575186340600,0.658340576171875,8.455936431884766,-4.211368083953857,-3.8162529468536377
1667266575188738600,0.660738525390625,8.439186096191406,-4.223331928253174,-3.8832521438598633
1667266575191136300,0.66313623046875,8.44157886505127,-4.232903480529785,-3.945465326309204
1667266575193534000,0.665533935546875,8.52054214477539,-4.230510234832764,-4.01246452331543
1667266575195932000,0.667931884765625,8.654540061950684,-4.235296249389648,-4.048357009887695
1667266575198329600,0.67032958984375,8.800801277160645,-4.237689018249512,-4.120141506195068
1667266575200727600,0.6727275390625,8.949156761169434,-4.244867324829102,-4.184747695922852
1667266575203125200,0.675125244140625,9.06401252746582,-4.264009952545166,-4.216153621673584
1667266575205523200,0.677523193359375,9.159725189208984,-4.319045066833496,-4.254438877105713
1667266575207921000,0.6799208984375,9.219545364379883,-4.35254430770874,-4.261617183685303
1667266575210318800,0.68231884765625,9.291629791259766,-4.398007869720459,-4.271188259124756
1667266575212716500,0.684716552734375,9.35623550415039,-4.445864677429199,-4.254438877105713
1667266575215114500,0.687114501953125,9.384949684143066,-4.474578380584717,-4.244867324829102
1667266575217512200,0.68951220703125,9.4088773727417,-4.48414945602417,-4.235296249389648
1667266575219910000,0.691909912109375,9.430413246154785,-4.517649173736572,-4.182354927062988
1667266575222307800,0.694307861328125,9.449555397033691,-4.498506546020508,-4.144069671630859
1667266575224705500,0.69670556640625,9.451948165893555,-4.498506546020508,-4.077070713043213
1667266575227103500,0.699103515625,9.471091270446777,-4.48414945602417,-4.026821613311768
1667266575229501200,0.701501220703125,9.497411727905273,-4.481756687164307,-3.9957146644592285
1667266575231899100,0.703899169921875,9.506983757019043,-4.433900356292725,-3.9646079540252686
1667266575234296800,0.706296875,9.499805450439453,-4.409972190856934,-3.9406797885894775
1667266575236694800,0.70869482421875,9.47348403930664,-4.388436794281006,-3.9239299297332764
1667266575239092500,0.711092529296875,9.437591552734375,-4.371686935424805,-3.895216226577759
1667266575241490400,0.713490478515625,9.38016414642334,-4.342973232269287,-3.9000017642974854
1667266575243888000,0.71588818359375,9.298808097839355,-4.323830604553223,-3.9095730781555176
1667266575246285800,0.718285888671875,9.22433090209961,-4.309473514556885,-3.9502511024475098
1667266575248683800,0.720683837890625,9.138189315795898,-4.297509670257568,-3.990929126739502
1667266575251081500,0.72308154296875,9.052047729492188,-4.287938117980957,-4.026821613311768
1667266575253479400,0.7254794921875,8.949156761169434,-4.278367042541504,-4.098606109619141
1667266575255877000,0.727877197265625,8.8438720703125,-4.271188259124756,-4.175176620483398
1667266575258275000,0.730275146484375,8.733802795410156,-4.268795490264893,-4.216153621673584
1667266575260672800,0.7326728515625,8.666504859924316,-4.268795490264893,-4.254438877105713
1667266575263070700,0.73507080078125,8.594719886779785,-4.266402721405029,-4.292723655700684
1667266575265468400,0.737468505859375,8.522934913635254,-4.242474555969238,-4.328616142272949
1667266575267866400,0.739866455078125,8.475078582763672,-4.208974838256836,-4.364508628845215
1667266575270264000,0.74226416015625,8.43440055847168,-4.189533233642578,-4.3788652420043945
1667266575272662000,0.744662109375,8.39611530303955,-4.163212299346924,-4.383651256561279
1667266575275059700,0.747059814453125,8.393722534179688,-4.139284133911133,-4.390829563140869
1667266575277457400,0.74945751953125,8.376973152160645,-4.1129631996154785,-4.412364959716797
1667266575279855400,0.75185546875,8.381758689880371,-4.069892406463623,-4.4243292808532715
1667266575282253000,0.754253173828125,8.432007789611816,-4.024428367614746,-4.4482574462890625
1667266575284651000,0.756651123046875,8.477471351623535,-3.9813578128814697,-4.455435752868652
1667266575287048700,0.759048583984375,8.530113220214844,-3.952643871307373,-4.486542224884033
1667266575289446700,0.76144677734375,8.580363273620605,-3.911965847015381,-4.512863636016846
1667266575291844400,0.76384423828125,8.621041297912598,-3.890430450439453,-4.543970108032227
1667266575294242300,0.7662421875,8.678468704223633,-3.8784663677215576,-4.575077056884766
1667266575296640000,0.768639892578125,8.755337715148926,-3.8449668884277344,-4.610969066619873
1667266575299038000,0.771037841796875,8.85344409942627,-3.7995033264160156,-4.642076015472412
1667266575301435600,0.773435546875,9.001798629760742,-3.722932815551758,-4.682754039764404
1667266575303833300,0.775833251953125,9.181260108947754,-3.6436707973480225,-4.709074974060059
1667266575306231300,0.778231201171875,9.384949684143066,-3.5647075176239014,-4.7473602294921875
1667266575308629000,0.78062890625,9.60508918762207,-3.445066452026367,-4.77876615524292
1667266575311027000,0.78302685546875,9.847063064575195,-3.3230323791503906,-4.795515537261963
1667266575313424600,0.785424560546875,10.112667083740234,-3.2105698585510254,-4.814658164978027
1667266575315822600,0.787822509765625,10.414461135864258,-3.1316065788269043,-4.843372344970703
1667266575318220300,0.79022021484375,10.720743179321289,-3.0427730083465576,-4.884049892425537
1667266575320618200,0.7926181640625,11.032109260559082,-2.9781668186187744,-4.9175496101379395
1667266575323016000,0.795015869140625,11.36231803894043,-2.927917718887329,-4.984548568725586
1667266575325414000,0.797413818359375,11.692827224731445,-2.8920252323150635,-5.061119079589844
1667266575327811600,0.7998115234375,12.071191787719727,-2.8704898357391357,-5.164010524749756
1667266575330209300,0.802209228515625,12.494721412658691,-2.832204818725586,-5.276473045349121
1667266575332607200,0.804607177734375,12.959228515625,-2.8274190425872803,-5.401198863983154
1667266575335005000,0.8070048828125,13.430913925170898,-2.7963123321533203,-5.518447399139404
1667266575337403000,0.80940283203125,13.885848999023438,-2.777169704437256,-5.6069817543029785
1667266575339800600,0.811800537109375,14.278271675109863,-2.7508487701416016,-5.66201639175415
1667266575342198500,0.814198486328125,14.654244422912598,-2.707777976989746,-5.688337802886963
1667266575344596200,0.81659619140625,15.013466835021973,-2.691028118133545,-5.726622581481934
1667266575346994200,0.818994140625,15.32214069366455,-2.691028118133545,-5.810371398925781
1667266575349392000,0.821391845703125,15.583257675170898,-2.7101707458496094,-5.892026424407959
1667266575351789800,0.823789794921875,15.820146560668945,-2.7412774562835693,-6.002096652984619
1667266575354187500,0.8261875,16.00469398498535,-2.7652056217193604,-6.097809314727783
1667266575356585200,0.828585205078125,16.1817626953125,-2.777169704437256,-6.205486297607422
1667266575358983200,0.830983154296875,16.315759658813477,-2.8130621910095215,-6.3131632804870605
1667266575361380900,0.833380859375,16.406686782836914,-2.839383125305176,-6.389733791351318
1667266575363778800,0.83577880859375,16.480865478515625,-2.856132984161377,-6.4594244956970215
1667266575366176500,0.838176513671875,16.523935317993164,-2.9255247116088867,-6.547959327697754
1667266575368574500,0.840574462890625,16.533506393432617,-2.975774049758911,-6.631708145141602
1667266575370972200,0.84297216796875,16.504793167114258,-2.9709885120391846,-6.646064758300781
1667266575373370000,0.8453701171875,16.435401916503906,-2.942274570465088,-6.641279220581055
1667266575375767800,0.847767822265625,16.320545196533203,-2.9231319427490234,-6.62931489944458
1667266575378165800,0.850165771484375,16.172191619873047,-2.8992037773132324,-6.634100914001465
1667266575380563500,0.8525634765625,16.002300262451172,-2.8680970668792725,-6.634100914001465
1667266575382961200,0.854961181640625,15.875182151794434,-2.8369903564453125,-6.653243541717529
1667266575385359000,0.857359130859375,15.820146560668945,-2.801098108291626,-6.667600154876709
1667266575387756800,0.8597568359375,15.824932098388672,-2.777169704437256,-6.679564476013184
1667266575390154800,0.86215478515625,15.865610122680664,-2.7675983905792236,-6.686742782592773
1667266575392552400,0.864552490234375,15.937395095825195,-2.760420083999634,-6.662814617156982
1667266575394950400,0.866950439453125,16.01665687561035,-2.746062994003296,-6.598208427429199
1667266575397348000,0.86934814453125,16.105192184448242,-2.7652056217193604,-6.5288166999816895
1667266575399746000,0.87174609375,16.160226821899414,-2.786741018295288,-6.4666032791137695
1667266575402143700,0.874143798828125,16.153047561645508,-2.817847728729248,-6.428019046783447
1667266575404541700,0.876541748046875,16.090835571289062,-2.887239694595337,-6.384948253631592
1667266575406939400,0.878939453125,15.973287582397461,-2.99013090133667,-6.370591163635254
1667266575409337000,0.881337158203125,15.817753791809082,-3.0738797187805176,-6.358626842498779
1667266575411735000,0.883735107421875,15.62393569946289,-3.1651060581207275,-6.337091445922852
1667266575414132700,0.8861328125,15.405889511108398,-3.2368907928466797,-6.291627883911133
1667266575416530700,0.88853076171875,15.183357238769531,-3.315854072570801,-6.250949859619141
1667266575418928400,0.890928466796875,14.982359886169434,-3.390031576156616,-6.195915222167969
1667266575421326300,0.893326416015625,14.752349853515625,-3.4307093620300293,-6.09541654586792
1667266575423724000,0.89572412109375,14.513067245483398,-3.4546377658843994,-5.961418628692627
1667266575426122000,0.8981220703125,14.273486137390137,-3.4235310554504395,-5.776872158050537
1667266575428519700,0.900519775390625,14.074881553649902,-3.3852458000183105,-5.563910961151123
1667266575430917600,0.902917724609375,13.900205612182617,-3.3302109241485596,-5.346164226531982
1667266575433315300,0.9053154296875,13.74198055267334,-3.284747362136841,-5.13529634475708
1667266575435713000,0.907713134765625,13.607982635498047,-3.2105698585510254,-4.9486565589904785
1667266575438111000,0.910111083984375,13.473984718322754,-3.145963668823242,-4.764110088348389
1667266575440508700,0.9125087890625,13.316058158874512,-3.0786654949188232,-4.599005222320557
1667266575442906600,0.91490673828125,13.167404174804688,-3.0236306190490723,-4.429114818572998
1667266575445304300,0.91730419921875,12.990335464477539,-2.99013090133667,-4.287938117980957
1667266575447702300,0.919702392578125,12.803694725036621,-2.9925239086151123,-4.120141506195068
1667266575450100000,0.922099853515625,12.554542541503906,-2.99013090133667,-3.9622151851654053
1667266575452498000,0.924497802734375,12.327223777770996,-3.028416156768799,-3.82582426071167
1667266575454895600,0.9268955078125,12.111869812011719,-3.05234432220459,-3.660719633102417
1667266575457293600,0.92929345703125,11.896217346191406,-3.069094181060791,-3.531208038330078
1667266575459691300,0.931691162109375,11.67129135131836,-3.07627272605896,-3.387638568878174
1667266575462089000,0.9340888671875,11.446066856384277,-3.0810582637786865,-3.2201411724090576
1667266575464487000,0.93648681640625,11.252248764038086,-3.07627272605896,-3.045166015625
1667266575466884600,0.938884521484375,11.09192943572998,-3.0714869499206543,-2.856132984161377
1667266575469282600,0.941282470703125,10.926525115966797,-3.059522867202759,-2.635993242263794
1667266575471680300,0.94368017578125,10.792527198791504,-3.054737091064453,-2.396411895751953
1667266575474078200,0.946078125,10.677672386169434,-3.0475587844848633,-2.1643080711364746
1667266575476476000,0.948475830078125,10.574780464172363,-3.01405930519104,-1.9390836954116821
1667266575478873900,0.950873779296875,10.517353057861328,-3.004487991333008,-1.6998014450073242
1667266575481271600,0.953271484375,10.512567520141602,-2.9781668186187744,-1.434198021888733
1667266575483669500,0.95566943359375,10.601101875305176,-2.95184588432312,-1.1922239065170288
1667266575486067200,0.958067138671875,10.71117115020752,-2.9087750911712646,-0.9577272534370422
1667266575488465000,0.96046484375,10.837990760803223,-2.8824539184570312,-0.7612167000770569
1667266575490862800,0.96286279296875,10.98185920715332,-2.880061149597168,-0.5841478109359741
1667266575493260500,0.965260498046875,11.135000228881836,-2.863311290740967,-0.4381856322288513
1667266575495658500,0.967658447265625,11.314461708068848,-2.8513472080230713,-0.2922234535217285
1667266575498056200,0.97005615234375,11.510972023010254,-2.7915267944335938,-0.10767702013254166
1667266575500454100,0.9724541015625,11.707183837890625,-2.786741018295288,0.064606212079525
1667266575502851800,0.974851806640625,11.932108879089355,-2.7723841667175293,0.2153540402650833
1667266575505249800,0.977249755859375,12.17647647857666,-2.7484560012817383,0.3927220106124878
1667266575507647500,0.9796474609375,12.437294006347656,-2.698206663131714,0.5578267574310303
1667266575510045400,0.98204541015625,12.755838394165039,-2.6575286388397217,0.7301099896430969
1667266575512443100,0.984443115234375,13.06690502166748,-2.652743101119995,0.8763712644577026
1667266575514840800,0.9868408203125,13.397414207458496,-2.6503500938415527,1.0390832424163818
1667266575517238800,0.98923876953125,13.732409477233887,-2.635993242263794,1.220937728881836
1667266575519636500,0.991636474609375,14.072488784790039,-2.659921407699585,1.3980066776275635
1667266575522034400,0.994034423828125,14.465210914611816,-2.6958138942718506,1.5275181531906128
1667266575524432100,0.99643212890625,14.857633590698242,-2.724527597427368,1.678265929222107
1667266575526830000,0.998830078125,15.21207046508789,-2.7747769355773926,1.8218353986740112
1667266575529227800,1.001227783203125,15.511472702026367,-2.8298118114471436,1.9438693523406982
1667266575531625700,1.003625732421875,15.78664779663086,-2.887239694595337,2.059023857116699
1667266575534023400,1.0060234375,16.03101348876953,-2.975774049758911,2.1403799057006836
1667266575536421400,1.00842138671875,16.23918914794922,-3.07627272605896,2.1954147815704346
1667266575538819000,1.010819091796875,16.3684024810791,-3.208176851272583,2.2193429470062256
1667266575541216800,1.013216796875,16.447364807128906,-3.3469607830047607,2.2265214920043945
1667266575543614700,1.01561474609375,16.492828369140625,-3.4953157901763916,2.2337000370025635
1667266575546012400,1.018012451171875,16.48565101623535,-3.6870405673980713,2.169093608856201
1667266575548410400,1.020410400390625,16.452150344848633,-3.9406797885894775,2.1020946502685547
1667266575550808000,1.02280810546875,16.392330169677734,-4.184747695922852,2.008774518966675
1667266575553206000,1.0252060546875,16.332509994506836,-4.405186653137207,1.9175482988357544
1667266575555603700,1.027603759765625,16.25115394592285,-4.610969066619873,1.8242281675338745
1667266575558001700,1.030001708984375,16.162620544433594,-4.8074798583984375,1.7596219778060913
1667266575560399400,1.0323994140625,16.045372009277344,-4.9654059410095215,1.7045869827270508
1667266575562797300,1.03479736328125,15.858431816101074,-5.094618320465088,1.6256239414215088
1667266575565195000,1.037195068359375,15.643077850341797,-5.185545921325684,1.55623197555542
1667266575567592700,1.0395927734375,15.410675048828125,-5.226223945617676,1.4868401288986206
1667266575569990700,1.04199072265625,15.178571701049805,-5.25254487991333,1.4198411703109741
1667266575572388400,1.044388427734375,14.920146942138672,-5.2477593421936035,1.3310075998306274
1667266575574786300,1.046786376953125,14.654244422912598,-5.231009483337402,1.2065808773040771
1667266575577184000,1.04918408203125,14.417354583740234,-5.209474086761475,1.0701899528503418
1667266575579582000,1.05158203125,14.196915626525879,-5.197509765625,0.9050851464271545
1667266575581979600,1.053979736328125,13.964812278747559,-5.175974369049072,0.6774678826332092
1667266575584377600,1.056377685546875,13.737195014953613,-5.152046203613281,0.4381856322288513
1667266575586775300,1.058775390625,13.47159194946289,-5.104189872741699,0.11485548317432404
1667266575589173200,1.06117333984375,13.160225868225098,-5.077868938446045,-0.22013968229293823
1667266575591571000,1.063571044921875,12.803694725036621,-5.022833824157715,-0.5865406394004822
1667266575593968600,1.06596875,12.418150901794434,-4.9725847244262695,-0.9457631707191467
1667266575596366600,1.06836669921875,11.99193000793457,-4.905585289001465,-1.319043517112732
1667266575598764300,1.070764404296875,11.561222076416016,-4.845765113830566,-1.6399807929992676
1667266575601162200,1.073162353515625,11.144571304321289,-4.781158924102783,-1.9630118608474731
1667266575603560000,1.075559814453125,10.742278099060059,-4.701896667480469,-2.2648067474365234
1667266575605958000,1.0779580078125,10.344770431518555,-4.625326156616211,-2.5833511352539062
1667266575608355600,1.08035546875,10.000204086303711,-4.53200626373291,-2.9015965461730957
1667266575610753500,1.08275341796875,9.652945518493652,-4.41475772857666,-3.153141975402832
1667266575613151200,1.085151123046875,9.351449966430664,-4.302295207977295,-3.3996028900146484
1667266575615549200,1.087549072265625,9.095118522644043,-4.158426761627197,-3.5886356830596924
1667266575617947000,1.08994677734375,8.884550094604492,-3.998107433319092,-3.7277185916900635
1667266575620344600,1.092344482421875,8.70508861541748,-3.8473596572875977,-3.811467409133911
1667266575622742500,1.094742431640625,8.563612937927246,-3.6870405673980713,-3.840181350708008
1667266575625140200,1.09714013671875,8.460721969604492,-3.5120654106140137,-3.828217029571533
1667266575627538200,1.0995380859375,8.39611530303955,-3.3517463207244873,-3.7372899055480957
1667266575629935900,1.101935791015625,8.355437278747559,-3.193819999694824,-3.670290946960449
1667266575632333800,1.104333740234375,8.350651741027832,-3.0260233879089355,-3.617349624633789
1667266575634731500,1.1067314453125,8.374580383300781,-2.863311290740967,-3.569493293762207
1667266575637129500,1.10912939453125,8.460721969604492,-2.6718854904174805,-3.538386583328247
1667266575639527200,1.111527099609375,8.625826835632324,-2.482553482055664,-3.500101327896118
1667266575641925000,1.113925048828125,8.865407943725586,-2.2983062267303467,-3.4809587001800537
1667266575644322800,1.11632275390625,9.126225471496582,-2.14516544342041,-3.4331023693084717
1667266575646720800,1.118720703125,9.404091835021973,-1.9776679277420044,-3.3445677757263184
1667266575649118500,1.121118408203125,9.72951602935791,-1.8409779071807861,-3.2344980239868164
1667266575651516400,1.123516357421875,10.055238723754883,-1.6974085569381714,-3.1579277515411377
1667266575653914000,1.1259140625,10.383355140686035,-1.5777673721313477,-3.05234432220459
1667266575656312000,1.12831201171875,10.644172668457031,-1.5777673721313477,-3.069094181060791
1667266575658709800,1.130709716796875,10.861919403076172,-1.6112669706344604,-3.090928554534912
1667266575661107500,1.133107421875,11.022537231445312,-1.6016956567764282,-3.05234432220459
1667266575663505400,1.13550537109375,11.12303638458252,-1.572981834411621,-2.997309446334839
1667266575665903000,1.137903076171875,11.206785202026367,-1.5466607809066772,-2.8944180011749268
1667266575668301000,1.140301025390625,11.273783683776855,-1.5586248636245728,-2.786741018295288
1667266575670698800,1.14269873046875,11.300105094909668,-1.572981834411621,-2.676671266555786
1667266575673096700,1.1450966796875,11.302497863769531,-1.5801602602005005,-2.564208507537842
1667266575675494400,1.147494384765625,11.23789119720459,-1.6112669706344604,-2.5160529613494873
1667266575677892400,1.149892333984375,11.163714408874512,-1.6447664499282837,-2.4777679443359375
1667266575680290000,1.1522900390625,11.151749610900879,-1.7524434328079224,-2.480160713195801
1667266575682688000,1.15468798828125,11.096714973449707,-1.8816559314727783,-2.513660192489624
1667266575685085700,1.157085693359375,11.024930000305176,-2.0374884605407715,-2.549851655960083
1667266575687483400,1.1594833984375,10.965109825134277,-2.2097716331481934,-2.6551358699798584
1667266575689881300,1.16188134765625,10.936097145080566,-2.3820550441741943,-2.746062994003296
1667266575692279000,1.164279052734375,10.904990196228027,-2.557030200958252,-2.8824539184570312
1667266575694677000,1.166677001953125,10.837990760803223,-2.760420083999634,-3.0643084049224854
1667266575697074700,1.16907470703125,10.780563354492188,-2.9805595874786377,-3.2273194789886475
1667266575699472600,1.17147265625,10.708778381347656,-3.2177481651306152,-3.380460262298584
1667266575701870300,1.173870361328125,10.6657075881958,-3.4235310554504395,-3.490530014038086
1667266575704268300,1.176268310546875,10.636994361877441,-3.6053855419158936,-3.528815269470215
1667266575706666000,1.178666015625,10.639387130737305,-3.7588253021240234,-3.500101327896118
1667266575709064000,1.18106396484375,10.680065155029297,-3.890430450439453,-3.4642090797424316
1667266575711461600,1.183461669921875,10.720743179321289,-4.045963764190674,-3.483351469039917
1667266575713859300,1.185859375,10.802098274230957,-4.1991047859191895,-3.514458179473877
1667266575716257300,1.18825732421875,10.919346809387207,-4.314259052276611,-3.466601848602295
1667266575718655000,1.190655029296875,11.001002311706543,-4.412364959716797,-3.3589248657226562
1667266575721053000,1.193052978515625,11.003395080566406,-4.4243292808532715,-3.1746773719787598
1667266575723450600,1.19545068359375,10.93131160736084,-4.390829563140869,-2.935096025466919
1667266575725848600,1.1978486328125,10.847562789916992,-4.309473514556885,-2.6383860111236572
1667266575728246300,1.200246337890625,10.768599510192871,-4.158426761627197,-2.348555326461792
1667266575730644200,1.202644287109375,10.71117115020752,-3.959822416305542,-2.035095691680908
1667266575733042000,1.2050419921875,10.744670867919922,-3.7253258228302,-1.714158296585083
1667266575735440000,1.20743994140625,10.82124137878418,-3.4498519897460938,-1.374078392982483
1667266575737837600,1.209837646484375,10.924132347106934,-3.177070379257202,-1.0534402132034302
1667266575740235300,1.2122353515625,11.003395080566406,-2.9398818016052246,-0.7899305820465088
1667266575742633200,1.21463330078125,11.178071022033691,-2.700599431991577,-0.5602195858955383
1667266575745031000,1.217031005859375,11.386246681213379,-2.4538395404815674,-0.3281157910823822
1667266575747428900,1.219428955078125,11.654541969299316,-2.2241287231445312,-0.13160525262355804
1667266575749826600,1.22182666015625,11.922537803649902,-2.0063817501068115,0.035892341285943985
1667266575752224500,1.224224609375,12.145369529724121,-1.8026927709579468,0.1986042857170105
1667266575754622200,1.226622314453125,12.28415298461914,-1.6184453964233398,0.3089732229709625
1667266575757020200,1.229020263671875,12.382259368896484,-1.4581263065338135,0.3807578980922699
1667266575759417900,1.23141796875,12.430115699768066,-1.3070793151855469,0.44775694608688354
1667266575761815800,1.23381591796875,12.413365364074707,-1.2281162738800049,0.44775694608688354
1667266575764213500,1.236213623046875,12.288938522338867,-1.1826525926589966,0.3640081584453583
1667266575766611200,1.238611083984375,12.119048118591309,-1.2113664150238037,0.2225325107574463
1667266575769009200,1.241009033203125,11.927323341369629,-1.2759727239608765,0.01196411345154047
1667266575771406800,1.24340673828125,11.66411304473877,-1.3836497068405151,-0.24885354936122894
1667266575773804800,1.2458046875,11.422139167785645,-1.5155540704727173,-0.5362913608551025
1667266575776202500,1.248202392578125,11.158928871154785,-1.6734803915023804,-0.8428717851638794
1667266575778600400,1.250600341796875,10.924132347106934,-1.8218353986740112,-1.1371889114379883
1667266575780998100,1.252998046875,10.68963623046875,-1.9848463535308838,-1.4365909099578857
1667266575783396000,1.25539599609375,10.4790678024292,-2.118844509124756,-1.6926229000091553
1667266575785793800,1.257793701171875,10.261021614074707,-2.214557409286499,-1.9127626419067383
1667266575788191700,1.260191650390625,10.079167366027832,-2.30069899559021,-2.104487419128418
1667266575790589400,1.26258935546875,9.902098655700684,-2.348555326461792,-2.2265214920043945
1667266575792987100,1.264987060546875,9.734301567077637,-2.3461625576019287,-2.310270309448242
1667266575795385000,1.267385009765625,9.593125343322754,-2.3294129371643066,-2.372483730316162
1667266575797782800,1.26978271484375,9.48066234588623,-2.2911276817321777,-2.3820550441741943
1667266575800180700,1.2721806640625,9.361021041870117,-2.204986095428467,-2.372483730316162
1667266575802578400,1.274578369140625,9.245866775512695,-2.1236300468444824,-2.3748764991760254
1667266575804976400,1.276976318359375,9.1716890335083,-2.0231316089630127,-2.3461625576019287
1667266575807374000,1.2793740234375,9.104690551757812,-1.9151554107666016,-2.2983062267303467
1667266575809772000,1.28177197265625,9.018548965454102,-1.8026927709579468,-2.2648067474365234
1667266575812169700,1.284169677734375,8.96112060546875,-1.6686947345733643,-2.23848557472229
1667266575814567700,1.286567626953125,8.891729354858398,-1.5227324962615967,-2.245664119720459
1667266575816965400,1.28896533203125,8.791230201721191,-1.3908281326293945,-2.2337000370025635
1667266575819363300,1.29136328125,8.642576217651367,-1.3549357652664185,-2.197807550430298
1667266575821761000,1.293760986328125,8.465507507324219,-1.3573286533355713,-2.111665964126587
1667266575824159000,1.296158935546875,8.259724617004395,-1.4126626253128052,-2.0853450298309326
1667266575826556700,1.298556640625,8.029714584350586,-1.477268934249878,-2.066202402114868
1667266575828954400,1.300954345703125,7.77607536315918,-1.5155540704727173,-2.0781664848327637
1667266575831352300,1.303352294921875,7.493422985076904,-1.5634105205535889,-2.11405873298645
1667266575833750000,1.30575,7.232605457305908,-1.5346965789794922,-2.1571295261383057
1667266575836148000,1.30814794921875,7.017251491546631,-1.505982756614685,-2.2360928058624268
1667266575838545700,1.310545654296875,6.859025955200195,-1.450947880744934,-2.3461625576019287
1667266575840943600,1.312943603515625,6.729813575744629,-1.410269856452942,-2.4610180854797363
1667266575843341300,1.31534130859375,6.607779502868652,-1.3692927360534668,-2.597707986831665
1667266575845739300,1.3177392578125,6.545566558837891,-1.3525429964065552,-2.722134828567505
1667266575848137000,1.320136962890625,6.509674072265625,-1.311864972114563,-2.834597587585449
1667266575850535000,1.322534912109375,6.49770975112915,-1.287936806678772,-2.8896324634552
1667266575852932600,1.3249326171875,6.473781585693359,-1.2544373273849487,-2.8944180011749268
1667266575855330300,1.327330322265625,6.468996047973633,-1.2137593030929565,-2.8274190425872803
1667266575857728300,1.329728271484375,6.4666032791137695,-1.170688509941101,-2.7340989112854004
1667266575860126000,1.3321259765625,6.49770975112915,-1.0869396924972534,-2.604886531829834
1667266575862524000,1.33452392578125,6.538387775421143,-0.9984052777290344,-2.441875457763672
1667266575864921600,1.336921630859375,6.6245293617248535,-0.9050851464271545,-2.2671995162963867
1667266575867319600,1.339319580078125,6.722635269165039,-0.8138588070869446,-2.063809633255005
1667266575869717200,1.34171728515625,6.727420806884766,-0.732502818107605,-1.812264084815979
1667266575872115200,1.344115234375,6.650850772857666,-0.6678966283798218,-1.501197099685669
1667266575874513000,1.346512939453125,6.588637351989746,-0.6176473498344421,-1.2329018115997314
1667266575876910800,1.348910888671875,6.5766730308532715,-0.5075774788856506,-1.074975609779358
1667266575879308500,1.35130859375,6.612565517425537,-0.3735794425010681,-1.0654042959213257
1667266575881706200,1.353706298828125,6.679564476013184,-0.23688943684101105,-1.1563315391540527
1667266575884104200,1.356104248046875,6.7345991134643555,-0.13639089465141296,-1.2376874685287476
1667266575886502000,1.358501953125,6.770491600036621,-0.02392822690308094,-1.3142578601837158
1667266575888899800,1.36089990234375,6.794419765472412,0.019142581149935722,-1.3860424757003784
1667266575891297500,1.363297607421875,6.7417778968811035,0.016749758273363113,-1.532303810119629
1667266575893695500,1.365695556640625,6.770491600036621,0.0526420995593071,-1.6447664499282837
1667266575896093200,1.36809326171875,6.859025955200195,0.10767702013254166,-1.7309080362319946
1667266575898491100,1.3704912109375,6.935596466064453,0.18903298676013947,-1.8146568536758423
1667266575900888800,1.372888916015625,6.985845565795898,0.21296121180057526,-1.9103697538375854
1667266575903286800,1.375286865234375,6.949953556060791,0.21296121180057526,-1.9680966138839722
1667266575905684500,1.3776845703125,6.859025955200195,0.1866401731967926,-2.0039889812469482
1667266575908082400,1.38008251953125,6.729813575744629,0.13639089465141296,-1.994417667388916
1667266575910480100,1.382480224609375,6.636493682861328,0.07657032459974289,-1.9752750396728516
1667266575912878000,1.384878173828125,6.602993965148926,-0.007178467698395252,-1.9800606966018677
1667266575915275800,1.38727587890625,6.605386734008789,-0.08374879509210587,-2.018345832824707
1667266575917673500,1.389673583984375,6.579065799713135,-0.13160525262355804,-2.080559253692627
1667266575920071400,1.392071533203125,6.504888534545898,-0.1698904037475586,-2.2121646404266357
1667266575922469000,1.39446923828125,6.408876419067383,-0.19381862878799438,-2.3150558471679688
1667266575924867000,1.3968671875,6.286842346191406,-0.22013968229293823,-2.3748764991760254
1667266575927264800,1.3992646484375,6.109773635864258,-0.2273181527853012,-2.396411895751953
1667266575929662700,1.401662841796875,5.987739562988281,-0.2392822653055191,-2.4562325477600098
1667266575932060400,1.404060302734375,5.927918910980225,-0.22971096634864807,-2.535494804382324
1667266575934458400,1.406458251953125,5.923133373260498,-0.24646073579788208,-2.6503500938415527
1667266575936856000,1.40885595703125,5.925526142120361,-0.24646073579788208,-2.698206663131714
1667266575939254000,1.41125390625,5.90159797668457,-0.22971096634864807,-2.7412774562835693
1667266575941651700,1.413651611328125,5.84147834777832,-0.21774685382843018,-2.7580273151397705
1667266575944049700,1.416049560546875,5.812764644622803,-0.19381862878799438,-2.777169704437256
1667266575946447400,1.418447265625,5.791228771209717,-0.15314064919948578,-2.7412774562835693
1667266575948845000,1.420844970703125,5.7888360023498535,-0.09571290761232376,-2.691028118133545
1667266575951243000,1.423242919921875,5.817550182342529,-0.019142581149935722,-2.6575286388397217
1667266575953640700,1.425640625,5.839085578918457,0.038285162299871445,-2.590529680252075
1667266575956038700,1.42803857421875,5.90877628326416,0.12921242415905,-2.520838737487793
1667266575958436400,1.430436279296875,5.992525100708008,0.22492532432079315,-2.441875457763672
1667266575960834300,1.432834228515625,6.049952983856201,0.29700911045074463,-2.324627161026001
1667266575963232000,1.43523193359375,6.0834527015686035,0.3927220106124878,-2.2097716331481934
1667266575965630000,1.4376298828125,6.104988098144531,0.5027918815612793,-2.0853450298309326
1667266575968027600,1.440027587890625,6.1313090324401855,0.6176473498344421,-1.9462621212005615
1667266575970425600,1.442425537109375,6.167201042175293,0.7157530784606934,-1.807478427886963
1667266575972823300,1.4448232421875,6.198307991027832,0.7803592681884766,-1.678265929222107
1667266575975221000,1.447220947265625,6.2413787841796875,0.8668000102043152,-1.5466607809066772
1667266575977619000,1.449618896484375,6.341877460479736,0.9050851464271545,-1.3980066776275635
1667266575980016600,1.4520166015625,6.49770975112915,0.9696913957595825,-1.2616157531738281
1667266575982414600,1.45441455078125,6.720242500305176,1.074975609779358,-1.1419745683670044
1667266575984812300,1.456812255859375,6.971488952636719,1.1539387702941895,-1.0295119285583496
1667266575987210200,1.459210205078125,7.206284523010254,1.2352946996688843,-0.9672985672950745
1667266575989608000,1.46160791015625,7.383353233337402,1.2616157531738281,-0.9218349456787109
1667266575992006000,1.464005859375,7.5101728439331055,1.2999008893966675,-0.9002995491027832
1667266575994403600,1.466403564453125,7.58943510055542,1.3262219429016113,-0.9002995491027832
1667266575996801500,1.468801513671875,7.646862983703613,1.3357932567596436,-0.9074779748916626
1667266575999199200,1.47119921875,7.7353973388671875,1.316650629043579,-0.9170492887496948
1667266576001597000,1.473596923828125,7.8526458740234375,1.2855439186096191,-0.9122636318206787
1667266576003995000,1.475994873046875,7.972286701202393,1.2472587823867798,-0.9194421172142029
1667266576006392600,1.478392578125,8.108677864074707,1.2281162738800049,-0.9218349456787109
1667266576008790500,1.48079052734375,8.2788667678833,1.201795220375061,-0.9146564602851868
1667266576011188200,1.483188232421875,8.415258407592773,1.1922239065170288,-0.9337990283966064
1667266576013586200,1.485586181640625,8.55882740020752,1.197009563446045,-0.9385846853256226
1667266576015983900,1.48798388671875,8.616254806518555,1.1802598237991333,-0.9290133714675903
1667266576018381800,1.4903818359375,8.623434066772461,1.197009563446045,-0.9218349456787109
1667266576020779500,1.492779541015625,8.575576782226562,1.2065808773040771,-0.9337990283966064
1667266576023177500,1.495177490234375,8.379365921020508,1.197009563446045,-0.924227774143219
1667266576025575200,1.4975751953125,8.041678428649902,1.1802598237991333,-0.9481559991836548
1667266576027972900,1.499972900390625,7.744968891143799,1.1467602252960205,-1.0390832424163818
1667266576030370800,1.502370849609375,7.45274543762207,1.0821540355682373,-1.1156535148620605
1667266576032768800,1.504768798828125,7.1488566398620605,1.0342975854873657,-1.1994023323059082
1667266576035166500,1.50716650390625,6.890132904052734,1.0007981061935425,-1.2759727239608765
1667266576037564200,1.509564208984375,6.67717170715332,1.0055837631225586,-1.3716856241226196
1667266576039962000,1.511962158203125,6.531209468841553,1.036690354347229,-1.4365909099578857
1667266576042359800,1.51435986328125,6.439982891082764,1.079761266708374,-1.477268934249878
1667266576044757800,1.5167578125,6.404090881347656,1.1419745683670044,-1.5131611824035645
1667266576047155500,1.519155517578125,6.413661956787109,1.2352946996688843,-1.5634105205535889
1667266576049553400,1.521553466796875,6.451947212219238,1.3214362859725952,-1.596909999847412
1667266576051951000,1.523951171875,6.531209468841553,1.4174482822418213,-1.6040884256362915
1667266576054349000,1.52634912109375,6.631708145141602,1.5179468393325806,-1.5825530290603638
1667266576056746800,1.528746826171875,6.725028038024902,1.6208382844924927,-1.5418751239776611
1667266576059144700,1.531144775390625,6.80159854888916,1.690230131149292,-1.4796617031097412
1667266576061542400,1.53354248046875,6.80877685546875,1.7548363208770752,-1.4318052530288696
1667266576063940000,1.535940185546875,6.7417778968811035,1.8218353986740112,-1.3764712810516357
1667266576066338000,1.538338134765625,6.636493682861328,1.8816559314727783,-1.2831511497497559
1667266576068735700,1.54073583984375,6.564708709716797,1.922333836555481,-1.1922239065170288
1667266576071133700,1.5431337890625,6.507281303405762,1.9776679277420044,-1.1012966632843018
1667266576073531400,1.545531494140625,6.495316982269287,2.018345832824707,-1.0079765319824219
1667266576075929300,1.547929443359375,6.4905314445495605,2.0231316089630127,-0.9026923179626465
1667266576078327000,1.5503271484375,6.555137634277344,2.059023857116699,-0.8018946647644043
1667266576080725000,1.55272509765625,6.696314334869385,2.1260228157043457,-0.7061817646026611
1667266576083122700,1.555122802734375,6.8518476486206055,2.204986095428467,-0.5817549824714661
1667266576085520600,1.557520751953125,6.952346324920654,2.228914260864258,-0.4860421121120453
1667266576087918300,1.55991845703125,7.022037029266357,2.255235433578491,-0.37836506962776184
1667266576090316000,1.56231591796875,7.038786888122559,2.2887349128723145,-0.28983065485954285
1667266576092714000,1.5647138671875,7.017251491546631,2.2648067474365234,-0.23210379481315613
1667266576095111700,1.567111572265625,7.074679374694824,2.252842426300049,-0.16271193325519562
1667266576097509600,1.569509521484375,7.246962547302246,2.2815563678741455,-0.11006984114646912
1667266576099907300,1.5719072265625,7.507780075073242,2.3150558471679688,-0.07178468257188797
1667266576102305300,1.57430517578125,7.752147197723389,2.355733871459961,-0.06699903309345245
1667266576104703000,1.576702880859375,7.950751304626465,2.39401912689209,-0.07417750358581543
1667266576107101000,1.579100830078125,8.106285095214844,2.389233350753784,-0.1339980661869049
1667266576109498600,1.58149853515625,8.214261054992676,2.355733871459961,-0.22971096634864807
1667266576111896600,1.583896484375,8.329116821289062,2.3126630783081055,-0.31854450702667236
1667266576114294300,1.586294189453125,8.39611530303955,2.2648067474365234,-0.4334000051021576
1667266576116692000,1.58869189453125,8.42722225189209,2.1714866161346436,-0.5602195858955383
1667266576119090000,1.59108984375,8.479864120483398,2.0781664848327637,-0.7133602499961853
1667266576121487600,1.593487548828125,8.534899711608887,1.9896320104599,-0.857228696346283
1667266576123885600,1.595885498046875,8.585148811340332,1.8768702745437622,-0.9960124492645264
1667266576126283300,1.598283203125,8.65932559967041,1.781157374382019,-1.1371889114379883
1667266576128681200,1.60068115234375,8.714659690856934,1.7021942138671875,-1.2592228651046753
1667266576131079000,1.603078857421875,8.745766639709473,1.623231053352356,-1.3453645706176758
1667266576133476900,1.605476806640625,8.755337715148926,1.5490535497665405,-1.4294124841690063
1667266576135874600,1.60787451171875,8.71226692199707,1.5083755254745483,-1.4724832773208618
1667266576138272500,1.6102724609375,8.647361755371094,1.4892330169677734,-1.5131611824035645
1667266576140670200,1.612670166015625,8.539685249328613,1.4676976203918457,-1.5179468393325806
1667266576143068200,1.615068115234375,8.43440055847168,1.470090389251709,-1.5514464378356934
1667266576145465900,1.6174658203125,8.355437278747559,1.4676976203918457,-1.5753746032714844
1667266576147863600,1.619863525390625,8.231010437011719,1.4533406496047974,-1.6256239414215088
1667266576150261500,1.622261474609375,8.106285095214844,1.4485549926757812,-1.6447664499282837
1667266576152659200,1.6246591796875,8.003393173217773,1.415055513381958,-1.6423736810684204
1667266576155057200,1.62705712890625,7.907680511474609,1.3836497068405151,-1.651944875717163
1667266576157454800,1.629454833984375,7.843074321746826,1.3381860256195068,-1.654337763786316
1667266576159852800,1.631852783203125,7.867002487182617,1.3405789136886597,-1.659123420715332
1667266576162250500,1.63425048828125,7.905287742614746,1.311864972114563,-1.6710875034332275
1667266576164648400,1.6366484375,7.945965766906738,1.3022937774658203,-1.6663018465042114
1667266576167046100,1.639046142578125,8.0081787109375,1.3310075998306274,-1.6710875034332275
1667266576169444000,1.641444091796875,8.041678428649902,1.350150227546692,-1.651944875717163
1667266576171841800,1.643841796875,8.056035995483398,1.3573286533355713,-1.6112669706344604
1667266576174239700,1.64623974609375,8.077570915222168,1.3884353637695312,-1.5801602602005005
1667266576176637400,1.648637451171875,8.065607070922852,1.40279221534729,-1.5586248636245728
1667266576179035400,1.651035400390625,8.03210735321045,1.4533406496047974,-1.5035899877548218
1667266576181433000,1.65343310546875,7.922037601470947,1.4892330169677734,-1.4294124841690063
1667266576183830800,1.655830810546875,7.8454670906066895,1.5107684135437012,-1.3381860256195068
1667266576186228700,1.658228759765625,7.718647480010986,1.5394822359085083,-1.256830096244812
1667266576188626400,1.66062646484375,7.5652079582214355,1.5753746032714844,-1.1802598237991333
1667266576191024400,1.6630244140625,7.433602809906006,1.6040884256362915,-1.1084750890731812
1667266576193422000,1.665422119140625,7.297211647033691,1.6351951360702515,-1.0558329820632935
1667266576195820000,1.667820068359375,7.165606498718262,1.6639090776443481,-1.017547845840454
1667266576198217700,1.6702177734375,7.022037029266357,1.683051586151123,-1.012762188911438
1667266576200615700,1.67261572265625,6.892525672912598,1.6926229000091553,-0.9912267923355103
1667266576203013400,1.675013427734375,6.7657060623168945,1.709372639656067,-0.97926265001297
1667266576205411300,1.677411376953125,6.655636310577393,1.7356936931610107,-0.9960124492645264
1667266576207809000,1.67980908203125,6.588637351989746,1.7787644863128662,-0.9840483069419861
1667266576210206700,1.682206787109375,6.524031162261963,1.7715860605239868,-1.0031908750534058
1667266576212604700,1.684604736328125,6.471388816833496,1.800299882888794,-0.9960124492645264
1667266576215002400,1.68700244140625,6.423233509063721,1.843370795249939,-0.9768698215484619
1667266576217400300,1.689400390625,6.370591163635254,1.9127626419067383,-0.9481559991836548
1667266576219798000,1.691798095703125,6.303592205047607,1.9728822708129883,-0.8883354067802429
1667266576222196000,1.694196044921875,6.222236156463623,2.0303099155426025,-0.8330013751983643
1667266576224593700,1.69659375,6.128916263580322,2.0925233364105225,-0.7468597888946533
1667266576226991600,1.69899169921875,6.028417587280273,2.1332013607025146,-0.6224330067634583
1667266576229389300,1.701389404296875,5.899205207824707,2.1475582122802734,-0.5147559642791748
1667266576231787300,1.703787353515625,5.762515068054199,2.1571295261383057,-0.46450668573379517
1667266576234185000,1.70618505859375,5.647659778594971,2.1714866161346436,-0.37597227096557617
1667266576236582700,1.708582763671875,5.578267574310303,2.1786649227142334,-0.3807578980922699
1667266576238980600,1.710980712890625,5.528018474578857,2.169093608856201,-0.37118661403656006
1667266576241378300,1.71337841796875,5.496912002563477,2.149951219558716,-0.37118661403656006
1667266576243776300,1.7157763671875,5.484947681427002,2.169093608856201,-0.37836506962776184
1667266576246174000,1.718174072265625,5.496912002563477,2.221735715866089,-0.35443684458732605
1667266576248572000,1.720572021484375,5.551946640014648,2.2648067474365234,-0.3089732229709625
1667266576250969600,1.722969482421875,5.597410202026367,2.3533411026000977,-0.23210379481315613
1667266576253367600,1.725367431640625,5.666802406311035,2.403590440750122,-0.14835500717163086
1667266576255765200,1.72776513671875,5.748157978057861,2.4681966304779053,-0.07178468257188797
1667266576258163200,1.7301630859375,5.810371398925781,2.549851655960083,0.031106693670153618
1667266576260561000,1.732560791015625,5.839085578918457,2.6168506145477295,0.11964113265275955
1667266576262958600,1.73495849609375,5.843871116638184,2.6862425804138184,0.17706887423992157
1667266576265356500,1.7373564453125,5.839085578918457,2.722134828567505,0.1866401731967926
1667266576267754200,1.739754150390625,5.817550182342529,2.746062994003296,0.13160525262355804
1667266576270152200,1.742152099609375,5.762515068054199,2.738884687423706,0.10049854964017868
1667266576272550000,1.7445498046875,5.676373481750488,2.724527597427368,0.05024927482008934
1667266576274947800,1.74694775390625,5.5830535888671875,2.7029922008514404,-0.019142581149935722
1667266576277345500,1.749345458984375,5.492125988006592,2.7029922008514404,-0.09810572862625122
1667266576279743500,1.751743408203125,5.405984401702881,2.7125635147094727,-0.17228323221206665
1667266576282141200,1.75414111328125,5.336592674255371,2.700599431991577,-0.20338992774486542
1667266576284539100,1.7565390625,5.269294738769531,2.7173492908477783,-0.22013968229293823
1667266576286936800,1.758936767578125,5.24536657333374,2.7125635147094727,-0.20338992774486542
1667266576289334800,1.761334716796875,5.2405805587768555,2.7580273151397705,-0.1459621787071228
1667266576291732500,1.763732421875,5.262115955352783,2.801098108291626,-0.1052841991186142
1667266576294130400,1.76613037109375,5.307579517364502,2.8298118114471436,-0.05742774158716202
1667266576296528100,1.768528076171875,5.372485160827637,2.887239694595337,0.016749758273363113
1667266576298925800,1.77092578125,5.439484119415283,2.973381280899048,0.11246266216039658
1667266576301323800,1.77332373046875,5.537590026855469,3.0571300983428955,0.21774685382843018
1667266576303721500,1.775721435546875,5.621338367462158,3.1387851238250732,0.35922250151634216
1667266576306119400,1.778119384765625,5.702694416046143,3.215355396270752,0.44775694608688354
1667266576308517000,1.78051708984375,5.7792649269104,3.2967114448547363,0.524327278137207
1667266576310915000,1.7829150390625,5.860620975494385,3.3469607830047607,0.5817549824714661
1667266576313312800,1.785312744140625,5.96381139755249,3.435495138168335,0.6391827464103699
1667266576315710700,1.787710693359375,6.059524059295654,3.507279872894287,0.6702894568443298
1667266576318108400,1.7901083984375,6.186343669891357,3.5647075176239014,0.6607181429862976
1667266576320506400,1.79250634765625,6.310770511627197,3.5814573764801025,0.6272186636924744
1667266576322904000,1.794904052734375,6.4666032791137695,3.5982069969177246,0.579362154006958
1667266576325301800,1.7973017578125,6.598208427429199,3.600599765777588,0.4956133961677551
1667266576327699700,1.79969970703125,6.725028038024902,3.5742788314819336,0.385543555021286
1667266576330097400,1.802097412109375,6.847062110900879,3.5264222621917725,0.26560330390930176
1667266576332495400,1.804495361328125,6.9930243492126465,3.4857444763183594,0.12921242415905
1667266576334893000,1.80689306640625,7.156035423278809,3.4331023693084717,0.016749758273363113
1667266576337291000,1.809291015625,7.321139812469482,3.366103172302246,-0.08614161610603333
1667266576339688700,1.811688720703125,7.491030216217041,3.3230323791503906,-0.16510476171970367
1667266576342086700,1.814086669921875,7.668398380279541,3.294318675994873,-0.2273181527853012
1667266576344484400,1.816484375,7.878966808319092,3.270390272140503,-0.2727817893028259
1667266576346882300,1.81888232421875,8.091927528381348,3.256033420562744,-0.2922234535217285
1667266576349280000,1.821280029296875,8.333902359008789,3.263211965560913,-0.2922234535217285
1667266576351678000,1.823677978515625,8.542078018188477,3.246462106704712,-0.2679961323738098
1667266576354075600,1.82607568359375,8.757730484008789,3.2584261894226074,-0.2632105052471161
1667266576356473300,1.828473388671875,8.982656478881836,3.277568817138672,-0.23688943684101105
1667266576358871300,1.830871337890625,9.147761344909668,3.311068296432495,-0.18903298676013947
1667266576361269000,1.83326904296875,9.272486686706543,3.332603693008423,-0.17228323221206665
1667266576363667000,1.8356669921875,9.368199348449707,3.366103172302246,-0.16510476171970367
1667266576366064600,1.838064697265625,9.361021041870117,3.404388427734375,-0.19381862878799438
1667266576368462600,1.840462646484375,9.341878890991211,3.4019956588745117,-0.2273181527853012
1667266576370860300,1.8428603515625,9.27009391784668,3.421138286590576,-0.2874378263950348
1667266576373258200,1.84525830078125,9.19561767578125,3.4235310554504395,-0.3400799036026001
1667266576375656000,1.847656005859375,9.147761344909668,3.4163525104522705,-0.39511483907699585
1667266576378054000,1.850053955078125,9.09272575378418,3.4067811965942383,-0.47168517112731934
1667266576380451600,1.85245166015625,9.047262191772461,3.380460262298584,-0.5099703073501587
1667266576382849300,1.854849365234375,8.9850492477417,3.349353551864624,-0.5626124143600464
1667266576385247200,1.857247314453125,8.910871505737305,3.339782238006592,-0.6032904386520386
1667266576387645000,1.85964501953125,8.85344409942627,3.3373894691467285,-0.6415755748748779
1667266576390043000,1.86204296875,8.752944946289062,3.3278181552886963,-0.6583253145217896
1667266576392440600,1.864440673828125,8.671290397644043,3.3206396102905273,-0.6798607110977173
1667266576394838500,1.866838623046875,8.56600570678711,3.3373894691467285,-0.701396107673645
1667266576397236200,1.869236328125,8.463114738464355,3.3708889484405518,-0.7061817646026611
1667266576399634200,1.87163427734375,8.372187614440918,3.3828530311584473,-0.7301099896430969
1667266576402031900,1.874031982421875,8.29561710357666,3.4307093620300293,-0.7420741319656372
1667266576404429800,1.876429931640625,8.219046592712402,3.4618160724639893,-0.7803592681884766
1667266576406827500,1.87882763671875,8.144868850708008,3.5168511867523193,-0.8162516355514526
1667266576409225500,1.8812255859375,8.099106788635254,3.5479576587677,-0.857228696346283
1667266576411623200,1.883623046875,8.053643226623535,3.5718860626220703,-0.9170492887496948
1667266576414021000,1.886021240234375,8.034500122070312,3.5886356830596924,-0.9888339638710022
1667266576416418800,1.888418701171875,8.015357971191406,3.593421459197998,-1.0414760112762451
1667266576418816500,1.89081640625,8.005785942077637,3.600599765777588,-1.1180464029312134
1667266576421214500,1.89321435546875,8.015357971191406,3.61017107963562,-1.2113664150238037
1667266576423612200,1.895612060546875,7.9866437911987305,3.6269209384918213,-1.3142578601837158
1667266576426010000,1.898010009765625,7.938787460327148,3.631706476211548,-1.438983678817749
1667266576428407800,1.90040771484375,7.8765740394592285,3.6364922523498535,-1.5658032894134521
1667266576430805800,1.9028056640625,7.795217990875244,3.569493293762207,-1.7165511846542358
1667266576433203500,1.905203369140625,7.802396297454834,3.5479576587677,-1.8744773864746094
1667266576435601400,1.907601318359375,7.881359577178955,3.5718860626220703,-1.9800606966018677
1667266576437999000,1.9099990234375,7.886145114898682,3.5503506660461426,-2.0303099155426025
1667266576440397000,1.91239697265625,7.8693952560424805,3.5359935760498047,-2.080559253692627
1667266576442794800,1.914794677734375,7.95553731918335,3.5742788314819336,-2.142772674560547
1667266576445192400,1.9171923828125,8.048856735229492,3.607778310775757,-2.169093608856201
1667266576447590400,1.91959033203125,8.063214302062988,3.6460635662078857,-2.17627215385437
1667266576449988000,1.921988037109375,8.058428764343262,3.675076484680176,-2.14516544342041
1667266576452386000,1.924385986328125,8.127820014953613,3.722932815551758,-2.11405873298645
1667266576454783700,1.92678369140625,8.242975234985352,3.780360698699951,-2.049452543258667
1667266576457181700,1.929181640625,8.381758689880371,3.840181350708008,-1.9486548900604248
1667266576459579400,1.931579345703125,8.506185531616211,3.873680830001831,-1.8337994813919067
1667266576461977300,1.933977294921875,8.613862037658691,3.9000017642974854,-1.7309080362319946
1667266576464375000,1.936375,8.697610855102539,3.890430450439453,-1.6663018465042114
1667266576466773000,1.93877294921875,8.781659126281738,3.8856449127197266,-1.5897315740585327
1667266576469170700,1.941170654296875,8.851051330566406,3.8617167472839355,-1.561017632484436
1667266576471568400,1.943568359375,8.898907661437988,3.8210387229919434,-1.568196177482605
1667266576473966300,1.94596630859375,8.918049812316895,3.7851462364196777,-1.5873386859893799
1667266576476364000,1.948364013671875,8.93958568572998,3.7277185916900635,-1.6184453964233398
1667266576478762000,1.950761962890625,8.913264274597168,3.699004650115967,-1.6399807929992676
1667266576481159700,1.95315966796875,8.901300430297852,3.670290946960449,-1.6447664499282837
1667266576483557600,1.9555576171875,8.870193481445312,3.61017107963562,-1.6088740825653076
1667266576485955300,1.957955322265625,8.86062240600586,3.5982069969177246,-1.5849459171295166
1667266576488353300,1.960353271484375,8.877371788024902,3.5886356830596924,-1.532303810119629
1667266576490751000,1.9627509765625,8.889336585998535,3.5718860626220703,-1.4485549926757812
1667266576493149000,1.96514892578125,8.910871505737305,3.559921979904175,-1.350150227546692
1667266576495546600,1.967546630859375,8.93240737915039,3.5647075176239014,-1.252044439315796
1667266576497944300,1.9699443359375,8.96829891204834,3.586242914199829,-1.158724308013916
1667266576500342300,1.97234228515625,8.982656478881836,3.6125640869140625,-1.048654556274414
1667266576502740000,1.974739990234375,9.001798629760742,3.6460635662078857,-0.9577272534370422
1667266576505138000,1.977137939453125,9.013762474060059,3.670290946960449,-0.8763712644577026
1667266576507535600,1.97953564453125,8.987442016601562,3.7037904262542725,-0.8138588070869446
1667266576509933600,1.98193359375,9.028120040893555,3.7372899055480957,-0.7755736112594604
1667266576512331300,1.984331298828125,9.083154678344727,3.7731821537017822,-0.7396813035011292
1667266576514729200,1.986729248046875,9.147761344909668,3.8138601779937744,-0.734895646572113
1667266576517127000,1.989126953125,9.20997428894043,3.849752426147461,-0.7229315638542175
1667266576519524900,1.99152490234375,9.229117393493652,3.8521454334259033,-0.7085745930671692
1667266576521922600,1.993922607421875,9.250652313232422,3.864109516143799,-0.6870391964912415
1667266576524320500,1.996320556640625,9.305986404418945,3.8521454334259033,-0.6798607110977173
1667266576526718200,1.99871826171875,9.344271659851074,3.840181350708008,-0.6726822853088379
1667266576529116200,2.0011162109375,9.38734245300293,3.8210387229919434,-0.6415755748748779
1667266576531513900,2.003513916015625,9.437591552734375,3.8066816329956055,-0.6272186636924744
1667266576533911600,2.00591162109375,9.47348403930664,3.780360698699951,-0.6080760359764099
1667266576536309500,2.0083095703125,9.478269577026367,3.76361083984375,-0.6296114325523376
1667266576538707200,2.010707275390625,9.468698501586914,3.7612180709838867,-0.6367899179458618
1667266576541105200,2.013105224609375,9.416056632995605,3.7348971366882324,-0.6655037999153137
1667266576543502800,2.0155029296875,9.3490571975708,3.7277185916900635,-0.7157530784606934
1667266576545900800,2.01790087890625,9.253045082092285,3.73250412940979,-0.7731808423995972
1667266576548298500,2.020298583984375,9.131011009216309,3.7277185916900635,-0.8548358678817749
1667266576550696400,2.022696533203125,9.008976936340332,3.739682674407959,-0.9290133714675903
1667266576553094100,2.02509423828125,8.882157325744629,3.7301113605499268,-0.9936196208000183
1667266576555492000,2.0274921875,8.724231719970703,3.7372899055480957,-1.0295119285583496
1667266576557889800,2.029889892578125,8.585148811340332,3.749253988265991,-1.0558329820632935
1667266576560287700,2.032287841796875,8.43440055847168,3.746861219406128,-1.0821540355682373
1667266576562685400,2.034685546875,8.30997371673584,3.7683966159820557,-1.0893324613571167
1667266576565083100,2.037083251953125,8.207082748413086,3.7612180709838867,-1.1012966632843018
1667266576567481000,2.039481201171875,8.11107063293457,3.770789384841919,-1.0965110063552856
1667266576569878800,2.041878662109375,8.039285659790039,3.7827534675598145,-1.103689432144165
1667266576572276700,2.04427685546875,7.991429328918457,3.7995033264160156,-1.1180464029312134
1667266576574674400,2.04667431640625,7.941180229187012,3.7971103191375732,-1.1252248287200928
1667266576577072400,2.049072265625,7.914859294891357,3.7444684505462646,-1.170688509941101
1667266576579470000,2.051469970703125,7.895716667175293,3.7588253021240234,-1.1611171960830688
1667266576581868000,2.053867919921875,7.886145114898682,3.804288864135742,-1.1252248287200928
1667266576584265700,2.056265625,7.883752346038818,3.85693097114563,-1.074975609779358
1667266576586663700,2.05866357421875,7.888537883758545,3.895216226577759,-1.036690354347229
1667266576589061400,2.061061279296875,7.9627156257629395,3.976572036743164,-0.9840483069419861
1667266576591459000,2.063458984375,8.03210735321045,4.041178226470947,-0.9218349456787109
1667266576593857000,2.06585693359375,8.120641708374023,4.086641788482666,-0.859621524810791
1667266576596254700,2.068254638671875,8.233403205871582,4.115355968475342,-0.8210372924804688
1667266576598652700,2.070652587890625,8.365009307861328,4.124927043914795,-0.7636095285415649
1667266576601050400,2.07305029296875,8.494221687316895,4.1057844161987305,-0.7372884750366211
1667266576603448300,2.0754482421875,8.633005142211914,4.060320854187012,-0.7037889361381531
1667266576605846000,2.077845947265625,8.791230201721191,4.01246452331543,-0.6822535395622253
1667266576608244000,2.080243896484375,8.95394229888916,3.9502511024475098,-0.6702894568443298
1667266576610641700,2.0826416015625,9.109476089477539,3.890430450439453,-0.6367899179458618
1667266576613039600,2.08503955078125,9.26291561126709,3.840181350708008,-0.6056832075119019
1667266576615437300,2.087437255859375,9.4088773727417,3.79471755027771,-0.5673980712890625
1667266576617835000,2.0898349609375,9.528518676757812,3.7660038471221924,-0.5362913608551025
1667266576620233000,2.09223291015625,9.595518112182617,3.73250412940979,-0.5362913608551025
1667266576622630700,2.094630615234375,9.617053031921387,3.7277185916900635,-0.5458626747131348
1667266576625028600,2.097028564453125,9.614660263061523,3.6870405673980713,-0.5530411601066589
1667266576627426300,2.09942626953125,9.614660263061523,3.684647798538208,-0.6008976101875305
1667266576629824300,2.10182421875,9.60508918762207,3.691826343536377,-0.6248258352279663
1667266576632222000,2.104221923828125,9.557232856750488,3.670290946960449,-0.6535396575927734
1667266576634620000,2.106619873046875,9.492626190185547,3.6364922523498535,-0.6870391964912415
1667266576637017600,2.109017578125,9.416056632995605,3.61017107963562,-0.732502818107605
1667266576639415600,2.11141552734375,9.3490571975708,3.600599765777588,-0.7707880139350891
1667266576641813200,2.113813232421875,9.317950248718262,3.5886356830596924,-0.8042874932289124
1667266576644211200,2.116211181640625,9.294022560119629,3.583850145339966,-0.8066803216934204
1667266576646609000,2.11860888671875,9.282057762145996,3.5886356830596924,-0.8066803216934204
1667266576649006800,2.1210068359375,9.27727222442627,3.57906436920166,-0.7923234105110168
1667266576651404500,2.123404541015625,9.27009391784668,3.5910286903381348,-0.7779664397239685
1667266576653802200,2.12580224609375,9.272486686706543,3.624528169631958,-0.7803592681884766
1667266576656200200,2.1282001953125,9.305986404418945,3.6583266258239746,-0.7516453862190247
1667266576658598000,2.130597900390625,9.325128555297852,3.6726837158203125,-0.7372884750366211
1667266576660995800,2.132995849609375,9.368199348449707,3.70139741897583,-0.7229315638542175
1667266576663393500,2.1353935546875,9.420842170715332,3.7037904262542725,-0.6846463680267334
1667266576665791500,2.13779150390625,9.463912963867188,3.708575963973999,-0.6607181429862976
1667266576668189200,2.140189208984375,9.48784065246582,3.7277185916900635,-0.6631109714508057
1667266576670587100,2.142587158203125,9.51894760131836,3.7205400466918945,-0.6774678826332092
1667266576672984800,2.14498486328125,9.547661781311035,3.7372899055480957,-0.6822535395622253
1667266576675382800,2.1473828125,9.578767776489258,3.7301113605499268,-0.701396107673645
1667266576677780500,2.149780517578125,9.645767211914062,3.70139741897583,-0.7229315638542175
1667266576680178200,2.15217822265625,9.676874160766602,3.7109687328338623,-0.7899305820465088
1667266576682576100,2.154576171875,9.703194618225098,3.684647798538208,-0.8138588070869446
1667266576684973800,2.156973876953125,9.712766647338867,3.675076484680176,-0.859621524810791
1667266576687371800,2.159371826171875,9.7366943359375,3.6655051708221436,-0.890728235244751
1667266576689769500,2.16176953125,9.765408515930176,3.6655051708221436,-0.9290133714675903
1667266576692167400,2.16416748046875,9.774979591369629,3.6436707973480225,-0.9314061999320984
1667266576694565000,2.166565185546875,9.763015747070312,3.64127779006958,-0.9625129103660583
1667266576696963000,2.168963134765625,9.74387264251709,3.6221351623535156,-0.9577272534370422
1667266576699360800,2.17136083984375,9.707980155944824,3.6029927730560303,-0.9625129103660583
1667266576701758700,2.1737587890625,9.640981674194336,3.5982069969177246,-0.9601200819015503
1667266576704156400,2.176156494140625,9.60508918762207,3.583850145339966,-0.9505487680435181
1667266576706554000,2.17855419921875,9.581160545349121,3.5431721210479736,-0.9433703422546387
1667266576708952000,2.1809521484375,9.535696983337402,3.521636724472046,-0.9385846853256226
1667266576711349800,2.183349853515625,9.492626190185547,3.5120654106140137,-0.9050851464271545
1667266576713747700,2.185747802734375,9.468698501586914,3.5192439556121826,-0.8668000102043152
1667266576716145400,2.1881455078125,9.423234939575195,3.5120654106140137,-0.8401798605918884
1667266576718543400,2.19054345703125,9.37298583984375,3.521636724472046,-0.7827520966529846
1667266576720941000,2.192941162109375,9.334700584411621,3.5359935760498047,-0.7492526173591614
1667266576723339000,2.195339111328125,9.303593635559082,3.545564889907837,-0.7109674215316772
1667266576725736700,2.19773681640625,9.274879455566406,3.5575289726257324,-0.6702894568443298
1667266576728134700,2.200134765625,9.22433090209961,3.552743434906006,-0.6511468887329102
1667266576730532400,2.202532470703125,9.219545364379883,3.57906436920166,-0.612861692905426
1667266576732930000,2.204929931640625,9.205188751220703,3.586242914199829,-0.6200401782989502
1667266576735328000,2.207327880859375,9.193224906921387,3.586242914199829,-0.6296114325523376
1667266576737725700,2.2097255859375,9.19561767578125,3.576671600341797,-0.6152545213699341
1667266576740123600,2.21212353515625,9.20279598236084,3.593421459197998,-0.610468864440918
1667266576742521300,2.214521240234375,9.207581520080566,3.607778310775757,-0.6224330067634583
1667266576744919300,2.216919189453125,9.250652313232422,3.61017107963562,-0.6008976101875305
1667266576747317000,2.21931689453125,9.289237022399902,3.6053855419158936,-0.5913262963294983
1667266576749715000,2.22171484375,9.37059211730957,3.6340994834899902,-0.5650052428245544
1667266576752112600,2.224112548828125,9.432806015014648,3.6487553119659424,-0.5267201066017151
1667266576754510600,2.226510498046875,9.50459098815918,3.6559338569641113,-0.4740779995918274
1667266576756908300,2.228908203125,9.578767776489258,3.6894333362579346,-0.4453641176223755
1667266576759306000,2.231305908203125,9.655338287353516,3.7109687328338623,-0.4286143481731415
1667266576761704000,2.233703857421875,9.739087104797363,3.7253258228302,-0.3927220106124878
1667266576764101600,2.2361015625,9.772586822509766,3.7540395259857178,-0.3568296730518341
1667266576766499600,2.23849951171875,9.789336204528809,3.7731821537017822,-0.37118661403656006
1667266576768897300,2.240897216796875,9.798908233642578,3.7612180709838867,-0.37836506962776184
1667266576771295200,2.243295166015625,9.839884757995605,3.7253258228302,-0.39032918214797974
1667266576773693000,2.24569287109375,9.856635093688965,3.699004650115967,-0.39990049600601196
1667266576776091000,2.2480908203125,9.832706451416016,3.675076484680176,-0.4142574071884155
1667266576778488600,2.250488525390625,9.794121742248535,3.653541088104248,-0.4334000051021576
1667266576780886500,2.252886474609375,9.7366943359375,3.6487553119659424,-0.4453641176223755
1667266576783284200,2.2552841796875,9.669695854187012,3.6364922523498535,-0.45972105860710144
1667266576785682000,2.257681884765625,9.559625625610352,3.6460635662078857,-0.48843491077423096
1667266576788079900,2.260079833984375,9.454340934753418,3.6559338569641113,-0.4956133961677551
1667266576790477600,2.2624775390625,9.353842735290527,3.675076484680176,-0.5147559642791748
1667266576792875500,2.26487548828125,9.253045082092285,3.684647798538208,-0.5171487927436829
1667266576795273200,2.267273193359375,9.152546882629395,3.6894333362579346,-0.5291129350662231
1667266576797671200,2.269671142578125,9.052047729492188,3.708575963973999,-0.5386841893196106
1667266576800068900,2.27206884765625,8.944371223449707,3.715754508972168,-0.5267201066017151
1667266576802466800,2.274466796875,8.855836868286133,3.7253258228302,-0.5027918815612793
1667266576804864500,2.276864501953125,8.767302513122559,3.7277185916900635,-0.5075774788856506
1667266576807262500,2.279262451171875,8.680861473083496,3.7301113605499268,-0.4956133961677551
1667266576809660200,2.28166015625,8.585148811340332,3.7660038471221924,-0.4692923426628113
1667266576812058000,2.28405810546875,8.477471351623535,3.780360698699951,-0.43579283356666565
1667266576814455800,2.286455810546875,8.391329765319824,3.78753924369812,-0.4214358925819397
1667266576816853800,2.288853759765625,8.319544792175293,3.8066816329956055,-0.41904306411743164
1667266576819251500,2.29125146484375,8.28126049041748,3.82582426071167,-0.40707895159721375
1667266576821649400,2.2936494140625,8.247760772705078,3.8449668884277344,-0.4501497745513916
1667266576824047000,2.296047119140625,8.233403205871582,3.859323740005493,-0.4621138870716095
1667266576826444800,2.29844482421875,8.223832130432129,3.864109516143799,-0.4692923426628113
1667266576828842800,2.3008427734375,8.226224899291992,3.8545382022857666,-0.490827739238739
1667266576831240400,2.303240478515625,8.235795974731445,3.849752426147461,-0.5099703073501587
1667266576833638400,2.305638427734375,8.257331848144531,3.8449668884277344,-0.5171487927436829
1667266576836036000,2.3080361328125,8.298009872436523,3.8306100368499756,-0.5338985323905945
1667266576838434000,2.31043408203125,8.372187614440918,3.8162529468536377,-0.5315057039260864
1667266576840831700,2.312831787109375,8.448758125305176,3.8234314918518066,-0.524327278137207
1667266576843229700,2.315229736328125,8.549256324768066,3.835395574569702,-0.5386841893196106
1667266576845627400,2.31762744140625,8.64496898651123,3.8473596572875977,-0.5458626747131348
1667266576848025300,2.320025390625,8.73619556427002,3.8234314918518066,-0.5578267574310303
1667266576850423000,2.322423095703125,8.827122688293457,3.8521454334259033,-0.5721837282180786
1667266576852820700,2.32482080078125,8.906085968017578,3.8521454334259033,-0.5769693851470947
1667266576855218700,2.32721875,8.999405860900879,3.859323740005493,-0.5817549824714661
1667266576857616400,2.329616455078125,9.047262191772461,3.859323740005493,-0.6056832075119019
1667266576860014300,2.332014404296875,9.080761909484863,3.880859136581421,-0.6343970894813538
1667266576862412000,2.334412109375,9.109476089477539,3.8688950538635254,-0.6631109714508057
1667266576864810000,2.33681005859375,9.133403778076172,3.8617167472839355,-0.6822535395622253
1667266576867207700,2.339207763671875,9.157332420349121,3.8449668884277344,-0.6918248534202576
1667266576869605600,2.341605712890625,9.205188751220703,3.82582426071167,-0.6894320249557495
1667266576872003300,2.34400341796875,9.272486686706543,3.811467409133911,-0.6511468887329102
1667266576874401300,2.3464013671875,9.346664428710938,3.8066816329956055,-0.6224330067634583
1667266576876799000,2.348799072265625,9.439984321594238,3.7588253021240234,-0.5961119532585144
1667266576879196700,2.35119677734375,9.52612590789795,3.7540395259857178,-0.5530411601066589
1667266576881594600,2.3535947265625,9.645767211914062,3.749253988265991,-0.5027918815612793
1667266576883992300,2.355992431640625,9.777372360229492,3.7420754432678223,-0.47168517112731934
1667266576886390300,2.358390380859375,9.923633575439453,3.7660038471221924,-0.4334000051021576
1667266576888788000,2.3607880859375,10.055238723754883,3.78753924369812,-0.38315072655677795
1667266576891186000,2.36318603515625,10.172487258911133,3.82582426071167,-0.33529427647590637
1667266576893583600,2.36558349609375,10.222736358642578,3.873680830001831,-0.2946162819862366
1667266576895981600,2.367981689453125,10.25623607635498,3.911965847015381,-0.2799602448940277
1667266576898379300,2.370379150390625,10.24905776977539,3.9382870197296143,-0.2584248483181
1667266576900777200,2.372777099609375,10.196415901184082,3.9550366401672363,-0.2799602448940277
1667266576903175000,2.3751748046875,10.112667083740234,3.998107433319092,-0.33768710494041443
1667266576905572600,2.377572509765625,9.995418548583984,3.998107433319092,-0.39032918214797974
1667266576907970600,2.379970458984375,9.8207426071167,4.007678985595703,-0.4788636267185211
1667266576910368300,2.3823681640625,9.588339805603027,4.00528621673584,-0.5673980712890625
1667266576912766200,2.38476611328125,9.38016414642334,4.007678985595703,-0.6607181429862976
1667266576915164000,2.387163818359375,9.157332420349121,3.9933218955993652,-0.7875377535820007
1667266576917561900,2.389561767578125,8.930013656616211,3.9574296474456787,-0.9074779748916626
1667266576919959600,2.39195947265625,8.688039779663086,3.904787540435791,-1.0582258701324463
1667266576922357500,2.394357421875,8.460721969604492,3.801896095275879,-1.2855439186096191
1667266576924755200,2.396755126953125,8.238189697265625,3.777967929840088,-1.3860424757003784
1667266576927153200,2.399153076171875,8.01775074005127,3.78753924369812,-1.4485549926757812
1667266576929550800,2.40155078125,7.804789066314697,3.801896095275879,-1.4796617031097412
1667266576931948500,2.403948486328125,7.618149280548096,3.7923247814178467,-1.5179468393325806
1667266576934346500,2.406346435546875,7.431210041046143,3.7899320125579834,-1.5538392066955566
1667266576936744200,2.408744140625,7.254140853881836,3.6559338569641113,-1.7356936931610107
1667266576939142100,2.41114208984375,7.199106216430664,3.559921979904175,-1.8912272453308105
1667266576941539800,2.413539794921875,7.237390995025635,3.6655051708221436,-1.7787644863128662
1667266576943937800,2.415937744140625,7.285247802734375,3.7923247814178467,-1.623231053352356
1667266576946335500,2.41833544921875,7.28046178817749,3.9167516231536865,-1.5227324962615967
1667266576948733400,2.4207333984375,7.270890712738037,4.024428367614746,-1.3621143102645874
1667266576951131100,2.423131103515625,7.270890712738037,4.122534275054932,-1.158724308013916
1667266576953529000,2.425529052734375,7.333104133605957,4.2592244148254395,-0.9337990283966064
1667266576955926800,2.4279267578125,7.419245719909668,4.366901397705078,-0.7301099896430969
1667266576958324500,2.430324462890625,7.5173516273498535,4.4482574462890625,-0.5602195858955383
1667266576960722400,2.432722412109375,7.610970497131348,4.54636287689209,-0.3807578980922699
1667266576963120000,2.4351201171875,7.694719314575195,4.615755081176758,-0.28983065485954285
1667266576965518000,2.43751806640625,7.797610759735107,4.642076015472412,-0.24646073579788208
1667266576967915800,2.439915771484375,7.898109436035156,4.5822553634643555,-0.28504499793052673
1667266576970313700,2.442313720703125,8.003393173217773,4.4243292808532715,-0.3927220106124878
1667266576972711400,2.44471142578125,8.154440879821777,4.230510234832764,-0.5027918815612793
1667266576975109400,2.447109375,8.348258972167969,4.000500202178955,-0.6224330067634583
1667266576977507000,2.449507080078125,8.5133638381958,3.7995033264160156,-0.734895646572113
1667266576979905000,2.451905029296875,8.678468704223633,3.6125640869140625,-0.8066803216934204
1667266576982302700,2.454302734375,8.824729919433594,3.4474592208862305,-0.797109067440033
1667266576984700400,2.456700439453125,8.949156761169434,3.3302109241485596,-0.7468597888946533
1667266576987098400,2.459098388671875,9.030512809753418,3.2679975032806396,-0.6559324860572815
1667266576989496000,2.46149609375,9.109476089477539,3.248854875564575,-0.5410770177841187
1667266576991894000,2.46389404296875,9.154939651489258,3.256033420562744,-0.37118661403656006
1667266576994291700,2.466291748046875,9.18843936920166,3.308675527572632,-0.2105683982372284
1667266576996689700,2.468689697265625,9.226723670959473,3.3589248657226562,-0.05742774158716202
1667266576999087400,2.47108740234375,9.255437850952148,3.3852458000183105,0.11006984114646912
1667266577001485300,2.4734853515625,9.294022560119629,3.4331023693084717,0.2273181527853012
1667266577003883000,2.475883056640625,9.334700584411621,3.483351469039917,0.3041875660419464
1667266577006281000,2.478281005859375,9.365806579589844,3.497708559036255,0.34725838899612427
1667266577008678700,2.4806787109375,9.341878890991211,3.497708559036255,0.3975076675415039
1667266577011076400,2.483076416015625,9.368199348449707,3.4857444763183594,0.40707895159721375
1667266577013474300,2.485474365234375,9.40169906616211,3.4737801551818848,0.4094717800617218
1667266577015872000,2.4878720703125,9.442377090454102,3.4546377658843994,0.3927220106124878
1667266577018270000,2.49027001953125,9.432806015014648,3.435495138168335,0.35922250151634216
1667266577020667600,2.492667724609375,9.396913528442383,3.397209882736206,0.35922250151634216
1667266577023065600,2.495065673828125,9.344271659851074,3.3756744861602783,0.3448655605316162
1667266577025463300,2.49746337890625,9.27009391784668,3.3589248657226562,0.34247273206710815
1667266577027861200,2.499861328125,9.198010444641113,3.3780672550201416,0.35443684458732605
1667266577030259000,2.502259033203125,9.140582084655762,3.4091739654541016,0.34247273206710815
1667266577032657000,2.504656982421875,9.078369140625,3.4498519897460938,0.3400799036026001
1667266577035054600,2.5070546875,9.020941734313965,3.4737801551818848,0.33768710494041443
1667266577037452300,2.509452392578125,8.9850492477417,3.4953157901763916,0.33050861954689026
1667266577039850200,2.511850341796875,8.96112060546875,3.521636724472046,0.31375887989997864
1667266577042246100,2.51424609375,8.927620887756348,3.538386583328247,0.27756741642951965
1667266577044644000,2.51664404296875,8.901300430297852,3.545564889907837,0.2584248483181
1667266577047041800,2.519041748046875,8.848658561706543,3.5575289726257324,0.23688943684101105
1667266577049439700,2.521439697265625,8.776873588562012,3.5575289726257324,0.19142581522464752
1667266577051837400,2.52383740234375,8.70508861541748,3.562314748764038,0.16271193325519562
1667266577054235100,2.526235107421875,8.65214729309082,3.5647075176239014,0.10289137065410614
1667266577056633000,2.528633056640625,8.606683731079102,3.5671002864837646,0.03349951654672623
1667266577059030800,2.53103076171875,8.510971069335938,3.562314748764038,-0.040677983313798904
1667266577061428700,2.5334287109375,8.384151458740234,3.5575289726257324,-0.13639089465141296
1667266577063826400,2.535826416015625,8.214261054992676,3.5575289726257324,-0.20817556977272034
1667266577066224400,2.538224365234375,8.063214302062988,3.5336008071899414,-0.3113660514354706
1667266577068622000,2.5406220703125,7.919644832611084,3.521636724472046,-0.38793638348579407
1667266577071020000,2.54302001953125,7.77607536315918,3.4953157901763916,-0.47168517112731934
1667266577073417700,2.545417724609375,7.65164852142334,3.4570305347442627,-0.5626124143600464
1667266577075815700,2.547815673828125,7.52931547164917,3.4139597415924072,-0.6415755748748779
1667266577078213400,2.55021337890625,7.421638488769531,3.380460262298584,-0.7109674215316772
1667266577080611000,2.552611083984375,7.354639530181885,3.3852458000183105,-0.7564310431480408
1667266577083009000,2.555009033203125,7.282855033874512,3.387638568878174,-0.8114659786224365
1667266577085406700,2.55740673828125,7.237390995025635,3.3852458000183105,-0.8668000102043152
1667266577087804700,2.5598046875,7.189534664154053,3.3948171138763428,-0.9409775137901306
1667266577090202400,2.562202392578125,7.108178615570068,3.4139597415924072,-1.0151549577713013
1667266577092600300,2.564600341796875,7.004988193511963,3.4163525104522705,-1.0606186389923096
1667266577094998000,2.566998046875,6.911668300628662,3.4307093620300293,-1.1252248287200928
1667266577097396000,2.56939599609375,6.847062110900879,3.4139597415924072,-1.1922239065170288
1667266577099793700,2.571793701171875,6.787241458892822,3.4091739654541016,-1.2305090427398682
1667266577102191600,2.574191650390625,6.7178497314453125,3.428316593170166,-1.2903295755386353
1667266577104589300,2.57658935546875,6.646064758300781,3.4259238243103027,-1.3262219429016113
1667266577106987000,2.578987060546875,6.610172748565674,3.421138286590576,-1.350150227546692
1667266577109385000,2.581385009765625,6.569494724273682,3.4091739654541016,-1.3549357652664185
1667266577111782700,2.58378271484375,6.547959327697754,3.4474592208862305,-1.3549357652664185
1667266577114180600,2.5861806640625,6.538387775421143,3.4857444763183594,-1.3405789136886597
1667266577116578300,2.588578369140625,6.526423931121826,3.5096726417541504,-1.3070793151855469
1667266577118976300,2.590976318359375,6.521637916564941,3.528815269470215,-1.2640085220336914
1667266577121374000,2.5933740234375,6.516852378845215,3.586242914199829,-1.2161520719528198
1667266577123772000,2.59577197265625,6.483353137969971,3.6293137073516846,-1.1730812788009644
1667266577126169600,2.598169677734375,6.447161674499512,3.653541088104248,-1.0893324613571167
1667266577128567600,2.600567626953125,6.394519329071045,3.6894333362579346,-1.0223335027694702
1667266577130965200,2.60296533203125,6.356234073638916,3.7444684505462646,-0.97926265001297
1667266577133363000,2.605363037109375,6.339484691619873,3.79471755027771,-0.9290133714675903
1667266577135761000,2.607760986328125,6.329913139343262,3.8688950538635254,-0.8811569213867188
1667266577138158600,2.61015869140625,6.337091445922852,3.9263229370117188,-0.8428717851638794
1667266577140556500,2.612556640625,6.346662998199463,3.9933218955993652,-0.7851449251174927
1667266577142954200,2.614954345703125,6.353841304779053,4.069892406463623,-0.7157530784606934
1667266577145352200,2.617352294921875,6.363412857055664,4.110570430755615,-0.6583253145217896
1667266577147750000,2.61975,6.384948253631592,4.165605068206787,-0.5745765566825867
1667266577150147800,2.62214794921875,6.394519329071045,4.194318771362305,-0.5075774788856506
1667266577152545500,2.624545654296875,6.408876419067383,4.230510234832764,-0.48364928364753723
1667266577154943500,2.626943603515625,6.408876419067383,4.237689018249512,-0.4405784606933594
1667266577157341200,2.629341064453125,6.404090881347656,4.264009952545166,-0.41904306411743164
1667266577159739000,2.63173876953125,6.4064836502075195,4.285545349121094,-0.4046861231327057
1667266577162136800,2.63413671875,6.4304118156433105,4.287938117980957,-0.37836506962776184
1667266577164534500,2.636534423828125,6.473781585693359,4.3070807456970215,-0.3807578980922699
1667266577166932500,2.638932373046875,6.507281303405762,4.328616142272949,-0.37597227096557617
1667266577169330200,2.641330078125,6.543173313140869,4.340580463409424,-0.40707895159721375
1667266577171728100,2.64372802734375,6.612565517425537,4.366901397705078,-0.4142574071884155
1667266577174125800,2.646125732421875,6.686742782592773,4.35254430770874,-0.40707895159721375
1667266577176523800,2.648523681640625,6.763313293457031,4.35254430770874,-0.40229329466819763
1667266577178921500,2.65092138671875,6.839883327484131,4.364508628845215,-0.39511483907699585
1667266577181319400,2.6533193359375,6.9475603103637695,4.364508628845215,-0.35443684458732605
1667266577183717000,2.655717041015625,7.0531439781188965,4.369294166564941,-0.31854450702667236
1667266577186114800,2.65811474609375,7.156035423278809,4.357329845428467,-0.2826521694660187
1667266577188512800,2.6605126953125,7.2661051750183105,4.369294166564941,-0.2273181527853012
1667266577190910500,2.662910400390625,7.385746002197266,4.376472473144531,-0.18903298676013947
1667266577193308400,2.665308349609375,7.493422985076904,4.393222332000732,-0.16510476171970367
1667266577195706000,2.6677060546875,7.591827869415283,4.417150497436523,-0.12681959569454193
1667266577198104000,2.67010400390625,7.685148239135742,4.445864677429199,-0.13160525262355804
1667266577200501800,2.672501708984375,7.76889705657959,4.453042984008789,-0.11485548317432404
1667266577202899700,2.674899658203125,7.83111047744751,4.486542224884033,-0.1339980661869049
1667266577205297400,2.67729736328125,7.895716667175293,4.48414945602417,-0.15553347766399384
1667266577207695400,2.6796953125,7.957930088043213,4.481756687164307,-0.17706887423992157
1667266577210093000,2.682093017578125,8.03210735321045,4.488935470581055,-0.20817556977272034
1667266577212490800,2.68449072265625,8.09671401977539,4.486542224884033,-0.26081767678260803
1667266577214888700,2.686888671875,8.187939643859863,4.486542224884033,-0.3113660514354706
1667266577217286400,2.689286376953125,8.254939079284668,4.479363918304443,-0.3640081584453583
1667266577219684400,2.691684326171875,8.321938514709473,4.474578380584717,-0.4142574071884155
1667266577222082000,2.69408203125,8.372187614440918,4.467400074005127,-0.4860421121120453
1667266577224480000,2.69647998046875,8.432007789611816,4.460221290588379,-0.5721837282180786
1667266577226877700,2.698877685546875,8.477471351623535,4.455435752868652,-0.6535396575927734
1667266577229275600,2.701275634765625,8.52054214477539,4.46979284286499,-0.7564310431480408
1667266577231673300,2.70367333984375,8.568398475646973,4.479363918304443,-0.8476574420928955
1667266577234071300,2.7060712890625,8.601898193359375,4.498506546020508,-0.9457631707191467
1667266577236469000,2.708468994140625,8.65932559967041,4.4961137771606445,-1.036690354347229
1667266577238866700,2.71086669921875,8.709874153137207,4.515256404876709,-1.1156535148620605
1667266577241264600,2.7132646484375,8.738588333129883,4.512863636016846,-1.225723385810852
1667266577243662300,2.715662353515625,8.805587768554688,4.517649173736572,-1.311864972114563
1667266577246060300,2.718060302734375,8.858229637145996,4.555934429168701,-1.3860424757003784
1667266577248458000,2.7204580078125,8.910871505737305,4.567898273468018,-1.446162223815918
1667266577250856000,2.72285595703125,8.973084449768066,4.587040901184082,-1.5155540704727173
1667266577253253600,2.725253662109375,9.056833267211914,4.6061835289001465,-1.6136597394943237
1667266577255651600,2.727651611328125,9.128618240356445,4.615755081176758,-1.6974085569381714
1667266577258049300,2.73004931640625,9.207581520080566,4.6061835289001465,-1.7715860605239868
1667266577260447200,2.732447265625,9.282057762145996,4.603790760040283,-1.8553348779678345
1667266577262845000,2.734844970703125,9.382556915283203,4.599005222320557,-1.927119493484497
1667266577265242600,2.73724267578125,9.492626190185547,4.6061835289001465,-1.9752750396728516
1667266577267640600,2.739640625,9.593125343322754,4.603790760040283,-2.0231316089630127
1667266577270038300,2.742038330078125,9.698409080505371,4.60857629776001,-2.049452543258667
1667266577272436200,2.744436279296875,9.791728973388672,4.591826438903809,-2.104487419128418
1667266577274834000,2.746833984375,9.89013385772705,4.570291042327881,-2.159522533416748
1667266577277231900,2.74923193359375,9.990633010864258,4.54636287689209,-2.2169501781463623
1667266577279629600,2.751629638671875,10.074381828308105,4.524827480316162,-2.2408783435821533
1667266577282027500,2.754027587890625,10.14616584777832,4.48414945602417,-2.26959228515625
1667266577284425200,2.75642529296875,10.222736358642578,4.450650215148926,-2.2719850540161133
1667266577286823200,2.7588232421875,10.253843307495117,4.412364959716797,-2.283949136734009
1667266577289220900,2.761220947265625,10.325628280639648,4.369294166564941,-2.2911276817321777
1667266577291618800,2.763618896484375,10.388140678405762,4.309473514556885,-2.30069899559021
1667266577294016500,2.7660166015625,10.419246673583984,4.256831645965576,-2.262413740158081
1667266577296414200,2.768414306640625,10.46231746673584,4.206283092498779,-2.2360928058624268
1667266577298812200,2.770812255859375,10.502995491027832,4.139284133911133,-2.190629243850708
1667266577301209900,2.7732099609375,10.546066284179688,4.0818562507629395,-2.149951219558716
1667266577303607800,2.77560791015625,10.589137077331543,4.041178226470947,-2.121237277984619
1667266577306005500,2.778005615234375,10.641779899597168,3.9957146644592285,-2.056631088256836
1667266577308403500,2.780403564453125,10.699207305908203,3.9622151851654053,-2.001596212387085
1667266577310801200,2.78280126953125,10.759027481079102,3.9239299297332764,-1.92951238155365
1667266577313199000,2.78519921875,10.809277534484863,3.859323740005493,-1.8505492210388184
1667266577315596800,2.7875966796875,10.847562789916992,3.7923247814178467,-1.7883358001708984
1667266577317994800,2.789994873046875,10.897811889648438,3.7444684505462646,-1.714158296585083
1667266577320392400,2.792392333984375,10.943573951721191,3.6822550296783447,-1.654337763786316
1667266577322790100,2.7947900390625,10.969895362854004,3.6221351623535156,-1.596909999847412
1667266577325188000,2.79718798828125,10.97468090057373,3.600599765777588,-1.5418751239776611
1667266577327585800,2.799585693359375,10.969895362854004,3.5718860626220703,-1.4892330169677734
1667266577329983700,2.801983642578125,10.943573951721191,3.538386583328247,-1.4533406496047974
1667266577332381400,2.80438134765625,10.926525115966797,3.500101327896118,-1.4054841995239258
1667266577334779400,2.806779296875,10.912168502807617,3.452244758605957,-1.378864049911499
1667266577337177000,2.809177001953125,10.9002046585083,3.428316593170166,-1.3310075998306274
1667266577339575000,2.811574951171875,10.904990196228027,3.4091739654541016,-1.2903295755386353
1667266577341972700,2.81397265625,10.888240814208984,3.363710403442383,-1.2472587823867798
1667266577344370700,2.81637060546875,10.873883247375488,3.3302109241485596,-1.2041879892349243
1667266577346768400,2.818768310546875,10.876276016235352,3.3230323791503906,-1.1922239065170288
1667266577349166000,2.821166015625,10.897811889648438,3.3302109241485596,-1.170688509941101
1667266577351564000,2.82356396484375,10.893026351928711,3.3206396102905273,-1.1180464029312134
1667266577353961700,2.825961669921875,10.893026351928711,3.308675527572632,-1.1012966632843018
1667266577356359700,2.828359619140625,10.883454322814941,3.287140130996704,-1.0582258701324463
1667266577358757400,2.83075732421875,10.859526634216309,3.256033420562744,-1.0558329820632935
1667266577361155300,2.8331552734375,10.818848609924316,3.2679975032806396,-1.036690354347229
1667266577363553000,2.835552978515625,10.773385047912598,3.277568817138672,-1.0223335027694702
1667266577365951000,2.837950927734375,10.715956687927246,3.2727832794189453,-1.0103694200515747
1667266577368348700,2.8403486328125,10.651350975036621,3.248854875564575,-1.0055837631225586
1667266577370746400,2.842746337890625,10.577173233032227,3.2416765689849854,-1.012762188911438
1667266577373144300,2.845144287109375,10.519745826721191,3.2344980239868164,-1.0414760112762451
1667266577375542000,2.8475419921875,10.46471118927002,3.2201411724090576,-1.0534402132034302
1667266577377940000,2.84993994140625,10.402497291564941,3.2177481651306152,-1.0941181182861328
1667266577380337700,2.852337646484375,10.354341506958008,3.2105698585510254,-1.0917253494262695
1667266577382735600,2.854735595703125,10.27777099609375,3.2057840824127197,-1.1252248287200928
1667266577385133300,2.85713330078125,10.201201438903809,3.2057840824127197,-1.1515458822250366
1667266577387531300,2.85953125,10.143773078918457,3.2177481651306152,-1.1826525926589966
1667266577389929000,2.861928955078125,10.079167366027832,3.2273194789886475,-1.197009563446045
1667266577392326700,2.86432666015625,10.01456069946289,3.2368907928466797,-1.189831018447876
1667266577394724600,2.866724609375,9.973882675170898,3.2297122478485107,-1.1874382495880127
1667266577397122300,2.869122314453125,9.954740524291992,3.2416765689849854,-1.189831018447876
1667266577399520300,2.871520263671875,9.930811882019043,3.253640651702881,-1.1826525926589966
1667266577401918000,2.87391796875,9.90688419342041,3.2895328998565674,-1.197009563446045
1667266577404316000,2.87631591796875,9.897313117980957,3.3062827587127686,-1.1826525926589966
1667266577406713600,2.878713623046875,9.902098655700684,3.308675527572632,-1.165902853012085
1667266577409111600,2.881111572265625,9.875777244567871,3.3373894691467285,-1.1730812788009644
1667266577411509200,2.88350927734375,9.882955551147461,3.342175006866455,-1.1419745683670044
1667266577413907200,2.8859072265625,9.882955551147461,3.363710403442383,-1.1228320598602295
1667266577416305000,2.888304931640625,9.885348320007324,3.356531858444214,-1.1252248287200928
1667266577418702600,2.89070263671875,9.868598937988281,3.3589248657226562,-1.1228320598602295
1667266577421100500,2.8931005859375,9.89970588684082,3.3541390895843506,-1.0821540355682373
1667266577423498200,2.895498291015625,9.942776679992676,3.363710403442383,-1.0223335027694702
1667266577425896200,2.897896240234375,9.997811317443848,3.3684961795806885,-0.9696913957595825
1667266577428294000,2.9002939453125,10.026525497436523,3.356531858444214,-0.9361918568611145
1667266577430691800,2.90269189453125,10.04566764831543,3.3756744861602783,-0.9170492887496948
1667266577433089500,2.905089599609375,10.074381828308105,3.3924243450164795,-0.8859425783157349
1667266577435487500,2.907487548828125,10.098309516906738,3.4067811965942383,-0.8715856671333313
1667266577437885200,2.90988525390625,10.115059852600098,3.404388427734375,-0.8548358678817749
1667266577440283100,2.912283203125,10.122238159179688,3.4235310554504395,-0.8428717851638794
1667266577442680800,2.914680908203125,10.115059852600098,3.4402806758880615,-0.8428717851638794
1667266577445078500,2.91707861328125,10.103095054626465,3.445066452026367,-0.8524430394172668
1667266577447476500,2.9194765625,10.069596290588379,3.4331023693084717,-0.8811569213867188
1667266577449874200,2.921874267578125,10.033703804016113,3.428316593170166,-0.9146564602851868
1667266577452272000,2.924272216796875,9.995418548583984,3.4163525104522705,-0.9337990283966064
1667266577454669800,2.926669921875,9.954740524291992,3.4235310554504395,-0.9888339638710022
1667266577457067800,2.92906787109375,9.92124080657959,3.421138286590576,-1.0342975854873657
1667266577459465500,2.931465576171875,9.892526626586914,3.4378879070281982,-1.0654042959213257
1667266577461863400,2.933863525390625,9.875777244567871,3.4498519897460938,-1.1060823202133179
1667266577464261000,2.93626123046875,9.851848602294922,3.468994617462158,-1.1395817995071411
1667266577466659000,2.9386591796875,9.835099220275879,3.507279872894287,-1.1371889114379883
1667266577469056800,2.941056884765625,9.8207426071167,3.538386583328247,-1.1156535148620605
1667266577471454500,2.943454345703125,9.835099220275879,3.5742788314819336,-1.0845468044281006
1667266577473852400,2.945852294921875,9.851848602294922,3.607778310775757,-1.0462616682052612
1667266577476250000,2.94825,9.894919395446777,3.6559338569641113,-1.0103694200515747
1667266577478648000,2.95064794921875,9.945169448852539,3.691826343536377,-0.9696913957595825
1667266577481045800,2.953045654296875,9.993025779724121,3.7133617401123047,-0.9337990283966064
1667266577483443700,2.955443603515625,10.0073823928833,3.7037904262542725,-0.9098708033561707
1667266577485841400,2.95784130859375,9.969097137451172,3.675076484680176,-0.8859425783157349
1667266577488239000,2.960239013671875,9.961918830871582,3.6583266258239746,-0.8306085467338562
1667266577490637000,2.962636962890625,9.942776679992676,3.6487553119659424,-0.7588238716125488
1667266577493034800,2.96503466796875,9.937990188598633,3.6340994834899902,-0.7037889361381531
1667266577495432700,2.9674326171875,9.926026344299316,3.6269209384918213,-0.6296114325523376
1667266577497830400,2.969830322265625,9.930811882019043,3.6293137073516846,-0.5602195858955383
1667266577500228400,2.972228271484375,9.909276962280273,3.6269209384918213,-0.5171487927436829
1667266577502626000,2.9746259765625,9.909276962280273,3.6460635662078857,-0.49322056770324707
1667266577505024000,2.97702392578125,9.89013385772705,3.6364922523498535,-0.5051847100257874
1667266577507421700,2.979421630859375,9.830313682556152,3.6364922523498535,-0.521934449672699
1667266577509819600,2.981819580078125,9.786943435668945,3.6029927730560303,-0.5530411601066589
1667266577512217300,2.98421728515625,9.71515941619873,3.600599765777588,-0.5913262963294983
1667266577514615000,2.986614990234375,9.648159980773926,3.5742788314819336,-0.6535396575927734
1667266577517013000,2.989012939453125,9.545269012451172,3.545564889907837,-0.6942176818847656
1667266577519410700,2.99141064453125,9.447162628173828,3.5024940967559814,-0.7133602499961853
1667266577521808600,2.99380859375,9.332307815551758,3.4953157901763916,-0.7540382146835327
1667266577524206300,2.996206298828125,9.200403213500977,3.4857444763183594,-0.7851449251174927
1667266577526604300,2.998604248046875,9.09272575378418,3.490530014038086,-0.797109067440033
1667266577529002000,3.001001953125,8.999405860900879,3.5168511867523193,-0.8018946647644043
1667266577531400000,3.00339990234375,8.896514892578125,3.531208038330078,-0.8234301209449768
1667266577533797600,3.005797607421875,8.8438720703125,3.562314748764038,-0.8258228898048401
1667266577536195600,3.008195556640625,8.779266357421875,3.6197423934936523,-0.8234301209449768
1667266577538593300,3.01059326171875,8.714659690856934,3.6293137073516846,-0.8066803216934204
1667266577540991000,3.012990966796875,8.66889762878418,3.667897939682007,-0.7995018362998962
1667266577543389000,3.015388916015625,8.635397911071777,3.675076484680176,-0.7851449251174927
1667266577545786600,3.01778662109375,8.623434066772461,3.691826343536377,-0.7779664397239685
1667266577548184600,3.0201845703125,8.625826835632324,3.70139741897583,-0.7636095285415649
1667266577550582300,3.022582275390625,8.66889762878418,3.70139741897583,-0.7396813035011292
1667266577552980200,3.024980224609375,8.697610855102539,3.7420754432678223,-0.7540382146835327
1667266577555378000,3.0273779296875,8.740981101989746,3.7851462364196777,-0.768395185470581
1667266577557776000,3.02977587890625,8.738588333129883,3.809074640274048,-0.7995018362998962
1667266577560173600,3.032173583984375,8.70508861541748,3.79471755027771,-0.8114659786224365
1667266577562571500,3.034571533203125,8.68325424194336,3.79471755027771,-0.8234301209449768
1667266577564969200,3.03696923828125,8.68325424194336,3.770789384841919,-0.8258228898048401
1667266577567367000,3.039366943359375,8.709874153137207,3.7827534675598145,-0.8186444640159607
1667266577569764900,3.041764892578125,8.731410026550293,3.7851462364196777,-0.8042874932289124
1667266577572162600,3.04416259765625,8.805587768554688,3.804288864135742,-0.7851449251174927
1667266577574560500,3.046560546875,8.884550094604492,3.7971103191375732,-0.7827520966529846
1667266577576958200,3.048958251953125,8.901300430297852,3.7995033264160156,-0.8042874932289124
1667266577579356000,3.05135595703125,8.891729354858398,3.840181350708008,-0.8114659786224365
1667266577581753900,3.05375390625,8.86062240600586,3.8377883434295654,-0.8138588070869446
1667266577584151600,3.056151611328125,8.82233715057373,3.833002805709839,-0.8691928386688232
1667266577586549500,3.058549560546875,8.834300994873047,3.8784663677215576,-0.9409775137901306
1667266577588947200,3.060947265625,8.949156761169434,3.967000722885132,-1.012762188911438
1667266577591345200,3.06334521484375,9.104690551757812,4.029214382171631,-1.1132607460021973
1667266577593742800,3.065742919921875,9.245866775512695,4.093820571899414,-1.2544373273849487
1667266577596140800,3.068140869140625,9.3490571975708,4.07467794418335,-1.3573286533355713
1667266577598538500,3.07053857421875,9.425627708435059,3.952643871307373,-1.4581263065338135
1667266577600936400,3.0729365234375,9.509376525878906,3.835395574569702,-1.5394822359085083
1667266577603334100,3.075334228515625,9.564411163330078,3.7037904262542725,-1.5897315740585327
1667266577605732000,3.077732177734375,9.609874725341797,3.600599765777588,-1.6040884256362915
1667266577608129800,3.0801298828125,9.600303649902344,3.5431721210479736,-1.6160526275634766
1667266577610527500,3.082527587890625,9.554840087890625,3.528815269470215,-1.5801602602005005
1667266577612925400,3.084925537109375,9.449555397033691,3.559921979904175,-1.5083755254745483
1667266577615323100,3.0873232421875,9.305986404418945,3.6197423934936523,-1.3932210206985474
1667266577617721000,3.08972119140625,9.164510726928711,3.7109687328338623,-1.2975081205368042
1667266577620118800,3.092118896484375,9.042476654052734,3.777967929840088,-1.189831018447876
1667266577622516700,3.094516845703125,8.93958568572998,3.866502285003662,-1.1084750890731812
1667266577624914400,3.09691455078125,8.788837432861328,3.9789650440216064,-1.0103694200515747
1667266577627312400,3.0993125,8.635397911071777,4.072285175323486,-0.9649057388305664
1667266577629710000,3.1017099609375,8.467900276184082,4.098606109619141,-0.9960124492645264
1667266577632108000,3.10410791015625,8.28843879699707,4.100998878479004,-1.0965110063552856
