time,seconds_elapsed,z,y,x
1667824430317289700,0.008289794921875,-1.01824951171875,-0.1795501708984375,0.1916656494140625
1667824430327296800,0.018296875,-1.017486572265625,-0.1688995361328125,0.1721038818359375
1667824430337304800,0.028304931640625,-1.0088348388671875,-0.1653900146484375,0.1571197509765625
1667824430347313000,0.03831298828125,-1.000579833984375,-0.1679534912109375,0.146636962890625
1667824430357320000,0.04831982421875,-0.9896087646484375,-0.1747283935546875,0.1382293701171875
1667824430367328000,0.058327880859375,-0.9758758544921875,-0.1797943115234375,0.1289520263671875
1667824430377335800,0.068335693359375,-0.9573516845703125,-0.185455322265625,0.1271820068359375
1667824430387344000,0.07834375,-0.9374237060546875,-0.1953125,0.1258697509765625
1667824430397351000,0.088350830078125,-0.9234466552734375,-0.201904296875,0.1199188232421875
1667824430407359000,0.09835888671875,-0.9152679443359375,-0.2059326171875,0.125579833984375
1667824430417366800,0.10836669921875,-0.8961639404296875,-0.21307373046875,0.132171630859375
1667824430427373800,0.118373779296875,-0.874847412109375,-0.21905517578125,0.1353607177734375
1667824430437381600,0.128381591796875,-0.8541717529296875,-0.2259979248046875,0.13555908203125
1667824430447390000,0.138389892578125,-0.8417205810546875,-0.239471435546875,0.14202880859375
1667824430457398000,0.14839794921875,-0.8458709716796875,-0.257568359375,0.150054931640625
1667824430467404800,0.15840478515625,-0.8517303466796875,-0.268157958984375,0.151092529296875
1667824430477412900,0.168412841796875,-0.861083984375,-0.2678680419921875,0.1529541015625
1667824430487420700,0.178420654296875,-0.881683349609375,-0.2665863037109375,0.147064208984375
1667824430497428000,0.188427978515625,-0.90985107421875,-0.267425537109375,0.133697509765625
1667824430507435800,0.198435791015625,-0.941741943359375,-0.2695465087890625,0.1222076416015625
1667824430517443800,0.20844384765625,-0.9496002197265625,-0.272247314453125,0.1130218505859375
1667824430527451600,0.21845166015625,-0.9544677734375,-0.268524169921875,0.0912017822265625
1667824430537459000,0.228458984375,-0.9734649658203125,-0.256988525390625,0.0264739990234375
1667824430547466800,0.238466796875,-0.9447174072265625,-0.25146484375,0.070404052734375
1667824430557474800,0.248474853515625,-0.918853759765625,-0.245269775390625,0.0626983642578125
1667824430567481900,0.25848193359375,-0.945068359375,-0.2485504150390625,-0.0047454833984375
1667824430577490000,0.268489990234375,-0.9865875244140625,-0.2702178955078125,-0.031524658203125
1667824430587498000,0.278498046875,-0.9013824462890625,-0.2730255126953125,0.0287322998046875
1667824430597505800,0.288505859375,-0.8701324462890625,-0.2720489501953125,0.0630035400390625
1667824430607512800,0.298512939453125,-0.89788818359375,-0.2740936279296875,0.0723876953125
1667824430617521000,0.30852099609375,-0.9526519775390625,-0.282928466796875,0.0683441162109375
1667824430627529000,0.318529052734375,-0.976318359375,-0.2897491455078125,0.038787841796875
1667824430637535700,0.32853564453125,-0.947906494140625,-0.2929229736328125,0.011260986328125
1667824430647543800,0.338543701171875,-0.8993988037109375,-0.2816314697265625,0.019500732421875
1667824430657552000,0.3485517578125,-0.88299560546875,-0.2814788818359375,0.033935546875
1667824430667559000,0.358558837890625,-0.89434814453125,-0.3035430908203125,0.0616607666015625
1667824430677566700,0.368566650390625,-0.89208984375,-0.3426666259765625,0.0919189453125
1667824430687574800,0.37857470703125,-0.8527984619140625,-0.4282073974609375,0.0848846435546875
1667824430697582800,0.388582763671875,-0.8546905517578125,-0.5185394287109375,0.02349853515625
1667824430707590000,0.39858984375,-0.90313720703125,-0.5596923828125,-0.045654296875
1667824430717597700,0.40859765625,-0.83123779296875,-0.5260772705078125,0.0328826904296875
1667824430727605800,0.418605712890625,-0.85662841796875,-0.509246826171875,0.0698699951171875
1667824430737612800,0.42861279296875,-0.9058990478515625,-0.5048980712890625,0.0560760498046875
1667824430747620900,0.438620849609375,-0.9214935302734375,-0.5189971923828125,0.03497314453125
1667824430757629400,0.44862939453125,-0.9318695068359375,-0.53564453125,0.0009765625
1667824430767637200,0.45863720703125,-0.9363555908203125,-0.525054931640625,-0.0225982666015625
1667824430777644300,0.468644287109375,-0.9201812744140625,-0.4975128173828125,-0.0157470703125
1667824430787652400,0.47865234375,-0.9163818359375,-0.4813232421875,0.0099945068359375
1667824430797660400,0.488660400390625,-0.9374237060546875,-0.482208251953125,0.0226593017578125
1667824430807667200,0.498667236328125,-0.965057373046875,-0.4896392822265625,-0.00164794921875
1667824430817675300,0.50867529296875,-0.9628753662109375,-0.4805755615234375,-0.04052734375
1667824430827683300,0.518683349609375,-0.951751708984375,-0.4485015869140625,-0.04998779296875
1667824430837691400,0.52869140625,-0.9481964111328125,-0.4186248779296875,-0.0398712158203125
1667824430847698200,0.5386982421875,-0.9666290283203125,-0.4208831787109375,-0.030517578125
1667824430857706200,0.548706298828125,-0.9836578369140625,-0.447052001953125,-0.03253173828125
1667824430867714300,0.55871435546875,-0.9736175537109375,-0.4601287841796875,-0.0418243408203125
1667824430877721300,0.568721435546875,-0.9558258056640625,-0.4535675048828125,-0.0405426025390625
1667824430887729400,0.5787294921875,-0.9558258056640625,-0.4331207275390625,-0.0047454833984375
1667824430897737200,0.5887373046875,-0.9413909912109375,-0.39862060546875,-0.0047454833984375
1667824430907745300,0.598745361328125,-0.9517669677734375,-0.3947906494140625,-0.03045654296875
1667824430917752300,0.60875244140625,-0.9698333740234375,-0.4116668701171875,-0.012115478515625
1667824430927760400,0.618760498046875,-0.9664306640625,-0.4237060546875,0.0054779052734375
1667824430937768200,0.628768310546875,-0.9600982666015625,-0.4281005859375,0.019195556640625
1667824430947775500,0.638775390625,-0.94964599609375,-0.4276275634765625,0.0235748291015625
1667824430957783300,0.648783203125,-0.9345245361328125,-0.4203948974609375,0.0344696044921875
1667824430967791400,0.658791259765625,-0.927215576171875,-0.4163055419921875,0.05242919921875
1667824430977798100,0.668798095703125,-0.914520263671875,-0.4059906005859375,0.0654449462890625
1667824430987806200,0.67880615234375,-0.8945465087890625,-0.39154052734375,0.086700439453125
1667824430997814300,0.688814208984375,-0.8707275390625,-0.3741455078125,0.111541748046875
1667824431007822300,0.698822265625,-0.8599090576171875,-0.364105224609375,0.12847900390625
1667824431017829000,0.7088291015625,-0.8680267333984375,-0.37408447265625,0.1703338623046875
1667824431027837200,0.718837158203125,-0.882843017578125,-0.39508056640625,0.2123565673828125
1667824431037845200,0.72884521484375,-0.8984832763671875,-0.40911865234375,0.240997314453125
1667824431047852300,0.738852294921875,-0.889556884765625,-0.39984130859375,0.2576904296875
1667824431057860400,0.7488603515625,-0.8714447021484375,-0.377471923828125,0.2693634033203125
1667824431067868200,0.7588681640625,-0.8745574951171875,-0.3496551513671875,0.2694854736328125
1667824431077876200,0.768876220703125,-0.8862762451171875,-0.3348541259765625,0.2659912109375
1667824431087883300,0.77888330078125,-0.912506103515625,-0.3220672607421875,0.256805419921875
1667824431097891300,0.788891357421875,-0.9412384033203125,-0.30059814453125,0.2393798828125
1667824431107899100,0.798899169921875,-0.9567413330078125,-0.2791900634765625,0.2195892333984375
1667824431117906400,0.808906494140625,-0.9774017333984375,-0.263671875,0.2030181884765625
1667824431127914200,0.818914306640625,-0.996551513671875,-0.2537078857421875,0.190643310546875
1667824431137922300,0.82892236328125,-1.0073089599609375,-0.2418060302734375,0.1779327392578125
1667824431147930400,0.838930419921875,-1.0221405029296875,-0.226898193359375,0.16607666015625
1667824431157937400,0.8489375,-1.0477294921875,-0.21728515625,0.158660888671875
1667824431167945500,0.858945556640625,-1.0717315673828125,-0.2190704345703125,0.1522369384765625
1667824431177953300,0.868953369140625,-1.0971527099609375,-0.2256011962890625,0.1376495361328125
1667824431187960300,0.878960205078125,-1.132110595703125,-0.232421875,0.124755859375
1667824431197968100,0.888968017578125,-1.16845703125,-0.238128662109375,0.1114044189453125
1667824431207976400,0.8989765625,-1.1884002685546875,-0.239593505859375,0.0886383056640625
1667824431217983200,0.908983154296875,-1.192138671875,-0.231414794921875,0.055633544921875
1667824431227991300,0.9189912109375,-1.1907501220703125,-0.2128448486328125,0.0210418701171875
1667824431237999000,0.9289990234375,-1.1817626953125,-0.197052001953125,-0.0096282958984375
1667824431248007400,0.93900732421875,-1.160125732421875,-0.1834869384765625,-0.0419158935546875
1667824431258014200,0.94901416015625,-1.1412353515625,-0.168548583984375,-0.075775146484375
1667824431268022300,0.959022216796875,-1.117767333984375,-0.15496826171875,-0.0955047607421875
1667824431278030300,0.9690302734375,-1.0888214111328125,-0.1507415771484375,-0.09674072265625
1667824431288037400,0.979037353515625,-1.0592803955078125,-0.1586151123046875,-0.088348388671875
1667824431298045400,0.98904541015625,-1.0272674560546875,-0.1711273193359375,-0.074920654296875
1667824431308053200,0.99905322265625,-0.999267578125,-0.1833343505859375,-0.0597686767578125
1667824431318061300,1.009061279296875,-0.9730224609375,-0.1891937255859375,-0.0424957275390625
1667824431328068400,1.019068359375,-0.95343017578125,-0.188568115234375,-0.01983642578125
1667824431338076400,1.029076416015625,-0.940765380859375,-0.1867523193359375,-0.0038604736328125
1667824431348084200,1.039084228515625,-0.9343719482421875,-0.187225341796875,0.006072998046875
1667824431358091300,1.04909130859375,-0.9349822998046875,-0.184844970703125,0.0131072998046875
1667824431368099300,1.059099365234375,-0.9373931884765625,-0.177642822265625,0.0159912109375
1667824431378107400,1.069107421875,-0.9408416748046875,-0.1621856689453125,0.013214111328125
1667824431388115500,1.079115478515625,-0.94256591796875,-0.1428070068359375,0.004364013671875
1667824431398122200,1.089122314453125,-0.939483642578125,-0.128326416015625,-0.00616455078125
1667824431408130300,1.09913037109375,-0.9373931884765625,-0.1180419921875,-0.0109405517578125
1667824431418138400,1.109138427734375,-0.93194580078125,-0.10906982421875,-0.008575439453125
1667824431428145400,1.1191455078125,-0.919403076171875,-0.1021728515625,0.0037841796875
1667824431438153200,1.1291533203125,-0.9094085693359375,-0.101959228515625,0.0147705078125
1667824431448161300,1.139161376953125,-0.9061279296875,-0.1104736328125,0.0210113525390625
1667824431458169300,1.14916943359375,-0.9003448486328125,-0.123077392578125,0.02471923828125
1667824431468176400,1.15917626953125,-0.89996337890625,-0.1346893310546875,0.031097412109375
1667824431478184200,1.16918408203125,-0.8995208740234375,-0.1414031982421875,0.03857421875
1667824431488192300,1.179192138671875,-0.8967437744140625,-0.1443328857421875,0.037139892578125
1667824431498199300,1.18919921875,-0.8978118896484375,-0.1449432373046875,0.02508544921875
1667824431508207400,1.199207275390625,-0.9039459228515625,-0.1412353515625,0.014190673828125
1667824431518215200,1.209215087890625,-0.9066619873046875,-0.1376190185546875,0.003875732421875
1667824431528222200,1.21922216796875,-0.9021453857421875,-0.133514404296875,-0.00885009765625
1667824431538230300,1.229230224609375,-0.900543212890625,-0.1275634765625,-0.0182952880859375
1667824431548238300,1.23923828125,-0.901214599609375,-0.1257781982421875,-0.0201416015625
1667824431558246400,1.249246337890625,-0.9003753662109375,-0.127166748046875,-0.01220703125
1667824431568253200,1.259253173828125,-0.902130126953125,-0.13214111328125,0.00128173828125
1667824431578261200,1.26926123046875,-0.9024200439453125,-0.142425537109375,0.0149688720703125
1667824431588269300,1.279269287109375,-0.9000701904296875,-0.1492462158203125,0.022064208984375
1667824431598276400,1.2892763671875,-0.8971710205078125,-0.1468963623046875,0.0213775634765625
1667824431608284200,1.2992841796875,-0.8919677734375,-0.139251708984375,0.017669677734375
1667824431618292200,1.309292236328125,-0.883270263671875,-0.1330413818359375,0.01544189453125
1667824431628300300,1.31930029296875,-0.8762359619140625,-0.13006591796875,0.019012451171875
1667824431638307300,1.329307373046875,-0.8753662109375,-0.1369171142578125,0.0288848876953125
1667824431648315100,1.339315185546875,-0.8753509521484375,-0.1482696533203125,0.037567138671875
1667824431658323200,1.3493232421875,-0.875640869140625,-0.1565704345703125,0.043914794921875
1667824431668330200,1.359330322265625,-0.8843231201171875,-0.1598663330078125,0.049072265625
1667824431678338300,1.36933837890625,-0.899383544921875,-0.162689208984375,0.0543212890625
1667824431688346400,1.379346435546875,-0.9110107421875,-0.16656494140625,0.052154541015625
1667824431698353400,1.389353515625,-0.9285888671875,-0.1654510498046875,0.045806884765625
1667824431708361500,1.399361572265625,-0.9524993896484375,-0.158233642578125,0.04229736328125
1667824431718369300,1.409369384765625,-0.983978271484375,-0.15179443359375,0.03851318359375
1667824431728377300,1.41937744140625,-1.0138397216796875,-0.1500701904296875,0.03253173828125
1667824431738384100,1.429384033203125,-1.04302978515625,-0.145050048828125,0.0223541259765625
1667824431748392400,1.439392333984375,-1.0699920654296875,-0.1338043212890625,0.0137939453125
1667824431758400300,1.449400146484375,-1.0934906005859375,-0.1220703125,0.0111236572265625
1667824431768407000,1.459406982421875,-1.1137237548828125,-0.1152496337890625,0.0095977783203125
1667824431778415000,1.4694150390625,-1.1242523193359375,-0.1132659912109375,0.0055694580078125
1667824431788423400,1.47942333984375,-1.1286163330078125,-0.1091766357421875,0.0038299560546875
1667824431798431200,1.48943115234375,-1.1253662109375,-0.1013946533203125,0.002105712890625
1667824431808438300,1.499438232421875,-1.1182098388671875,-0.0915069580078125,0.0029449462890625
1667824431818446000,1.509446044921875,-1.1100006103515625,-0.087890625,0.010528564453125
1667824431828454100,1.5194541015625,-1.0933837890625,-0.0909271240234375,0.019317626953125
1667824431838461200,1.529461181640625,-1.0702667236328125,-0.0872344970703125,0.0222930908203125
1667824431848469200,1.53946923828125,-1.0413818359375,-0.078460693359375,0.028106689453125
1667824431858477000,1.54947705078125,-1.015350341796875,-0.078521728515625,0.0374908447265625
1667824431868485000,1.559485107421875,-0.99395751953125,-0.087982177734375,0.049957275390625
1667824431878492200,1.5694921875,-0.9670562744140625,-0.095184326171875,0.0614776611328125
1667824431888500200,1.579500244140625,-0.93310546875,-0.1009063720703125,0.069732666015625
1667824431898508300,1.58950830078125,-0.89892578125,-0.1089630126953125,0.0744781494140625
1667824431908515300,1.599515380859375,-0.867156982421875,-0.1201629638671875,0.0812835693359375
1667824431918523400,1.6095234375,-0.83612060546875,-0.1319427490234375,0.089019775390625
1667824431928531200,1.61953125,-0.8125457763671875,-0.143341064453125,0.09808349609375
1667824431938538200,1.629538330078125,-0.7962493896484375,-0.1543426513671875,0.109100341796875
1667824431948546000,1.639546142578125,-0.784027099609375,-0.168304443359375,0.1193084716796875
1667824431958554400,1.649554443359375,-0.773101806640625,-0.181671142578125,0.1279144287109375
1667824431968562200,1.659562255859375,-0.7642059326171875,-0.19256591796875,0.139556884765625
1667824431978569200,1.6695693359375,-0.7609405517578125,-0.2028656005859375,0.1485595703125
1667824431988577000,1.679576904296875,-0.7604217529296875,-0.2120819091796875,0.14984130859375
1667824431998585300,1.68958544921875,-0.7618865966796875,-0.2162322998046875,0.1544342041015625
1667824432008592100,1.699592041015625,-0.76837158203125,-0.219024658203125,0.1667633056640625
1667824432018600200,1.70960009765625,-0.778472900390625,-0.2236328125,0.1742706298828125
1667824432028608300,1.719608154296875,-0.7880859375,-0.23187255859375,0.1793975830078125
1667824432038616000,1.729615966796875,-0.7983551025390625,-0.244964599609375,0.187896728515625
1667824432048623400,1.739623291015625,-0.8121185302734375,-0.2556610107421875,0.19580078125
1667824432058631200,1.749631103515625,-0.8265380859375,-0.263092041015625,0.1967315673828125
1667824432068639200,1.75963916015625,-0.84722900390625,-0.264068603515625,0.196044921875
1667824432078646300,1.769646240234375,-0.878387451171875,-0.2647552490234375,0.189697265625
1667824432088654300,1.779654296875,-0.9100341796875,-0.2563629150390625,0.1803741455078125
1667824432098662100,1.789662109375,-0.9287261962890625,-0.24542236328125,0.171478271484375
1667824432108670200,1.799670166015625,-0.9534454345703125,-0.24053955078125,0.1655426025390625
1667824432118677200,1.80967724609375,-0.974945068359375,-0.2425537109375,0.1591033935546875
1667824432128685300,1.819685302734375,-0.9987640380859375,-0.2393035888671875,0.156951904296875
1667824432138693000,1.829693115234375,-1.014678955078125,-0.233612060546875,0.1543121337890625
1667824432148700200,1.8397001953125,-1.0217437744140625,-0.2271728515625,0.143585205078125
1667824432158708000,1.8497080078125,-1.02325439453125,-0.2152862548828125,0.133026123046875
1667824432168716300,1.85971630859375,-1.0164642333984375,-0.2057342529296875,0.1304473876953125
1667824432178723000,1.86972314453125,-1.016082763671875,-0.205535888671875,0.1283416748046875
1667824432188731100,1.879731201171875,-1.0059967041015625,-0.2084808349609375,0.127410888671875
1667824432198739200,1.8897392578125,-1,-0.21221923828125,0.1313018798828125
1667824432208747300,1.899747314453125,-0.998504638671875,-0.2184600830078125,0.1375885009765625
1667824432218754300,1.90975439453125,-0.9884033203125,-0.2275390625,0.14251708984375
1667824432228762000,1.91976220703125,-0.98126220703125,-0.23785400390625,0.1430511474609375
1667824432238770200,1.929770263671875,-0.980621337890625,-0.2476043701171875,0.1384429931640625
1667824432248777200,1.939777099609375,-0.98291015625,-0.255767822265625,0.1307830810546875
1667824432258785300,1.949785400390625,-0.9828338623046875,-0.2588653564453125,0.1181182861328125
1667824432268793000,1.95979296875,-0.9867401123046875,-0.2587890625,0.1036224365234375
1667824432278801200,1.96980126953125,-0.998016357421875,-0.262939453125,0.0955810546875
1667824432288808200,1.97980810546875,-1.00885009765625,-0.2711029052734375,0.0888519287109375
1667824432298816300,1.989816162109375,-1.023162841796875,-0.275115966796875,0.076202392578125
1667824432308824300,1.99982421875,-1.0377960205078125,-0.2724761962890625,0.062469482421875
1667824432318831000,2.0098310546875,-1.04864501953125,-0.267791748046875,0.0480804443359375
1667824432328839400,2.01983935546875,-1.0616455078125,-0.2667236328125,0.04229736328125
1667824432338847200,2.02984716796875,-1.0817108154296875,-0.2688751220703125,0.0450286865234375
1667824432348855300,2.039855224609375,-1.097625732421875,-0.265228271484375,0.039398193359375
1667824432358862000,2.049862060546875,-1.114654541015625,-0.2514495849609375,0.0247039794921875
1667824432368870100,2.0598701171875,-1.1436309814453125,-0.2381591796875,0.011138916015625
1667824432378878200,2.069878173828125,-1.1657257080078125,-0.2294158935546875,-0.0045166015625
1667824432388885200,2.07988525390625,-1.18243408203125,-0.21881103515625,-0.0205078125
1667824432398893000,2.08989306640625,-1.190826416015625,-0.203216552734375,-0.0410919189453125
1667824432408901000,2.099901123046875,-1.182464599609375,-0.1869659423828125,-0.0626373291015625
1667824432418909200,2.1099091796875,-1.1581268310546875,-0.1732025146484375,-0.0826873779296875
1667824432428916200,2.119916259765625,-1.1267547607421875,-0.1658935546875,-0.096649169921875
1667824432438924300,2.12992431640625,-1.0876617431640625,-0.1686859130859375,-0.0993804931640625
1667824432448932000,2.13993212890625,-1.0484161376953125,-0.1767120361328125,-0.105712890625
1667824432458939400,2.149939453125,-1.017425537109375,-0.1822662353515625,-0.1077880859375
1667824432468947200,2.159947265625,-0.9919281005859375,-0.1935882568359375,-0.1028900146484375
1667824432478955300,2.169955322265625,-0.97222900390625,-0.2133026123046875,-0.1017303466796875
1667824432488963000,2.179963134765625,-0.95562744140625,-0.2306976318359375,-0.1117401123046875
1667824432498970400,2.189970458984375,-0.9452056884765625,-0.24786376953125,-0.115478515625
1667824432508978200,2.199978271484375,-0.9417877197265625,-0.2726287841796875,-0.11065673828125
1667824432518986200,2.209986328125,-0.9306640625,-0.285888671875,-0.113067626953125
1667824432528993000,2.219992919921875,-0.9206695556640625,-0.2719879150390625,-0.1253662109375
1667824432539001300,2.23000146484375,-0.9057464599609375,-0.2458648681640625,-0.1268157958984375
1667824432549009400,2.240009521484375,-0.89251708984375,-0.2279052734375,-0.11553955078125
1667824432559016200,2.25001611328125,-0.882781982421875,-0.2176971435546875,-0.1009063720703125
1667824432569024300,2.260024169921875,-0.8715972900390625,-0.2189483642578125,-0.0844879150390625
1667824432579032000,2.270031982421875,-0.8586883544921875,-0.235595703125,-0.0653839111328125
1667824432589040400,2.280040283203125,-0.8553924560546875,-0.2533721923828125,-0.04962158203125
1667824432599047200,2.290047119140625,-0.8535308837890625,-0.25823974609375,-0.0272369384765625
1667824432609055200,2.30005517578125,-0.8429412841796875,-0.2573089599609375,-0.0094757080078125
1667824432619063000,2.31006298828125,-0.830322265625,-0.25628662109375,-0.0054168701171875
1667824432629070300,2.3200703125,-0.82244873046875,-0.2524261474609375,-0.001953125
1667824432639078100,2.330078125,-0.8196258544921875,-0.248931884765625,0.0090179443359375
1667824432649086200,2.340086181640625,-0.815521240234375,-0.2462921142578125,0.0177154541015625
1667824432659094000,2.350093994140625,-0.8136138916015625,-0.245391845703125,0.017669677734375
1667824432669101300,2.360101318359375,-0.821014404296875,-0.2432403564453125,0.01409912109375
1667824432679109000,2.370109130859375,-0.8212432861328125,-0.2465362548828125,0.0167236328125
1667824432689117200,2.3801171875,-0.8305206298828125,-0.259307861328125,0.0231475830078125
1667824432699124200,2.390124267578125,-0.8358154296875,-0.275482177734375,0.034423828125
1667824432709132300,2.40013232421875,-0.8327484130859375,-0.2820587158203125,0.0431976318359375
1667824432719140400,2.410140380859375,-0.8351593017578125,-0.2744293212890625,0.0472259521484375
1667824432729148200,2.420148193359375,-0.843719482421875,-0.2704620361328125,0.0501708984375
1667824432739155200,2.4301552734375,-0.8501739501953125,-0.2760009765625,0.0533905029296875
1667824432749163300,2.440163330078125,-0.860748291015625,-0.27978515625,0.051483154296875
1667824432759171600,2.450171630859375,-0.869049072265625,-0.2774810791015625,0.0498199462890625
1667824432769178600,2.4601787109375,-0.8837127685546875,-0.2839508056640625,0.04876708984375
1667824432779186400,2.4701865234375,-0.9033966064453125,-0.2949981689453125,0.04632568359375
1667824432789194500,2.480194580078125,-0.9130706787109375,-0.2925567626953125,0.0361480712890625
1667824432799202600,2.49020263671875,-0.928253173828125,-0.286376953125,0.027679443359375
1667824432809209600,2.500209716796875,-0.9485015869140625,-0.290863037109375,0.023223876953125
1667824432819217400,2.510217529296875,-0.967132568359375,-0.3025054931640625,0.020843505859375
1667824432829225500,2.5202255859375,-0.993621826171875,-0.3045806884765625,0.01470947265625
1667824432839232500,2.530232421875,-1.031463623046875,-0.2930908203125,0.001922607421875
1667824432849240600,2.540240478515625,-1.06182861328125,-0.272216796875,-0.0164794921875
1667824432859248600,2.55024853515625,-1.0855865478515625,-0.2447357177734375,-0.039093017578125
1667824432869256400,2.56025634765625,-1.1052398681640625,-0.2221832275390625,-0.0541229248046875
1667824432879263700,2.570263671875,-1.112579345703125,-0.20867919921875,-0.0720062255859375
1667824432889271600,2.580271484375,-1.1151580810546875,-0.18304443359375,-0.1028594970703125
1667824432899279600,2.590279541015625,-1.1102294921875,-0.1436614990234375,-0.1305084228515625
1667824432909286400,2.600286376953125,-1.090576171875,-0.1182098388671875,-0.1427764892578125
1667824432919294700,2.610294677734375,-1.068939208984375,-0.1145172119140625,-0.1455535888671875
1667824432929302500,2.620302490234375,-1.046295166015625,-0.11968994140625,-0.1419219970703125
1667824432939310600,2.630310546875,-1.0256195068359375,-0.1273956298828125,-0.1353912353515625
1667824432949317400,2.6403173828125,-1.00897216796875,-0.1373443603515625,-0.1242523193359375
1667824432959325400,2.650325439453125,-0.995819091796875,-0.154296875,-0.1151123046875
1667824432969333800,2.660333740234375,-0.99322509765625,-0.17279052734375,-0.1070404052734375
1667824432979340500,2.670340576171875,-0.9981842041015625,-0.1884765625,-0.1013031005859375
1667824432989348600,2.6803486328125,-1.0039825439453125,-0.2031402587890625,-0.0986328125
1667824432999356400,2.6903564453125,-1.0119171142578125,-0.2138519287109375,-0.101654052734375
1667824433009364500,2.700364501953125,-1.0262451171875,-0.215972900390625,-0.101104736328125
1667824433019371500,2.71037158203125,-1.049560546875,-0.221954345703125,-0.097991943359375
1667824433029379600,2.720379638671875,-1.0793304443359375,-0.227294921875,-0.105438232421875
1667824433039387400,2.730387451171875,-1.1056671142578125,-0.2227325439453125,-0.113372802734375
1667824433049394700,2.740394775390625,-1.132110595703125,-0.2128753662109375,-0.1118621826171875
1667824433059402500,2.750402587890625,-1.1502838134765625,-0.2055206298828125,-0.115631103515625
1667824433069410600,2.76041064453125,-1.1572418212890625,-0.1895599365234375,-0.128204345703125
1667824433079417300,2.770417236328125,-1.1512908935546875,-0.1590728759765625,-0.143310546875
1667824433089425700,2.78042578125,-1.13232421875,-0.1205902099609375,-0.1480865478515625
1667824433099433700,2.790433837890625,-1.1058807373046875,-0.095977783203125,-0.1388397216796875
1667824433109441500,2.800441650390625,-1.0729827880859375,-0.0945892333984375,-0.1190338134765625
1667824433119448600,2.810448486328125,-1.0346832275390625,-0.09381103515625,-0.099761962890625
1667824433129456600,2.82045654296875,-0.9926300048828125,-0.0925445556640625,-0.080657958984375
1667824433139464700,2.830464599609375,-0.95458984375,-0.10162353515625,-0.0557098388671875
1667824433149472500,2.840472412109375,-0.9211578369140625,-0.1132049560546875,-0.0247039794921875
1667824433159479600,2.8504794921875,-0.884429931640625,-0.12237548828125,0.004730224609375
1667824433169487400,2.8604873046875,-0.849517822265625,-0.1348876953125,0.024658203125
1667824433179495700,2.87049560546875,-0.81280517578125,-0.15081787109375,0.03851318359375
1667824433189502500,2.88050244140625,-0.7867431640625,-0.1653900146484375,0.0492706298828125
1667824433199510500,2.890510498046875,-0.7653961181640625,-0.17822265625,0.060760498046875
1667824433209518300,2.900518310546875,-0.74908447265625,-0.191986083984375,0.06640625
1667824433219525600,2.910525634765625,-0.7566070556640625,-0.20587158203125,0.06634521484375
1667824433229533400,2.920533447265625,-0.769989013671875,-0.223846435546875,0.0640869140625
1667824433239541500,2.93054150390625,-0.7755889892578125,-0.2439727783203125,0.0509185791015625
1667824433249549600,2.940549560546875,-0.79266357421875,-0.258087158203125,0.0315093994140625
1667824433259556600,2.950556640625,-0.815216064453125,-0.2635955810546875,0.021728515625
1667824433269564700,2.960564697265625,-0.8360443115234375,-0.2667694091796875,0.0133056640625
1667824433279572500,2.970572509765625,-0.85906982421875,-0.275726318359375,0.0006256103515625
1667824433289579500,2.98057958984375,-0.875579833984375,-0.2881927490234375,-0.01495361328125
1667824433299587600,2.990587646484375,-0.885772705078125,-0.2910308837890625,-0.0321807861328125
1667824433309595600,3.000595703125,-0.9023590087890625,-0.2859039306640625,-0.04693603515625
1667824433319603500,3.010603515625,-0.9225006103515625,-0.2886962890625,-0.05364990234375
1667824433329610500,3.020610595703125,-0.9410858154296875,-0.306427001953125,-0.0523834228515625
1667824433339618600,3.03061865234375,-0.960235595703125,-0.32379150390625,-0.051025390625
1667824433349626600,3.040626708984375,-0.9703369140625,-0.3300323486328125,-0.0527801513671875
1667824433359633400,3.05063330078125,-0.97332763671875,-0.32354736328125,-0.0585174560546875
1667824433369641500,3.060641357421875,-0.9717864990234375,-0.31109619140625,-0.063568115234375
1667824433379649500,3.0706494140625,-0.9721221923828125,-0.2952423095703125,-0.0637664794921875
1667824433389657600,3.08065771484375,-0.9735107421875,-0.2823944091796875,-0.0514678955078125
1667824433399664600,3.09066455078125,-0.9711761474609375,-0.281524658203125,-0.0332183837890625
1667824433409672400,3.10067236328125,-0.9664306640625,-0.2856597900390625,-0.018096923828125
1667824433419680500,3.110680419921875,-0.96356201171875,-0.2808380126953125,0.0020751953125
1667824433429687600,3.1206875,-0.953826904296875,-0.2718963623046875,0.0209197998046875
1667824433439695600,3.130695556640625,-0.9502410888671875,-0.2762603759765625,0.04150390625
1667824433449703400,3.140703369140625,-0.952239990234375,-0.2800750732421875,0.059906005859375
1667824433459711500,3.15071142578125,-0.94512939453125,-0.2724761962890625,0.0771942138671875
1667824433469718500,3.160718505859375,-0.944732666015625,-0.264984130859375,0.091552734375
1667824433479726600,3.1707265625,-0.948028564453125,-0.2574310302734375,0.10003662109375
1667824433489734700,3.180734619140625,-0.95404052734375,-0.247222900390625,0.115325927734375
1667824433499741400,3.190741455078125,-0.964141845703125,-0.2387542724609375,0.1292266845703125
1667824433509749800,3.200749755859375,-0.97015380859375,-0.232940673828125,0.1385498046875
1667824433519757600,3.210757568359375,-0.976837158203125,-0.2287445068359375,0.1416473388671875
1667824433529765600,3.220765625,-0.984466552734375,-0.22357177734375,0.1424102783203125
1667824433539772400,3.2307724609375,-0.9927215576171875,-0.216217041015625,0.14642333984375
1667824433549780500,3.240780517578125,-1.0035400390625,-0.2112274169921875,0.1487884521484375
1667824433559788500,3.25078857421875,-1.020538330078125,-0.2060394287109375,0.144683837890625
1667824433569795600,3.260795654296875,-1.0366363525390625,-0.1922760009765625,0.1348114013671875
1667824433579803400,3.270803466796875,-1.0483856201171875,-0.17572021484375,0.1275787353515625
1667824433589811500,3.2808115234375,-1.0615234375,-0.1637725830078125,0.124969482421875
1667824433599819800,3.29081982421875,-1.0653076171875,-0.15924072265625,0.1258087158203125
1667824433609826600,3.30082666015625,-1.0602569580078125,-0.1523284912109375,0.13006591796875
1667824433619834600,3.310834716796875,-1.04913330078125,-0.1398468017578125,0.1319122314453125
1667824433629842400,3.320842529296875,-1.0305023193359375,-0.12744140625,0.13568115234375
1667824433639849500,3.330849365234375,-1.0009002685546875,-0.118255615234375,0.1457672119140625
1667824433649857500,3.340857421875,-0.97003173828125,-0.1129302978515625,0.154937744140625
1667824433659865600,3.350865478515625,-0.9451446533203125,-0.1097412109375,0.168548583984375
1667824433669873400,3.360873291015625,-0.926239013671875,-0.1123809814453125,0.1873321533203125
1667824433679880700,3.370880615234375,-0.920440673828125,-0.1207122802734375,0.2068939208984375
1667824433689888500,3.380888427734375,-0.9279327392578125,-0.1319732666015625,0.223388671875
1667824433699896600,3.390896484375,-0.9506988525390625,-0.1387481689453125,0.2223052978515625
1667824433709903400,3.4009033203125,-0.9776611328125,-0.133758544921875,0.205657958984375
1667824433719911700,3.41091162109375,-1.019287109375,-0.1208953857421875,0.1771392822265625
1667824433729919500,3.42091943359375,-1.06866455078125,-0.1005859375,0.1361846923828125
1667824433739926500,3.430926513671875,-1.11260986328125,-0.075225830078125,0.0885162353515625
1667824433749934300,3.440934326171875,-1.1482391357421875,-0.0482940673828125,0.028533935546875
1667824433759946000,3.450946044921875,-1.167144775390625,-0.021453857421875,-0.02545166015625
1667824433769953800,3.460953857421875,-1.1703033447265625,-0.0098419189453125,-0.0628204345703125
1667824433779960800,3.4709609375,-1.1682586669921875,-0.0262451171875,-0.0886383056640625
1667824433789968600,3.48096875,-1.1583099365234375,-0.0589752197265625,-0.110076904296875
1667824433799976700,3.490976806640625,-1.1417236328125,-0.099456787109375,-0.1266937255859375
1667824433809983700,3.500983642578125,-1.11907958984375,-0.1417999267578125,-0.143310546875
1667824433819991800,3.51099169921875,-1.0950469970703125,-0.1841888427734375,-0.15753173828125
1667824433829999600,3.52099951171875,-1.0799102783203125,-0.22607421875,-0.1643829345703125
1667824433840007700,3.531007568359375,-1.06451416015625,-0.2609710693359375,-0.17034912109375
1667824433850014700,3.5410146484375,-1.044464111328125,-0.2882080078125,-0.175537109375
1667824433860022800,3.551022705078125,-1.037384033203125,-0.310150146484375,-0.1796875
1667824433870030800,3.56103076171875,-1.0348358154296875,-0.322357177734375,-0.1802520751953125
1667824433880038000,3.571037841796875,-1.03411865234375,-0.31915283203125,-0.171478271484375
1667824433890046000,3.5810458984375,-1.02996826171875,-0.30609130859375,-0.158233642578125
1667824433900053800,3.5910537109375,-1.0159759521484375,-0.2893218994140625,-0.157501220703125
1667824433910061800,3.601061767578125,-1.001190185546875,-0.2664947509765625,-0.1537017822265625
1667824433920068900,3.61106884765625,-0.9798431396484375,-0.2502899169921875,-0.14508056640625
1667824433930077000,3.621076904296875,-0.9634246826171875,-0.244659423828125,-0.13409423828125
1667824433940084700,3.631084716796875,-0.9387664794921875,-0.251922607421875,-0.1188201904296875
1667824433950091800,3.641091796875,-0.910797119140625,-0.2580108642578125,-0.102386474609375
1667824433960099600,3.651099609375,-0.886444091796875,-0.2552032470703125,-0.0802154541015625
1667824433970108000,3.66110791015625,-0.86279296875,-0.255035400390625,-0.0559234619140625
1667824433980116000,3.671115966796875,-0.833740234375,-0.2603912353515625,-0.0437469482421875
1667824433990122800,3.681122802734375,-0.81072998046875,-0.2617034912109375,-0.0342864990234375
1667824434000130800,3.691130859375,-0.797393798828125,-0.258148193359375,-0.0194244384765625
1667824434010138600,3.701138671875,-0.7839202880859375,-0.2605438232421875,-0.0034332275390625
1667824434020146000,3.71114599609375,-0.77581787109375,-0.268463134765625,0.0098724365234375
1667824434030153700,3.72115380859375,-0.775634765625,-0.27557373046875,0.0229034423828125
1667824434040161800,3.731161865234375,-0.7802734375,-0.283782958984375,0.042999267578125
1667824434050169600,3.741169677734375,-0.786468505859375,-0.29168701171875,0.05853271484375
1667824434060177000,3.751177001953125,-0.803619384765625,-0.294403076171875,0.0786590576171875
1667824434070184700,3.761184814453125,-0.8234405517578125,-0.295684814453125,0.0921783447265625
1667824434080192800,3.77119287109375,-0.84173583984375,-0.296875,0.097442626953125
1667824434090199800,3.78119970703125,-0.8618927001953125,-0.293792724609375,0.0975189208984375
1667824434100207900,3.791207763671875,-0.894378662109375,-0.2825927734375,0.0860595703125
1667824434110216000,3.8012158203125,-0.9275970458984375,-0.2644500732421875,0.061737060546875
1667824434120223700,3.8112236328125,-0.971710205078125,-0.238677978515625,0.02703857421875
1667824434130230800,3.821230712890625,-1.0198974609375,-0.2092437744140625,-0.015411376953125
1667824434140238800,3.83123876953125,-1.07623291015625,-0.1845703125,-0.061431884765625
1667824434150247000,3.841246826171875,-1.1212310791015625,-0.16607666015625,-0.1055908203125
1667824434160253700,3.851253662109375,-1.14593505859375,-0.142242431640625,-0.1524658203125
1667824434170261800,3.86126171875,-1.1486053466796875,-0.107574462890625,-0.1944122314453125
1667824434180269800,3.871269775390625,-1.1453857421875,-0.07281494140625,-0.223114013671875
1667824434190278000,3.88127783203125,-1.134185791015625,-0.0558624267578125,-0.2391357421875
1667824434200284700,3.89128466796875,-1.104278564453125,-0.0573577880859375,-0.249603271484375
1667824434210292700,3.901292724609375,-1.082122802734375,-0.0545196533203125,-0.255889892578125
1667824434220300800,3.91130078125,-1.072174072265625,-0.0563812255859375,-0.2590179443359375
1667824434230307800,3.921307861328125,-1.0599212646484375,-0.069305419921875,-0.27313232421875
1667824434240315600,3.931315673828125,-1.0419769287109375,-0.08404541015625,-0.2929229736328125
1667824434250323700,3.94132373046875,-1.0294647216796875,-0.095367431640625,-0.3065948486328125
1667824434260331800,3.951331787109375,-1.006317138671875,-0.1095428466796875,-0.3107757568359375
1667824434270338800,3.9613388671875,-0.9728240966796875,-0.114593505859375,-0.31976318359375
1667824434280347000,3.971346923828125,-0.941497802734375,-0.1095428466796875,-0.3345489501953125
1667824434290354700,3.981354736328125,-0.9014739990234375,-0.09942626953125,-0.3459625244140625
1667824434300362800,3.99136279296875,-0.8588409423828125,-0.0929718017578125,-0.3485870361328125
1667824434310369800,4.001369873046875,-0.8328399658203125,-0.0974578857421875,-0.3405914306640625
1667824434320377900,4.0113779296875,-0.8110809326171875,-0.114990234375,-0.323638916015625
1667824434330385700,4.0213857421875,-0.8047027587890625,-0.1334228515625,-0.30816650390625
1667824434340392700,4.031392822265625,-0.809906005859375,-0.1474609375,-0.2931671142578125
1667824434350400800,4.04140087890625,-0.8159942626953125,-0.1595458984375,-0.2787933349609375
1667824434360408800,4.051408935546875,-0.8330078125,-0.171661376953125,-0.2619476318359375
1667824434370415600,4.06141552734375,-0.85479736328125,-0.185882568359375,-0.2434234619140625
1667824434380423700,4.071423583984375,-0.8776702880859375,-0.1938934326171875,-0.230865478515625
1667824434390432000,4.081431884765625,-0.9006805419921875,-0.1936492919921875,-0.2357635498046875
1667824434400439800,4.091439697265625,-0.92926025390625,-0.1707000732421875,-0.2484893798828125
1667824434410446800,4.10144677734375,-0.975677490234375,-0.134246826171875,-0.255706787109375
1667824434420454700,4.11145458984375,-1.0309600830078125,-0.1124267578125,-0.2545928955078125
1667824434430462700,4.121462646484375,-1.07879638671875,-0.116973876953125,-0.2494659423828125
1667824434440469800,4.1314697265625,-1.111480712890625,-0.126983642578125,-0.251251220703125
1667824434450477800,4.141477783203125,-1.1271514892578125,-0.1136932373046875,-0.2522125244140625
1667824434460485600,4.151485595703125,-1.1273651123046875,-0.0787506103515625,-0.2373046875
1667824434470493700,4.16149365234375,-1.12103271484375,-0.044921875,-0.2225341796875
1667824434480500700,4.171500732421875,-1.097991943359375,-0.028167724609375,-0.19775390625
1667824434490508800,4.1815087890625,-1.0765380859375,-0.0232696533203125,-0.1660308837890625
1667824434500516900,4.191516845703125,-1.0558624267578125,-0.0232086181640625,-0.1300506591796875
1667824434510524000,4.20152392578125,-1.022247314453125,-0.0245361328125,-0.096954345703125
1667824434520532000,4.211531982421875,-0.9848175048828125,-0.03228759765625,-0.0630645751953125
1667824434530539800,4.221539794921875,-0.9465484619140625,-0.0472564697265625,-0.029327392578125
1667824434540547800,4.2315478515625,-0.914825439453125,-0.0641021728515625,-0.003753662109375
1667824434550555000,4.241554931640625,-0.8890838623046875,-0.08258056640625,0.0173492431640625
1667824434560563000,4.25156298828125,-0.86322021484375,-0.103057861328125,0.02984619140625
1667824434570570800,4.26157080078125,-0.8455657958984375,-0.1191864013671875,0.0328826904296875
1667824434580577800,4.271577880859375,-0.82958984375,-0.131561279296875,0.04217529296875
1667824434590585600,4.281585693359375,-0.8216400146484375,-0.1443634033203125,0.0455169677734375
1667824434600594000,4.291593994140625,-0.8220672607421875,-0.154205322265625,0.042022705078125
1667824434610602000,4.30160205078125,-0.8228302001953125,-0.1638336181640625,0.0405731201171875
1667824434620608800,4.31160888671875,-0.832794189453125,-0.1771087646484375,0.0342864990234375
1667824434630616800,4.321616943359375,-0.8446044921875,-0.1903228759765625,0.0194091796875
1667824434640624600,4.331624755859375,-0.8600921630859375,-0.1977386474609375,0.0035858154296875
1667824434650632000,4.3416318359375,-0.88128662109375,-0.2089996337890625,-0.0093841552734375
1667824434660639700,4.3516396484375,-0.9011077880859375,-0.2202606201171875,-0.01666259765625
1667824434670647800,4.361647705078125,-0.9196929931640625,-0.2223663330078125,-0.0296783447265625
1667824434680655600,4.371655517578125,-0.937744140625,-0.2180023193359375,-0.0478363037109375
1667824434690663000,4.381662841796875,-0.95037841796875,-0.211578369140625,-0.0649566650390625
1667824434700670700,4.391670654296875,-0.962615966796875,-0.206085205078125,-0.07293701171875
1667824434710678800,4.4016787109375,-0.9815826416015625,-0.2043914794921875,-0.08331298828125
1667824434720685800,4.411685791015625,-1.0052947998046875,-0.2019500732421875,-0.0939788818359375
1667824434730694000,4.42169384765625,-1.0267486572265625,-0.2002105712890625,-0.1030731201171875
1667824434740701700,4.43170166015625,-1.043914794921875,-0.1947479248046875,-0.110595703125
1667824434750708700,4.441708740234375,-1.0573883056640625,-0.1886138916015625,-0.1148681640625
1667824434760716800,4.451716796875,-1.06524658203125,-0.1864471435546875,-0.12005615234375
1667824434770722000,4.46172216796875,-1.064849853515625,-0.1825103759765625,-0.12139892578125
1667824434780730000,4.471730224609375,-1.060272216796875,-0.1683349609375,-0.1153717041015625
1667824434790737200,4.481737060546875,-1.0489044189453125,-0.1511688232421875,-0.1024627685546875
1667824434800745000,4.491744873046875,-1.0332489013671875,-0.1435546875,-0.080780029296875
1667824434810753000,4.5017529296875,-1.0155181884765625,-0.1435699462890625,-0.0556640625
1667824434820760000,4.511760009765625,-1.00360107421875,-0.1439971923828125,-0.0277252197265625
1667824434830768000,4.52176806640625,-0.9839324951171875,-0.1453399658203125,0.0095062255859375
1667824434840776000,4.53177587890625,-0.9646453857421875,-0.1488189697265625,0.0357818603515625
1667824434850784000,4.541783935546875,-0.96038818359375,-0.1475677490234375,0.054779052734375
1667824434860791000,4.551791015625,-0.9570770263671875,-0.1492156982421875,0.08074951171875
1667824434870799000,4.561799072265625,-0.957916259765625,-0.1532135009765625,0.10284423828125
1667824434880807200,4.57180712890625,-0.96337890625,-0.15472412109375,0.1155853271484375
1667824434890814000,4.58181396484375,-0.968597412109375,-0.1548004150390625,0.122283935546875
1667824434900822300,4.591822265625,-0.9785308837890625,-0.1503143310546875,0.1260833740234375
1667824434910830000,4.601830078125,-0.99163818359375,-0.1497650146484375,0.1373138427734375
1667824434920838100,4.611838134765625,-1.009490966796875,-0.155670166015625,0.1433563232421875
1667824434930845000,4.621844970703125,-1.0324249267578125,-0.1623687744140625,0.1515655517578125
1667824434940853000,4.63185302734375,-1.0558013916015625,-0.1690673828125,0.1601715087890625
1667824434950861000,4.641861083984375,-1.087310791015625,-0.173370361328125,0.1627655029296875
1667824434960868000,4.6518681640625,-1.1308441162109375,-0.169769287109375,0.14227294921875
1667824434970876000,4.6618759765625,-1.1778564453125,-0.15216064453125,0.1018218994140625
1667824434980884000,4.671884033203125,-1.221588134765625,-0.126922607421875,0.0599365234375
1667824434990892300,4.681892333984375,-1.2542724609375,-0.105316162109375,0.0223846435546875
1667824435000899000,4.691899169921875,-1.2711639404296875,-0.09100341796875,-0.0144500732421875
1667824435010907100,4.7019072265625,-1.2769622802734375,-0.0806732177734375,-0.0536956787109375
1667824435020915000,4.7119150390625,-1.2689361572265625,-0.07525634765625,-0.0822601318359375
1667824435030922200,4.721922119140625,-1.249298095703125,-0.0722198486328125,-0.100250244140625
1667824435040930000,4.731929931640625,-1.222198486328125,-0.07562255859375,-0.109527587890625
1667824435050938000,4.741938232421875,-1.184173583984375,-0.087371826171875,-0.11932373046875
1667824435060946000,4.75194580078125,-1.141754150390625,-0.0999755859375,-0.1315460205078125
1667824435070953200,4.761953125,-1.1027374267578125,-0.1150970458984375,-0.13848876953125
1667824435080961000,4.7719609375,-1.063507080078125,-0.12872314453125,-0.14776611328125
1667824435090969000,4.781968994140625,-1.0322113037109375,-0.1450347900390625,-0.1623382568359375
1667824435100975900,4.791975830078125,-1.00738525390625,-0.1660003662109375,-0.176788330078125
1667824435110984200,4.801984130859375,-0.9874725341796875,-0.186126708984375,-0.182861328125
1667824435120992300,4.8119921875,-0.9804840087890625,-0.200653076171875,-0.1865997314453125
1667824435131000000,4.822,-0.9794769287109375,-0.205902099609375,-0.188720703125
1667824435141007000,4.832007080078125,-0.98004150390625,-0.1996917724609375,-0.196685791015625
1667824435151015200,4.84201513671875,-0.988128662109375,-0.1826934814453125,-0.21197509765625
1667824435161023200,4.852023193359375,-0.987884521484375,-0.16400146484375,-0.2314300537109375
1667824435171030000,4.862030029296875,-0.982330322265625,-0.1495208740234375,-0.2476959228515625
1667824435181038000,4.8720380859375,-0.975250244140625,-0.1429443359375,-0.252227783203125
1667824435191046000,4.8820458984375,-0.9670257568359375,-0.1406707763671875,-0.247802734375
1667824435201054200,4.89205419921875,-0.95770263671875,-0.136505126953125,-0.24432373046875
1667824435211061000,4.90206103515625,-0.936981201171875,-0.1297607421875,-0.2432098388671875
1667824435221069000,4.912069091796875,-0.9093170166015625,-0.12548828125,-0.2381439208984375
1667824435231077000,4.9220771484375,-0.8760528564453125,-0.1278228759765625,-0.226348876953125
1667824435241084200,4.932084228515625,-0.840728759765625,-0.13604736328125,-0.209991455078125
1667824435251092200,4.94209228515625,-0.803009033203125,-0.1505584716796875,-0.192840576171875
1667824435261100000,4.95210009765625,-0.7647705078125,-0.169647216796875,-0.1759033203125
1667824435271107000,4.962107177734375,-0.7411651611328125,-0.192108154296875,-0.1571197509765625
1667824435281115100,4.972115234375,-0.7248992919921875,-0.2162017822265625,-0.1313323974609375
1667824435291123200,4.982123291015625,-0.71649169921875,-0.237030029296875,-0.1038970947265625
1667824435301131000,4.992131103515625,-0.7174530029296875,-0.255401611328125,-0.0809478759765625
1667824435311138000,5.002137939453125,-0.7187957763671875,-0.2723388671875,-0.062469482421875
1667824435321146000,5.01214599609375,-0.720123291015625,-0.2884063720703125,-0.0520477294921875
1667824435331154200,5.022154296875,-0.7285919189453125,-0.3031158447265625,-0.044036865234375
1667824435341161000,5.032160888671875,-0.74346923828125,-0.31414794921875,-0.033935546875
1667824435351169000,5.0421689453125,-0.759979248046875,-0.3223419189453125,-0.02508544921875
1667824435361177000,5.052177001953125,-0.7762298583984375,-0.3251190185546875,-0.01739501953125
1667824435371185200,5.06218505859375,-0.78509521484375,-0.32421875,-0.0146942138671875
1667824435381192000,5.07219189453125,-0.79315185546875,-0.318359375,-0.010406494140625
1667824435391200000,5.082199951171875,-0.8014678955078125,-0.31781005859375,0.0012664794921875
1667824435401208000,5.0922080078125,-0.813751220703125,-0.329833984375,0.017578125
1667824435411215000,5.102215087890625,-0.829559326171875,-0.3406219482421875,0.02203369140625
1667824435421223200,5.11222314453125,-0.8482513427734375,-0.340118408203125,0.0161285400390625
1667824435431231000,5.12223095703125,-0.873809814453125,-0.338287353515625,0.007232666015625
1667824435441239000,5.132239013671875,-0.90814208984375,-0.337799072265625,-0.0053253173828125
1667824435451246000,5.14224609375,-0.9434356689453125,-0.323211669921875,-0.02960205078125
1667824435461254100,5.152254150390625,-0.9815826416015625,-0.2955322265625,-0.0531158447265625
1667824435471262000,5.162261962890625,-1.0125579833984375,-0.2719573974609375,-0.0827178955078125
1667824435481269200,5.172269287109375,-1.0321197509765625,-0.2532501220703125,-0.1194915771484375
1667824435491277000,5.182277099609375,-1.050506591796875,-0.24163818359375,-0.14520263671875
1667824435501285000,5.19228515625,-1.0735321044921875,-0.244659423828125,-0.162200927734375
1667824435511293200,5.202293212890625,-1.100341796875,-0.2541046142578125,-0.1743621826171875
1667824435521300000,5.212300048828125,-1.118896484375,-0.2602996826171875,-0.1825103759765625
1667824435531308300,5.222308349609375,-1.1253814697265625,-0.2627410888671875,-0.1946563720703125
1667824435541316000,5.232316162109375,-1.134246826171875,-0.260467529296875,-0.21337890625
1667824435551323100,5.2423232421875,-1.1430511474609375,-0.252685546875,-0.2265472412109375
1667824435561331000,5.2523310546875,-1.145965576171875,-0.24761962890625,-0.2320556640625
1667824435571339000,5.262339111328125,-1.1508636474609375,-0.239715576171875,-0.2413330078125
1667824435581346000,5.272345947265625,-1.14288330078125,-0.2189788818359375,-0.2586212158203125
1667824435591354000,5.28235400390625,-1.1295318603515625,-0.1890411376953125,-0.28125
1667824435601362000,5.29236181640625,-1.117462158203125,-0.158233642578125,-0.297821044921875
1667824435611370000,5.302369873046875,-1.09857177734375,-0.1356048583984375,-0.3039703369140625
1667824435621377000,5.312376953125,-1.0733489990234375,-0.1207275390625,-0.3024749755859375
1667824435631385000,5.322385009765625,-1.0370330810546875,-0.11334228515625,-0.2945404052734375
1667824435641393200,5.33239306640625,-0.99395751953125,-0.1129913330078125,-0.2789306640625
1667824435651400200,5.342400146484375,-0.9547119140625,-0.11553955078125,-0.2639617919921875
1667824435661408300,5.352408203125,-0.9138336181640625,-0.1148834228515625,-0.246826171875
1667824435671416000,5.362416015625,-0.87646484375,-0.1182708740234375,-0.221099853515625
1667824435681424100,5.372424072265625,-0.8517303466796875,-0.137359619140625,-0.192596435546875
1667824435691431200,5.38243115234375,-0.8433685302734375,-0.1595611572265625,-0.172210693359375
1667824435701439200,5.392439208984375,-0.8468475341796875,-0.1701507568359375,-0.157684326171875
1667824435711447000,5.402447021484375,-0.8594970703125,-0.1750335693359375,-0.1387176513671875
1667824435721454000,5.4124541015625,-0.872283935546875,-0.1845245361328125,-0.1195831298828125
1667824435731462000,5.4224619140625,-0.8880615234375,-0.199462890625,-0.1010894775390625
1667824435741470200,5.43247021484375,-0.9091339111328125,-0.20672607421875,-0.088836669921875
1667824435751478300,5.442478271484375,-0.9281005859375,-0.2034759521484375,-0.0873870849609375
1667824435761485000,5.452485107421875,-0.9420013427734375,-0.18994140625,-0.096771240234375
1667824435771492000,5.4624921875,-0.9580230712890625,-0.1701812744140625,-0.10113525390625
1667824435781500200,5.472500244140625,-0.9824676513671875,-0.1580657958984375,-0.0868377685546875
1667824435791507000,5.4825068359375,-0.997314453125,-0.1503143310546875,-0.0748748779296875
1667824435801515000,5.492514892578125,-1.0128326416015625,-0.138336181640625,-0.075775146484375
1667824435811523000,5.502523193359375,-1.0247344970703125,-0.120269775390625,-0.0694427490234375
1667824435821530000,5.512530029296875,-1.0328521728515625,-0.100372314453125,-0.0599517822265625
1667824435831538200,5.5225380859375,-1.0364837646484375,-0.084625244140625,-0.05047607421875
1667824435841546000,5.5325458984375,-1.03314208984375,-0.07049560546875,-0.0344085693359375
1667824435851554000,5.542553955078125,-1.025970458984375,-0.05804443359375,-0.0164031982421875
1667824435861561000,5.55256103515625,-1.015289306640625,-0.049774169921875,0.0005950927734375
1667824435871569200,5.562569091796875,-1.0026397705078125,-0.048919677734375,0.017547607421875
1667824435881577000,5.572576904296875,-0.993408203125,-0.0547943115234375,0.0291900634765625
1667824435891584300,5.582584228515625,-0.9779510498046875,-0.06610107421875,0.035186767578125
1667824435901592000,5.592592041015625,-0.964111328125,-0.0903472900390625,0.0470123291015625
1667824435911600000,5.60260009765625,-0.9575958251953125,-0.1217803955078125,0.0579376220703125
1667824435921608000,5.61260791015625,-0.9481048583984375,-0.1452789306640625,0.069244384765625
1667824435931615200,5.622615234375,-0.93988037109375,-0.1577911376953125,0.0688323974609375
1667824435941623000,5.632623046875,-0.9378509521484375,-0.16522216796875,0.061248779296875
1667824435951631000,5.642631103515625,-0.9407196044921875,-0.17388916015625,0.058563232421875
1667824435961638000,5.652637939453125,-0.946319580078125,-0.18072509765625,0.0525054931640625
1667824435971646000,5.66264599609375,-0.9469146728515625,-0.1849517822265625,0.04217529296875
1667824435981654300,5.672654296875,-0.948974609375,-0.1851043701171875,0.03277587890625
1667824435991662000,5.682662109375,-0.94915771484375,-0.184112548828125,0.0236358642578125
1667824436001669000,5.692669189453125,-0.950103759765625,-0.1824188232421875,0.0143280029296875
1667824436011677000,5.702677001953125,-0.9510498046875,-0.183135986328125,0.017913818359375
1667824436021685200,5.712685302734375,-0.9478912353515625,-0.191162109375,0.02154541015625
1667824436031692000,5.722692138671875,-0.9449462890625,-0.1991424560546875,0.0192718505859375
1667824436041700000,5.7327001953125,-0.9394073486328125,-0.201995849609375,0.02154541015625
1667824436051708000,5.7427080078125,-0.9336090087890625,-0.210052490234375,0.0273895263671875
1667824436061716000,5.752716064453125,-0.92510986328125,-0.2218170166015625,0.02606201171875
1667824436071723000,5.762722900390625,-0.92022705078125,-0.2281036376953125,0.021759033203125
1667824436081731000,5.77273095703125,-0.9130096435546875,-0.229248046875,0.02423095703125
1667824436091739100,5.7827392578125,-0.9126434326171875,-0.2285919189453125,0.022979736328125
1667824436101746200,5.79274609375,-0.9184417724609375,-0.2270355224609375,0.024383544921875
1667824436111754200,5.802754150390625,-0.925262451171875,-0.2303466796875,0.028961181640625
1667824436121762000,5.812761962890625,-0.930999755859375,-0.2336578369140625,0.024322509765625
1667824436131769000,5.82276904296875,-0.939788818359375,-0.2279205322265625,0.0203094482421875
1667824436141777200,5.832777099609375,-0.949188232421875,-0.2178955078125,0.0257720947265625
1667824436151785200,5.84278515625,-0.9585723876953125,-0.2134857177734375,0.0322723388671875
1667824436161793000,5.85279296875,-0.9693756103515625,-0.2124481201171875,0.033782958984375
1667824436171800000,5.862800048828125,-0.9786529541015625,-0.209716796875,0.027862548828125
1667824436181807900,5.872807861328125,-0.991790771484375,-0.197235107421875,0.0215301513671875
1667824436191816200,5.882816162109375,-1.0035247802734375,-0.1744537353515625,0.01849365234375
1667824436201823000,5.892822998046875,-1.0178680419921875,-0.1542816162109375,0.01751708984375
1667824436211831000,5.9028310546875,-1.0311737060546875,-0.13970947265625,0.015533447265625
1667824436221839000,5.912839111328125,-1.0365447998046875,-0.1226959228515625,0.0160064697265625
1667824436231847200,5.92284716796875,-1.0360260009765625,-0.1069488525390625,0.019287109375
1667824436241854200,5.932854248046875,-1.043365478515625,-0.096435546875,0.02520751953125
1667824436251862000,5.942862060546875,-1.0463409423828125,-0.091705322265625,0.0288543701171875
1667824436261870000,5.9528701171875,-1.044769287109375,-0.0894622802734375,0.0268402099609375
1667824436271877000,5.962877197265625,-1.0473480224609375,-0.090118408203125,0.025665283203125
1667824436281885200,5.97288525390625,-1.0491180419921875,-0.09942626953125,0.0272216796875
1667824436291893000,5.98289306640625,-1.0500946044921875,-0.1126708984375,0.0262451171875
1667824436301900000,5.992900146484375,-1.05224609375,-0.1245574951171875,0.02801513671875
1667824436311908000,6.002908203125,-1.0505523681640625,-0.1377716064453125,0.0264434814453125
1667824436321916200,6.012916259765625,-1.046295166015625,-0.1448211669921875,0.0186309814453125
1667824436331924200,6.02292431640625,-1.03936767578125,-0.138397216796875,0.008697509765625
1667824436341931000,6.032930908203125,-1.02398681640625,-0.124786376953125,0.004791259765625
1667824436351939300,6.042939208984375,-1.01263427734375,-0.1186065673828125,0.0053558349609375
1667824436361947100,6.052947021484375,-1.0009765625,-0.1180572509765625,0.0030059814453125
1667824436371954200,6.0629541015625,-0.990203857421875,-0.1174163818359375,0.0093841552734375
1667824436381962000,6.0729619140625,-0.9772186279296875,-0.121124267578125,0.0203704833984375
1667824436391970000,6.082969970703125,-0.9679718017578125,-0.1294708251953125,0.021484375
1667824436401978000,6.09297802734375,-0.96356201171875,-0.13726806640625,0.0207672119140625
1667824436411985200,6.102985107421875,-0.9646453857421875,-0.14715576171875,0.022247314453125
1667824436421993000,6.112992919921875,-0.9759368896484375,-0.16357421875,0.0180511474609375
1667824436432001000,6.1230009765625,-0.99432373046875,-0.18060302734375,0.0087127685546875
1667824436442008000,6.133008056640625,-1.017730712890625,-0.1911163330078125,-0.006134033203125
1667824436452016000,6.14301611328125,-1.040924072265625,-0.1961669921875,-0.03106689453125
1667824436462024000,6.15302392578125,-1.072967529296875,-0.1904449462890625,-0.0618896484375
1667824436472032000,6.163031982421875,-1.11517333984375,-0.1762237548828125,-0.0898895263671875
1667824436482039000,6.1730390625,-1.1577301025390625,-0.1667022705078125,-0.1158294677734375
1667824436492047000,6.183047119140625,-1.1846466064453125,-0.1593017578125,-0.1421356201171875
1667824436502055200,6.19305517578125,-1.19793701171875,-0.1457366943359375,-0.16119384765625
1667824436512062000,6.20306201171875,-1.1945953369140625,-0.1342620849609375,-0.167938232421875
1667824436522070300,6.2130703125,-1.17462158203125,-0.126739501953125,-0.1636810302734375
1667824436532078000,6.223078125,-1.13995361328125,-0.1174468994140625,-0.1489105224609375
1667824436542085000,6.233085205078125,-1.1016998291015625,-0.116241455078125,-0.1329498291015625
1667824436552093000,6.243093017578125,-1.064727783203125,-0.1193084716796875,-0.11383056640625
1667824436562101200,6.253101318359375,-1.02606201171875,-0.1333160400390625,-0.0904541015625
1667824436572109000,6.263109130859375,-0.987152099609375,-0.1488037109375,-0.0680999755859375
1667824436582116000,6.2731162109375,-0.94403076171875,-0.165740966796875,-0.05181884765625
1667824436592124000,6.2831240234375,-0.8998870849609375,-0.18328857421875,-0.0437774658203125
1667824436602132000,6.293132080078125,-0.8641510009765625,-0.1923980712890625,-0.034423828125
1667824436612139000,6.303138916015625,-0.8382720947265625,-0.1997833251953125,-0.0222625732421875
1667824436622147000,6.31314697265625,-0.8224029541015625,-0.211273193359375,-0.0088653564453125
1667824436632155100,6.323155029296875,-0.8151092529296875,-0.2271881103515625,0.0054779052734375
1667824436642163000,6.333162841796875,-0.8149871826171875,-0.2401275634765625,0.0169219970703125
1667824436652170200,6.343170166015625,-0.8213653564453125,-0.2426605224609375,0.0258331298828125
1667824436662178000,6.353177978515625,-0.8285675048828125,-0.2437286376953125,0.0354461669921875
1667824436672186000,6.36318603515625,-0.8449554443359375,-0.2464599609375,0.042449951171875
1667824436682193200,6.373193115234375,-0.854034423828125,-0.249114990234375,0.0454864501953125
1667824436692201200,6.383201171875,-0.8568115234375,-0.245025634765625,0.046783447265625
1667824436702209000,6.393208984375,-0.8638916015625,-0.231964111328125,0.048248291015625
1667824436712216000,6.403216064453125,-0.8660888671875,-0.219818115234375,0.05096435546875
1667824436722223900,6.413223876953125,-0.8687286376953125,-0.2153167724609375,0.0531768798828125
1667824436732232200,6.423232177734375,-0.8749847412109375,-0.2132110595703125,0.0556182861328125
1667824436742240300,6.433240234375,-0.8884735107421875,-0.214324951171875,0.059417724609375
1667824436752247000,6.4432470703125,-0.9041748046875,-0.217315673828125,0.056793212890625
1667824436762255000,6.453255126953125,-0.9212493896484375,-0.217376708984375,0.052978515625
1667824436772262700,6.4632626953125,-0.9410247802734375,-0.2219696044921875,0.0442352294921875
1667824436782269700,6.473269775390625,-0.95556640625,-0.227874755859375,0.0307769775390625
1667824436792277500,6.483277587890625,-0.9773712158203125,-0.2257843017578125,0.0131683349609375
1667824436802285600,6.49328564453125,-1.003326416015625,-0.2206268310546875,-0.005340576171875
1667824436812294000,6.5032939453125,-1.0275421142578125,-0.2128143310546875,-0.0362701416015625
1667824436822300700,6.51330078125,-1.0512237548828125,-0.200958251953125,-0.067291259765625
1667824436832308700,6.523308837890625,-1.0718994140625,-0.1952667236328125,-0.08575439453125
1667824436842316500,6.533316650390625,-1.0854644775390625,-0.198455810546875,-0.1000518798828125
1667824436852323800,6.54332373046875,-1.095794677734375,-0.199554443359375,-0.1203155517578125
1667824436862331600,6.55333154296875,-1.0998992919921875,-0.1922760009765625,-0.137847900390625
1667824436872339700,6.563339599609375,-1.0976409912109375,-0.18243408203125,-0.1501922607421875
1667824436882346800,6.5733466796875,-1.0997772216796875,-0.179168701171875,-0.1562957763671875
1667824436892354800,6.583354736328125,-1.0997772216796875,-0.179046630859375,-0.1613616943359375
1667824436902362600,6.593362548828125,-1.1058502197265625,-0.174072265625,-0.1705780029296875
1667824436912370700,6.60337060546875,-1.1070404052734375,-0.16888427734375,-0.1708221435546875
1667824436922377500,6.61337744140625,-1.1062774658203125,-0.1649627685546875,-0.173492431640625
1667824436932385800,6.6233857421875,-1.1075286865234375,-0.1539154052734375,-0.1822662353515625
1667824436942393900,6.633393798828125,-1.0994110107421875,-0.1441650390625,-0.1920166015625
1667824436952400600,6.643400634765625,-1.0897674560546875,-0.140045166015625,-0.205596923828125
1667824436962408700,6.65340869140625,-1.0756683349609375,-0.1363677978515625,-0.21270751953125
1667824436972416500,6.66341650390625,-1.0556182861328125,-0.12548828125,-0.21429443359375
1667824436982424800,6.6734248046875,-1.0260009765625,-0.1117401123046875,-0.2136688232421875
1667824436992431600,6.683431640625,-0.9833526611328125,-0.0999908447265625,-0.2110137939453125
1667824437002439700,6.693439697265625,-0.938446044921875,-0.092926025390625,-0.1982574462890625
1667824437012447500,6.703447509765625,-0.8867950439453125,-0.0975494384765625,-0.1815185546875
1667824437022454800,6.713454833984375,-0.8435821533203125,-0.1030426025390625,-0.1748046875
1667824437032462600,6.723462646484375,-0.8077545166015625,-0.1090850830078125,-0.1613006591796875
1667824437042470700,6.733470703125,-0.7855987548828125,-0.12420654296875,-0.1401214599609375
1667824437052477700,6.743477783203125,-0.78125,-0.1477203369140625,-0.1119232177734375
1667824437062485800,6.75348583984375,-0.7917633056640625,-0.179840087890625,-0.0849151611328125
1667824437072493600,6.76349365234375,-0.812347412109375,-0.206390380859375,-0.0679168701171875
1667824437082501600,6.773501708984375,-0.838958740234375,-0.217041015625,-0.0569305419921875
1667824437092508700,6.7835087890625,-0.87701416015625,-0.21923828125,-0.05657958984375
1667824437102516700,6.793516845703125,-0.9192047119140625,-0.213409423828125,-0.0730133056640625
1667824437112524800,6.80352490234375,-0.9598236083984375,-0.193389892578125,-0.0975189208984375
1667824437122531600,6.813531494140625,-1.00177001953125,-0.1595306396484375,-0.1222991943359375
1667824437132539600,6.82353955078125,-1.0368499755859375,-0.128753662109375,-0.1449432373046875
1667824437142547700,6.833547607421875,-1.0569915771484375,-0.1059112548828125,-0.166534423828125
1667824437152555800,6.8435556640625,-1.067596435546875,-0.0859832763671875,-0.1635284423828125
1667824437162562600,6.8535625,-1.058807373046875,-0.072784423828125,-0.13885498046875
1667824437172570600,6.863570556640625,-1.03265380859375,-0.061279296875,-0.128753662109375
1667824437182578700,6.87357861328125,-0.996612548828125,-0.04803466796875,-0.111724853515625
1667824437192585700,6.883585693359375,-0.9527130126953125,-0.0518341064453125,-0.0810394287109375
1667824437202593500,6.893593505859375,-0.91436767578125,-0.0690460205078125,-0.041748046875
1667824437212601600,6.9036015625,-0.869415283203125,-0.0909576416015625,-0.002410888671875
1667824437222608600,6.913608642578125,-0.8273468017578125,-0.1123504638671875,0.0317230224609375
1667824437232616700,6.92361669921875,-0.8011322021484375,-0.1331939697265625,0.056365966796875
1667824437242624800,6.933624755859375,-0.7886810302734375,-0.15570068359375,0.0778350830078125
1667824437252632600,6.943632568359375,-0.7833709716796875,-0.179412841796875,0.0990753173828125
1667824437262639900,6.953639892578125,-0.7881622314453125,-0.1986846923828125,0.1078643798828125
1667824437272647700,6.963647705078125,-0.7985992431640625,-0.2101593017578125,0.10821533203125
1667824437282655700,6.97365576171875,-0.8142242431640625,-0.2151336669921875,0.1048431396484375
1667824437292662500,6.98366259765625,-0.8358154296875,-0.2136993408203125,0.10357666015625
1667824437302670600,6.993670654296875,-0.8617401123046875,-0.21533203125,0.101837158203125
1667824437312678700,7.0036787109375,-0.8815155029296875,-0.2198486328125,0.0912017822265625
1667824437322686700,7.013686767578125,-0.9022216796875,-0.218841552734375,0.0844879150390625
1667824437332693500,7.023693603515625,-0.9342193603515625,-0.2148590087890625,0.0812835693359375
1667824437342701600,7.03370166015625,-0.9596099853515625,-0.2122802734375,0.075714111328125
1667824437352710000,7.0437099609375,-0.977752685546875,-0.2083587646484375,0.0643157958984375
1667824437362716700,7.053716552734375,-1.0023193359375,-0.196990966796875,0.0559234619140625
1667824437372724700,7.063724853515625,-1.025238037109375,-0.1832427978515625,0.059112548828125
1667824437382732500,7.073732666015625,-1.0475921630859375,-0.1739654541015625,0.0615081787109375
1667824437392740600,7.08374072265625,-1.0735931396484375,-0.1629180908203125,0.0563507080078125
1667824437402747600,7.09374755859375,-1.0880126953125,-0.14971923828125,0.058258056640625
1667824437412755700,7.103755615234375,-1.0998687744140625,-0.1409454345703125,0.061737060546875
1667824437422763500,7.113763427734375,-1.1073455810546875,-0.1318511962890625,0.0659332275390625
1667824437432770800,7.123770751953125,-1.1053924560546875,-0.122711181640625,0.0649566650390625
1667824437442778600,7.133778564453125,-1.0997314453125,-0.1159820556640625,0.064727783203125
1667824437452786700,7.14378662109375,-1.088592529296875,-0.1152191162109375,0.0736846923828125
1667824437462793500,7.15379345703125,-1.0764923095703125,-0.12420654296875,0.079193115234375
1667824437472801800,7.1638017578125,-1.0605316162109375,-0.1314239501953125,0.0867156982421875
1667824437482809900,7.173809814453125,-1.0405731201171875,-0.1348724365234375,0.0929412841796875
1667824437492817700,7.183817626953125,-1.021392822265625,-0.1405181884765625,0.0999755859375
1667824437502824700,7.19382470703125,-1.0048065185546875,-0.1486358642578125,0.1086273193359375
1667824437512832800,7.203832763671875,-0.99029541015625,-0.157012939453125,0.120330810546875
1667824437522840800,7.2138408203125,-0.9759521484375,-0.161956787109375,0.132781982421875
1667824437532847600,7.22384765625,-0.9690093994140625,-0.165435791015625,0.1442413330078125
1667824437542855700,7.233855712890625,-0.9680328369140625,-0.167572021484375,0.153533935546875
1667824437552863500,7.243863525390625,-0.9713897705078125,-0.1656036376953125,0.1621246337890625
1667824437562870800,7.253870849609375,-0.978057861328125,-0.16387939453125,0.1628570556640625
1667824437572878600,7.263878662109375,-0.9820098876953125,-0.162811279296875,0.160919189453125
1667824437582886700,7.27388671875,-0.9878997802734375,-0.158935546875,0.1564483642578125
1667824437592894500,7.28389453125,-1.005523681640625,-0.1583709716796875,0.1502838134765625
1667824437602901800,7.29390185546875,-1.0173492431640625,-0.15692138671875,0.1430816650390625
1667824437612909600,7.30390966796875,-1.0331878662109375,-0.1483001708984375,0.1362152099609375
1667824437622917600,7.313917724609375,-1.0607757568359375,-0.140625,0.12103271484375
1667824437632924700,7.323924560546875,-1.0819549560546875,-0.1283721923828125,0.1069488525390625
1667824437642932700,7.3339326171875,-1.0957489013671875,-0.1136322021484375,0.0973358154296875
1667824437652940800,7.34394091796875,-1.1142425537109375,-0.1043701171875,0.0877532958984375
1667824437662948600,7.353948486328125,-1.1223602294921875,-0.0966949462890625,0.0773162841796875
1667824437672955600,7.36395556640625,-1.1261444091796875,-0.082916259765625,0.06854248046875
1667824437682963700,7.373963623046875,-1.13104248046875,-0.067413330078125,0.068328857421875
1667824437692971800,7.3839716796875,-1.1310272216796875,-0.0654449462890625,0.0749969482421875
1667824437702978600,7.393978515625,-1.135284423828125,-0.0688018798828125,0.081573486328125
1667824437712986600,7.403986572265625,-1.14288330078125,-0.0677947998046875,0.0817718505859375
1667824437722994700,7.41399462890625,-1.1568603515625,-0.05963134765625,0.0625762939453125
1667824437733001700,7.424001708984375,-1.1685333251953125,-0.0415191650390625,0.0266876220703125
1667824437743009500,7.434009521484375,-1.17169189453125,-0.025665283203125,-0.017547607421875
1667824437753017600,7.444017578125,-1.1712493896484375,-0.0206756591796875,-0.0630645751953125
1667824437763025700,7.454025634765625,-1.167022705078125,-0.019927978515625,-0.0995941162109375
1667824437773033200,7.464033203125,-1.151275634765625,-0.02557373046875,-0.1307220458984375
1667824437783041000,7.474041015625,-1.12969970703125,-0.0379791259765625,-0.162811279296875
1667824437793049000,7.484049072265625,-1.1038970947265625,-0.0592498779296875,-0.1920318603515625
1667824437803056000,7.49405615234375,-1.0711517333984375,-0.081329345703125,-0.217681884765625
1667824437813064200,7.504064208984375,-1.0317535400390625,-0.099212646484375,-0.2406768798828125
1667824437823072000,7.514072021484375,-0.99456787109375,-0.1190032958984375,-0.2535400390625
1667824437833079000,7.5240791015625,-0.9592437744140625,-0.1429595947265625,-0.261871337890625
1667824437843086800,7.5340869140625,-0.9266510009765625,-0.1669769287109375,-0.267791748046875
1667824437853095200,7.54409521484375,-0.898895263671875,-0.1898193359375,-0.2672271728515625
1667824437863103200,7.554103271484375,-0.8673553466796875,-0.207672119140625,-0.2569122314453125
1667824437873110000,7.564110107421875,-0.843536376953125,-0.219329833984375,-0.2427978515625
1667824437883118000,7.5741181640625,-0.820220947265625,-0.23236083984375,-0.22235107421875
1667824437893126000,7.5841259765625,-0.7928466796875,-0.250213623046875,-0.1998748779296875
1667824437903133200,7.59413330078125,-0.77276611328125,-0.2635955810546875,-0.1781768798828125
1667824437913141000,7.60414111328125,-0.7596893310546875,-0.264007568359375,-0.1611785888671875
1667824437923149000,7.614149169921875,-0.751617431640625,-0.2534637451171875,-0.143035888671875
1667824437933156900,7.624156982421875,-0.75152587890625,-0.2435760498046875,-0.1314239501953125
1667824437943164200,7.6341640625,-0.7579498291015625,-0.241241455078125,-0.1275634765625
1667824437953172000,7.644171875,-0.7725830078125,-0.2451324462890625,-0.1206512451171875
1667824437963180000,7.654179931640625,-0.79168701171875,-0.2508087158203125,-0.1104278564453125
1667824437973187000,7.66418701171875,-0.8121337890625,-0.2536468505859375,-0.11151123046875
1667824437983195100,7.674195068359375,-0.8341827392578125,-0.2462005615234375,-0.1135406494140625
1667824437993203000,7.684202880859375,-0.853973388671875,-0.230712890625,-0.111297607421875
1667824438003210000,7.6942099609375,-0.876678466796875,-0.2193145751953125,-0.111572265625
1667824438013218000,7.704218017578125,-0.8954315185546875,-0.2059173583984375,-0.1183013916015625
1667824438023226000,7.71422607421875,-0.90875244140625,-0.188568115234375,-0.11944580078125
1667824438033234200,7.724234130859375,-0.931610107421875,-0.178131103515625,-0.11724853515625
1667824438043241000,7.734240966796875,-0.9572906494140625,-0.1739654541015625,-0.113525390625
1667824438053249000,7.7442490234375,-0.9763946533203125,-0.1673736572265625,-0.10955810546875
1667824438063257000,7.754257080078125,-0.9961700439453125,-0.157135009765625,-0.11505126953125
1667824438073264000,7.76426416015625,-1.0185394287109375,-0.144561767578125,-0.1270599365234375
1667824438083272000,7.77427197265625,-1.0420074462890625,-0.1304473876953125,-0.150115966796875
1667824438093280000,7.784280029296875,-1.0525970458984375,-0.116851806640625,-0.1693267822265625
1667824438103287000,7.794287109375,-1.0637359619140625,-0.1142730712890625,-0.188568115234375
1667824438113295000,7.804295166015625,-1.072357177734375,-0.115478515625,-0.207061767578125
1667824438123303000,7.814302978515625,-1.0692901611328125,-0.115020751953125,-0.218597412109375
1667824438133311000,7.82431103515625,-1.0662384033203125,-0.11688232421875,-0.224761962890625
1667824438143318000,7.834318115234375,-1.0629119873046875,-0.124237060546875,-0.231414794921875
1667824438153326000,7.844326171875,-1.053314208984375,-0.12994384765625,-0.233489990234375
1667824438163334100,7.854334228515625,-1.046875,-0.13714599609375,-0.23577880859375
1667824438173341000,7.8643408203125,-1.0384368896484375,-0.144622802734375,-0.243896484375
1667824438183349200,7.874349365234375,-1.02587890625,-0.150054931640625,-0.2535552978515625
1667824438193357000,7.884357177734375,-1.0150909423828125,-0.1563720703125,-0.26080322265625
1667824438203365000,7.894365234375,-1.0017547607421875,-0.16943359375,-0.265167236328125
1667824438213372000,7.904371826171875,-0.9896240234375,-0.1780548095703125,-0.266448974609375
1667824438223380000,7.9143798828125,-0.982421875,-0.1824951171875,-0.2581939697265625
1667824438233388000,7.924387939453125,-0.98504638671875,-0.1948089599609375,-0.2462158203125
1667824438243395000,7.93439501953125,-0.988677978515625,-0.2073516845703125,-0.2452392578125
1667824438253403000,7.94440283203125,-0.991607666015625,-0.2032012939453125,-0.2525177001953125
1667824438263411000,7.954410888671875,-0.9963836669921875,-0.1918182373046875,-0.2567901611328125
1667824438273418000,7.96441796875,-1.005645751953125,-0.188262939453125,-0.2536773681640625
1667824438283426000,7.974426025390625,-1.0083465576171875,-0.1855621337890625,-0.2464599609375
1667824438293434000,7.98443408203125,-1.0038299560546875,-0.1726837158203125,-0.2407073974609375
1667824438303442000,7.99444189453125,-0.9942474365234375,-0.15673828125,-0.23748779296875
1667824438313449200,8.00444921875,-0.9719696044921875,-0.1391448974609375,-0.2415618896484375
1667824438323457000,8.01445703125,-0.94915771484375,-0.116546630859375,-0.2410888671875
1667824438333465000,8.024465087890626,-0.9315032958984375,-0.104949951171875,-0.2328643798828125
1667824438343472000,8.03447216796875,-0.9109649658203125,-0.108489990234375,-0.217498779296875
1667824438353480200,8.044480224609375,-0.8912506103515625,-0.1144256591796875,-0.20648193359375
1667824438363488000,8.054488037109374,-0.8758392333984375,-0.116790771484375,-0.1963348388671875
1667824438373495000,8.0644951171875,-0.862060546875,-0.1226806640625,-0.1810455322265625
1667824438383502800,8.0745029296875,-0.8545989990234375,-0.133575439453125,-0.1637115478515625
1667824438393511200,8.08451123046875,-0.8531341552734375,-0.1426544189453125,-0.14996337890625
1667824438403519200,8.094519287109375,-0.8532257080078125,-0.1472015380859375,-0.1391754150390625
1667824438413526000,8.104526123046876,-0.8636016845703125,-0.1437225341796875,-0.12664794921875
1667824438423534000,8.1145341796875,-0.872314453125,-0.139556884765625,-0.113800048828125
1667824438433542000,8.1245419921875,-0.88165283203125,-0.1389007568359375,-0.1050872802734375
1667824438443549200,8.134549072265624,-0.8962860107421875,-0.1379241943359375,-0.094451904296875
1667824438453557000,8.144556884765626,-0.9175567626953125,-0.1336212158203125,-0.0795135498046875
1667824438463565000,8.15456494140625,-0.9383544921875,-0.1331329345703125,-0.069122314453125
1667824438473572900,8.16457275390625,-0.9641571044921875,-0.1359405517578125,-0.0594329833984375
1667824438483580200,8.174580078125,-0.99334716796875,-0.1412811279296875,-0.0543060302734375
1667824438493588000,8.184587890625,-1.030181884765625,-0.1441497802734375,-0.05419921875
1667824438503596000,8.194595947265626,-1.067047119140625,-0.1368560791015625,-0.0585784912109375
1667824438513603000,8.20460302734375,-1.106292724609375,-0.1197967529296875,-0.06634521484375
1667824438523611100,8.214611083984375,-1.141448974609375,-0.095977783203125,-0.0785369873046875
1667824438533619000,8.224618896484374,-1.16412353515625,-0.0712127685546875,-0.0930023193359375
1667824438543626000,8.2346259765625,-1.172943115234375,-0.0497894287109375,-0.10675048828125
1667824438553634000,8.244634033203125,-1.1675262451171875,-0.032135009765625,-0.1074981689453125
1667824438563642000,8.25464208984375,-1.151123046875,-0.024139404296875,-0.104827880859375
1667824438573650200,8.264650146484374,-1.1210479736328125,-0.028350830078125,-0.0969085693359375
1667824438583657000,8.274656982421876,-1.0761871337890625,-0.0342864990234375,-0.082427978515625
1667824438593665000,8.2846650390625,-1.0355377197265625,-0.0463714599609375,-0.058837890625
1667824438603673000,8.294673095703125,-0.9880828857421875,-0.074493408203125,-0.0290679931640625
1667824438613680000,8.30468017578125,-0.9382171630859375,-0.1010589599609375,-0.0133514404296875
1667824438623688000,8.31468798828125,-0.89617919921875,-0.1223907470703125,-0.001434326171875
1667824438633696000,8.324696044921875,-0.8599090576171875,-0.145294189453125,0.0165863037109375
1667824438643703000,8.334703125,-0.832000732421875,-0.1712188720703125,0.0319976806640625
1667824438653711000,8.344711181640625,-0.8115692138671875,-0.19732666015625,0.0372772216796875
1667824438663719000,8.354718994140624,-0.8007659912109375,-0.21417236328125,0.0366058349609375
1667824438673727000,8.36472705078125,-0.8000335693359375,-0.2208404541015625,0.0372161865234375
1667824438683734000,8.374734130859375,-0.8006439208984375,-0.2257080078125,0.0378265380859375
1667824438693742000,8.3847421875,-0.8101043701171875,-0.232574462890625,0.0362091064453125
1667824438703750100,8.394750244140624,-0.8263092041015625,-0.2365570068359375,0.035675048828125
1667824438713757000,8.4047568359375,-0.8440093994140625,-0.2344207763671875,0.0308074951171875
1667824438723765200,8.41476513671875,-0.8627166748046875,-0.2244110107421875,0.0211334228515625
1667824438733773000,8.42477294921875,-0.87506103515625,-0.216766357421875,0.013580322265625
1667824438743780000,8.434780029296874,-0.8915557861328125,-0.2214202880859375,-0.0025177001953125
1667824438753788000,8.444787841796876,-0.911163330078125,-0.2257080078125,-0.0218658447265625
1667824438763796000,8.4547958984375,-0.9229583740234375,-0.218780517578125,-0.0358123779296875
1667824438773803800,8.4648037109375,-0.9334869384765625,-0.20745849609375,-0.049407958984375
1667824438783810600,8.474810546875,-0.9481201171875,-0.1970062255859375,-0.059967041015625
1667824438793818600,8.484818603515626,-0.9678497314453125,-0.1878662109375,-0.066680908203125
1667824438803826700,8.49482666015625,-0.985198974609375,-0.1822967529296875,-0.063873291015625
1667824438813833700,8.504833740234375,-0.9926605224609375,-0.184661865234375,-0.060577392578125
1667824438823841500,8.514841552734374,-1.0002899169921875,-0.1842498779296875,-0.061279296875
1667824438833849600,8.524849609375,-1.0072479248046875,-0.173675537109375,-0.0605621337890625
1667824438843857700,8.534857666015625,-1.0114898681640625,-0.160125732421875,-0.060089111328125
1667824438853864700,8.54486474609375,-1.0164031982421875,-0.1514434814453125,-0.057952880859375
1667824438863872800,8.554872802734375,-1.0207061767578125,-0.14794921875,-0.0574951171875
1667824438873880600,8.564880615234374,-1.0309906005859375,-0.1424102783203125,-0.06396484375
1667824438883887900,8.574887939453125,-1.0354766845703125,-0.1306610107421875,-0.0659027099609375
1667824438893895700,8.584895751953125,-1.0387115478515625,-0.120086669921875,-0.0694732666015625
1667824438903903700,8.59490380859375,-1.0399169921875,-0.11639404296875,-0.0717010498046875
1667824438913910500,8.60491064453125,-1.0324554443359375,-0.1116943359375,-0.0744781494140625
1667824438923918800,8.6149189453125,-1.02593994140625,-0.10223388671875,-0.07025146484375
1667824438933926700,8.6249267578125,-1.013702392578125,-0.0975341796875,-0.057769775390625
1667824438943934700,8.634934814453125,-1.0066680908203125,-0.096649169921875,-0.0458984375
1667824438953941500,8.64494140625,-1.0008544921875,-0.0955352783203125,-0.0318756103515625
1667824438963949600,8.654949462890626,-0.9937744140625,-0.092987060546875,-0.0204925537109375
1667824438973958000,8.6649580078125,-0.985626220703125,-0.0949554443359375,-0.0086669921875
1667824438983964700,8.674964599609375,-0.9752655029296875,-0.1054229736328125,0.0106964111328125
1667824438993972700,8.68497265625,-0.9683685302734375,-0.1137542724609375,0.0302886962890625
1667824439003980500,8.69498046875,-0.9640960693359375,-0.1118011474609375,0.0442047119140625
1667824439013987800,8.70498779296875,-0.958648681640625,-0.1092987060546875,0.052734375
1667824439023995600,8.71499560546875,-0.9565887451171875,-0.1147918701171875,0.060638427734375
1667824439034003700,8.725003662109375,-0.9578399658203125,-0.1241912841796875,0.0716094970703125
1667824439044011500,8.735011474609376,-0.95953369140625,-0.1333465576171875,0.0851593017578125
1667824439054018800,8.745018798828125,-0.972320556640625,-0.1455535888671875,0.1047515869140625
1667824439064026600,8.755026611328125,-0.9929351806640625,-0.1622161865234375,0.1197509765625
1667824439074034700,8.76503466796875,-1.0275726318359375,-0.17608642578125,0.1188507080078125
1667824439084041500,8.77504150390625,-1.0867767333984375,-0.17529296875,0.093902587890625
1667824439094049800,8.7850498046875,-1.1476593017578125,-0.16082763671875,0.0549163818359375
1667824439104057600,8.7950576171875,-1.2122955322265625,-0.1477203369140625,0.0147247314453125
1667824439114064600,8.805064697265625,-1.2642669677734375,-0.139678955078125,-0.0292205810546875
1667824439124072400,8.815072509765624,-1.30194091796875,-0.122833251953125,-0.0706939697265625
1667824439134080800,8.825080810546876,-1.311187744140625,-0.1038818359375,-0.1119537353515625
1667824439144088800,8.8350888671875,-1.2919921875,-0.0858612060546875,-0.1335906982421875
1667824439154095600,8.845095703125,-1.2567291259765625,-0.0789642333984375,-0.1333160400390625
1667824439164103700,8.855103759765624,-1.20831298828125,-0.091217041015625,-0.1163330078125
1667824439174111500,8.865111572265626,-1.1520233154296875,-0.1161346435546875,-0.092926025390625
1667824439184118800,8.875118896484375,-1.097076416015625,-0.135467529296875,-0.0704803466796875
1667824439194126600,8.885126708984375,-1.0441741943359375,-0.1502227783203125,-0.046905517578125
1667824439204134700,8.895134765625,-0.9945068359375,-0.1615753173828125,-0.0346527099609375
1667824439214142500,8.905142578125,-0.96343994140625,-0.1785888671875,-0.024810791015625
1667824439224149800,8.915149658203125,-0.9328155517578125,-0.20452880859375,-0.009124755859375
1667824439234157600,8.925157470703125,-0.9094085693359375,-0.2278289794921875,-0.0029296875
1667824439244165600,8.93516552734375,-0.8923187255859375,-0.231231689453125,-0.00347900390625
1667824439254172700,8.945172607421876,-0.87066650390625,-0.2251129150390625,0.0017547607421875
1667824439264180700,8.9551806640625,-0.8625640869140625,-0.2245025634765625,0.0053558349609375
1667824439274188800,8.965188720703125,-0.8635711669921875,-0.2264862060546875,0.006500244140625
1667824439284195600,8.975195556640625,-0.86260986328125,-0.2269439697265625,0.013580322265625
1667824439294203600,8.98520361328125,-0.8629608154296875,-0.225067138671875,0.019805908203125
1667824439304211700,8.995211669921876,-0.870086669921875,-0.2230377197265625,0.023895263671875
1667824439314218800,9.00521875,-0.87652587890625,-0.224639892578125,0.031005859375
1667824439324226600,9.0152265625,-0.8826904296875,-0.2232208251953125,0.03448486328125
1667824439334234600,9.025234619140624,-0.88916015625,-0.213897705078125,0.0350799560546875
1667824439344242700,9.03524267578125,-0.8914947509765625,-0.20263671875,0.0357208251953125
1667824439354249700,9.045249755859375,-0.8986053466796875,-0.1904144287109375,0.036712646484375
1667824439364257500,9.055257568359375,-0.90789794921875,-0.180145263671875,0.034149169921875
1667824439374265600,9.065265625,-0.9173431396484375,-0.1687469482421875,0.0316162109375
1667824439384272600,9.075272705078126,-0.9271697998046875,-0.16070556640625,0.0295562744140625
1667824439394280700,9.08528076171875,-0.927703857421875,-0.15399169921875,0.0322265625
1667824439404288800,9.095288818359375,-0.92706298828125,-0.1477813720703125,0.039520263671875
1667824439414295600,9.105295654296874,-0.931427001953125,-0.1468963623046875,0.0428466796875
1667824439424303900,9.115303955078126,-0.941864013671875,-0.14422607421875,0.0402374267578125
1667824439434311700,9.125311767578125,-0.9503021240234375,-0.1368408203125,0.029144287109375
1667824439444319700,9.13531982421875,-0.9612274169921875,-0.1333465576171875,0.0126495361328125
1667824439454326500,9.145326416015624,-0.9675445556640625,-0.142547607421875,-0.0018157958984375
1667824439464334800,9.1553349609375,-0.98089599609375,-0.15081787109375,-0.0134735107421875
1667824439474342700,9.1653427734375,-0.9902801513671875,-0.15264892578125,-0.0296478271484375
1667824439484349700,9.175349609375,-1.0000152587890625,-0.1563568115234375,-0.046661376953125
1667824439494357500,9.185357421875,-1.00836181640625,-0.1595001220703125,-0.069183349609375
1667824439504365600,9.195365478515624,-1.014801025390625,-0.16387939453125,-0.091278076171875
1667824439514372600,9.20537255859375,-1.027191162109375,-0.1745758056640625,-0.1098785400390625
1667824439524380700,9.215380615234375,-1.0355987548828125,-0.1868133544921875,-0.1284637451171875
1667824439534388700,9.225388671875,-1.042938232421875,-0.1851959228515625,-0.1455078125
1667824439544396500,9.235396484375,-1.05633544921875,-0.181976318359375,-0.160888671875
1667824439554403800,9.24540380859375,-1.0702972412109375,-0.186370849609375,-0.1748199462890625
1667824439564411600,9.25541162109375,-1.079864501953125,-0.1959686279296875,-0.1885986328125
1667824439574419700,9.265419677734375,-1.0884857177734375,-0.198150634765625,-0.2041473388671875
1667824439584426800,9.2754267578125,-1.0937042236328125,-0.18634033203125,-0.2176055908203125
1667824439594434800,9.285434814453126,-1.096099853515625,-0.1647186279296875,-0.2249298095703125
1667824439604442600,9.295442626953125,-1.0855255126953125,-0.1404266357421875,-0.234130859375
1667824439614449700,9.30544970703125,-1.0726318359375,-0.1171875,-0.2446746826171875
1667824439624457500,9.31545751953125,-1.058746337890625,-0.10089111328125,-0.249298095703125
1667824439634465800,9.3254658203125,-1.027374267578125,-0.09320068359375,-0.2474212646484375
1667824439644473600,9.3354736328125,-0.998199462890625,-0.0847320556640625,-0.23992919921875
1667824439654480600,9.345480712890625,-0.9644317626953125,-0.0802459716796875,-0.21917724609375
1667824439664488400,9.355488525390625,-0.9250335693359375,-0.085845947265625,-0.2024993896484375
1667824439674496800,9.365496826171874,-0.8869781494140625,-0.0895538330078125,-0.19482421875
1667824439684503600,9.375503662109375,-0.85638427734375,-0.0957183837890625,-0.1815185546875
1667824439694511600,9.38551171875,-0.833160400390625,-0.1072998046875,-0.1623687744140625
1667824439704519700,9.395519775390625,-0.81390380859375,-0.119354248046875,-0.14794921875
1667824439714526700,9.405526611328124,-0.7970733642578125,-0.128753662109375,-0.1300201416015625
1667824439724534800,9.41553466796875,-0.7914581298828125,-0.141845703125,-0.111297607421875
1667824439734542600,9.42554248046875,-0.7928314208984375,-0.15972900390625,-0.092041015625
1667824439744550700,9.435550537109375,-0.7931365966796875,-0.17547607421875,-0.0733489990234375
1667824439754557700,9.4455576171875,-0.802154541015625,-0.1851043701171875,-0.0531768798828125
1667824439764565800,9.455565673828126,-0.821136474609375,-0.1906280517578125,-0.038848876953125
1667824439774574600,9.46557470703125,-0.8424835205078125,-0.1934814453125,-0.0398406982421875
1667824439784581600,9.47558154296875,-0.8694000244140625,-0.187957763671875,-0.0476837158203125
1667824439794589400,9.48558935546875,-0.8980712890625,-0.17626953125,-0.0558624267578125
1667824439804597500,9.495597412109374,-0.9241180419921875,-0.1609344482421875,-0.059844970703125
1667824439814604500,9.5056044921875,-0.947845458984375,-0.1395111083984375,-0.06951904296875
1667824439824612600,9.515612548828125,-0.966644287109375,-0.12249755859375,-0.0763092041015625
1667824439834620400,9.525620361328125,-0.9713287353515625,-0.116943359375,-0.0737762451171875
1667824439844627700,9.535627685546874,-0.967987060546875,-0.1134796142578125,-0.06396484375
1667824439854635500,9.545635498046876,-0.9660491943359375,-0.1097412109375,-0.052215576171875
1667824439864643600,9.5556435546875,-0.951446533203125,-0.113494873046875,-0.033905029296875
1667824439874651400,9.5656513671875,-0.9290924072265625,-0.1203460693359375,-0.0178680419921875
1667824439884658700,9.57565869140625,-0.908721923828125,-0.1303863525390625,0.00311279296875
1667824439894666500,9.58566650390625,-0.904083251953125,-0.1466827392578125,0.0277252197265625
1667824439904674600,9.595674560546875,-0.90789794921875,-0.1634063720703125,0.0424957275390625
1667824439914681300,9.605681396484375,-0.915435791015625,-0.1786651611328125,0.05938720703125
1667824439924689400,9.615689453125,-0.9264984130859375,-0.19293212890625,0.071624755859375
1667824439934697700,9.62569775390625,-0.952545166015625,-0.2087554931640625,0.070098876953125
1667824439944705500,9.63570556640625,-0.98272705078125,-0.2243194580078125,0.06890869140625
1667824439954712600,9.645712646484375,-1.0077362060546875,-0.2303009033203125,0.055206298828125
1667824439964720400,9.655720458984375,-1.0331878662109375,-0.2145538330078125,0.0397186279296875
1667824439974728700,9.665728759765624,-1.0618438720703125,-0.1966094970703125,0.027557373046875
1667824439984735500,9.675735595703125,-1.09173583984375,-0.1867828369140625,0.009857177734375
1667824439994743600,9.68574365234375,-1.119110107421875,-0.1828460693359375,-0.01324462890625
1667824440004751400,9.69575146484375,-1.1455535888671875,-0.171844482421875,-0.0354156494140625
1667824440014758700,9.705758544921874,-1.1584625244140625,-0.1578216552734375,-0.0509033203125
1667824440024766500,9.715766357421876,-1.1683807373046875,-0.1540069580078125,-0.0617218017578125
1667824440034774500,9.7257744140625,-1.1626739501953125,-0.1544342041015625,-0.069366455078125
1667824440044781600,9.735781494140625,-1.154083251953125,-0.1546630859375,-0.0772247314453125
1667824440054789600,9.74578955078125,-1.1381683349609375,-0.158966064453125,-0.079833984375
1667824440064797700,9.755797607421876,-1.109954833984375,-0.1702880859375,-0.0811004638671875
1667824440074805500,9.765805419921875,-1.0800628662109375,-0.1837615966796875,-0.0821380615234375
1667824440084812500,9.7758125,-1.03936767578125,-0.19268798828125,-0.0773162841796875
1667824440094820600,9.785820556640624,-1.0027618408203125,-0.1997528076171875,-0.0728759765625
1667824440104828700,9.79582861328125,-0.9623870849609375,-0.2100830078125,-0.0678253173828125
1667824440114835500,9.80583544921875,-0.9234771728515625,-0.2194976806640625,-0.05877685546875
1667824440124843500,9.815843505859375,-0.893157958984375,-0.2248992919921875,-0.0440521240234375
1667824440134851300,9.825851318359375,-0.86578369140625,-0.232666015625,-0.0201873779296875
1667824440144858600,9.835858642578126,-0.85198974609375,-0.2418975830078125,0.00048828125
1667824440154866400,9.845866455078125,-0.84765625,-0.243377685546875,0.016326904296875
1667824440164874500,9.85587451171875,-0.8463134765625,-0.2360076904296875,0.02899169921875
1667824440174882600,9.865882568359375,-0.8499755859375,-0.2283782958984375,0.0394134521484375
1667824440184889600,9.8758896484375,-0.85528564453125,-0.2309112548828125,0.0579681396484375
1667824440194897700,9.885897705078126,-0.872222900390625,-0.2324676513671875,0.0731658935546875
1667824440204905500,9.895905517578125,-0.8953857421875,-0.2242279052734375,0.0792083740234375
1667824440214912800,9.905912841796875,-0.9175872802734375,-0.20166015625,0.070648193359375
1667824440224920600,9.915920654296874,-0.9379119873046875,-0.1684722900390625,0.054901123046875
1667824440234928600,9.9259287109375,-0.95709228515625,-0.1318359375,0.046630859375
1667824440244935400,9.935935302734375,-0.9720611572265625,-0.10589599609375,0.039154052734375
1667824440254943500,9.945943603515625,-0.9875946044921875,-0.086090087890625,0.039306640625
1667824440264951600,9.95595166015625,-1.0039520263671875,-0.07421875,0.043853759765625
1667824440274959600,9.965959716796876,-1.0142364501953125,-0.0634307861328125,0.0464630126953125
1667824440284966400,9.97596630859375,-1.0186614990234375,-0.048553466796875,0.0537872314453125
1667824440294974500,9.985974365234375,-1.01806640625,-0.037567138671875,0.0679779052734375
1667824440304982500,9.995982421875,-1.010467529296875,-0.0470733642578125,0.094451904296875
1667824440314989600,10.005989501953126,-1.0045623779296875,-0.0668792724609375,0.12335205078125
1667824440324997400,10.015997314453125,-1.00921630859375,-0.0823211669921875,0.155609130859375
1667824440335005400,10.02600537109375,-1.0213623046875,-0.0897064208984375,0.1840972900390625
1667824440345012500,10.036012451171874,-1.0454559326171875,-0.0854339599609375,0.1859130859375
1667824440355020500,10.0460205078125,-1.0886688232421875,-0.0687103271484375,0.1693115234375
1667824440365028600,10.056028564453126,-1.1358642578125,-0.05609130859375,0.1340484619140625
1667824440375036400,10.066036376953125,-1.1760406494140625,-0.048492431640625,0.078155517578125
1667824440385043700,10.076043701171875,-1.2147216796875,-0.0330657958984375,0.0153961181640625
1667824440395051500,10.086051513671874,-1.2259979248046875,-0.022796630859375,-0.041229248046875
1667824440405059600,10.0960595703125,-1.2113494873046875,-0.02410888671875,-0.095703125
1667824440415066400,10.10606640625,-1.18017578125,-0.0402679443359375,-0.133056640625
1667824440425074700,10.11607470703125,-1.1375885009765625,-0.069305419921875,-0.1537322998046875
1667824440435082500,10.12608251953125,-1.10394287109375,-0.1035308837890625,-0.172821044921875
1667824440445089500,10.136089599609376,-1.0665283203125,-0.1427459716796875,-0.1833343505859375
1667824440455097300,10.146097412109375,-1.0186767578125,-0.1838226318359375,-0.19921875
1667824440465105400,10.15610546875,-0.97119140625,-0.2176513671875,-0.211151123046875
1667824440475112400,10.166112548828124,-0.9225006103515625,-0.24737548828125,-0.2156219482421875
1667824440485120500,10.17612060546875,-0.886474609375,-0.2772674560546875,-0.2246246337890625
1667824440495128600,10.186128662109375,-0.8506011962890625,-0.3018798828125,-0.2154693603515625
1667824440505136400,10.196136474609375,-0.8364105224609375,-0.332427978515625,-0.19586181640625
1667824440515143700,10.206143798828125,-0.825927734375,-0.358856201171875,-0.1853485107421875
1667824440525151500,10.2161513671875,-0.8037567138671875,-0.3660430908203125,-0.194122314453125
1667824440535159600,10.22615966796875,-0.7954864501953125,-0.364532470703125,-0.2046966552734375
1667824440545166600,10.23616650390625,-0.801361083984375,-0.3650360107421875,-0.2033843994140625
1667824440555174700,10.246174560546875,-0.802581787109375,-0.3660125732421875,-0.1974029541015625
1667824440565182500,10.256182373046874,-0.8072967529296875,-0.363677978515625,-0.1922760009765625
1667824440575189500,10.266189453125,-0.816497802734375,-0.360015869140625,-0.1924591064453125
1667824440585197600,10.276197509765625,-0.83587646484375,-0.3484344482421875,-0.186279296875
1667824440595205600,10.28620556640625,-0.856292724609375,-0.3351898193359375,-0.17156982421875
1667824440605213700,10.296213623046874,-0.87554931640625,-0.31103515625,-0.166259765625
1667824440615220500,10.306220458984376,-0.893798828125,-0.279632568359375,-0.162750244140625
1667824440625228500,10.316228515625,-0.9174346923828125,-0.2434844970703125,-0.1439971923828125
1667824440635236600,10.326236572265625,-0.9460906982421875,-0.2155609130859375,-0.1263885498046875
1667824440645243600,10.33624365234375,-0.9663848876953125,-0.18829345703125,-0.1181182861328125
1667824440655251500,10.34625146484375,-0.9785308837890625,-0.153045654296875,-0.1179046630859375
1667824440665259500,10.356259521484375,-0.9983062744140625,-0.115142822265625,-0.117340087890625
1667824440675266600,10.3662666015625,-1.024078369140625,-0.0904083251953125,-0.1180419921875
1667824440685274600,10.376274658203124,-1.049346923828125,-0.0813751220703125,-0.1212158203125
1667824440695282400,10.386282470703126,-1.073211669921875,-0.0666351318359375,-0.131072998046875
1667824440705289700,10.396289794921875,-1.0904083251953125,-0.0433502197265625,-0.1430206298828125
1667824440715297500,10.406297607421875,-1.107086181640625,-0.021636962890625,-0.1556549072265625
1667824440725305600,10.4163056640625,-1.111114501953125,-0.013092041015625,-0.163787841796875
1667824440735313700,10.426313720703124,-1.109954833984375,-0.0148162841796875,-0.1702117919921875
1667824440745320400,10.436320556640625,-1.09747314453125,-0.0142822265625,-0.1744842529296875
1667824440755328800,10.446328857421875,-1.08465576171875,-0.0099029541015625,-0.1773529052734375
1667824440765336600,10.456336669921875,-1.066375732421875,-0.003021240234375,-0.1847686767578125
1667824440775342600,10.466342529296876,-1.043914794921875,-0.0010223388671875,-0.1883544921875
1667824440785350700,10.4763505859375,-1.0279388427734375,-0.0082550048828125,-0.185455322265625
1667824440795358700,10.486358642578125,-1.00640869140625,-0.017669677734375,-0.18572998046875
1667824440805365500,10.496365478515624,-0.9889678955078125,-0.0212860107421875,-0.1874542236328125
1667824440815373600,10.50637353515625,-0.97503662109375,-0.028472900390625,-0.1879730224609375
1667824440825381600,10.516381591796875,-0.970916748046875,-0.041351318359375,-0.193359375
1667824440835389700,10.5263896484375,-0.9716949462890625,-0.051788330078125,-0.2088470458984375
1667824440845396700,10.536396728515625,-0.9714202880859375,-0.0520477294921875,-0.227752685546875
1667824440855404500,10.546404541015624,-0.969970703125,-0.0446624755859375,-0.2459716796875
1667824440865412600,10.55641259765625,-0.960968017578125,-0.03857421875,-0.260528564453125
1667824440875419600,10.566419677734375,-0.94219970703125,-0.032196044921875,-0.269622802734375
1667824440885427700,10.576427734375,-0.9168548583984375,-0.0246734619140625,-0.2753448486328125
1667824440895435500,10.586435546875,-0.889068603515625,-0.013397216796875,-0.278900146484375
1667824440905442800,10.59644287109375,-0.8561859130859375,-0.006195068359375,-0.2753448486328125
1667824440915450600,10.60645068359375,-0.8222808837890625,-0.0123443603515625,-0.265960693359375
1667824440925458700,10.616458740234375,-0.7907867431640625,-0.0238800048828125,-0.24981689453125
1667824440935466800,10.626466796875,-0.7727813720703125,-0.037811279296875,-0.2311248779296875
1667824440945473800,10.636473876953126,-0.7562408447265625,-0.0484466552734375,-0.20526123046875
1667824440955481900,10.64648193359375,-0.747100830078125,-0.06072998046875,-0.174407958984375
1667824440965489700,10.65648974609375,-0.755401611328125,-0.0783233642578125,-0.1458892822265625
1667824440975496700,10.66649658203125,-0.76885986328125,-0.0963287353515625,-0.1194305419921875
1667824440985504500,10.67650439453125,-0.785736083984375,-0.1085662841796875,-0.0992431640625
1667824440995512800,10.686512939453126,-0.8055419921875,-0.102569580078125,-0.0977783203125
1667824441005519600,10.69651953125,-0.8270416259765625,-0.087127685546875,-0.100555419921875
1667824441015527700,10.706527587890625,-0.86273193359375,-0.0744171142578125,-0.0981597900390625
1667824441025535500,10.716535400390624,-0.91015625,-0.0601043701171875,-0.0991668701171875
1667824441035542800,10.726542724609375,-0.9596710205078125,-0.0467071533203125,-0.1068572998046875
1667824441045550600,10.736550537109375,-1.0029754638671875,-0.04180908203125,-0.120330810546875
1667824441055558700,10.74655859375,-1.045623779296875,-0.0362091064453125,-0.1376495361328125
1667824441065566700,10.756566650390624,-1.0859222412109375,-0.02191162109375,-0.14703369140625
1667824441075573800,10.76657373046875,-1.111053466796875,-0.0013580322265625,-0.15264892578125
1667824441085581800,10.776581787109375,-1.1259918212890625,0.0209197998046875,-0.17120361328125
1667824441095589600,10.786589599609375,-1.13507080078125,0.040863037109375,-0.1735992431640625
1667824441105596700,10.7965966796875,-1.14471435546875,0.0449371337890625,-0.1582794189453125
1667824441115604700,10.806604736328126,-1.143524169921875,0.0352325439453125,-0.1414031982421875
1667824441125612800,10.81661279296875,-1.126983642578125,0.0311431884765625,-0.1252899169921875
1667824441135619600,10.82661962890625,-1.1119842529296875,0.0287322998046875,-0.10882568359375
1667824441145627600,10.836627685546874,-1.0989837646484375,0.017120361328125,-0.093292236328125
1667824441155635700,10.8466357421875,-1.092254638671875,-0.0062408447265625,-0.085418701171875
1667824441165643800,10.856643798828125,-1.0881805419921875,-0.037811279296875,-0.080352783203125
1667824441175650600,10.866650634765625,-1.0824432373046875,-0.0616455078125,-0.0816650390625
1667824441185658600,10.87665869140625,-1.0702056884765625,-0.0757293701171875,-0.091156005859375
1667824441195666400,10.88666650390625,-1.0592193603515625,-0.0864410400390625,-0.103912353515625
1667824441205673700,10.896673828125,-1.0549468994140625,-0.1009674072265625,-0.119659423828125
1667824441215681500,10.906681640625,-1.0503387451171875,-0.11920166015625,-0.136322021484375
1667824441225689600,10.916689697265625,-1.0489501953125,-0.1321258544921875,-0.1474151611328125
1667824441235696600,10.926696533203126,-1.044952392578125,-0.14385986328125,-0.1546173095703125
1667824441245704700,10.93670458984375,-1.0341033935546875,-0.1493682861328125,-0.1564483642578125
1667824441255712800,10.946712646484375,-1.0174102783203125,-0.14501953125,-0.1555938720703125
1667824441265719600,10.956719482421875,-1.0007781982421875,-0.137664794921875,-0.151214599609375
1667824441275728000,10.966727783203124,-0.9783477783203125,-0.1338348388671875,-0.139678955078125
1667824441285735700,10.976735595703126,-0.9602508544921875,-0.1369781494140625,-0.1238250732421875
1667824441295743700,10.98674365234375,-0.941741943359375,-0.1356048583984375,-0.1105804443359375
1667824441305750500,10.99675048828125,-0.9267578125,-0.121490478515625,-0.1020660400390625
1667824441315758600,11.006758544921874,-0.916534423828125,-0.1061859130859375,-0.0923614501953125
1667824441325766700,11.0167666015625,-0.9168548583984375,-0.0966796875,-0.0854034423828125
1667824441335773700,11.026773681640625,-0.9115142822265625,-0.0893707275390625,-0.0818634033203125
1667824441345781500,11.036781494140625,-0.9095611572265625,-0.0788421630859375,-0.0804290771484375
1667824441355789600,11.04678955078125,-0.914520263671875,-0.068267822265625,-0.08123779296875
1667824441365796600,11.056796630859376,-0.9135894775390625,-0.0595550537109375,-0.0807037353515625
1667824441375804700,11.0668046875,-0.9175567626953125,-0.0560455322265625,-0.072174072265625
1667824441385812700,11.076812744140625,-0.9274749755859375,-0.061553955078125,-0.0615997314453125
1667824441395819800,11.08681982421875,-0.941558837890625,-0.06365966796875,-0.0569610595703125
1667824441405827800,11.096827880859376,-0.95361328125,-0.0566558837890625,-0.05859375
1667824441415835600,11.106835693359375,-0.9684295654296875,-0.0513763427734375,-0.061279296875
1667824441425843700,11.11684375,-0.987823486328125,-0.0547943115234375,-0.0630950927734375
1667824441435850500,11.1268505859375,-1.0124053955078125,-0.0560302734375,-0.06842041015625
1667824441445858800,11.13685888671875,-1.0411376953125,-0.04412841796875,-0.07647705078125
1667824441455866600,11.14686669921875,-1.0715484619140625,-0.022857666015625,-0.091094970703125
1667824441465873700,11.156873779296875,-1.0912322998046875,0.0015716552734375,-0.105743408203125
1667824441475881500,11.166881591796875,-1.1146240234375,0.01910400390625,-0.11138916015625
1667824441485889800,11.176889892578124,-1.1241455078125,0.032623291015625,-0.1104278564453125
1667824441495896600,11.186896484375,-1.12249755859375,0.0482330322265625,-0.110626220703125
1667824441505904600,11.196904541015625,-1.12078857421875,0.0652618408203125,-0.11187744140625
1667824441515912700,11.20691259765625,-1.1120758056640625,0.077056884765625,-0.1070404052734375
1667824441525920500,11.21692041015625,-1.104949951171875,0.0805511474609375,-0.0908050537109375
1667824441535927800,11.226927734375,-1.09429931640625,0.078948974609375,-0.0720977783203125
1667824441545935600,11.236935546875,-1.087158203125,0.0786285400390625,-0.060302734375
1667824441555943700,11.246943603515625,-1.0782928466796875,0.07904052734375,-0.051239013671875
1667824441565950700,11.25695068359375,-1.069183349609375,0.086212158203125,-0.050994873046875
1667824441575958800,11.266958740234376,-1.0673828125,0.0926361083984375,-0.0495147705078125
1667824441585966600,11.276966552734375,-1.0655059814453125,0.0958709716796875,-0.0527496337890625
1667824441595973600,11.2869736328125,-1.068603515625,0.09967041015625,-0.06146240234375
1667824441605981700,11.296981689453125,-1.07537841796875,0.09906005859375,-0.072967529296875
1667824441615989800,11.30698974609375,-1.0790863037109375,0.0940093994140625,-0.094879150390625
1667824441625996500,11.31699658203125,-1.0894775390625,0.0892486572265625,-0.1150970458984375
1667824441636004600,11.327004638671875,-1.0965576171875,0.0769195556640625,-0.1324005126953125
1667824441646012700,11.3370126953125,-1.0972137451171875,0.0562591552734375,-0.1538848876953125
1667824441656020700,11.347020751953124,-1.0953216552734375,0.029998779296875,-0.1711883544921875
1667824441666027800,11.35702783203125,-1.086212158203125,0.0067596435546875,-0.1843414306640625
1667824441676035600,11.36703564453125,-1.07928466796875,-0.0112457275390625,-0.207275390625
1667824441686043600,11.377043701171875,-1.07122802734375,-0.0384063720703125,-0.22662353515625
1667824441696050700,11.38705078125,-1.0507049560546875,-0.073211669921875,-0.2403717041015625
1667824441706058800,11.397058837890626,-1.0275421142578125,-0.1020050048828125,-0.24761962890625
1667824441716066600,11.407066650390625,-1.003173828125,-0.1198883056640625,-0.24444580078125
1667824441726073900,11.417073974609375,-0.9759368896484375,-0.133087158203125,-0.234161376953125
1667824441736081700,11.42708154296875,-0.9404449462890625,-0.1418304443359375,-0.22418212890625
1667824441746089700,11.43708984375,-0.9099273681640625,-0.1548919677734375,-0.2127227783203125
1667824441756096500,11.447096435546875,-0.8804779052734375,-0.175018310546875,-0.1925811767578125
1667824441766104600,11.4571044921875,-0.85650634765625,-0.19073486328125,-0.17193603515625
1667824441776113200,11.467113037109375,-0.837677001953125,-0.1944427490234375,-0.15655517578125
1667824441786121200,11.477121337890624,-0.826568603515625,-0.1939849853515625,-0.143524169921875
1667824441796128000,11.4871279296875,-0.8244171142578125,-0.20172119140625,-0.1327056884765625
1667824441806136000,11.497135986328125,-0.8195648193359375,-0.213043212890625,-0.1294097900390625
1667824441816144000,11.507143798828125,-0.8238677978515625,-0.2158050537109375,-0.1303558349609375
1667824441826151200,11.517151123046874,-0.8291778564453125,-0.2114410400390625,-0.1277313232421875
1667824441836159000,11.527158935546876,-0.8396759033203125,-0.20428466796875,-0.1301422119140625
1667824441846167000,11.5371669921875,-0.8553619384765625,-0.203887939453125,-0.133331298828125
1667824441856174000,11.547174072265625,-0.868072509765625,-0.2053985595703125,-0.127105712890625
1667824441866182100,11.55718212890625,-0.8797607421875,-0.200286865234375,-0.11932373046875
1667824441876190200,11.567190185546876,-0.8848724365234375,-0.183929443359375,-0.1092681884765625
1667824441886198000,11.577197998046875,-0.89117431640625,-0.1665802001953125,-0.1007232666015625
1667824441896205300,11.587205322265625,-0.905517578125,-0.152618408203125,-0.093353271484375
1667824441906213000,11.597213134765624,-0.91888427734375,-0.136138916015625,-0.084747314453125
1667824441916221200,11.60722119140625,-0.92669677734375,-0.1249542236328125,-0.0845489501953125
1667824441926228000,11.61722802734375,-0.941314697265625,-0.1129913330078125,-0.1021575927734375
1667824441936236000,11.627236083984375,-0.96044921875,-0.100128173828125,-0.1126556396484375
1667824441946244000,11.637244140625,-0.9747772216796875,-0.097442626953125,-0.1219940185546875
1667824441956251100,11.647251220703126,-0.9835968017578125,-0.098175048828125,-0.123321533203125
1667824441966259000,11.657259033203125,-0.9873809814453125,-0.098388671875,-0.1169586181640625
1667824441976267000,11.66726708984375,-0.9864959716796875,-0.094024658203125,-0.1133270263671875
1667824441986274000,11.677274169921875,-0.978271484375,-0.080810546875,-0.10797119140625
1667824441996282000,11.6872822265625,-0.9748382568359375,-0.0721435546875,-0.0976715087890625
1667824442006290200,11.697290283203126,-0.9814300537109375,-0.0786285400390625,-0.083953857421875
1667824442016298000,11.707298095703125,-0.991729736328125,-0.0883331298828125,-0.0791168212890625
1667824442026305300,11.71730517578125,-1.0040740966796875,-0.0929107666015625,-0.0803985595703125
1667824442036313000,11.72731298828125,-1.0187225341796875,-0.09747314453125,-0.080963134765625
1667824442046321200,11.737321044921876,-1.042572021484375,-0.101470947265625,-0.0813446044921875
1667824442056328000,11.747327880859375,-1.06988525390625,-0.1028594970703125,-0.087005615234375
1667824442066336300,11.757336181640625,-1.095550537109375,-0.0949859619140625,-0.103363037109375
1667824442076344000,11.767343994140624,-1.1204681396484375,-0.0699615478515625,-0.1241912841796875
1667824442086351000,11.77735107421875,-1.144195556640625,-0.0327606201171875,-0.147552490234375
1667824442096359000,11.78735888671875,-1.1595306396484375,0.00506591796875,-0.1673126220703125
1667824442106367200,11.7973671875,-1.1602630615234375,0.0335693359375,-0.1739349365234375
1667824442116374000,11.8073740234375,-1.149169921875,0.05316162109375,-0.1735382080078125
1667824442126382000,11.817382080078126,-1.124969482421875,0.0692901611328125,-0.16778564453125
1667824442136390000,11.827389892578125,-1.096923828125,0.08135986328125,-0.1563262939453125
1667824442146398000,11.83739794921875,-1.0622100830078125,0.089508056640625,-0.133880615234375
1667824442156405000,11.847405029296874,-1.0229034423828125,0.0846710205078125,-0.113189697265625
1667824442166413000,11.8574130859375,-0.9852142333984375,0.0711669921875,-0.087799072265625
1667824442176421000,11.867421142578126,-0.952056884765625,0.0563812255859375,-0.0699615478515625
1667824442186428200,11.87742822265625,-0.92047119140625,0.04443359375,-0.0547027587890625
1667824442196436200,11.887436279296875,-0.8928680419921875,0.0269622802734375,-0.046478271484375
1667824442206444000,11.897444091796874,-0.8790435791015625,0.00213623046875,-0.04296875
1667824442216451000,11.907451171875,-0.8719329833984375,-0.0333404541015625,-0.0325164794921875
1667824442226459100,11.917459228515625,-0.8763275146484375,-0.0730133056640625,-0.0195770263671875
1667824442236467200,11.92746728515625,-0.88525390625,-0.1086578369140625,-0.0131378173828125
1667824442246474000,11.937473876953124,-0.8967132568359375,-0.1289520263671875,-0.020538330078125
1667824442256482000,11.94748193359375,-0.9202880859375,-0.1297607421875,-0.0491485595703125
1667824442266489900,11.95748974609375,-0.9621429443359375,-0.113372802734375,-0.08642578125
1667824442276498200,11.967498291015625,-1.0027618408203125,-0.0910491943359375,-0.1261138916015625
1667824442286505000,11.9775048828125,-1.034912109375,-0.0711822509765625,-0.1592254638671875
1667824442296513000,11.987512939453126,-1.0524749755859375,-0.0517730712890625,-0.183837890625
1667824442306521000,11.99752099609375,-1.05517578125,-0.0341033935546875,-0.1961212158203125
1667824442316528000,12.007528076171875,-1.0453948974609375,-0.0210113525390625,-0.1995391845703125
1667824442326536200,12.0175361328125,-1.0290679931640625,-0.009735107421875,-0.1703643798828125
1667824442336544000,12.0275439453125,-0.996337890625,-0.0021209716796875,-0.1379852294921875
1667824442346551300,12.03755126953125,-0.9734344482421875,0.00006103515625,-0.128265380859375
1667824442356559000,12.04755908203125,-0.941436767578125,-0.00787353515625,-0.1103668212890625
1667824442366567200,12.057567138671875,-0.916168212890625,-0.017364501953125,-0.078704833984375
1667824442376574000,12.067573974609376,-0.8941650390625,-0.0307769775390625,-0.047332763671875
1667824442386582000,12.07758203125,-0.8775787353515625,-0.052581787109375,-0.029388427734375
1667824442396590000,12.087590087890625,-0.8643798828125,-0.078033447265625,-0.0247650146484375
1667824442406598100,12.09759814453125,-0.8581390380859375,-0.0985870361328125,-0.0274810791015625
1667824442416605000,12.10760498046875,-0.8639373779296875,-0.1221771240234375,-0.030609130859375
1667824442426613000,12.117613037109376,-0.8674163818359375,-0.1468963623046875,-0.0366668701171875
1667824442436621300,12.127621337890625,-0.8729400634765625,-0.16497802734375,-0.0456085205078125
1667824442446628000,12.137628173828125,-0.881072998046875,-0.1746826171875,-0.0511322021484375
1667824442456636200,12.14763623046875,-0.88812255859375,-0.18365478515625,-0.0529327392578125
1667824442466644000,12.15764404296875,-0.898529052734375,-0.1959075927734375,-0.0528106689453125
1667824442476651300,12.1676513671875,-0.910064697265625,-0.197113037109375,-0.04840087890625
1667824442486659000,12.1776591796875,-0.9207305908203125,-0.1916961669921875,-0.04541015625
1667824442496667100,12.187667236328124,-0.9270782470703125,-0.1840362548828125,-0.0453643798828125
1667824442506674200,12.197674072265626,-0.93170166015625,-0.1798553466796875,-0.0406036376953125
1667824442516682200,12.20768212890625,-0.9365386962890625,-0.175537109375,-0.028564453125
1667824442526690000,12.21768994140625,-0.9394683837890625,-0.1676788330078125,-0.0213775634765625
1667824442536698000,12.227697998046875,-0.942596435546875,-0.1552886962890625,-0.0118865966796875
1667824442546705000,12.237704833984376,-0.939971923828125,-0.1496124267578125,-0.0045623779296875
1667824442556713200,12.247713134765625,-0.934539794921875,-0.14630126953125,0.00048828125
1667824442566721300,12.25772119140625,-0.9259185791015625,-0.14263916015625,0.00372314453125
1667824442576728000,12.26772802734375,-0.912445068359375,-0.1406402587890625,0.013275146484375
1667824442586736000,12.277736083984376,-0.8961181640625,-0.147918701171875,0.028594970703125
1667824442596744000,12.287743896484375,-0.8857879638671875,-0.1665802001953125,0.0474700927734375
1667824442606751000,12.2977509765625,-0.879791259765625,-0.19122314453125,0.06512451171875
1667824442616759000,12.307759033203125,-0.8792572021484375,-0.2162017822265625,0.0789794921875
1667824442626767000,12.31776708984375,-0.89227294921875,-0.2333526611328125,0.088409423828125
1667824442636774100,12.327774169921875,-0.9066162109375,-0.2418670654296875,0.0933837890625
1667824442646782200,12.3377822265625,-0.932220458984375,-0.25146484375,0.0994873046875
1667824442656790000,12.3477900390625,-0.9620208740234375,-0.2646026611328125,0.0998382568359375
1667824442666798000,12.357798095703124,-0.9941558837890625,-0.261322021484375,0.076995849609375
1667824442676805000,12.36780517578125,-1.0364227294921875,-0.22509765625,0.040618896484375
1667824442686813200,12.377813232421875,-1.071990966796875,-0.1755218505859375,0.003021240234375
1667824442696821000,12.387821044921875,-1.1045684814453125,-0.1367950439453125,-0.0253753662109375
1667824442706828000,12.397828125,-1.130828857421875,-0.11383056640625,-0.047760009765625
1667824442716836000,12.407836181640626,-1.151397705078125,-0.094635009765625,-0.0705108642578125
1667824442726844200,12.41784423828125,-1.174774169921875,-0.0646209716796875,-0.0810546875
1667824442736851000,12.427850830078125,-1.191802978515625,-0.0332489013671875,-0.078399658203125
1667824442746859000,12.43785888671875,-1.2019500732421875,-0.0371856689453125,-0.0725860595703125
1667824442756867000,12.4478671875,-1.2147216796875,-0.0351104736328125,-0.0741119384765625
1667824442766874000,12.4578740234375,-1.1992950439453125,-0.021392822265625,-0.0708770751953125
1667824442776882200,12.467882080078125,-1.1722412109375,-0.0360107421875,-0.075225830078125
1667824442786890200,12.47789013671875,-1.1781768798828125,-0.0684967041015625,-0.123931884765625
1667824442796898000,12.48789794921875,-1.1894989013671875,-0.0821075439453125,-0.1577301025390625
1667824442806905300,12.4979052734375,-1.1764984130859375,-0.0992279052734375,-0.178955078125
1667824442816913200,12.5079130859375,-1.1642303466796875,-0.1272735595703125,-0.1968841552734375
1667824442826921200,12.517921142578125,-1.154022216796875,-0.1610107421875,-0.2116851806640625
1667824442836928300,12.52792822265625,-1.1435699462890625,-0.1941375732421875,-0.2106475830078125
1667824442846936300,12.537936279296876,-1.0212860107421875,-0.2877197265625,-0.138885498046875
1667824442856944000,12.547944091796875,-1.149658203125,-0.296630859375,-0.1146087646484375
1667824442866951200,12.557951171875,-1.19451904296875,-0.1429443359375,-0.110870361328125
1667824442876959000,12.567958984375,-0.988250732421875,-0.1220703125,-0.1235504150390625
1667824442886967300,12.57796728515625,-1.099945068359375,-0.09375,-0.188690185546875
1667824442896974000,12.58797412109375,-1.11712646484375,-0.06927490234375,-0.2027130126953125
1667824442906982100,12.597982177734375,-1.037506103515625,-0.0850067138671875,-0.19281005859375
1667824442916990200,12.607990234375,-1.048492431640625,-0.0992279052734375,-0.1995086669921875
1667824442926997200,12.617997314453126,-1.0699920654296875,-0.1273193359375,-0.2245635986328125
1667824442937005300,12.62800537109375,-1.039459228515625,-0.1515350341796875,-0.2422637939453125
1667824442947013000,12.63801318359375,-1.0075225830078125,-0.1591033935546875,-0.24755859375
1667824442957020200,12.648020263671874,-0.9920501708984375,-0.155426025390625,-0.249053955078125
1667824442967028200,12.6580283203125,-1.0000762939453125,-0.136199951171875,-0.252166748046875
1667824442977036300,12.668036376953125,-1.0175628662109375,-0.122802734375,-0.2406005859375
1667824442987044000,12.678044189453125,-1.0567779541015625,-0.127716064453125,-0.2166748046875
1667824442997051100,12.688051025390624,-1.0700531005859375,-0.153839111328125,-0.19036865234375
1667824443007059200,12.69805908203125,-1.044708251953125,-0.188568115234375,-0.1804656982421875
1667824443017067300,12.7080673828125,-1.01373291015625,-0.21343994140625,-0.1982269287109375
1667824443027074000,12.718073974609375,-1.0008392333984375,-0.2005462646484375,-0.225433349609375
1667824443037082000,12.72808203125,-0.9788970947265625,-0.168792724609375,-0.236083984375
1667824443047090200,12.738090087890624,-0.959228515625,-0.1523284912109375,-0.2540130615234375
1667824443057097200,12.74809716796875,-0.9453125,-0.1635894775390625,-0.2635345458984375
1667824443067105000,12.75810498046875,-0.9176788330078125,-0.1841583251953125,-0.251373291015625
1667824443077113000,12.768113037109375,-0.894439697265625,-0.20477294921875,-0.2291412353515625
1667824443087120100,12.7781201171875,-0.8981475830078125,-0.231658935546875,-0.2000732421875
1667824443097128200,12.788128173828126,-0.908966064453125,-0.261566162109375,-0.167633056640625
1667824443107136300,12.79813623046875,-0.9020233154296875,-0.2769775390625,-0.1437530517578125
