time,seconds_elapsed,z,y,x
1667824430328547800,0.0195478515625,1.2182954549789429,0.09040918946266174,-0.2925010323524475
1667824430338556000,0.029555908203125,1.1808475255966187,0.16856157779693604,-0.20775459706783295
1667824430348564000,0.03956396484375,1.1330206394195557,0.27312418818473816,-0.10559971630573273
1667824430358570800,0.04957080078125,1.0830613374710083,0.39546582102775574,-0.0033643159549683332
1667824430368578800,0.059578857421875,1.031203269958496,0.5155624151229858,0.0804448276758194
1667824430378587000,0.0695869140625,0.9915285706520081,0.6224477887153625,0.1329440176486969
1667824430388595000,0.079594970703125,0.9716858863830566,0.6848278045654297,0.1665419340133667
1667824430398601700,0.089601806640625,0.9643012881278992,0.683112621307373,0.17122119665145874
1667824430408609800,0.09960986328125,0.9629635810852051,0.6583278775215149,0.16109079122543335
1667824430418617600,0.10961767578125,0.9612287878990173,0.6418419480323792,0.15400440990924835
1667824430428625000,0.119625,0.9656736254692078,0.6543761491775513,0.1518097072839737
1667824430438632700,0.1296328125,0.9774389863014221,0.6857031583786011,0.1460619866847992
1667824430448640800,0.139640869140625,0.9861454367637634,0.7042094469070435,0.13449348509311676
1667824430458648800,0.14964892578125,0.9840261936187744,0.6927042603492737,0.13081714510917664
1667824430468655900,0.15965576171875,0.9689931869506836,0.6527539491653442,0.14976447820663452
1667824430478664000,0.169663818359375,0.9296714067459106,0.5676147937774658,0.1806349754333496
1667824430488671700,0.179671630859375,0.874049961566925,0.4162018299102783,0.20859204232692719
1667824430498679000,0.189678955078125,0.8018813729286194,0.18516340851783752,0.20469646155834198
1667824430508686800,0.199686767578125,0.7230667471885681,-0.015077805146574974,0.14794237911701202
1667824430518695000,0.20969482421875,0.6317762732505798,-0.14374037086963654,0.08736033737659454
1667824430528702700,0.21970263671875,0.5475370287895203,-0.28437337279319763,0.05702266842126846
1667824430538709800,0.229709716796875,0.39670491218566895,-0.23899583518505096,0.09245241433382034
1667824430548717800,0.2397177734375,0.21946783363819122,0.005243207328021526,0.21309708058834076
1667824430558726000,0.249725830078125,0.07355260848999023,0.2191120982170105,0.3870414197444916
1667824430568732700,0.259732666015625,-0.03921867907047272,0.16351035237312317,0.549928605556488
1667824430578740700,0.26974072265625,-0.1752321720123291,0.15799380838871002,0.7383643388748169
1667824430588749000,0.2797490234375,-0.32680758833885193,0.16422879695892334,0.9380137920379639
1667824430598756900,0.2897568359375,-0.4550938308238983,0.05722975358366966,1.0923105478286743
1667824430608764000,0.299763916015625,-0.5337961316108704,-0.16986703872680664,1.118923544883728
1667824430618771700,0.309771728515625,-0.5519236326217651,-0.44906362891197205,1.0219554901123047
1667824430628779800,0.31977978515625,-0.5074957013130188,-0.6828036308288574,0.8803822994232178
1667824430638786800,0.329786865234375,-0.4508492052555084,-0.7696893215179443,0.7518404722213745
1667824430648795000,0.339794921875,-0.4369589388370514,-0.7724148035049438,0.6507063508033752
1667824430658802700,0.349802734375,-0.462098628282547,-0.795362651348114,0.5687135457992554
1667824430668810000,0.35981005859375,-0.5208764672279358,-0.7323986291885376,0.45655637979507446
1667824430678817800,0.36981787109375,-0.5604175329208374,-0.654517412185669,0.3952493369579315
1667824430688825900,0.379825927734375,-0.5438390374183655,0.2703954875469208,0.26553982496261597
1667824430698834000,0.389833984375,-0.39649835228919983,-0.16305316984653473,0.2865201532840729
1667824430708841000,0.399841064453125,-0.330509215593338,-0.4187893271446228,0.24006929993629456
1667824430718849000,0.40984912109375,-0.33216392993927,-0.6215906143188477,0.1710425317287445
1667824430728856800,0.41985693359375,-0.32531002163887024,-0.9011557102203369,0.032853227108716965
1667824430738863900,0.42986376953125,-0.2976455092430115,-1.0666937828063965,-0.1809079796075821
1667824430748871700,0.43987158203125,-0.2635197639465332,-1.1106034517288208,-0.4046790301799774
1667824430758880300,0.44988037109375,-0.24116909503936768,-1.038935899734497,-0.6393408179283142
1667824430768888300,0.459888427734375,-0.24973967671394348,-0.8475065231323242,-0.8611989617347717
1667824430778895400,0.469895263671875,-0.283137708902359,-0.5773176550865173,-1.0786950588226318
1667824430788903200,0.479903076171875,-0.3076728582382202,-0.3038528263568878,-1.2930340766906738
1667824430798911200,0.4899111328125,-0.27373364567756653,-0.06970079988241196,-1.4850841760635376
1667824430808918300,0.499918212890625,-0.16518375277519226,0.08884143829345703,-1.6144728660583496
1667824430818926300,0.50992626953125,-0.010512586683034897,0.21674400568008423,-1.6816811561584473
1667824430828934100,0.51993408203125,0.1642214059829712,0.3108403980731964,-1.7028559446334839
1667824430838942200,0.529942138671875,0.349137544631958,0.3248683214187622,-1.6764564514160156
1667824430848949200,0.53994921875,0.5488040447235107,0.21685557067394257,-1.568745493888855
1667824430858957300,0.549957275390625,0.726752519607544,0.02593327686190605,-1.359140157699585
1667824430868965400,0.55996533203125,0.857193648815155,-0.14107514917850494,-1.0666694641113281
1667824430878972400,0.569972412109375,0.8696396946907043,-0.14545507729053497,-0.7821341753005981
1667824430888980500,0.57998046875,0.7778648138046265,-0.06760262697935104,-0.5131588578224182
1667824430898988300,0.58998828125,0.716434895992279,-0.07839392870664597,-0.19953010976314545
1667824430908996400,0.599996337890625,0.6498162150382996,-0.17383550107479095,0.05579967051744461
1667824430919003100,0.610003173828125,0.5614525675773621,-0.2806808352470398,0.25218191742897034
1667824430929011500,0.620011474609375,0.4448085129261017,-0.3626425266265869,0.39144712686538696
1667824430939019300,0.630019287109375,0.3264394700527191,-0.38338184356689453,0.45498111844062805
1667824430949026300,0.6400263671875,0.21161913871765137,-0.35267773270606995,0.45793482661247253
1667824430959034000,0.6500341796875,0.09970352053642273,-0.3010746240615845,0.40232715010643005
1667824430969042200,0.660042236328125,0.0023442120291292667,-0.23763254284858704,0.30252599716186523
1667824430979049200,0.67004931640625,-0.07804447412490845,-0.15552042424678802,0.1883815973997116
1667824430989057300,0.680057373046875,-0.13335967063903809,-0.04500563442707062,0.07170531898736954
1667824430999065300,0.6900654296875,-0.13325680792331696,0.05455857887864113,-0.03919395059347153
1667824431009073200,0.7000732421875,-0.08315874636173248,0.09450599551200867,-0.15353012084960938
1667824431019080400,0.71008056640625,-0.004537161439657211,0.05696675181388855,-0.26390570402145386
1667824431029088300,0.720088134765625,0.08193355053663254,-0.047581497579813004,-0.3685716688632965
1667824431039096300,0.730096435546875,0.15466797351837158,-0.1474941223859787,-0.4659712016582489
1667824431049103400,0.740103271484375,0.20515218377113342,-0.16709180176258087,-0.555365264415741
1667824431059111400,0.750111328125,0.23891961574554443,-0.15658776462078094,-0.646180272102356
1667824431069119200,0.760119140625,0.26467424631118774,-0.1598552018404007,-0.7258079648017883
1667824431079127300,0.770127197265625,0.2974624037742615,-0.20852231979370117,-0.7834687232971191
1667824431089134300,0.78013427734375,0.3437012732028961,-0.3022586703300476,-0.8189433813095093
1667824431099142400,0.790142333984375,0.4081880450248718,-0.37246230244636536,-0.8191121816635132
1667824431109150500,0.800150390625,0.4754895865917206,-0.42271506786346436,-0.7814058065414429
1667824431119157200,0.8101572265625,0.5453680157661438,-0.4459495544433594,-0.715770423412323
1667824431129165300,0.820165283203125,0.6003250479698181,-0.42738279700279236,-0.6192598342895508
1667824431139173400,0.83017333984375,0.624563992023468,-0.3564830720424652,-0.49277958273887634
1667824431149181400,0.840181396484375,0.6283766031265259,-0.250331312417984,-0.36280161142349243
1667824431159188200,0.850188232421875,0.6259360909461975,-0.11934792995452881,-0.23788250982761383
1667824431169196300,0.8601962890625,0.642475426197052,0.030430909246206284,-0.14170297980308533
1667824431179204400,0.870204345703125,0.704930305480957,0.14572656154632568,-0.09978417307138443
1667824431189211400,0.88021142578125,0.8016235828399658,0.17453131079673767,-0.11733866482973099
1667824431199219200,0.89021923828125,0.925235390663147,0.1440361738204956,-0.17524659633636475
1667824431209227300,0.900227294921875,1.0530030727386475,0.12719567120075226,-0.2264501303434372
1667824431219234300,0.910234375,1.1624411344528198,0.15506389737129211,-0.24168561398983002
1667824431229242400,0.920242431640625,1.2273615598678589,0.2262512594461441,-0.19874241948127747
1667824431239250200,0.930250244140625,1.2396150827407837,0.35260534286499023,-0.08483441919088364
1667824431249258200,0.94025830078125,1.2067482471466064,0.5190529227256775,0.07714623212814331
1667824431259265300,0.950265380859375,1.1304391622543335,0.7107120752334595,0.25284984707832336
1667824431269273300,0.9602734375,1.0261948108673096,0.9126044511795044,0.42038851976394653
1667824431279281400,0.970281494140625,0.9079727530479431,1.079846739768982,0.5662505626678467
1667824431289288200,0.9802880859375,0.8078389763832092,1.187955379486084,0.6740867495536804
1667824431299296300,0.990296142578125,0.7466119527816772,1.2244609594345093,0.7392169833183289
1667824431309304300,1.00030419921875,0.7228983640670776,1.1909098625183105,0.7609710097312927
1667824431319312400,1.0103125,0.7158224582672119,1.1134438514709473,0.7460565567016602
1667824431329319200,1.020319091796875,0.7175157070159912,0.996217668056488,0.6977699995040894
1667824431339327200,1.0303271484375,0.7370619773864746,0.8433053493499756,0.6382712721824646
1667824431349335300,1.040335205078125,0.7595866918563843,0.67276531457901,0.56016606092453
1667824431359342300,1.05034228515625,0.7738149166107178,0.506469190120697,0.49682602286338806
1667824431369350100,1.06035009765625,0.7685258984565735,0.35792070627212524,0.43781596422195435
1667824431379358200,1.070358154296875,0.7451783418655396,0.25387316942214966,0.38831228017807007
1667824431389366300,1.0803662109375,0.7116121649742126,0.20670804381370544,0.37146779894828796
1667824431399373300,1.090373291015625,0.6685666441917419,0.2028089463710785,0.38056957721710205
1667824431409381400,1.10038134765625,0.6260133385658264,0.20547877252101898,0.41819870471954346
1667824431419389200,1.11038916015625,0.5769012570381165,0.1939082145690918,0.4831381142139435
1667824431429396500,1.120396484375,0.5434378385543823,0.1774251013994217,0.5419785380363464
1667824431439404300,1.130404296875,0.541850745677948,0.12849245965480804,0.5722744464874268
1667824431449412400,1.140412353515625,0.5710035562515259,0.04376932978630066,0.565766453742981
1667824431459420200,1.150420166015625,0.6148368716239929,-0.06771185994148254,0.5203946828842163
1667824431469427500,1.160427490234375,0.6424336433410645,-0.1916540414094925,0.4402407705783844
1667824431479435300,1.170435302734375,0.6512836813926697,-0.29083698987960815,0.33650684356689453
1667824431489443300,1.180443359375,0.6443355083465576,-0.36912062764167786,0.22387270629405975
1667824431499450000,1.1904501953125,0.6171339154243469,-0.41614392399787903,0.11572658270597458
1667824431509458200,1.200458251953125,0.5696563720703125,-0.41781505942344666,0.010191898792982101
1667824431519466500,1.210466552734375,0.5058311820030212,-0.3536880910396576,-0.08109769225120544
1667824431529473300,1.220473388671875,0.4364534318447113,-0.2474660575389862,-0.168193981051445
1667824431539481300,1.2304814453125,0.3766622841358185,-0.13491736352443695,-0.25873661041259766
1667824431549489200,1.2404892578125,0.3224413990974426,-0.04183243215084076,-0.348067045211792
1667824431559497500,1.25049755859375,0.2856689691543579,0.01463498268276453,-0.4304974377155304
1667824431569504300,1.260504150390625,0.2684929370880127,0.0416913703083992,-0.4890480935573578
1667824431579512300,1.27051220703125,0.2630458474159241,0.044595155864953995,-0.5213140845298767
1667824431589520100,1.28052001953125,0.25767555832862854,0.04244305565953255,-0.5130630731582642
1667824431599527400,1.29052734375,0.23983198404312134,0.04928199201822281,-0.4673577845096588
1667824431609535200,1.30053515625,0.20257382094860077,0.05579475313425064,-0.3978213369846344
1667824431619543300,1.310543212890625,0.1505318135023117,0.058165211230516434,-0.33290258049964905
1667824431629551400,1.32055126953125,0.09422379732131958,0.033735234290361404,-0.28175151348114014
1667824431639558400,1.330558349609375,0.04193001240491867,-0.00493972934782505,-0.2556515634059906
1667824431649566200,1.340566162109375,0.0005125319585204124,-0.06229889392852783,-0.25739726424217224
1667824431659574300,1.35057421875,-0.02799634449183941,-0.14885038137435913,-0.292925626039505
1667824431669581000,1.3605810546875,-0.04604272544384003,-0.2563669979572296,-0.3560420274734497
1667824431679589400,1.37058935546875,-0.041396159678697586,-0.3498058021068573,-0.42167311906814575
1667824431689597400,1.380597412109375,-0.031145650893449783,-0.4300132989883423,-0.48340094089508057
1667824431699604200,1.390604248046875,-0.02298707887530327,-0.5000804662704468,-0.5388427376747131
1667824431709612300,1.4006123046875,-0.03792181983590126,-0.5551338791847229,-0.580180823802948
1667824431719620400,1.410620361328125,-0.08061444759368896,-0.5824331045150757,-0.6211321353912354
1667824431729628400,1.42062841796875,-0.13037480413913727,-0.5570108294487,-0.646487832069397
1667824431739635200,1.43063525390625,-0.17514200508594513,-0.5133374333381653,-0.6600579023361206
1667824431749643300,1.440643310546875,-0.21838055551052094,-0.45392659306526184,-0.6670617461204529
1667824431759651000,1.450651123046875,-0.24751503765583038,-0.38003334403038025,-0.6748737692832947
1667824431769658400,1.460658447265625,-0.25099313259124756,-0.31086570024490356,-0.6756215691566467
1667824431779666200,1.470666259765625,-0.2330094277858734,-0.2464025616645813,-0.6701864004135132
1667824431789674200,1.48067431640625,-0.2158818393945694,-0.1727834790945053,-0.6396404504776001
1667824431799682000,1.49068212890625,-0.20737016201019287,-0.09027223289012909,-0.581974983215332
1667824431809689300,1.500689453125,-0.207879900932312,-0.006775211542844772,-0.5046564936637878
1667824431819697200,1.510697265625,-0.2152053415775299,0.08719804137945175,-0.39890626072883606
1667824431829705200,1.520705322265625,-0.22188322246074677,0.18212242424488068,-0.2684060335159302
1667824431839712300,1.530712158203125,-0.23560890555381775,0.2721657156944275,-0.12606462836265564
1667824431849720300,1.54072021484375,-0.25014233589172363,0.352704256772995,0.004921081010252237
1667824431859728100,1.55072802734375,-0.2519443929195404,0.3964937627315521,0.11423429846763611
1667824431869736200,1.560736083984375,-0.23246629536151886,0.4116050899028778,0.19951137900352478
1667824431879743000,1.570742919921875,-0.2011871486902237,0.42530545592308044,0.2690559923648834
1667824431889751300,1.580751220703125,-0.15586255490779877,0.4403451085090637,0.32293811440467834
1667824431899759400,1.59075927734375,-0.1025705561041832,0.45604926347732544,0.3722180426120758
1667824431909766100,1.60076611328125,-0.049190156161785126,0.46731308102607727,0.4134589731693268
1667824431919774200,1.610774169921875,-0.000985665712505579,0.47202548384666443,0.4443470239639282
1667824431929782300,1.6207822265625,0.028773028403520584,0.4596061110496521,0.45673978328704834
1667824431939789300,1.630789306640625,0.03291857987642288,0.4256388545036316,0.46204474568367004
1667824431949797000,1.640797119140625,0.02039027027785778,0.3891841769218445,0.44893717765808105
1667824431959805200,1.65080517578125,0.002471388317644596,0.3617999851703644,0.4323856234550476
1667824431969813000,1.66081298828125,-0.01378587819635868,0.3281967341899872,0.41621464490890503
1667824431979820300,1.6708203125,-0.005140314809978008,0.28245508670806885,0.4027160704135895
1667824431989828000,1.680828125,0.017667794600129128,0.22401785850524902,0.39748188853263855
1667824431999836200,1.690836181640625,0.03807654231786728,0.1658882349729538,0.3932969272136688
1667824432009843200,1.70084326171875,0.05414525792002678,0.10333962738513947,0.38241177797317505
1667824432019851300,1.710851318359375,0.0664089173078537,0.036971285939216614,0.36973533034324646
1667824432029859300,1.720859375,0.07740617543458939,-0.02665509283542633,0.34019315242767334
1667824432039867100,1.7308671875,0.0911606028676033,-0.10240551829338074,0.3004976809024811
1667824432049874400,1.74087451171875,0.09801159054040909,-0.18486283719539642,0.24795565009117126
1667824432059882200,1.75088232421875,0.11297028511762619,-0.2610328495502472,0.1946437656879425
1667824432069890300,1.760890380859375,0.11955947428941727,-0.3285362720489502,0.1451672911643982
1667824432079897000,1.77089697265625,0.10517557710409164,-0.4022062420845032,0.10098815709352493
1667824432089905200,1.7809052734375,0.06836136430501938,-0.4451148211956024,0.06835564225912094
1667824432099913200,1.790913330078125,0.033975109457969666,-0.4601566791534424,0.03525247052311897
1667824432109921300,1.80092138671875,0.014839496463537216,-0.4503820836544037,0.009819015860557556
1667824432119928000,1.810927978515625,0.008474025875329971,-0.4427559971809387,-0.00012610992416739464
1667824432129936100,1.82093603515625,0.02097516879439354,-0.4262920618057251,0.010833065025508404
1667824432139944200,1.830944091796875,0.047996919602155685,-0.3814528286457062,0.036349691450595856
1667824432149951200,1.840951171875,0.07489990442991257,-0.3049317002296448,0.08521950244903564
1667824432159959300,1.850959228515625,0.09546422958374023,-0.19567127525806427,0.1462632119655609
1667824432169967000,1.860967041015625,0.10436850786209106,-0.09068679809570312,0.2099766880273819
1667824432179974400,1.870974365234375,0.11634416878223419,-0.006920977495610714,0.2663470506668091
1667824432189982200,1.880982177734375,0.12451314926147461,0.04227133467793465,0.2943888008594513
1667824432199990300,1.890990234375,0.1298220306634903,0.031119342893362045,0.29275164008140564
1667824432209998000,1.900998046875,0.13293924927711487,0.003734591417014599,0.2683999538421631
1667824432220005400,1.91100537109375,0.14759008586406708,-0.015618996694684029,0.23269610106945038
1667824432230013200,1.92101318359375,0.17860925197601318,-0.02874438650906086,0.19402380287647247
1667824432240021200,1.931021240234375,0.2114560753107071,-0.03529651090502739,0.1561984121799469
1667824432250028000,1.941028076171875,0.2369457185268402,-0.015001891180872917,0.1288895606994629
1667824432260036400,1.951036376953125,0.2539787292480469,0.014858727343380451,0.09768681228160858
1667824432270044400,1.96104443359375,0.26043155789375305,0.028579065576195717,0.06308569759130478
1667824432280052200,1.97105224609375,0.2557224631309509,0.039378464221954346,0.019071325659751892
1667824432290059300,1.981059326171875,0.24669407308101654,0.040874361991882324,-0.02600347436964512
1667824432300067000,1.991067138671875,0.23286426067352295,0.03975987434387207,-0.07553038746118546
1667824432310075400,2.001075439453125,0.21855829656124115,0.049111299216747284,-0.12483242899179459
1667824432320082200,2.011082275390625,0.20760758221149445,0.07864081859588623,-0.16659459471702576
1667824432330090200,2.02109033203125,0.19213087856769562,0.11670298874378204,-0.20147401094436646
1667824432340098000,2.03109814453125,0.18729430437088013,0.16628459095954895,-0.231917604804039
1667824432350106000,2.041106201171875,0.20406529307365417,0.19162961840629578,-0.2654491662979126
1667824432360113200,2.051113037109375,0.24426907300949097,0.14895080029964447,-0.33020713925361633
1667824432370121200,2.061121337890625,0.31135091185569763,0.06601916253566742,-0.42709586024284363
1667824432380129000,2.07112890625,0.37272512912750244,-0.028640782460570335,-0.5512025952339172
1667824432390136300,2.08113623046875,0.4315554201602936,-0.10331182926893234,-0.671288013458252
1667824432400144100,2.09114404296875,0.4809049963951111,-0.13511548936367035,-0.7692074179649353
1667824432410152200,2.101152099609375,0.5281121730804443,-0.09139757603406906,-0.8119927048683167
1667824432420160300,2.11116015625,0.5651445388793945,0.0014772315043956041,-0.7956846356391907
1667824432430167300,2.121167236328125,0.5894903540611267,0.13850592076778412,-0.7249841094017029
1667824432440175400,2.13117529296875,0.6158357858657837,0.28157496452331543,-0.6327860951423645
1667824432450183200,2.14118310546875,0.6525746583938599,0.39983850717544556,-0.548614501953125
1667824432460190200,2.151190185546875,0.6904926300048828,0.4620799124240875,-0.49603500962257385
1667824432470198300,2.1611982421875,0.7358207106590271,0.4637582302093506,-0.4806179702281952
1667824432480206300,2.171206298828125,0.7992115020751953,0.4069139361381531,-0.49291953444480896
1667824432490214100,2.181214111328125,0.8804818391799927,0.3147139549255371,-0.5317158699035645
1667824432500221200,2.19122119140625,0.9581420421600342,0.21269448101520538,-0.5700609087944031
1667824432510229000,2.20122900390625,1.0209118127822876,0.16250428557395935,-0.5588570237159729
1667824432520237300,2.2112373046875,1.03762686252594,0.157056525349617,-0.46525901556015015
1667824432530244000,2.221244140625,0.9714094400405884,0.170653834939003,-0.27827101945877075
1667824432540252200,2.231252197265625,0.8225358724594116,0.19274798035621643,-0.03552411124110222
1667824432550260200,2.24126025390625,0.619281530380249,0.19643644988536835,0.21297331154346466
1667824432560267300,2.251267333984375,0.42457106709480286,0.16633807122707367,0.4237216114997864
1667824432570275300,2.261275390625,0.27019745111465454,0.11999613046646118,0.5606755018234253
1667824432580283100,2.271283203125,0.18361511826515198,0.06193789467215538,0.620299756526947
1667824432590291200,2.281291259765625,0.15197117626667023,-0.007496836595237255,0.5991761088371277
1667824432600298200,2.29129833984375,0.16758188605308533,-0.048584550619125366,0.5380145907402039
1667824432610306300,2.301306396484375,0.22862020134925842,-0.059043049812316895,0.45886701345443726
1667824432620314000,2.311314208984375,0.31701236963272095,-0.06734335422515869,0.39643874764442444
1667824432630321200,2.321321044921875,0.3992590308189392,-0.0669579952955246,0.36683160066604614
1667824432640329200,2.3313291015625,0.4474034607410431,-0.037680238485336304,0.36803311109542847
1667824432650337300,2.341337158203125,0.4634511172771454,0.02426035702228546,0.3861066699028015
1667824432660345300,2.351345458984375,0.45392245054244995,0.1004493460059166,0.38615289330482483
1667824432670352100,2.36135205078125,0.43399694561958313,0.2007535845041275,0.3479176163673401
1667824432680360200,2.371360107421875,0.4353940486907959,0.29753389954566956,0.28657037019729614
1667824432690368300,2.3813681640625,0.47148093581199646,0.3509625196456909,0.21401068568229675
1667824432700375300,2.391375244140625,0.5354855060577393,0.3690669536590576,0.17242424190044403
1667824432710383000,2.401383056640625,0.6161356568336487,0.3506980538368225,0.17199067771434784
1667824432720391200,2.41139111328125,0.7022152543067932,0.2786193788051605,0.20042026042938232
1667824432730399200,2.421399169921875,0.778362512588501,0.18615494668483734,0.2602148950099945
1667824432740406300,2.43140625,0.8336062431335449,0.0876593217253685,0.34165236353874207
1667824432750414000,2.4414140625,0.8534680604934692,-0.00526050291955471,0.42618614435195923
1667824432760422400,2.45142236328125,0.846849262714386,-0.08116470277309418,0.5017520785331726
1667824432770429700,2.4614296875,0.8076557517051697,-0.14076223969459534,0.5530852675437927
1667824432780437500,2.4714375,0.7504100203514099,-0.15107548236846924,0.5928741693496704
1667824432790445600,2.481445556640625,0.6843907833099365,-0.12989136576652527,0.6053827404975891
1667824432800453400,2.491453369140625,0.6281183958053589,-0.11101270467042923,0.5773045420646667
1667824432810460700,2.501460693359375,0.5967655181884766,-0.09077880531549454,0.5227137207984924
1667824432820468500,2.511468505859375,0.5869304537773132,-0.09651505947113037,0.44369620084762573
1667824432830476500,2.5214765625,0.5856121778488159,-0.14936816692352295,0.3429914116859436
1667824432840483300,2.5314833984375,0.5670345425605774,-0.2137453556060791,0.23012752830982208
1667824432850491600,2.54149169921875,0.5298208594322205,-0.255632609128952,0.1156315803527832
1667824432860499700,2.551499755859375,0.477169394493103,-0.2682229280471802,0.016569368541240692
1667824432870507500,2.561507568359375,0.4167209565639496,-0.23367483913898468,-0.04747406393289566
1667824432880514600,2.5715146484375,0.35945817828178406,-0.15075597167015076,-0.05292064696550369
1667824432890522400,2.5815224609375,0.3048096001148224,-0.04669108986854553,-0.014504814520478249
1667824432900530700,2.59153076171875,0.25223731994628906,0.12498295307159424,0.07547948509454727
1667824432910537500,2.601537353515625,0.21464411914348602,0.3202003538608551,0.19803309440612793
1667824432920545500,2.611545654296875,0.20585918426513672,0.4752161204814911,0.3307541608810425
1667824432930553300,2.62155322265625,0.22473806142807007,0.5647872686386108,0.4369503855705261
1667824432940561400,2.6315615234375,0.25420239567756653,0.5634980201721191,0.5012577772140503
1667824432950568400,2.641568359375,0.2849680185317993,0.48625433444976807,0.5268638134002686
1667824432960576500,2.651576416015625,0.30449381470680237,0.34668582677841187,0.515244722366333
1667824432970584600,2.66158447265625,0.2969576120376587,0.1731947362422943,0.4946156442165375
1667824432980591600,2.671591552734375,0.24775707721710205,0.015086864121258259,0.4653276205062866
1667824432990599700,2.681599609375,0.16266562044620514,-0.09870442003011703,0.4428494870662689
1667824433000607500,2.691607421875,0.04179785028100014,-0.1579795479774475,0.3993065357208252
1667824433010615600,2.701615478515625,-0.1094028502702713,-0.2166260927915573,0.32240456342697144
1667824433020622600,2.71162255859375,-0.2656390368938446,-0.3037874102592468,0.1927921026945114
1667824433030630700,2.721630615234375,-0.41870182752609253,-0.428063303232193,-0.0006308900192379951
1667824433040638500,2.731638427734375,-0.5761727094650269,-0.5586588382720947,-0.2642175555229187
1667824433050645500,2.7416455078125,-0.7092042565345764,-0.6510782837867737,-0.5719481706619263
1667824433060653600,2.751653564453125,-0.7970576882362366,-0.669853687286377,-0.8815426826477051
1667824433070661600,2.76166162109375,-0.8439983129501343,-0.6068518161773682,-1.1433132886886597
1667824433080668400,2.77166845703125,-0.8629907369613647,-0.45849698781967163,-1.3110214471817017
1667824433090676500,2.781676513671875,-0.8665101528167725,-0.23759415745735168,-1.3803032636642456
1667824433100684500,2.7916845703125,-0.8567362427711487,0.03619259223341942,-1.3470094203948975
1667824433110692600,2.801692626953125,-0.8289898633956909,0.31521064043045044,-1.2612202167510986
1667824433120699600,2.81169970703125,-0.7693890929222107,0.5524625778198242,-1.1501585245132446
1667824433130707500,2.82170751953125,-0.6766448020935059,0.7252756357192993,-1.049965262413025
1667824433140715500,2.831715576171875,-0.5569133162498474,0.7952424883842468,-0.9678879976272583
1667824433150723600,2.8417236328125,-0.42679426074028015,0.7732471823692322,-0.8948026299476624
1667824433160730600,2.851730712890625,-0.28255197405815125,0.6904114484786987,-0.8113539814949036
1667824433170738400,2.861738525390625,-0.13615430891513824,0.5761232376098633,-0.7124423384666443
1667824433180746500,2.87174658203125,-0.0026515366043895483,0.4419907331466675,-0.5866137742996216
1667824433190753500,2.88175341796875,0.10826192796230316,0.2800079584121704,-0.43592923879623413
1667824433200761600,2.89176171875,0.19339759647846222,0.12329638749361038,-0.2695581018924713
1667824433210769700,2.901769775390625,0.24979856610298157,-0.060824185609817505,-0.10309989005327225
1667824433220776400,2.9117763671875,0.27180707454681396,-0.27624955773353577,0.040162838995456696
1667824433230784800,2.92178466796875,0.26904296875,-0.4417772591114044,0.1753920316696167
1667824433240792600,2.93179248046875,0.2518349885940552,-0.5655634999275208,0.27969443798065186
1667824433250800600,2.941800537109375,0.20715060830116272,-0.6750330328941345,0.3512221574783325
1667824433260807400,2.951807373046875,0.14196260273456573,-0.7591496109962463,0.4016810357570648
1667824433270815500,2.9618154296875,0.07287248224020004,-0.8080686926841736,0.4322775602340698
1667824433280823600,2.971823486328125,0.013118570670485497,-0.8067174553871155,0.4550422132015228
1667824433290830600,2.98183056640625,-0.04109619930386543,-0.7479577660560608,0.48234307765960693
1667824433300838400,2.99183837890625,-0.1066986545920372,-0.6609848141670227,0.5030774474143982
1667824433310846500,3.001846435546875,-0.1782868206501007,-0.5977334380149841,0.5069252252578735
1667824433320854500,3.0118544921875,-0.2517149746417999,-0.5497035980224609,0.4904904365539551
1667824433330861600,3.021861572265625,-0.32765740156173706,-0.5201781988143921,0.4609147012233734
1667824433340869400,3.031869384765625,-0.41636738181114197,-0.4858523905277252,0.4374067187309265
1667824433350877400,3.04187744140625,-0.5306329727172852,-0.41699713468551636,0.4354780614376068
1667824433360884500,3.051884521484375,-0.6667096018791199,-0.3262907862663269,0.4478527307510376
1667824433370892500,3.061892578125,-0.8289975523948669,-0.21725937724113464,0.46756839752197266
1667824433380900600,3.071900634765625,-0.9899596571922302,-0.11072900891304016,0.4695891737937927
1667824433390908400,3.081908447265625,-1.125264286994934,-0.021279556676745415,0.4591362476348877
1667824433400915700,3.091915771484375,-1.2171326875686646,0.033520665019750595,0.45640477538108826
1667824433410923500,3.101923583984375,-1.2710797786712646,0.05769471079111099,0.44331133365631104
1667824433420931600,3.111931640625,-1.2957781553268433,0.08184690028429031,0.4251894950866699
1667824433430938400,3.1219384765625,-1.3201396465301514,0.10311916470527649,0.41972416639328003
1667824433440946700,3.13194677734375,-1.3507590293884277,0.10599076747894287,0.4243062138557434
1667824433450954500,3.14195458984375,-1.392362117767334,0.10387515276670456,0.43398281931877136
1667824433460962600,3.151962646484375,-1.4424400329589844,0.08954351395368576,0.4397341310977936
1667824433470969300,3.16196923828125,-1.4969725608825684,0.0422617569565773,0.436786025762558
1667824433480977400,3.171977294921875,-1.5489652156829834,-0.046303462237119675,0.40812838077545166
1667824433490985700,3.18198583984375,-1.5985796451568604,-0.16686555743217468,0.34875932335853577
1667824433500992500,3.191992431640625,-1.636472463607788,-0.281720370054245,0.2631608843803406
1667824433511000600,3.20200048828125,-1.654326319694519,-0.3706289529800415,0.17319823801517487
1667824433521008400,3.21200830078125,-1.6491247415542603,-0.4318044185638428,0.08582426607608795
1667824433531016700,3.2220166015625,-1.6308319568634033,-0.4662039279937744,0.000056362710893154144
1667824433541023500,3.2320234375,-1.6042966842651367,-0.46928200125694275,-0.07818658649921417
1667824433551031600,3.242031494140625,-1.5705631971359253,-0.4509600102901459,-0.15018248558044434
1667824433561039400,3.252039306640625,-1.539849042892456,-0.41471946239471436,-0.2210593968629837
1667824433571046700,3.262046630859375,-1.5027987957000732,-0.35803940892219543,-0.3051002323627472
1667824433581054500,3.272054443359375,-1.4567617177963257,-0.2977723181247711,-0.392451673746109
1667824433591062500,3.2820625,-1.3909962177276611,-0.22874052822589874,-0.48540693521499634
1667824433601070600,3.292070556640625,-1.3031578063964844,-0.13750536739826202,-0.5640965700149536
1667824433611077600,3.30207763671875,-1.2019203901290894,-0.03453078120946884,-0.6205015182495117
1667824433621085700,3.312085693359375,-1.0970683097839355,0.05569839850068092,-0.6405138969421387
1667824433631093500,3.322093505859375,-0.9900728464126587,0.14347966015338898,-0.6265202760696411
1667824433641100500,3.3321005859375,-0.8783500790596008,0.22717376053333282,-0.5953251123428345
1667824433651108600,3.342108642578125,-0.7670536041259766,0.2622382640838623,-0.558014988899231
1667824433661116700,3.35211669921875,-0.659824788570404,0.24774426221847534,-0.5296373963356018
1667824433671124500,3.36212451171875,-0.5488473773002625,0.18451762199401855,-0.5429249405860901
1667824433681131500,3.372131591796875,-0.43886640667915344,0.08231055736541748,-0.6048992276191711
1667824433691139600,3.3821396484375,-0.31852906942367554,-0.06278271228075027,-0.717288613319397
1667824433701147600,3.392147705078125,-0.1745835691690445,-0.23818956315517426,-0.8695014119148254
1667824433711154400,3.402154541015625,-0.0012690522707998753,-0.4343705177307129,-1.0405449867248535
1667824433721162500,3.41216259765625,0.2129276990890503,-0.6549001932144165,-1.2035629749298096
1667824433731170600,3.422170654296875,0.45731163024902344,-0.854807436466217,-1.3290425539016724
1667824433741177600,3.432177490234375,0.7051507234573364,-0.9683069586753845,-1.3903615474700928
1667824433751185700,3.442185546875,0.9346907138824463,-0.9710409641265869,-1.3796566724777222
1667824433761196800,3.45219677734375,1.1363073587417603,-0.8659290075302124,-1.296917200088501
1667824433771204600,3.46220458984375,1.302411437034607,-0.6824023127555847,-1.1690921783447266
1667824433781212000,3.4722119140625,1.451292634010315,-0.4600614309310913,-1.0264573097229004
1667824433791219700,3.4822197265625,1.5880142450332642,-0.23366345465183258,-0.9057242274284363
1667824433801227800,3.492227783203125,1.7113425731658936,-0.05200629308819771,-0.8147708773612976
1667824433811234800,3.50223486328125,1.8261442184448242,0.03311685845255852,-0.7504571080207825
1667824433821243000,3.512242919921875,1.9125502109527588,0.01582176424562931,-0.7025051712989807
1667824433831251000,3.5222509765625,1.9514235258102417,-0.09983266144990921,-0.6668770909309387
1667824433841258800,3.5322587890625,1.9318182468414307,-0.2595219016075134,-0.6300163865089417
1667824433851265800,3.542265869140625,1.8428622484207153,-0.43865275382995605,-0.585168719291687
1667824433861273900,3.55227392578125,1.6645078659057617,-0.6136490702629089,-0.5181694030761719
1667824433871282000,3.562281982421875,1.409109115600586,-0.7521063089370728,-0.43370431661605835
1667824433881288700,3.572288818359375,1.0858862400054932,-0.8224028944969177,-0.3184695243835449
1667824433891296800,3.582296875,0.7492573857307434,-0.7992349863052368,-0.16690264642238617
1667824433901304800,3.592304931640625,0.44962939620018005,-0.7112453579902649,0.0012515522539615631
1667824433911313000,3.60231298828125,0.23131436109542847,-0.5746411681175232,0.17457488179206848
1667824433921319700,3.612319580078125,0.12354058027267456,-0.4383888244628906,0.3243294954299927
1667824433931327700,3.62232763671875,0.11936288326978683,-0.3012029826641083,0.4384928345680237
1667824433941335600,3.63233544921875,0.18452514708042145,-0.1668688803911209,0.5270987153053284
1667824433951342800,3.6423427734375,0.2802937626838684,-0.0806644856929779,0.6061046123504639
1667824433961350700,3.6523505859375,0.3628450036048889,-0.03626536205410957,0.6868722438812256
1667824433971358700,3.662358642578125,0.4263662099838257,0.0022287683095782995,0.7732287049293518
1667824433981366800,3.67236669921875,0.4579935371875763,0.04876340180635452,0.8554105758666992
1667824433991373800,3.682373779296875,0.44858407974243164,0.08373469859361649,0.9311622977256775
1667824434001382000,3.6923818359375,0.39751315116882324,0.12595058977603912,1.008182168006897
1667824434011389700,3.7023896484375,0.3279780149459839,0.15694552659988403,1.0799202919006348
1667824434021397000,3.71239697265625,0.26963722705841064,0.14557471871376038,1.1305423974990845
1667824434031404800,3.72240478515625,0.2257334291934967,0.09710890799760818,1.1598451137542725
1667824434041412900,3.732412841796875,0.1912049651145935,0.03712476044893265,1.1680546998977661
1667824434051420700,3.742420654296875,0.17385713756084442,-0.036181945353746414,1.1577192544937134
1667824434061427700,3.752427734375,0.1744781881570816,-0.11876862496137619,1.1286771297454834
1667824434071435800,3.762435791015625,0.19660639762878418,-0.19610470533370972,1.083124041557312
1667824434081443800,3.77244384765625,0.2326781302690506,-0.24363850057125092,1.0298138856887817
1667824434091450600,3.78245068359375,0.2737976014614105,-0.28602272272109985,0.9570701122283936
1667824434101458700,3.792458740234375,0.3135848343372345,-0.33060961961746216,0.8564693331718445
1667824434111467000,3.802467041015625,0.35053858160972595,-0.39197736978530884,0.707223653793335
1667824434121474800,3.812474853515625,0.3870074450969696,-0.45250582695007324,0.500675618648529
1667824434131481900,3.82248193359375,0.42410793900489807,-0.5142189264297485,0.24176917970180511
1667824434141489700,3.83248974609375,0.46029573678970337,-0.5238739848136902,-0.020889975130558014
1667824434151497700,3.842497802734375,0.5070235729217529,-0.42660146951675415,-0.22463378310203552
1667824434161504800,3.8525048828125,0.5559045672416687,-0.17664027214050293,-0.31507548689842224
1667824434171512800,3.862512939453125,0.5979889035224915,0.18549956381320953,-0.2771371603012085
1667824434181520600,3.872520751953125,0.6469669342041016,0.5392916798591614,-0.11911207437515259
1667824434191528700,3.88252880859375,0.7180474996566772,0.8214796781539917,0.13123519718647003
1667824434201535700,3.89253564453125,0.8137689232826233,0.9551109075546265,0.3870806396007538
1667824434211543800,3.902543701171875,0.9040202498435974,0.9254220128059387,0.5848919749259949
1667824434221551900,3.9125517578125,0.9702287316322327,0.7937518954277039,0.6942600011825562
1667824434231559000,3.922558837890625,0.9992182850837708,0.6495055556297302,0.7056223750114441
1667824434241567000,3.93256689453125,0.9877947568893433,0.49124637246131897,0.6560750007629395
1667824434251574800,3.94257470703125,0.9249369502067566,0.3572526276111603,0.5886133909225464
1667824434261582800,3.952582763671875,0.8142044544219971,0.28312909603118896,0.543343186378479
1667824434271589600,3.962589599609375,0.6713775396347046,0.2825765013694763,0.5384551882743835
1667824434281598000,3.972597900390625,0.5211731791496277,0.3634894788265228,0.5667961239814758
1667824434291605800,3.982605712890625,0.3708763122558594,0.5072096586227417,0.6080495715141296
1667824434301612800,3.99261279296875,0.2520810067653656,0.6333065629005432,0.6488201022148132
1667824434311620600,4.00262060546875,0.17279762029647827,0.7111371755599976,0.6721709370613098
1667824434321629000,4.01262890625,0.1326257884502411,0.7150988578796387,0.6634102463722229
1667824434331637000,4.022636962890625,0.11684388667345047,0.630714476108551,0.611706018447876
1667824434341643800,4.032643798828125,0.09411974251270294,0.48477619886398315,0.5175296664237976
1667824434351651800,4.04265185546875,0.04368453100323677,0.28940752148628235,0.393186092376709
1667824434361659600,4.05265966796875,-0.04197195544838905,0.07261260598897934,0.2508279085159302
1667824434371667000,4.0626669921875,-0.16782362759113312,-0.14595940709114075,0.10889024287462234
1667824434381674800,4.0726748046875,-0.32994839549064636,-0.32128825783729553,-0.015396514907479286
1667824434391682800,4.082682861328125,-0.5188639760017395,-0.4615958333015442,-0.13618257641792297
1667824434401690600,4.092690673828125,-0.7423347234725952,-0.6233932375907898,-0.2862352430820465
1667824434411698000,4.102697998046875,-0.978908121585846,-0.8098499774932861,-0.5051308274269104
1667824434421705700,4.112705810546875,-1.179267406463623,-0.9749473333358765,-0.8035699725151062
1667824434431713800,4.1227138671875,-1.3046015501022339,-1.0459386110305786,-1.1371006965637207
1667824434441720800,4.132720947265625,-1.3558785915374756,-0.9991952180862427,-1.4505789279937744
1667824434451729000,4.14272900390625,-1.3702932596206665,-0.8051149845123291,-1.6939828395843506
1667824434461736700,4.15273681640625,-1.3602843284606934,-0.5244755744934082,-1.826029658317566
1667824434471744800,4.162744873046875,-1.3147785663604736,-0.2065705507993698,-1.8335603475570679
1667824434481751800,4.172751708984375,-1.2165489196777344,0.09205397963523865,-1.7395001649856567
1667824434491759900,4.182759765625,-1.0749050378799438,0.3176221251487732,-1.5882011651992798
1667824434501768000,4.192767822265625,-0.9108937382698059,0.47010675072669983,-1.4065710306167603
1667824434511774700,4.202774658203125,-0.7422291040420532,0.5326827764511108,-1.2180166244506836
1667824434521782800,4.21278271484375,-0.5866916179656982,0.5148263573646545,-1.0194765329360962
1667824434531790800,4.222790771484375,-0.4533684551715851,0.42440932989120483,-0.833080530166626
1667824434541799000,4.232798828125,-0.3413710296154022,0.2902422547340393,-0.650945782661438
1667824434551805700,4.2428056640625,-0.24720671772956848,0.14748859405517578,-0.4790038466453552
1667824434561813800,4.252813720703125,-0.1641901731491089,0.0016796462005004287,-0.313945472240448
1667824434571821600,4.262821533203125,-0.10149669647216797,-0.1273675560951233,-0.1628827303647995
1667824434581828900,4.272828857421875,-0.051766932010650635,-0.21539245545864105,-0.024550901725888252
1667824434591836700,4.282836669921875,-0.011744415387511253,-0.2975640296936035,0.09596353024244308
1667824434601844700,4.2928447265625,0.02445443905889988,-0.3519483804702759,0.192672461271286
1667824434611852800,4.302852783203125,0.057107988744974136,-0.3936002254486084,0.2648789882659912
1667824434621859800,4.31285986328125,0.09358182549476624,-0.42700597643852234,0.30558422207832336
1667824434631868000,4.322867919921875,0.1252707839012146,-0.46262258291244507,0.3302600085735321
1667824434641875700,4.332875732421875,0.15206018090248108,-0.5064336061477661,0.33465585112571716
1667824434651883000,4.342883056640625,0.15674974024295807,-0.5408387184143066,0.33048292994499207
1667824434661890800,4.352890869140625,0.1255498230457306,-0.5486580729484558,0.3382279574871063
1667824434671899000,4.36289892578125,0.07070040702819824,-0.5328146815299988,0.3631247878074646
1667824434681905700,4.37290576171875,-0.01006400864571333,-0.47655242681503296,0.4181206524372101
1667824434691913700,4.382913818359375,-0.11593851447105408,-0.39334672689437866,0.4815448820590973
1667824434701921800,4.392921875,-0.23266278207302094,-0.3414943516254425,0.5373716354370117
1667824434711929900,4.402929931640625,-0.35201317071914673,-0.3409063220024109,0.5637673139572144
1667824434721936600,4.4129365234375,-0.4744935631752014,-0.37399792671203613,0.5456568598747253
1667824434731944700,4.42294482421875,-0.6062580347061157,-0.41364413499832153,0.4812299609184265
1667824434741953000,4.432953125,-0.737395703792572,-0.4338894188404083,0.3782065808773041
1667824434751959800,4.442959716796875,-0.8589972257614136,-0.416801780462265,0.2565547227859497
1667824434761967900,4.4529677734375,-0.9710726737976074,-0.34397071599960327,0.13964565098285675
1667824434771973000,4.46297314453125,-1.070848822593689,-0.21699918806552887,0.04730452597141266
1667824434781981000,4.47298095703125,-1.1728113889694214,-0.05971701815724373,-0.020020000636577606
1667824434791988200,4.48298828125,-1.254515290260315,0.09572689980268478,-0.07163925468921661
1667824434801996000,4.49299609375,-1.3012663125991821,0.24464067816734314,-0.11670456826686859
1667824434812004000,4.503004150390625,-1.3174381256103516,0.3338041305541992,-0.16600953042507172
1667824434822011000,4.513010986328125,-1.3221933841705322,0.3792053759098053,-0.22103166580200195
1667824434832019200,4.523019287109375,-1.3181389570236206,0.4196593165397644,-0.28283748030662537
1667824434842027300,4.53302734375,-1.2818747758865356,0.429083913564682,-0.3623848855495453
1667824434852035000,4.54303515625,-1.2273832559585571,0.4110391438007355,-0.46094954013824463
1667824434862042000,4.5530419921875,-1.1560548543930054,0.36875829100608826,-0.5679581165313721
1667824434872050000,4.5630498046875,-1.065537452697754,0.3093860447406769,-0.6557308435440063
1667824434882058200,4.573058349609375,-0.9621883630752563,0.24823644757270813,-0.7118681073188782
1667824434892065000,4.58306494140625,-0.8535494804382324,0.18681782484054565,-0.732656717300415
1667824434902073000,4.593072998046875,-0.7481686472892761,0.12518081068992615,-0.7203142642974854
1667824434912081000,4.603080810546875,-0.6486971974372864,0.0571247935295105,-0.6847230195999146
1667824434922089200,4.613089111328125,-0.5410542488098145,-0.012221124023199081,-0.6422865390777588
1667824434932096000,4.623095947265625,-0.433442085981369,-0.09072578698396683,-0.6026291251182556
1667824434942104000,4.63310400390625,-0.3204578161239624,-0.1873645782470703,-0.5749855637550354
1667824434952112000,4.643112060546875,-0.19474807381629944,-0.3125999867916107,-0.5677513480186462
1667824434962119200,4.653119140625,-0.05430760979652405,-0.45605161786079407,-0.5783334970474243
1667824434972127200,4.663127197265625,0.08775818347930908,-0.5762153267860413,-0.5945689678192139
1667824434982135000,4.673135009765625,0.21352940797805786,-0.6602162718772888,-0.5918253064155579
1667824434992142000,4.68314208984375,0.32154616713523865,-0.6576809287071228,-0.5408329367637634
1667824435002150100,4.693150146484375,0.4255746603012085,-0.5542590618133545,-0.42342472076416016
1667824435012158200,4.703158203125,0.5262482762336731,-0.36150211095809937,-0.2411009818315506
1667824435022166000,4.713166015625,0.6123508810997009,-0.113694928586483,-0.013569552451372147
1667824435032173000,4.723173095703125,0.681755781173706,0.13048630952835083,0.22525925934314728
1667824435042181000,4.73318115234375,0.7580190896987915,0.329210102558136,0.4493250250816345
1667824435052189200,4.743189208984375,0.8518846035003662,0.46406620740890503,0.6335111260414124
1667824435062196000,4.753196044921875,0.9532213807106018,0.5254091024398804,0.7712502479553223
1667824435072204000,4.7632041015625,1.0404905080795288,0.5245206356048584,0.8519192934036255
1667824435082212000,4.773212158203125,1.117210030555725,0.476289302110672,0.8831866979598999
1667824435092220200,4.78322021484375,1.1766527891159058,0.3989599049091339,0.8717628121376038
1667824435102227000,4.79322705078125,1.2034883499145508,0.2998533248901367,0.8322165608406067
1667824435112235000,4.803235107421875,1.1879572868347168,0.16151432693004608,0.7707982063293457
1667824435122243000,4.8132431640625,1.1233259439468384,-0.006057176738977432,0.697827160358429
1667824435132250000,4.82325,1.0116171836853027,-0.16401298344135284,0.6146640777587891
1667824435142258200,4.833258056640625,0.8695881962776184,-0.30527064204216003,0.5115228891372681
1667824435152266000,4.843265869140625,0.7230365872383118,-0.38414204120635986,0.3931296467781067
1667824435162274000,4.853274169921875,0.6028002500534058,-0.3797036409378052,0.2677682936191559
1667824435172281000,4.863281005859375,0.5296916961669922,-0.2885811924934387,0.1549309641122818
1667824435182289200,4.8732890625,0.5011065602302551,-0.14555905759334564,0.07122774422168732
1667824435192297000,4.883296875,0.5132614970207214,0.002265821909531951,0.006998690776526928
1667824435202304000,4.893303955078125,0.5628443956375122,0.14606788754463196,-0.015985308215022087
1667824435212312000,4.90331201171875,0.6264142990112305,0.27411746978759766,0.0019297758117318153
1667824435222320000,4.913320068359375,0.6845728158950806,0.3916217088699341,0.06378747522830963
1667824435232327000,4.923326904296875,0.7241396307945251,0.4843881130218506,0.1604471653699875
1667824435242335000,4.9333349609375,0.7344327569007874,0.5588869452476501,0.28656721115112305
1667824435252343300,4.94334326171875,0.7261964082717896,0.6329507827758789,0.42032766342163086
1667824435262351000,4.95335107421875,0.7146564722061157,0.6699157357215881,0.5462817549705505
1667824435272358100,4.963358154296875,0.6942532062530518,0.6482589244842529,0.6526867747306824
1667824435282366000,4.973365966796875,0.6667911410331726,0.5754315257072449,0.7271974086761475
1667824435292374000,4.9833740234375,0.632157027721405,0.45409998297691345,0.7561270594596863
1667824435302381000,4.993381103515625,0.5939545631408691,0.31564000248908997,0.7419220209121704
1667824435312389000,5.00338916015625,0.5672920346260071,0.1827637106180191,0.6853538155555725
1667824435322397000,5.01339697265625,0.5482591986656189,0.0623684786260128,0.6001713275909424
1667824435332405000,5.023405029296875,0.5251826643943787,-0.03403795510530472,0.4841555058956146
1667824435342412000,5.033412109375,0.4907308518886566,-0.0959862619638443,0.36304980516433716
1667824435352420000,5.043420166015625,0.43806177377700806,-0.11713335663080215,0.2574392259120941
1667824435362428200,5.05342822265625,0.3782815933227539,-0.0712321475148201,0.1966615617275238
1667824435372435200,5.063435302734375,0.328997403383255,0.025380145758390427,0.1650860607624054
1667824435382443300,5.073443359375,0.3055006265640259,0.13906094431877136,0.15781113505363464
1667824435392451000,5.083451171875,0.31588321924209595,0.22910401225090027,0.14552198350429535
1667824435402459100,5.093459228515625,0.3675175607204437,0.27602511644363403,0.11023220419883728
1667824435412466200,5.103466064453125,0.4571340084075928,0.2661586403846741,0.03780461102724075
1667824435422474200,5.11347412109375,0.5708208680152893,0.200130432844162,-0.06701896339654922
1667824435432482000,5.12348193359375,0.6882758140563965,0.09938092529773712,-0.1918674111366272
1667824435442489000,5.133489013671875,0.7728464007377625,-0.0016572391614317894,-0.28624260425567627
1667824435452497000,5.143496826171875,0.8103684782981873,-0.08933515846729279,-0.34110960364341736
1667824435462505200,5.153505126953125,0.7989368438720703,-0.12663786113262177,-0.3317684829235077
1667824435472512000,5.163511962890625,0.7829160690307617,-0.0954330787062645,-0.25849398970603943
1667824435482520000,5.17352001953125,0.7721542716026306,-0.0026573045179247856,-0.11601976305246353
1667824435492528000,5.183528076171875,0.7760574221611023,0.11606401950120926,0.06587760150432587
1667824435502536000,5.193535888671875,0.7844671010971069,0.21196624636650085,0.2570874094963074
1667824435512543200,5.203543212890625,0.7923071980476379,0.2552807033061981,0.4139188528060913
1667824435522551000,5.213551025390625,0.7848625183105469,0.2619815766811371,0.5124242305755615
1667824435532559000,5.22355908203125,0.7681083083152771,0.2288409322500229,0.5570079684257507
1667824435542566100,5.233566162109375,0.7210935950279236,0.15040531754493713,0.5464717745780945
1667824435552574200,5.24357421875,0.6318976879119873,0.07625199854373932,0.5003008246421814
1667824435562582000,5.25358203125,0.49744120240211487,0.03240485116839409,0.4330533742904663
1667824435572590000,5.263590087890625,0.34461814165115356,0.04997425526380539,0.363292932510376
1667824435582597000,5.27359716796875,0.194486603140831,0.16557863354682922,0.3094978332519531
1667824435592605200,5.283605224609375,0.07340304553508759,0.33093562722206116,0.2759143114089966
1667824435602613000,5.293613037109375,0.0008423277176916599,0.5156581997871399,0.2704745829105377
1667824435612620000,5.3036201171875,-0.03028443083167076,0.691087007522583,0.2902147173881531
1667824435622628000,5.313628173828125,-0.028601547703146935,0.8389381170272827,0.3376290500164032
1667824435632636200,5.32363623046875,-0.01587376929819584,0.9423726201057434,0.41493210196495056
1667824435642644200,5.333644287109375,-0.009765392169356346,0.9808199405670166,0.5208700895309448
1667824435652651000,5.343651123046875,-0.03590671718120575,0.9659336805343628,0.6353570222854614
1667824435662659000,5.3536591796875,-0.09694935381412506,0.9166544675827026,0.7438070178031921
1667824435672667100,5.363667236328125,-0.18357080221176147,0.8356240391731262,0.8394464254379272
1667824435682674200,5.373674072265625,-0.27772966027259827,0.7106459736824036,0.9098036885261536
1667824435692682000,5.383681884765625,-0.37762269377708435,0.5145456790924072,0.9312823414802551
1667824435702690000,5.39368994140625,-0.4837316572666168,0.2786012291908264,0.8906093239784241
1667824435712697900,5.40369775390625,-0.6028367280960083,0.04355727881193161,0.780927300453186
1667824435722705200,5.413705078125,-0.7231529951095581,-0.16455549001693726,0.6140038967132568
1667824435732713000,5.423712890625,-0.8402966856956482,-0.3453710675239563,0.3953344523906708
1667824435742721000,5.433720947265625,-0.9429140686988831,-0.49051815271377563,0.12793447077274323
1667824435752728000,5.44372802734375,-1.0309165716171265,-0.587325930595398,-0.16565774381160736
1667824435762735000,5.453735107421875,-1.0999209880828857,-0.6613153219223022,-0.4729907810688019
1667824435772743000,5.463742919921875,-1.1728298664093018,-0.7350598573684692,-0.7874855995178223
1667824435782751000,5.4737509765625,-1.2376289367675781,-0.7671737670898438,-1.1024436950683594
1667824435792758000,5.483758056640625,-1.2626469135284424,-0.7365972399711609,-1.401843786239624
1667824435802766000,5.49376611328125,-1.2448323965072632,-0.6536008715629578,-1.6710920333862305
1667824435812774100,5.503774169921875,-1.1846805810928345,-0.5005279779434204,-1.886018991470337
1667824435822781200,5.51378125,-1.0747944116592407,-0.315828800201416,-2.0205042362213135
1667824435832789200,5.523789306640625,-0.9272835850715637,-0.15090270340442657,-2.0520756244659424
1667824435842797000,5.533797119140625,-0.7493748664855957,-0.03116403892636299,-1.98043692111969
1667824435852804000,5.54380419921875,-0.5617809891700745,0.01027341466397047,-1.824343204498291
1667824435862812200,5.553812255859375,-0.3709604740142822,-0.016714759171009064,-1.6029984951019287
1667824435872820200,5.5638203125,-0.19432710111141205,-0.08968883007764816,-1.3573663234710693
1667824435882828000,5.573828125,-0.028466222807765007,-0.1690581738948822,-1.1106535196304321
1667824435892835000,5.5838349609375,0.1157684475183487,-0.2360268235206604,-0.886201024055481
1667824435902843000,5.5938427734375,0.22725524008274078,-0.31874316930770874,-0.6844728589057922
1667824435912851200,5.603851318359375,0.2988503575325012,-0.4037051796913147,-0.5100722908973694
1667824435922858000,5.61385791015625,0.3296887278556824,-0.4712940752506256,-0.3508187234401703
1667824435932866000,5.623865966796875,0.32909002900123596,-0.5362520217895508,-0.22238272428512573
1667824435942874000,5.6338740234375,0.3054109215736389,-0.5910220742225647,-0.1323394477367401
1667824435952882200,5.643882080078125,0.26838019490242004,-0.6200230717658997,-0.07211793214082718
1667824435962889200,5.65388916015625,0.23518170416355133,-0.6286313533782959,-0.03673050180077553
1667824435972897000,5.66389697265625,0.21518243849277496,-0.6191350221633911,-0.007357431575655937
1667824435982905000,5.673905029296875,0.20257529616355896,-0.5897181034088135,0.03404153138399124
1667824435992912100,5.683912109375,0.2003595530986786,-0.5215148329734802,0.10220008343458176
1667824436002920200,5.693920166015625,0.19454272091388702,-0.42381447553634644,0.17836911976337433
1667824436012928000,5.703927978515625,0.1792239546775818,-0.29974794387817383,0.2675386667251587
1667824436022936000,5.71393603515625,0.15398328006267548,-0.18035659193992615,0.35836970806121826
1667824436032943000,5.723943115234375,0.1197827011346817,-0.07739106565713882,0.4379574954509735
1667824436042951200,5.733951171875,0.07381221652030945,-0.006293398328125477,0.49141833186149597
1667824436052959000,5.743958984375,0.026780257001519203,0.05624827370047569,0.5190430283546448
1667824436062966000,5.753966064453125,-0.02094487100839615,0.08032004535198212,0.5314034819602966
1667824436072974000,5.76397412109375,-0.08360318839550018,0.08233259618282318,0.5308071970939636
1667824436082982100,5.773982177734375,-0.16238723695278168,0.06799924373626709,0.527970016002655
1667824436092989000,5.783989013671875,-0.2625255584716797,0.04983648285269737,0.5259736776351929
1667824436102997000,5.7939970703125,-0.3681100010871887,0.047891221940517426,0.5229275226593018
1667824436113005000,5.804005126953125,-0.462385892868042,0.06989585608243942,0.5175862908363342
1667824436123013000,5.81401318359375,-0.5478494167327881,0.1087045893073082,0.5093660950660706
1667824436133020200,5.824020263671875,-0.64200758934021,0.13939645886421204,0.4829041063785553
1667824436143028000,5.834028076171875,-0.7423655390739441,0.15941934287548065,0.42412012815475464
1667824436153036000,5.8440361328125,-0.8328200578689575,0.16534140706062317,0.33621370792388916
1667824436163043000,5.85404296875,-0.9021477103233337,0.16320696473121643,0.22992292046546936
1667824436173051100,5.864051025390625,-0.9556497931480408,0.15481960773468018,0.12120069563388824
1667824436183059000,5.874058837890625,-1.0092766284942627,0.15701790153980255,0.00431752298027277
1667824436193067000,5.88406689453125,-1.0606681108474731,0.15923579037189484,-0.09837157279253006
1667824436203074000,5.894073974609375,-1.112579584121704,0.16650550067424774,-0.18123772740364075
1667824436213082000,5.90408203125,-1.156606674194336,0.19961071014404297,-0.2380293756723404
1667824436223090200,5.914090087890625,-1.1915545463562012,0.2566017806529999,-0.26161056756973267
1667824436233097000,5.924096923828125,-1.2070852518081665,0.3077634871006012,-0.261473685503006
1667824436243105300,5.934105224609375,-1.1903084516525269,0.3396133780479431,-0.24008193612098694
1667824436253113000,5.944113037109375,-1.1278464794158936,0.3655336797237396,-0.2109813094139099
1667824436263121200,5.95412109375,-1.0215803384780884,0.37816402316093445,-0.1889442354440689
1667824436273128000,5.9641279296875,-0.89145827293396,0.3725726902484894,-0.18406052887439728
1667824436283136300,5.97413623046875,-0.7606654763221741,0.36061474680900574,-0.2054825723171234
1667824436293144000,5.98414404296875,-0.6547377109527588,0.3361610770225525,-0.2522665858268738
1667824436303151000,5.994151123046875,-0.5797148942947388,0.31331107020378113,-0.31347060203552246
1667824436313159000,6.004158935546875,-0.526782214641571,0.31502002477645874,-0.36830002069473267
1667824436323167000,6.0141669921875,-0.5013607144355774,0.3287019431591034,-0.40330109000205994
1667824436333174000,6.024174072265625,-0.48166024684906006,0.36085349321365356,-0.4107688367366791
1667824436343182000,6.03418212890625,-0.44716382026672363,0.38179802894592285,-0.39614245295524597
1667824436353190100,6.044190185546875,-0.37389546632766724,0.38528650999069214,-0.3621978163719177
1667824436363198000,6.054197998046875,-0.26350507140159607,0.37251734733581543,-0.31464511156082153
1667824436373205200,6.064205322265625,-0.13950215280056,0.34215039014816284,-0.25254979729652405
1667824436383213000,6.074213134765625,0.002703658305108547,0.28806522488594055,-0.18101178109645844
1667824436393221000,6.08422119140625,0.15511716902256012,0.21039706468582153,-0.10267036408185959
1667824436403228200,6.094228271484375,0.3177722096443176,0.09815843403339386,-0.03252597153186798
1667824436413236200,6.104236328125,0.4676911234855652,-0.06662838906049728,0.026902200654149055
1667824436423244000,6.114244140625,0.597713828086853,-0.27520498633384705,0.07132068276405334
1667824436433252000,6.124252197265625,0.6908011436462402,-0.4780624806880951,0.08576807379722595
1667824436443259000,6.1342587890625,0.7446560859680176,-0.6578231453895569,0.08189370483160019
1667824436453267200,6.14426708984375,0.7575321793556213,-0.8130441308021545,0.05805788189172745
1667824436463275300,6.154275146484375,0.7388356924057007,-0.958576500415802,-0.011961109936237335
1667824436473282000,6.164281982421875,0.6983526945114136,-1.0787739753723145,-0.1187829002737999
1667824436483290000,6.1742900390625,0.6485031247138977,-1.11355459690094,-0.24977608025074005
1667824436493298200,6.184298095703125,0.6015079021453857,-1.0280410051345825,-0.3651394248008728
1667824436503305200,6.19430517578125,0.5574318170547485,-0.8285462260246277,-0.4274226129055023
1667824436513313000,6.20431298828125,0.5252946615219116,-0.5273157954216003,-0.40221261978149414
1667824436523321000,6.214321044921875,0.5109670758247375,-0.2034110128879547,-0.2998434007167816
1667824436533329000,6.224328857421875,0.5284422039985657,0.06544841080904007,-0.14279304444789886
1667824436543336200,6.234336181640625,0.577766478061676,0.20865891873836517,0.014642268419265747
1667824436553344000,6.244343994140625,0.6367688179016113,0.22410233318805695,0.15343476831912994
1667824436563352000,6.25435205078125,0.684346616268158,0.15895229578018188,0.27258554100990295
1667824436573359000,6.264359130859375,0.7078945636749268,0.0809917151927948,0.3754402697086334
1667824436583367200,6.2743671875,0.7101448178291321,0.03703692927956581,0.47001567482948303
1667824436593375000,6.284375,0.6874174475669861,0.019722919911146164,0.5686942934989929
1667824436603383000,6.294383056640625,0.6368482112884521,0.02693093940615654,0.6451581716537476
1667824436613390000,6.30439013671875,0.5800104737281799,0.03636998310685158,0.6945294737815857
1667824436623398100,6.314398193359375,0.5327714681625366,0.027805104851722717,0.7073505520820618
1667824436633406200,6.32440625,0.4939516484737396,0.0020131892524659634,0.672440767288208
1667824436643413000,6.3344130859375,0.462879478931427,-0.046064652502536774,0.5876573920249939
1667824436653421000,6.344421142578125,0.4317023754119873,-0.09252455830574036,0.46005794405937195
1667824436663429000,6.35442919921875,0.4043598175048828,-0.12318912893533707,0.31803444027900696
1667824436673436200,6.364436279296875,0.38511529564857483,-0.1116161048412323,0.17810183763504028
1667824436683444000,6.37444384765625,0.3754064440727234,-0.031588416546583176,0.07613202929496765
1667824436693452000,6.3844521484375,0.36987876892089844,0.07637879997491837,0.021869318559765816
1667824436703460000,6.394460205078125,0.3654980957508087,0.18564489483833313,0.014833517372608185
1667824436713467100,6.404467041015625,0.3862627446651459,0.278792142868042,0.043769292533397675
1667824436723475000,6.414474853515625,0.42275017499923706,0.33368271589279175,0.07994836568832397
1667824436733483000,6.42448291015625,0.47552549839019775,0.3408282399177551,0.10021023452281952
1667824436743490000,6.434489990234375,0.5417701601982117,0.3148801624774933,0.10060910880565643
1667824436753498000,6.444498046875,0.6188945174217224,0.26880747079849243,0.09121587127447128
1667824436763505700,6.454505615234375,0.6946368217468262,0.21467813849449158,0.0757230818271637
1667824436773513500,6.464513427734375,0.7654609084129333,0.19896869361400604,0.07670579105615616
1667824436783520800,6.474520751953125,0.8128238916397095,0.19940482079982758,0.10268408060073853
1667824436793528600,6.484528564453125,0.8268491625785828,0.19233067333698273,0.14341287314891815
1667824436803536600,6.49453662109375,0.818909227848053,0.18311409652233124,0.18377193808555603
1667824436813543700,6.504543701171875,0.8046474456787109,0.17589959502220154,0.20998303592205048
1667824436823551700,6.5145517578125,0.7810288667678833,0.17524699866771698,0.22538025677204132
1667824436833559800,6.524559814453125,0.7702241539955139,0.18690179288387299,0.2347862720489502
1667824436843567600,6.534567626953125,0.7577611207962036,0.2060254067182541,0.260844886302948
1667824436853574700,6.54457470703125,0.7483529448509216,0.24380794167518616,0.29767319560050964
1667824436863582700,6.554582763671875,0.7215269804000854,0.3201656937599182,0.35128965973854065
1667824436873590800,6.5645908203125,0.6840819120407104,0.4086662530899048,0.40711671113967896
1667824436883597600,6.57459765625,0.6314165592193604,0.4905872344970703,0.45601117610931396
1667824436893605600,6.584605712890625,0.5709859728813171,0.5368473529815674,0.48504841327667236
1667824436903613400,6.594613525390625,0.504774272441864,0.5567002892494202,0.4812532663345337
1667824436913620700,6.604620849609375,0.42951682209968567,0.5699295401573181,0.45024529099464417
1667824436923628500,6.614628662109375,0.35564368963241577,0.5641527771949768,0.40124890208244324
1667824436933636600,6.62463671875,0.28958824276924133,0.5587745308876038,0.35368219017982483
1667824436943644700,6.634644775390625,0.23989363014698029,0.5739288330078125,0.31479233503341675
1667824436953651700,6.644651611328125,0.19438445568084717,0.6109364032745361,0.30189359188079834
1667824436963659800,6.65465966796875,0.13831205666065216,0.6625549793243408,0.3176671266555786
1667824436973667600,6.66466748046875,0.060910485684871674,0.7415714859962463,0.36346498131752014
1667824436983675000,6.6746748046875,-0.027490707114338875,0.8465676307678223,0.42801785469055176
1667824436993682700,6.6846826171875,-0.11709542572498322,0.9410432577133179,0.511612594127655
1667824437003690800,6.694690673828125,-0.18460147082805634,1.0320008993148804,0.5981388092041016
1667824437013698600,6.704698486328125,-0.21573515236377716,1.0845924615859985,0.6765899062156677
1667824437023705600,6.71470556640625,-0.21726736426353455,1.0606170892715454,0.7301044464111328
1667824437033713700,6.724713623046875,-0.2125522345304489,0.9524695873260498,0.7513929605484009
1667824437043721700,6.7347216796875,-0.21542923152446747,0.7657170295715332,0.7317346334457397
1667824437053728500,6.744728515625,-0.240177720785141,0.5223307609558105,0.6573903560638428
1667824437063736600,6.754736572265625,-0.2833886742591858,0.22619330883026123,0.5426079034805298
1667824437073745000,6.764744873046875,-0.3510465621948242,-0.0804009735584259,0.37882906198501587
1667824437083751700,6.774751708984375,-0.4445129334926605,-0.38590165972709656,0.1697884052991867
1667824437093759700,6.784759765625,-0.5573787689208984,-0.6767563819885254,-0.07949972152709961
1667824437103767600,6.794767578125,-0.7021136283874512,-0.9111787676811218,-0.3504783809185028
1667824437113775600,6.804775634765625,-0.8535820245742798,-1.0756944417953491,-0.6480098962783813
1667824437123782700,6.81478271484375,-0.9936549663543701,-1.130845546722412,-0.9439305067062378
1667824437133790700,6.824790771484375,-1.0879422426223755,-1.0593479871749878,-1.205370545387268
1667824437143798500,6.834798583984375,-1.1201605796813965,-0.892505407333374,-1.3860242366790771
1667824437153805800,6.844805908203125,-1.1148542165756226,-0.6324653029441833,-1.464827060699463
1667824437163813600,6.854813720703125,-1.049502968788147,-0.3088477551937103,-1.4179657697677612
1667824437173821700,6.86482177734375,-0.927221417427063,0.0011822987580671906,-1.2747271060943604
1667824437183829800,6.874829833984375,-0.7570827007293701,0.23738230764865875,-1.0668442249298096
1667824437193836800,6.8848369140625,-0.572306752204895,0.32536622881889343,-0.8377536535263062
1667824437203844900,6.894844970703125,-0.4142458140850067,0.28024646639823914,-0.6072182655334473
1667824437213852700,6.904852783203125,-0.30031391978263855,0.15040352940559387,-0.39341092109680176
1667824437223859500,6.914859375,-0.25061455368995667,-0.030607987195253372,-0.2251671403646469
1667824437233867500,6.924867431640625,-0.2512470483779907,-0.25222107768058777,-0.09960654377937317
1667824437243875800,6.934875732421875,-0.29381850361824036,-0.48306941986083984,-0.026750078424811363
1667824437253882600,6.944882568359375,-0.3435322642326355,-0.6911765336990356,0.0015992708504199982
1667824437263890700,6.954890625,-0.3861197233200073,-0.8707326054573059,-0.0005597095005214214
1667824437273898500,6.9648984375,-0.41222935914993286,-1.0127525329589844,-0.026639245450496674
1667824437283906800,6.97490673828125,-0.4247910976409912,-1.11423659324646,-0.07341942191123962
1667824437293913600,6.98491357421875,-0.4263908565044403,-1.1718026399612427,-0.11847265064716339
1667824437303921700,6.994921630859375,-0.4261493384838104,-1.1627479791641235,-0.15075674653053284
1667824437313929500,7.004929443359375,-0.4184299111366272,-1.1132104396820068,-0.1707184761762619
1667824437323936800,7.014936767578125,-0.4226621389389038,-1.0668749809265137,-0.17368023097515106
1667824437333944600,7.024944580078125,-0.4435562491416931,-1.012317419052124,-0.16473974287509918
1667824437343952600,7.03495263671875,-0.47546398639678955,-0.9316926002502441,-0.14000362157821655
1667824437353959700,7.044959716796875,-0.5263301134109497,-0.8472810387611389,-0.10218966752290726
1667824437363967700,7.0549677734375,-0.6072246432304382,-0.7669251561164856,-0.07188937067985535
1667824437373975800,7.064975830078125,-0.6970728039741516,-0.6943503022193909,-0.06026839464902878
1667824437383983600,7.074983642578125,-0.7671382427215576,-0.6390315294265747,-0.05284399166703224
1667824437393990700,7.08499072265625,-0.8142199516296387,-0.5764142274856567,-0.044260893017053604
1667824437403998700,7.094998779296875,-0.843268096446991,-0.49719545245170593,-0.017897380515933037
1667824437414006800,7.1050068359375,-0.8560312986373901,-0.40547993779182434,0.028307665139436722
1667824437424013600,7.115013671875,-0.859677791595459,-0.3022630214691162,0.10071908682584763
1667824437434021600,7.125021728515625,-0.8494469523429871,-0.18090225756168365,0.17775528132915497
1667824437444029700,7.13502978515625,-0.8421015739440918,-0.06851136684417725,0.25409382581710815
1667824437454037800,7.145037841796875,-0.8334697484970093,0.01534651406109333,0.31138482689857483
1667824437464044500,7.15504443359375,-0.8413418531417847,0.07871563732624054,0.34264805912971497
1667824437474052600,7.165052490234375,-0.8617238402366638,0.1239749938249588,0.3459775447845459
1667824437484060700,7.175060791015625,-0.8867517709732056,0.16001136600971222,0.32712459564208984
1667824437494067700,7.185067626953125,-0.9185611009597778,0.18187324702739716,0.29281163215637207
1667824437504075800,7.19507568359375,-0.9460194706916809,0.20209069550037384,0.2495143562555313
1667824437514083600,7.20508349609375,-0.96923828125,0.23238548636436462,0.1933099329471588
1667824437524091000,7.2150908203125,-0.9881734848022461,0.25723880529403687,0.12337809056043625
1667824437534098700,7.2250986328125,-1.0016131401062012,0.25648272037506104,0.03656570240855217
1667824437544106800,7.235106689453125,-1.0065126419067383,0.22297868132591248,-0.07352004945278168
1667824437554114600,7.245114501953125,-1.00137197971344,0.1611938774585724,-0.1903958022594452
1667824437564121600,7.25512158203125,-0.9852226972579956,0.09132391214370728,-0.2986319661140442
1667824437574129700,7.265129638671875,-0.9624713063240051,0.04250284284353256,-0.38914987444877625
1667824437584137700,7.2751376953125,-0.9322881102561951,-0.008108945563435555,-0.4581748843193054
1667824437594144500,7.28514453125,-0.9034993052482605,-0.0338372103869915,-0.5076966285705566
1667824437604152600,7.295152587890625,-0.8752971291542053,-0.03739779070019722,-0.5526484251022339
1667824437614161000,7.305160888671875,-0.8373590707778931,-0.04387592896819115,-0.60576331615448
1667824437624168700,7.315168701171875,-0.7874009609222412,-0.04748085141181946,-0.6781317591667175
1667824437634175700,7.32517578125,-0.7180716395378113,-0.017216425389051437,-0.7542440891265869
1667824437644183600,7.33518359375,-0.6229894757270813,0.02402162179350853,-0.8183813691139221
1667824437654191600,7.345191650390625,-0.49431082606315613,0.08101273328065872,-0.8424907326698303
1667824437664198700,7.35519873046875,-0.33310920000076294,0.17569787800312042,-0.8345290422439575
1667824437674206700,7.365206787109375,-0.156600221991539,0.26006630063056946,-0.790865421295166
1667824437684214500,7.375214599609375,0.03423589840531349,0.3225427269935608,-0.7206785082817078
1667824437694221800,7.385221923828125,0.23939862847328186,0.31942498683929443,-0.632186233997345
1667824437704229600,7.395229736328125,0.46182870864868164,0.23709408938884735,-0.5382342338562012
1667824437714237700,7.40523779296875,0.6807349920272827,0.06924116611480713,-0.46050217747688293
1667824437724245800,7.415245849609375,0.8902424573898315,-0.15125912427902222,-0.4026689827442169
1667824437734252800,7.425252685546875,1.0928953886032104,-0.36482787132263184,-0.3706892132759094
1667824437744260600,7.435260498046875,1.2847135066986084,-0.5338876247406006,-0.3465237319469452
1667824437754268700,7.4452685546875,1.4692871570587158,-0.6578668355941772,-0.33052611351013184
1667824437764276000,7.45527587890625,1.6344751119613647,-0.7322419285774231,-0.29376065731048584
1667824437774284000,7.465283935546875,1.7857182025909424,-0.7587252259254456,-0.23669816553592682
1667824437784292000,7.4752919921875,1.937834620475769,-0.7418684363365173,-0.15515302121639252
1667824437794300200,7.485300048828125,2.0751380920410156,-0.675778865814209,-0.03764050453901291
1667824437804307000,7.495306884765625,2.1943085193634033,-0.5853093862533569,0.11747726052999496
1667824437814315000,7.50531494140625,2.278658866882324,-0.507225751876831,0.30180370807647705
1667824437824322800,7.51532275390625,2.3110740184783936,-0.4658813178539276,0.4994681179523468
1667824437834330000,7.525330078125,2.2874741554260254,-0.46008095145225525,0.6832094788551331
1667824437844338000,7.535337890625,2.2015817165374756,-0.49858400225639343,0.8325713276863098
1667824437854346000,7.545345947265625,2.054757833480835,-0.5365082025527954,0.947035014629364
1667824437864353000,7.55535302734375,1.8585375547409058,-0.5678696632385254,1.0222852230072021
1667824437874361000,7.565361083984375,1.63136887550354,-0.5912567377090454,1.0436289310455322
1667824437884369200,7.575369140625,1.4093800783157349,-0.577174723148346,1.0221995115280151
1667824437894377000,7.585376953125,1.2050178050994873,-0.5330994129180908,0.9768913984298706
1667824437904384300,7.59538427734375,1.0155106782913208,-0.5040187835693359,0.9186090230941772
1667824437914392000,7.60539208984375,0.8440415263175964,-0.4772798717021942,0.8647285103797913
1667824437924400000,7.615400146484375,0.70722895860672,-0.44819945096969604,0.8105518817901611
1667824437934407000,7.625406982421875,0.6233140826225281,-0.41384387016296387,0.742721676826477
1667824437944415000,7.6354150390625,0.5881751179695129,-0.39759108424186707,0.6625058054924011
1667824437954423000,7.645423095703125,0.5805235505104065,-0.3888449966907501,0.5613291263580322
1667824437964431000,7.65543115234375,0.5776818990707397,-0.360278457403183,0.44187062978744507
1667824437974438000,7.66543798828125,0.5580951571464539,-0.30386045575141907,0.308360755443573
1667824437984446000,7.675446044921875,0.5034770369529724,-0.2041015923023224,0.16932934522628784
1667824437994454300,7.685454345703125,0.42169857025146484,-0.06900263577699661,0.05142800882458687
1667824438004461000,7.6954609375,0.33011916279792786,0.08535541594028473,-0.03599535673856735
1667824438014469000,7.70546923828125,0.24769221246242523,0.2450319081544876,-0.09390232712030411
1667824438024477000,7.715476806640625,0.19219321012496948,0.35882568359375,-0.14613327383995056
1667824438034484200,7.725484130859375,0.1716383993625641,0.40062370896339417,-0.1803724616765976
1667824438044492000,7.735491943359375,0.16907839477062225,0.4121890068054199,-0.20685888826847076
1667824438054500000,7.7455,0.1906191110610962,0.40205061435699463,-0.21096016466617584
1667824438064508000,7.7555078125,0.22311775386333466,0.37056708335876465,-0.19133536517620087
1667824438074515200,7.76551513671875,0.26020121574401855,0.34195780754089355,-0.1657216101884842
1667824438084523000,7.77552294921875,0.30800414085388184,0.3578557074069977,-0.13758711516857147
1667824438094531000,7.785531005859375,0.361045777797699,0.40941503643989563,-0.09672915935516357
1667824438104537900,7.795537841796875,0.41690006852149963,0.4739212393760681,-0.04415813833475113
1667824438114546200,7.805546142578125,0.4554344117641449,0.5562312602996826,0.0258204136043787
1667824438124554200,7.81555419921875,0.4873809516429901,0.6424573659896851,0.09953279793262482
1667824438134561000,7.82556103515625,0.5159124732017517,0.7019172310829163,0.16054953634738922
1667824438144569000,7.835569091796875,0.5397477149963379,0.7236060500144958,0.20513850450515747
1667824438154577000,7.845576904296875,0.5489050149917603,0.7151854038238525,0.2347203642129898
1667824438164585200,7.855585205078125,0.5562405586242676,0.6827850937843323,0.24081532657146454
1667824438174592000,7.865592041015625,0.5605471730232239,0.6497253775596619,0.23663228750228882
1667824438184600000,7.87560009765625,0.5631550550460815,0.6316778659820557,0.22539907693862915
1667824438194607900,7.88560791015625,0.5598170161247253,0.6407818794250488,0.2275458425283432
1667824438204615200,7.895615234375,0.5391007661819458,0.6725227236747742,0.24270261824131012
1667824438214623000,7.905623046875,0.505157470703125,0.706691324710846,0.2637506425380707
1667824438224631000,7.915631103515625,0.4623522460460663,0.7193951606750488,0.28304731845855713
1667824438234638800,7.925638916015625,0.41366249322891235,0.7008216977119446,0.29672130942344666
1667824438244646100,7.935646240234375,0.36100533604621887,0.6472894549369812,0.3057011365890503
1667824438254654000,7.945654052734375,0.29582446813583374,0.5719270706176758,0.2992301881313324
1667824438264662000,7.955662109375,0.20792213082313538,0.4829365611076355,0.2702082097530365
1667824438274669000,7.9656689453125,0.096753790974617,0.4042161703109741,0.23810885846614838
1667824438284677000,7.975677001953125,-0.03387422859668732,0.36414986848831177,0.212688148021698
1667824438294685200,7.985685302734375,-0.16531401872634888,0.36473149061203003,0.21424290537834167
1667824438304693000,7.99569287109375,-0.2707948684692383,0.4316684305667877,0.2718570828437805
1667824438314700000,8.005699951171875,-0.33085525035858154,0.5288096070289612,0.36316221952438354
1667824438324708000,8.0157080078125,-0.35632896423339844,0.6078996658325195,0.4636581838130951
1667824438334716200,8.025716064453125,-0.3523382246494293,0.6454272866249084,0.543208122253418
1667824438344723000,8.035722900390626,-0.33210140466690063,0.6397790312767029,0.6056223511695862
1667824438354731000,8.04573095703125,-0.31978243589401245,0.5722780227661133,0.6268885135650635
1667824438364738800,8.05573876953125,-0.33638814091682434,0.4668723940849304,0.6262863874435425
1667824438374746000,8.06574609375,-0.3871746361255646,0.3414614796638489,0.5873728394508362
1667824438384754000,8.07575390625,-0.4580095410346985,0.2085917741060257,0.5254054665565491
1667824438394762000,8.085761962890626,-0.5432823300361633,0.08755216002464294,0.4539296627044678
1667824438404770000,8.09577001953125,-0.6488324403762817,-0.030619081109762192,0.3606202006340027
1667824438414777000,8.105777099609375,-0.7594950199127197,-0.12820929288864136,0.26317915320396423
1667824438424785200,8.11578515625,-0.8485864400863647,-0.2094070017337799,0.16354350745677948
1667824438434793000,8.12579296875,-0.9002331495285034,-0.2899244725704193,0.057186439633369446
1667824438444800300,8.13580029296875,-0.9195080995559692,-0.3956427574157715,-0.06732466071844101
1667824438454808000,8.14580810546875,-0.9115310907363892,-0.5164645314216614,-0.22606982290744781
1667824438464816000,8.155816162109375,-0.8815153241157532,-0.6421000957489014,-0.42992737889289856
1667824438474823000,8.165822998046876,-0.8236019611358643,-0.7721089124679565,-0.6778215765953064
1667824438484831000,8.1758310546875,-0.7499554753303528,-0.888526201248169,-0.94838947057724
1667824438494839000,8.185839111328125,-0.6764429211616516,-0.9932424426078796,-1.214095115661621
1667824438504847000,8.19584716796875,-0.6138448119163513,-1.074186086654663,-1.4364134073257446
1667824438514854000,8.20585400390625,-0.565215528011322,-1.1056393384933472,-1.5901976823806763
1667824438524862000,8.215862060546876,-0.5255929231643677,-1.0709744691848755,-1.6449813842773438
1667824438534870300,8.225870361328125,-0.47359973192214966,-0.9506931304931641,-1.5827126502990723
1667824438544877000,8.235876953125,-0.4175484776496887,-0.7668920159339905,-1.4021421670913696
1667824438554885000,8.245885009765624,-0.3484482169151306,-0.5590572953224182,-1.1308491230010986
1667824438564893000,8.255892822265626,-0.2643340229988098,-0.36687588691711426,-0.8043462634086609
1667824438574901000,8.26590087890625,-0.16697604954242706,-0.19407054781913757,-0.4581044614315033
1667824438584908000,8.275907958984375,-0.06376802176237106,-0.10119948536157608,-0.14138595759868622
1667824438594916000,8.285916015625,0.031071940436959267,-0.07640412449836731,0.12873581051826477
1667824438604924000,8.295923828125,0.1140114963054657,-0.08257240802049637,0.34321555495262146
1667824438614931200,8.30593115234375,0.18288110196590424,-0.10979311168193817,0.501100480556488
1667824438624939000,8.31593896484375,0.22981970012187958,-0.15112417936325073,0.6023136377334595
1667824438634947000,8.325947021484374,0.2426859587430954,-0.2044294774532318,0.6614536643028259
1667824438644953900,8.335953857421876,0.23261313140392303,-0.25250017642974854,0.6913115978240967
1667824438654962200,8.345962158203125,0.20132258534431458,-0.28281041979789734,0.6876998543739319
1667824438664970200,8.35597021484375,0.15545444190502167,-0.29903003573417664,0.6476029753684998
1667824438674978000,8.36597802734375,0.09154336899518967,-0.2944858968257904,0.571896493434906
1667824438684985000,8.375985107421876,0.024738334119319916,-0.27079784870147705,0.471576064825058
1667824438694993000,8.385992919921875,-0.0383671298623085,-0.24016299843788147,0.3534590005874634
1667824438705001200,8.396001220703125,-0.09797751158475876,-0.1876535266637802,0.238520085811615
1667824438715008000,8.406008056640625,-0.1550258994102478,-0.12780964374542236,0.1485782116651535
1667824438725016000,8.41601611328125,-0.20986101031303406,-0.06338052451610565,0.09720009565353394
1667824438735023900,8.42602392578125,-0.24872799217700958,0.0017990142805501819,0.08786758035421371
1667824438745031200,8.43603125,-0.2772616446018219,0.0539545863866806,0.12426815927028656
1667824438755039000,8.4460390625,-0.3299504220485687,0.1012728363275528,0.1975112110376358
1667824438765047000,8.456047119140624,-0.42414391040802,0.14857757091522217,0.2923787236213684
1667824438775054600,8.4660546875,-0.5601031184196472,0.16988764703273773,0.3933767080307007
1667824438785061600,8.4760615234375,-0.7283511757850647,0.15031859278678894,0.4713962972164154
1667824438795069700,8.486069580078125,-0.913696825504303,0.10078592598438263,0.5074241161346436
1667824438805077500,8.496077392578124,-1.0786744356155396,0.07365065068006516,0.5009385943412781
1667824438815084800,8.506084716796876,-1.2123581171035767,0.07792555540800095,0.47298550605773926
1667824438825092600,8.516092529296875,-1.3052828311920166,0.09114616364240646,0.4236080050468445
1667824438835100700,8.5261005859375,-1.367943286895752,0.11842253059148788,0.36330047249794006
1667824438845107500,8.536107421875,-1.4107921123504639,0.15125618875026703,0.2865740656852722
1667824438855115800,8.54611572265625,-1.4355297088623047,0.1861015260219574,0.19894646108150482
1667824438865123800,8.556123779296875,-1.449687123298645,0.19367671012878418,0.1057426929473877
1667824438875131600,8.566131591796875,-1.473596453666687,0.18449972569942474,0.0038552051410079002
1667824438885138700,8.576138671875,-1.5166687965393066,0.1835314780473709,-0.10919492691755295
1667824438895146500,8.586146484375,-1.5713603496551514,0.19049005210399628,-0.22825899720191956
1667824438905154800,8.59615478515625,-1.6265124082565308,0.23086334764957428,-0.3250006437301636
1667824438915161600,8.60616162109375,-1.6635500192642212,0.27793043851852417,-0.39915797114372253
1667824438925169700,8.616169677734375,-1.6763392686843872,0.324661523103714,-0.44080400466918945
1667824438935177500,8.626177490234374,-1.6639443635940552,0.35618215799331665,-0.4544367492198944
1667824438945184800,8.636184814453125,-1.6373971700668335,0.3706316649913788,-0.461074560880661
1667824438955192600,8.646192626953125,-1.5880110263824463,0.3711523115634918,-0.48342832922935486
1667824438965200600,8.65620068359375,-1.5120662450790405,0.36668843030929565,-0.5302995443344116
1667824438975207700,8.666207763671874,-1.4094312191009521,0.3750901520252228,-0.5898206830024719
1667824438985215700,8.6762158203125,-1.2916254997253418,0.3756626546382904,-0.6589034795761108
1667824438995223800,8.686223876953125,-1.1765398979187012,0.35295069217681885,-0.718216061592102
1667824439005231600,8.696231689453125,-1.0521392822265625,0.32009652256965637,-0.7667111754417419
1667824439015238700,8.70623876953125,-0.9196811318397522,0.28212490677833557,-0.7986411452293396
1667824439025246700,8.716246826171876,-0.775037407875061,0.22756877541542053,-0.8073261976242065
1667824439035254800,8.7262548828125,-0.6277294158935547,0.15743282437324524,-0.7929016947746277
1667824439045261600,8.736261474609375,-0.47486305236816406,0.052035052329301834,-0.7645914554595947
1667824439055269600,8.74626953125,-0.31000834703445435,-0.1085951030254364,-0.7418435215950012
1667824439065277700,8.756277587890626,-0.11926914751529694,-0.32391172647476196,-0.731147289276123
1667824439075284700,8.76628466796875,0.0793273001909256,-0.6036568880081177,-0.7614673972129822
1667824439085292500,8.77629248046875,0.27455267310142517,-0.8990277051925659,-0.8425753116607666
1667824439095300600,8.786300537109375,0.44321250915527344,-1.1378538608551025,-0.9602013230323792
1667824439105308700,8.79630859375,0.5853739380836487,-1.2855924367904663,-1.0731828212738037
1667824439115315700,8.806315673828125,0.6898119449615479,-1.3124216794967651,-1.1404228210449219
1667824439125323800,8.81632373046875,0.7537143230438232,-1.1956504583358765,-1.1223500967025757
1667824439135331600,8.82633154296875,0.7701428532600403,-0.9294973611831665,-0.9895899295806885
1667824439145339000,8.8363388671875,0.7428140044212341,-0.5776102542877197,-0.7707122564315796
1667824439155346700,8.8463466796875,0.7170354127883911,-0.21759748458862305,-0.4855686128139496
1667824439165354800,8.856354736328125,0.7349628210067749,0.07406660914421082,-0.18672120571136475
1667824439175362600,8.866362548828125,0.8033485412597656,0.24236346781253815,0.08669836074113846
1667824439185369900,8.876369873046874,0.8849315643310547,0.29795950651168823,0.30681750178337097
1667824439195377700,8.886377685546876,0.9658194780349731,0.27959513664245605,0.46034154295921326
1667824439205385700,8.8963857421875,1.0290172100067139,0.17094455659389496,0.5530446171760559
1667824439215392500,8.906392578125,1.059326171875,0.029510194435715675,0.6123545169830322
1667824439225400600,8.916400634765624,1.0543569326400757,-0.09872785955667496,0.6570290923118591
1667824439235409000,8.926408935546876,1.0037835836410522,-0.21272234618663788,0.7011318206787109
1667824439245415700,8.936415771484375,0.9079316854476929,-0.2647601366043091,0.7661858201026917
1667824439255423700,8.946423828125,0.7926194667816162,-0.26307594776153564,0.8315813541412354
1667824439265431600,8.956431640625,0.6768025159835815,-0.22961615025997162,0.8780587315559387
1667824439275439600,8.966439697265624,0.5808786749839783,-0.17800594866275787,0.8851523399353027
1667824439285446700,8.97644677734375,0.5161817669868469,-0.11213783919811249,0.8531793355941772
1667824439295454700,8.986454833984375,0.48693177103996277,-0.056990962475538254,0.7846178412437439
1667824439305462500,8.996462646484375,0.4851115345954895,-0.01644367165863514,0.6879084706306458
1667824439315469800,9.0064697265625,0.49614423513412476,0.011509930714964867,0.590224027633667
1667824439325477600,9.0164775390625,0.5061601996421814,0.028524409979581833,0.4935813248157501
1667824439335485700,9.026485595703125,0.5089373588562012,0.04981957748532295,0.40886083245277405
1667824439345492500,9.036492431640625,0.4976043105125427,0.05890415236353874,0.3383384644985199
1667824439355500800,9.046500732421874,0.47674402594566345,0.08266274631023407,0.28000378608703613
1667824439365508600,9.056508544921876,0.4530015289783478,0.12171021103858948,0.239198699593544
1667824439375516700,9.0665166015625,0.4441760778427124,0.17807388305664062,0.22401069104671478
1667824439385523500,9.0765234375,0.4517627954483032,0.2644578218460083,0.23530995845794678
1667824439395531800,9.08653173828125,0.4779307544231415,0.35775503516197205,0.26591235399246216
1667824439405539800,9.096539794921876,0.5289343595504761,0.43649744987487793,0.3191588819026947
1667824439415546600,9.106546630859375,0.6036812663078308,0.4650643765926361,0.36539003252983093
1667824439425554700,9.1165546875,0.6979333162307739,0.4493912160396576,0.4029993414878845
1667824439435562500,9.1265625,0.7963610887527466,0.3923841416835785,0.41607171297073364
1667824439445569800,9.13656982421875,0.8854392170906067,0.32270950078964233,0.4224049746990204
1667824439455577600,9.14657763671875,0.9426202178001404,0.25735580921173096,0.4233695864677429
1667824439465585700,9.156585693359375,0.9554484486579895,0.20616792142391205,0.4372529983520508
1667824439475592700,9.1665927734375,0.9351343512535095,0.17092151939868927,0.45257043838500977
1667824439485600800,9.176600830078126,0.9010062217712402,0.17099089920520782,0.4719740152359009
1667824439495608600,9.186608642578125,0.8730350136756897,0.19767390191555023,0.48260560631752014
1667824439505616600,9.19661669921875,0.8542712330818176,0.24076269567012787,0.48562297224998474
1667824439515623700,9.206623779296875,0.8351289629936218,0.2852851450443268,0.4744259715080261
1667824439525631700,9.2166318359375,0.8024585843086243,0.32146820425987244,0.4521045386791229
1667824439535639800,9.226639892578126,0.7584381103515625,0.32628321647644043,0.4171295166015625
1667824439545646600,9.236646484375,0.696840763092041,0.2887788712978363,0.3618171811103821
1667824439555654700,9.246654541015625,0.6434015035629272,0.2366293966770172,0.29663658142089844
1667824439565662700,9.256662841796874,0.5772810578346252,0.18618859350681305,0.23269420862197876
1667824439575670800,9.2666708984375,0.4862898886203766,0.16532592475414276,0.1779041886329651
1667824439585677600,9.276677490234375,0.3510555624961853,0.18824079632759094,0.12764348089694977
1667824439595685600,9.286685546875,0.1926259845495224,0.27292850613594055,0.09814684838056564
1667824439605693700,9.296693603515624,0.0484611913561821,0.41268476843833923,0.09007788449525833
1667824439615700700,9.30670068359375,-0.04056748375296593,0.5431429147720337,0.11069367825984955
1667824439625708500,9.31670849609375,-0.06357307732105255,0.6831825375556946,0.16115427017211914
1667824439635716600,9.326716552734375,-0.03817025199532509,0.8090347647666931,0.23579388856887817
1667824439645723600,9.3367236328125,0.0031628101132810116,0.880519449710846,0.3202248215675354
1667824439655731700,9.346731689453126,0.046839985996484756,0.9138156175613403,0.415000855922699
1667824439665739800,9.35673974609375,0.08201605826616287,0.9084545969963074,0.5103030800819397
1667824439675747600,9.36674755859375,0.09718835353851318,0.8643822073936462,0.5948600769042969
1667824439685755000,9.3767548828125,0.08452373743057251,0.7746121287345886,0.6630909442901611
1667824439695762700,9.3867626953125,0.035213444381952286,0.6425656676292419,0.7071380615234375
1667824439705770800,9.396770751953126,-0.030809028074145317,0.494399756193161,0.7164345979690552
1667824439715777500,9.406777587890625,-0.10779941082000732,0.3361821472644806,0.6923093199729919
1667824439725785900,9.416785888671875,-0.17513902485370636,0.16408215463161469,0.6226667761802673
1667824439735793700,9.426793701171874,-0.2207818627357483,0.0192184429615736,0.5083566904067993
1667824439745800700,9.43680078125,-0.25400349497795105,-0.1163114681839943,0.3614010810852051
1667824439755808500,9.44680859375,-0.27146875858306885,-0.26087450981140137,0.18241696059703827
1667824439765817600,9.456817626953125,-0.27414312958717346,-0.4153526723384857,-0.032070159912109375
1667824439775824600,9.46682470703125,-0.26718562841415405,-0.5470966100692749,-0.26635536551475525
1667824439785832700,9.476832763671876,-0.27242612838745117,-0.6480610966682434,-0.5092127323150635
1667824439795840500,9.486840576171875,-0.29910194873809814,-0.7089699506759644,-0.7432071566581726
1667824439805848600,9.4968486328125,-0.33605119585990906,-0.7106717228889465,-0.9460408687591553
1667824439815855600,9.506855712890625,-0.3595786392688751,-0.6751685738563538,-1.1122255325317383
1667824439825863700,9.51686376953125,-0.3620963394641876,-0.593209981918335,-1.2245779037475586
1667824439835871500,9.52687158203125,-0.33626633882522583,-0.46590423583984375,-1.2532830238342285
1667824439845878500,9.53687841796875,-0.2888109087944031,-0.33967599272727966,-1.2018057107925415
1667824439855886300,9.54688623046875,-0.22485454380512238,-0.2389022558927536,-1.064071536064148
1667824439865894700,9.556894775390624,-0.14864860475063324,-0.16557510197162628,-0.8637111783027649
1667824439875901400,9.5669013671875,-0.08112841844558716,-0.13719752430915833,-0.6379923224449158
1667824439885909500,9.576909423828125,-0.02704666182398796,-0.1854088455438614,-0.43761584162712097
1667824439895917600,9.58691748046875,0.011528161354362965,-0.30946874618530273,-0.29129883646965027
1667824439905925600,9.596925537109374,0.021775301545858383,-0.4929410219192505,-0.2111276090145111
1667824439915932700,9.6069326171875,0.008382530882954597,-0.667974591255188,-0.19729061424732208
1667824439925940500,9.6169404296875,-0.010684540495276451,-0.8203125596046448,-0.24097281694412231
1667824439935948500,9.626948486328125,-0.02855408377945423,-0.9537329077720642,-0.3145487606525421
1667824439945955600,9.63695556640625,-0.0688837319612503,-1.0388771295547485,-0.3817533254623413
1667824439955963600,9.646963623046876,-0.13203048706054688,-1.062241554260254,-0.4280771315097809
1667824439965971500,9.656971435546875,-0.2115432322025299,-1.0245261192321777,-0.44668567180633545
1667824439975978500,9.666978515625,-0.28552475571632385,-0.9554375410079956,-0.4363054931163788
1667824439985986600,9.676986572265625,-0.32016074657440186,-0.861003041267395,-0.3928123712539673
1667824439995994600,9.68699462890625,-0.3264274299144745,-0.7502299547195435,-0.3203118145465851
1667824440006002400,9.69700244140625,-0.3272766172885895,-0.6243646144866943,-0.22248700261116028
1667824440016009500,9.707009521484375,-0.3313661813735962,-0.4690794050693512,-0.08880804479122162
1667824440026017500,9.717017578125,-0.35157299041748047,-0.28948670625686646,0.05692034959793091
1667824440036025600,9.727025634765624,-0.3861975371837616,-0.10803808271884918,0.21008673310279846
1667824440046032400,9.737032470703125,-0.4329739212989807,0.04667410999536514,0.352632075548172
1667824440056040400,9.74704052734375,-0.48531728982925415,0.18103323876857758,0.4739590287208557
1667824440066048500,9.757048583984375,-0.5409621000289917,0.2810499668121338,0.5773872137069702
1667824440076055600,9.7670556640625,-0.5991982817649841,0.3572557866573334,0.6700462698936462
1667824440086063600,9.777063720703126,-0.6785848140716553,0.4121125042438507,0.7395588159561157
1667824440096071400,9.787071533203125,-0.7706652283668518,0.451317697763443,0.792949378490448
1667824440106079500,9.79707958984375,-0.8752776980400085,0.4929867684841156,0.8324676156044006
1667824440116086500,9.80708642578125,-0.9903009533882141,0.519810676574707,0.8593074679374695
1667824440126094600,9.817094482421876,-1.112239956855774,0.5385637879371643,0.8720220923423767
1667824440136102400,9.827102294921875,-1.2372300624847412,0.5310105085372925,0.8685802221298218
1667824440146109700,9.837109619140625,-1.3542110919952393,0.4744870066642761,0.815645694732666
1667824440156117500,9.847117431640624,-1.4675213098526,0.3876628875732422,0.7059516906738281
1667824440166125600,9.85712548828125,-1.5650731325149536,0.2700212299823761,0.5406891703605652
1667824440176132400,9.86713232421875,-1.642369031906128,0.15099099278450012,0.33011728525161743
1667824440186140400,9.877140380859375,-1.7036868333816528,0.027218474075198174,0.09647376090288162
1667824440196148700,9.887148681640625,-1.7411695718765259,-0.08720210939645767,-0.13409020006656647
1667824440206155500,9.897155517578126,-1.771807074546814,-0.17445723712444305,-0.3345680832862854
1667824440216163600,9.90716357421875,-1.8045570850372314,-0.22846508026123047,-0.4866308569908142
1667824440226171400,9.91717138671875,-1.8517061471939087,-0.2331349104642868,-0.5994248986244202
1667824440236179700,9.9271796875,-1.8958134651184082,-0.19003510475158691,-0.6720495223999023
1667824440246186500,9.9371865234375,-1.8995944261550903,-0.1067969799041748,-0.7236366271972656
1667824440256194600,9.947194580078126,-1.8386154174804688,-0.025739144533872604,-0.7515292167663574
1667824440266202400,9.957202392578125,-1.7041133642196655,0.05035984888672829,-0.7663366198539734
1667824440276209700,9.967209716796875,-1.517372965812683,0.13387951254844666,-0.7612091898918152
1667824440286217500,9.977217529296874,-1.2961907386779785,0.20417176187038422,-0.7411221265792847
1667824440296225500,9.9872255859375,-1.0501329898834229,0.287139356136322,-0.7159752249717712
1667824440306232600,9.997232666015625,-0.7909297347068787,0.3610661029815674,-0.6880571246147156
1667824440316240600,10.00724072265625,-0.5248908400535583,0.3624051511287689,-0.66358482837677
1667824440326248700,10.017248779296875,-0.2685321569442749,0.23558959364891052,-0.6670823693275452
1667824440336256500,10.027256591796874,-0.016709504649043083,-0.010270774364471436,-0.7045692801475525
1667824440346263600,10.037263671875,0.228933185338974,-0.3844667375087738,-0.7671056985855103
1667824440356271600,10.047271728515625,0.4777219593524933,-0.8000569939613342,-0.8624995946884155
1667824440366279700,10.05727978515625,0.7326934337615967,-1.1422052383422852,-0.9745471477508545
1667824440376286500,10.067286376953126,1.0053833723068237,-1.382960557937622,-1.068890929222107
1667824440386294500,10.07729443359375,1.2687158584594727,-1.4842585325241089,-1.1059966087341309
1667824440396302300,10.08730224609375,1.51533043384552,-1.425431251525879,-1.0500569343566895
1667824440406309600,10.0973095703125,1.7271339893341064,-1.230741024017334,-0.8962727189064026
1667824440416317400,10.1073173828125,1.89773690700531,-0.9610409140586853,-0.6791044473648071
1667824440426325500,10.117325439453126,2.0450215339660645,-0.7117974758148193,-0.44180360436439514
1667824440436333600,10.12733349609375,2.1769211292266846,-0.5466820001602173,-0.22758454084396362
1667824440446340600,10.137340576171875,2.3031318187713623,-0.45769003033638,-0.047534264624118805
1667824440456348700,10.1473486328125,2.4096217155456543,-0.45584872364997864,0.1043066680431366
1667824440466356500,10.1573564453125,2.4709062576293945,-0.49716076254844666,0.23574165999889374
1667824440476363800,10.16736376953125,2.4730076789855957,-0.6153512597084045,0.3574981689453125
1667824440486371600,10.17737158203125,2.3967666625976562,-0.7698161005973816,0.4825199544429779
1667824440496379600,10.187379638671874,2.2238545417785645,-0.9226047992706299,0.604485034942627
1667824440506386400,10.197386474609376,1.952439308166504,-1.0380154848098755,0.7162912487983704
1667824440516394500,10.20739453125,1.6200892925262451,-1.0516830682754517,0.7866450548171997
1667824440526402600,10.217402587890625,1.2747619152069092,-1.002507209777832,0.7990533709526062
1667824440536410600,10.22741064453125,0.9394089579582214,-0.925533652305603,0.7310484647750854
1667824440546417400,10.23741748046875,0.6484777331352234,-0.8153647184371948,0.5940424203872681
1667824440556425500,10.247425537109375,0.43624427914619446,-0.6999949812889099,0.40609410405158997
1667824440566433500,10.25743359375,0.3180319666862488,-0.5681108832359314,0.18633012473583221
1667824440576440600,10.267440673828125,0.2736471891403198,-0.4491612911224365,-0.03845425695180893
1667824440586448400,10.277448486328124,0.2628573179244995,-0.33641132712364197,-0.24138620495796204
1667824440596456400,10.28745654296875,0.25086989998817444,-0.22175849974155426,-0.3971047103404999
1667824440606463500,10.29746337890625,0.2183368057012558,-0.1013195812702179,-0.48617666959762573
1667824440616471600,10.307471435546875,0.14644557237625122,-0.010422700084745884,-0.5118135809898376
1667824440626479600,10.317479736328124,0.0408870205283165,0.041024744510650635,-0.470265656709671
1667824440636486700,10.327486572265625,-0.08407808095216751,0.0671255812048912,-0.3552591800689697
1667824440646494700,10.33749462890625,-0.2070998251438141,0.10747469961643219,-0.1955018937587738
1667824440656502500,10.34750244140625,-0.3067140579223633,0.14489983022212982,-0.033656008541584015
1667824440666510600,10.357510498046874,-0.3584635853767395,0.15256047248840332,0.0956476554274559
1667824440676517400,10.367517333984376,-0.35521399974823,0.1381482481956482,0.1841737926006317
1667824440686525700,10.377525634765625,-0.3015744686126709,0.10734852403402328,0.22716839611530304
1667824440696533500,10.387533447265625,-0.21840982139110565,0.10387416929006577,0.22626745700836182
1667824440706540500,10.39754052734375,-0.12144194543361664,0.14132513105869293,0.19194798171520233
1667824440716548400,10.40754833984375,-0.0277577992528677,0.2370724231004715,0.16188327968120575
1667824440726556400,10.417556396484375,0.0647069662809372,0.4050292372703552,0.14688295125961304
1667824440736563500,10.4275634765625,0.14467449486255646,0.6339694857597351,0.16864657402038574
1667824440746571500,10.437571533203124,0.2021196335554123,0.8763951063156128,0.22644640505313873
1667824440756579600,10.44757958984375,0.24894891679286957,1.0786843299865723,0.30967020988464355
1667824440766587000,10.4575869140625,0.29649263620376587,1.2111151218414307,0.39497292041778564
1667824440776593700,10.46759375,0.348082572221756,1.2554352283477783,0.46746230125427246
1667824440786601700,10.477601806640624,0.39620473980903625,1.2289570569992065,0.5223073959350586
1667824440796609500,10.487609619140626,0.4316202402114868,1.1479671001434326,0.5616322159767151
1667824440806616800,10.497616943359375,0.447010338306427,1.0415400266647339,0.5898364782333374
1667824440816624600,10.507624755859375,0.44395941495895386,0.9244399666786194,0.5954861044883728
1667824440826632700,10.5176328125,0.42266324162483215,0.8133853077888489,0.5828666687011719
1667824440836639700,10.5276396484375,0.3910837471485138,0.7408943176269531,0.5456138253211975
1667824440846647800,10.537647705078125,0.35254916548728943,0.69542396068573,0.49700674414634705
1667824440856655600,10.547655517578125,0.29688510298728943,0.6806695461273193,0.4494471848011017
1667824440866662700,10.55766259765625,0.22553704679012299,0.7102916836738586,0.41986942291259766
1667824440876670700,10.567670654296874,0.15343382954597473,0.7802888751029968,0.4146070182323456
1667824440886678800,10.5776787109375,0.08562086522579193,0.8566957712173462,0.4360088109970093
1667824440896686600,10.5876865234375,0.03784162178635597,0.9195958971977234,0.46714890003204346
1667824440906693600,10.597693603515625,0.012328246608376503,0.9698118567466736,0.5112372040748596
1667824440916701400,10.607701416015624,0.006209367886185646,0.9998877644538879,0.5651273131370544
1667824440926709800,10.617709716796876,0.009051447734236717,0.9790867567062378,0.6068678498268127
1667824440936716500,10.627716552734375,0.007079910021275282,0.9079409837722778,0.6280205249786377
1667824440946724600,10.637724609375,-0.004431849345564842,0.7853810787200928,0.626746416091919
1667824440956732700,10.647732666015624,-0.033821430057287216,0.5932449698448181,0.5919516682624817
1667824440966739700,10.65773974609375,-0.07175961136817932,0.3363266587257385,0.5204131603240967
1667824440976747800,10.667747802734375,-0.13009534776210785,0.06735990941524506,0.42503973841667175
1667824440986755600,10.677755615234375,-0.20002354681491852,-0.19750455021858215,0.2975548803806305
1667824440996763600,10.687763671875,-0.27620649337768555,-0.4517568051815033,0.1496221274137497
1667824441006770700,10.697770751953126,-0.3580700755119324,-0.7251423001289368,-0.03227918595075607
1667824441016778800,10.70777880859375,-0.4346729815006256,-1.01568603515625,-0.271319717168808
1667824441026786600,10.71778662109375,-0.48761633038520813,-1.3007744550704956,-0.5727182030677795
1667824441036793600,10.727793701171874,-0.5077743530273438,-1.5038338899612427,-0.9265950322151184
1667824441046801700,10.7378017578125,-0.4821586608886719,-1.603601336479187,-1.2921067476272583
1667824441056809700,10.747809814453126,-0.4280672073364258,-1.615702509880066,-1.619391918182373
1667824441066816500,10.75781640625,-0.36949729919433594,-1.5075888633728027,-1.8772419691085815
1667824441076824600,10.767824462890625,-0.30105113983154297,-1.2656021118164062,-2.031489372253418
1667824441086832600,10.77783251953125,-0.21088819205760956,-0.9511266350746155,-2.0706632137298584
1667824441096839700,10.787839599609375,-0.10342299938201904,-0.6663572192192078,-1.9838151931762695
1667824441106847700,10.79784765625,0.026103036478161812,-0.46679455041885376,-1.7843273878097534
1667824441116855600,10.80785546875,0.16773207485675812,-0.3428899347782135,-1.504395604133606
1667824441126863600,10.817863525390624,0.3102707862854004,-0.3124638497829437,-1.1950932741165161
1667824441136870700,10.82787060546875,0.43154075741767883,-0.3568728566169739,-0.897996723651886
1667824441146878700,10.837878662109375,0.53251051902771,-0.4614124894142151,-0.6627047061920166
1667824441156886500,10.847886474609375,0.6002621650695801,-0.566097617149353,-0.5019397735595703
1667824441166893800,10.857893798828124,0.6357905864715576,-0.6486464738845825,-0.39873990416526794
1667824441176901600,10.867901611328126,0.6360196471214294,-0.7030758857727051,-0.31605249643325806
1667824441186909700,10.87790966796875,0.613540768623352,-0.7146051526069641,-0.23632143437862396
1667824441196916500,10.88791650390625,0.5730862617492676,-0.7210217714309692,-0.1482304483652115
1667824441206924800,10.8979248046875,0.5239782333374023,-0.698905885219574,-0.050938867032527924
1667824441216932900,10.907932861328124,0.4638403356075287,-0.6337156891822815,0.033470287919044495
1667824441226940700,10.917940673828125,0.3808230757713318,-0.5367929339408875,0.11098270863294601
1667824441236947700,10.92794775390625,0.27831321954727173,-0.4001556932926178,0.1771864891052246
1667824441246955500,10.93795556640625,0.1420111209154129,-0.24129270017147064,0.2499212920665741
1667824441256963800,10.9479638671875,-0.0019609672017395496,-0.09633046388626099,0.3159162700176239
1667824441266970600,10.957970703125,-0.1319943368434906,0.03045748919248581,0.37464436888694763
1667824441276978700,10.967978759765625,-0.2359047532081604,0.11860758811235428,0.4262641668319702
1667824441286986500,10.977986572265625,-0.3168925940990448,0.18767774105072021,0.47218409180641174
1667824441296993800,10.987993896484374,-0.39054736495018005,0.2242932766675949,0.5107096433639526
1667824441307001600,10.998001708984376,-0.47392281889915466,0.23308433592319489,0.5351738929748535
1667824441317009700,11.008009765625,-0.5701907873153687,0.21180355548858643,0.5496942400932312
1667824441327016700,11.0180166015625,-0.6736010909080505,0.1873520165681839,0.5577639937400818
1667824441337024800,11.028024658203124,-0.7649872303009033,0.17969143390655518,0.5551143884658813
1667824441347032800,11.03803271484375,-0.8430631756782532,0.16686147451400757,0.5492950081825256
1667824441357040600,11.04804052734375,-0.8983823657035828,0.17575563490390778,0.5435830354690552
1667824441367047700,11.058047607421875,-0.9320992827415466,0.2071690410375595,0.5359153747558594
1667824441377055700,11.0680556640625,-0.9505419135093689,0.22702157497406006,0.5169318318367004
1667824441387063800,11.078063720703126,-0.9616283774375916,0.22006043791770935,0.4642058312892914
1667824441397070600,11.088070556640625,-0.9771623015403748,0.19277875125408173,0.37097814679145813
1667824441407078700,11.09807861328125,-1.0023349523544312,0.15932640433311462,0.2427094280719757
1667824441417086700,11.108086669921875,-1.041738748550415,0.13168305158615112,0.07862542569637299
1667824441427093800,11.11809375,-1.087886929512024,0.11667885631322861,-0.10403285175561905
1667824441437101600,11.1281015625,-1.1378997564315796,0.09933342784643173,-0.30211156606674194
1667824441447109600,11.138109619140625,-1.2035350799560547,0.07822789251804352,-0.5081911683082581
1667824441457117400,11.148117431640625,-1.2475416660308838,0.08182263374328613,-0.7052986025810242
1667824441467124700,11.158124755859374,-1.281180739402771,0.11580832302570343,-0.8680092096328735
1667824441477132500,11.168132568359376,-1.2961474657058716,0.18945883214473724,-0.969511866569519
1667824441487140600,11.178140625,-1.2815412282943726,0.31620755791664124,-1.0098025798797607
1667824441497147600,11.188147705078125,-1.2330992221832275,0.4615647494792938,-0.992454469203949
1667824441507155700,11.19815576171875,-1.1418529748916626,0.6004831194877625,-0.9458202719688416
1667824441517163800,11.208163818359376,-1.0131652355194092,0.6961084008216858,-0.8884230256080627
1667824441527170600,11.218170654296875,-0.8502175211906433,0.735042154788971,-0.8340250253677368
1667824441537179000,11.228178955078125,-0.659187376499176,0.7127808332443237,-0.7964257001876831
1667824441547186700,11.238186767578124,-0.46315109729766846,0.6367084980010986,-0.7735728621482849
1667824441557193700,11.24819384765625,-0.2697177231311798,0.5388618111610413,-0.7514971494674683
1667824441567201500,11.258201416015625,-0.08320324122905731,0.4144045412540436,-0.7327095866203308
1667824441577209600,11.268209716796875,0.09998389333486557,0.2766354978084564,-0.7103936076164246
1667824441587217700,11.2782177734375,0.2887175381183624,0.12096265703439713,-0.6683622002601624
1667824441597224700,11.288224609375,0.4914914071559906,-0.04487025365233421,-0.6070975065231323
1667824441607232500,11.298232421875,0.7128332853317261,-0.19572317600250244,-0.5141390562057495
1667824441617240600,11.308240478515625,0.9430036544799805,-0.32313278317451477,-0.4002654552459717
1667824441627247600,11.31824755859375,1.1708441972732544,-0.42254769802093506,-0.2714644968509674
1667824441637255700,11.328255615234376,1.3852180242538452,-0.4882393777370453,-0.12360686808824539
1667824441647263700,11.338263671875,1.5801984071731567,-0.5420579314231873,0.02577335201203823
1667824441657270800,11.348270751953125,1.7332603931427002,-0.5726795196533203,0.17638230323791504
1667824441667278800,11.35827880859375,1.8470157384872437,-0.604856550693512,0.3110613226890564
1667824441677286700,11.36828662109375,1.927992343902588,-0.6374272704124451,0.41104331612586975
1667824441687293700,11.378293701171875,1.9640288352966309,-0.6288626194000244,0.485297292470932
1667824441697301500,11.388301513671875,1.9506478309631348,-0.5702629089355469,0.5481463074684143
1667824441707309800,11.398309814453125,1.871990442276001,-0.49758562445640564,0.6066281795501709
1667824441717317600,11.408317626953124,1.7282378673553467,-0.40241995453834534,0.6667079925537109
1667824441727324700,11.41832470703125,1.5456836223602295,-0.28670692443847656,0.7137622237205505
1667824441737332500,11.42833251953125,1.3618803024291992,-0.1669783890247345,0.7489066123962402
1667824441747340800,11.4383408203125,1.2139101028442383,-0.05895038694143295,0.7648535966873169
1667824441757347600,11.44834765625,1.1078449487686157,0.03404320031404495,0.7710643410682678
1667824441767356200,11.458356201171876,1.045725703239441,0.08777410537004471,0.7530363202095032
1667824441777364000,11.468364013671875,1.0112709999084473,0.09464612603187561,0.719588577747345
1667824441787371300,11.478371337890625,0.989875078201294,0.06359638273715973,0.6657280325889587
1667824441797379000,11.488379150390625,0.9718641042709351,0.02286306768655777,0.6172499656677246
1667824441807387100,11.49838720703125,0.9477341175079346,-0.030995193868875504,0.5610241889953613
1667824441817394000,11.508393798828125,0.8818235397338867,-0.0860816091299057,0.5090025067329407
1667824441827402200,11.51840234375,0.7743394374847412,-0.12455196678638458,0.46067187190055847
1667824441837410000,11.52841015625,0.6451891660690308,-0.13145995140075684,0.4156327545642853
1667824441847418000,11.538418212890624,0.5006999373435974,-0.09265860170125961,0.372058629989624
1667824441857425000,11.5484248046875,0.3486874997615814,-0.0035518924705684185,0.34743398427963257
1667824441867433000,11.558432861328125,0.206125408411026,0.12836375832557678,0.33776581287384033
1667824441877441300,11.568441162109375,0.09908897429704666,0.2612996995449066,0.34015733003616333
1667824441887448000,11.578447998046874,0.048500269651412964,0.3544917404651642,0.3403514325618744
1667824441897456000,11.5884560546875,0.048439815640449524,0.3852807879447937,0.3228134512901306
1667824441907464000,11.5984638671875,0.07809251546859741,0.38124167919158936,0.30228227376937866
1667824441917471200,11.60847119140625,0.1384650468826294,0.35183531045913696,0.2840300500392914
1667824441927479000,11.61847900390625,0.1864611804485321,0.30469176173210144,0.2613447308540344
1667824441937487000,11.628487060546876,0.20382259786128998,0.2982402741909027,0.23711822926998138
1667824441947494100,11.638494140625,0.18487142026424408,0.34084317088127136,0.22951075434684753
1667824441957502200,11.648502197265625,0.13399092853069305,0.4338761866092682,0.24623727798461914
1667824441967510000,11.658510009765624,0.07882435619831085,0.5697687864303589,0.3000645339488983
1667824441977518000,11.66851806640625,0.033704545348882675,0.7053444981575012,0.38533204793930054
1667824441987524900,11.67852490234375,0.022069519385695457,0.8059933185577393,0.47018730640411377
1667824441997533200,11.688533203125,0.044982291758060455,0.8270584344863892,0.5355748534202576
1667824442007541200,11.698541259765625,0.09520761668682098,0.7664651870727539,0.5691516399383545
1667824442017548000,11.708548095703126,0.16174322366714478,0.6339486837387085,0.5597575902938843
1667824442027556000,11.71855615234375,0.19584134221076965,0.47461339831352234,0.5286843180656433
1667824442037564200,11.728564208984375,0.18769606947898865,0.32900506258010864,0.4654715061187744
1667824442047571200,11.7385712890625,0.13145558536052704,0.20906789600849152,0.3828522861003876
1667824442057579000,11.7485791015625,0.05135169252753258,0.1378059685230255,0.291217178106308
1667824442067587000,11.758587158203126,-0.03662249445915222,0.1249958723783493,0.20032073557376862
1667824442077595000,11.768594970703125,-0.11551810801029205,0.13568153977394104,0.11739228665828705
1667824442087602200,11.778602294921875,-0.17112450301647186,0.1813528686761856,0.048226453363895416
1667824442097610000,11.78860986328125,-0.19638192653656006,0.2872989773750305,0.00967985950410366
1667824442107618000,11.7986181640625,-0.1902376115322113,0.450219064950943,0.014315366744995117
1667824442117625000,11.808625,-0.14755140244960785,0.6430708169937134,0.08092102408409119
1667824442127633200,11.818633056640625,-0.08331969380378723,0.8248575329780579,0.20093192160129547
1667824442137641200,11.82864111328125,0.00205326359719038,0.9768926501274109,0.3413920998573303
1667824442147648000,11.83864794921875,0.1129494458436966,1.073906421661377,0.4794377386569977
1667824442157656300,11.84865625,0.22457851469516754,1.0910873413085938,0.5996464490890503
1667824442167664000,11.8586640625,0.32662129402160645,1.0430569648742676,0.6948473453521729
1667824442177671200,11.868671142578124,0.3987556993961334,0.9185040593147278,0.7599078416824341
1667824442187679000,11.878678955078126,0.4370076060295105,0.7498114705085754,0.7987880706787109
1667824442197687000,11.88868701171875,0.4534848630428314,0.5512371063232422,0.8069568276405334
1667824442207694000,11.898694091796875,0.4525790512561798,0.3235393464565277,0.7731692790985107
1667824442217702100,11.9087021484375,0.4324013590812683,0.08354005962610245,0.6920760273933411
1667824442227710000,11.9187099609375,0.40205299854278564,-0.16136373579502106,0.5562156438827515
1667824442237718000,11.928718017578126,0.3628329038619995,-0.3952651917934418,0.3654845654964447
1667824442247725000,11.93872509765625,0.3159259855747223,-0.6214094758033752,0.12092573940753937
1667824442257733000,11.948733154296875,0.2507248818874359,-0.8582587838172913,-0.18722836673259735
1667824442267741200,11.9587412109375,0.16772115230560303,-1.0707809925079346,-0.5492895841598511
1667824442277748200,11.968748291015626,0.060597363859415054,-1.194774866104126,-0.9279732704162598
1667824442287756000,11.978756103515625,-0.05971960723400116,-1.1697887182235718,-1.2713502645492554
1667824442297764000,11.98876416015625,-0.17312046885490417,-0.9739122986793518,-1.5170789957046509
1667824442307772200,11.998772216796874,-0.2524479329586029,-0.6614629030227661,-1.6052511930465698
1667824442317779000,12.008779052734376,-0.2998388707637787,-0.3287096917629242,-1.5316177606582642
1667824442327787300,12.018787353515625,-0.3064952492713928,-0.006371949799358845,-1.3233819007873535
1667824442337795000,12.028795166015625,-0.22137558460235596,0.21314789354801178,-1.0649551153182983
1667824442347802000,12.038802001953124,-0.06007600575685501,0.31582507491111755,-0.8106914162635803
1667824442357810000,12.048809814453126,0.11659090965986252,0.29397517442703247,-0.5848106145858765
1667824442367818200,12.058818359375,0.26070502400398254,0.1625003218650818,-0.38526344299316406
1667824442377825000,12.068824951171875,0.35132306814193726,-0.03388569876551628,-0.21481099724769592
1667824442387833000,12.0788330078125,0.38278764486312866,-0.21749672293663025,-0.06574245542287827
1667824442397841000,12.0888408203125,0.37273740768432617,-0.36632269620895386,0.06142641603946686
1667824442407848200,12.09884814453125,0.3354490101337433,-0.4852834939956665,0.14698433876037598
1667824442417856000,12.10885595703125,0.2933420240879059,-0.5664158463478088,0.21238011121749878
1667824442427864000,12.118864013671875,0.23829758167266846,-0.5994598269462585,0.277342826128006
1667824442437872000,12.1288720703125,0.1678476482629776,-0.5962526202201843,0.3385028541088104
1667824442447879200,12.138879150390625,0.07956304401159286,-0.5570031404495239,0.3979354798793793
1667824442457887200,12.14888720703125,-0.014991960488259792,-0.48506373167037964,0.44478872418403625
1667824442467895000,12.15889501953125,-0.1260877251625061,-0.4002523124217987,0.4628491699695587
1667824442477902000,12.168902099609374,-0.24487802386283875,-0.31088143587112427,0.4466070830821991
1667824442487910100,12.17891015625,-0.34680551290512085,-0.21698349714279175,0.3989061117172241
1667824442497918200,12.188918212890625,-0.43472763895988464,-0.12595292925834656,0.3283317983150482
1667824442507925000,12.198925048828125,-0.49867838621139526,-0.041257262229919434,0.2565653324127197
1667824442517933000,12.20893310546875,-0.553246796131134,0.030216917395591736,0.18834178149700165
1667824442527940900,12.21894091796875,-0.6005359888076782,0.0844094529747963,0.13886582851409912
1667824442537949200,12.22894921875,-0.6463245153427124,0.12860967218875885,0.12326955050230026
1667824442547956000,12.2389560546875,-0.6881400346755981,0.16125911474227905,0.14499199390411377
1667824442557964000,12.248964111328124,-0.726928174495697,0.18253935873508453,0.2141156792640686
1667824442567972000,12.25897216796875,-0.7785422801971436,0.19135521352291107,0.3260052502155304
1667824442577979100,12.268979248046875,-0.8396399617195129,0.18879911303520203,0.4616006314754486
1667824442587987200,12.2789873046875,-0.8990345597267151,0.17803269624710083,0.5914489030838013
1667824442597995000,12.2889951171875,-0.9444382786750793,0.16539998352527618,0.6844244003295898
1667824442608002300,12.299002197265626,-0.9780290126800537,0.13823798298835754,0.7227784395217896
1667824442618010000,12.309010009765625,-1.0119107961654663,0.08302559703588486,0.6859706044197083
1667824442628018200,12.31901806640625,-1.0587778091430664,0.0051211342215538025,0.5738996267318726
1667824442638025000,12.32902490234375,-1.1117491722106934,-0.09248105436563492,0.3832988142967224
1667824442648033000,12.339032958984374,-1.1739622354507446,-0.19663116335868835,0.14596043527126312
1667824442658041000,12.349041015625,-1.235568881034851,-0.28797733783721924,-0.11414464563131332
1667824442668048100,12.359048095703125,-1.3138315677642822,-0.4013529121875763,-0.37656399607658386
1667824442678056000,12.369055908203125,-1.4139128923416138,-0.5054963231086731,-0.6359681487083435
1667824442688064000,12.37906396484375,-1.526423454284668,-0.573772132396698,-0.8650828003883362
1667824442698072300,12.389072265625,-1.6232229471206665,-0.5880753993988037,-1.0471330881118774
1667824442708079000,12.3990791015625,-1.674225926399231,-0.5440583825111389,-1.1405645608901978
1667824442718087200,12.409087158203125,-1.6634771823883057,-0.4682783782482147,-1.1390713453292847
1667824442728095000,12.419094970703124,-1.6156061887741089,-0.3723987340927124,-1.068174123764038
1667824442738102300,12.429102294921876,-1.5228575468063354,-0.251497358083725,-0.9188831448554993
1667824442748110000,12.439110107421875,-1.3871381282806396,-0.16533425450325012,-0.7160393595695496
