time,seconds_elapsed,z,y,x
1667825154445216000,0.012216064453125,-0.5334903001785278,-0.8688719868659973,0.8318300843238831
1667825154455223800,0.022223876953125,-0.6244984865188599,-0.7917026877403259,0.7675576210021973
1667825154465230800,0.03223095703125,-0.7572932839393616,-0.6681746244430542,0.6866755485534668
1667825154475239000,0.042239013671875,-0.9011924266815186,-0.5105482339859009,0.5947397947311401
1667825154485246000,0.052245849609375,-1.047992467880249,-0.370487242937088,0.501053512096405
1667825154495253800,0.062253662109375,-1.2135542631149292,-0.322070449590683,0.4199999272823334
1667825154505261000,0.072260986328125,-1.3613091707229614,-0.3365764319896698,0.3769608736038208
1667825154515268900,0.082268798828125,-1.4833570718765259,-0.3719139099121094,0.4022848606109619
1667825154525276000,0.09227587890625,-1.601771593093872,-0.5476463437080383,0.5022923946380615
1667825154535283700,0.10228369140625,-1.7376761436462402,-0.9917832612991333,0.6538630127906799
1667825154545291000,0.112291015625,-1.913663387298584,-1.6226203441619873,0.8439123630523682
1667825154555298800,0.122298828125,-2.107816457748413,-2.3970565795898438,1.0700839757919312
1667825154565307000,0.132306884765625,-2.3058056831359863,-3.2018322944641113,1.3057057857513428
1667825154575314000,0.14231396484375,-2.486438512802124,-3.9212043285369873,1.5081413984298706
1667825154585322000,0.152322021484375,-2.623237133026123,-4.498558521270752,1.612234354019165
1667825154595328800,0.162328857421875,-2.6919662952423096,-4.918185234069824,1.5848737955093384
1667825154605336800,0.1723369140625,-2.6740243434906006,-5.231112003326416,1.4541908502578735
1667825154615343900,0.18234375,-2.623164176940918,-5.237480640411377,1.195496678352356
1667825154625352000,0.19235205078125,-2.5098061561584473,-4.995520114898682,0.880176305770874
1667825154635358700,0.202358642578125,-2.273186445236206,-4.328249454498291,0.5258089303970337
1667825154645366800,0.21236669921875,-1.8855327367782593,-3.183011531829834,0.15268860757350922
1667825154655373800,0.222373779296875,-1.3658509254455566,-2.208493232727051,-0.16644464433193207
1667825154665382000,0.2323818359375,-0.9390113949775696,-1.1534414291381836,-0.4836723804473877
1667825154675389000,0.242388916015625,-0.69404536485672,-0.40433043241500854,-0.7964484095573425
1667825154685397000,0.25239697265625,-0.660352885723114,-0.018635470420122147,-1.138918161392212
1667825154695404800,0.26240478515625,-0.7715443968772888,-0.09121965616941452,-1.4900755882263184
1667825154705411800,0.272411865234375,-0.9841597080230713,-0.43267446756362915,-1.8569151163101196
1667825154715419600,0.282419677734375,-1.2209986448287964,-0.7847190499305725,-2.2374212741851807
1667825154725427000,0.292427001953125,-1.3885750770568848,-0.8625800013542175,-2.6207683086395264
1667825154735434800,0.302434814453125,-1.4825540781021118,-0.5754441022872925,-3.0680954456329346
1667825154745441800,0.31244189453125,-1.5654805898666382,0.01203695498406887,-3.543271780014038
1667825154755449900,0.322449951171875,-1.6924673318862915,0.6168163418769836,-4.036092281341553
1667825154765457000,0.332456787109375,-1.8199957609176636,0.21367287635803223,-4.560985088348389
1667825154775464700,0.342464599609375,-1.7094870805740356,-0.3951089680194855,-4.845686912536621
1667825154785472000,0.352471923828125,-1.4030201435089111,-0.46447765827178955,-4.8885273933410645
1667825154795479800,0.362479736328125,-1.0292994976043701,-0.29501593112945557,-4.804411888122559
1667825154805486800,0.37248681640625,-0.7226463556289673,-0.20229370892047882,-4.683112144470215
1667825154815494700,0.38249462890625,-0.5133439898490906,-0.2804689407348633,-4.549369812011719
1667825154825503000,0.3925029296875,-0.36686936020851135,-0.5172868371009827,-4.414799690246582
1667825154835509800,0.402509765625,-0.26233360171318054,-0.8572478294372559,-4.26716423034668
1667825154845517800,0.412517822265625,-0.15637175738811493,-1.2958999872207642,-4.123048782348633
1667825154855524900,0.42252490234375,-0.04054316505789757,-1.8585069179534912,-3.9904985427856445
1667825154865533000,0.432532958984375,0.047860465943813324,-2.514194965362549,-3.8783462047576904
1667825154875539700,0.442539794921875,0.08022746443748474,-3.2247190475463867,-3.777113437652588
1667825154885547800,0.4525478515625,0.0075881448574364185,-3.8581204414367676,-3.683154582977295
1667825154895554800,0.462554931640625,-0.1698921024799347,-4.262858867645264,-3.6048667430877686
1667825154905563000,0.47256298828125,-0.4368753135204315,-4.3328657150268555,-3.5381157398223877
1667825154915569700,0.482569580078125,-0.7966073751449585,-4.03220272064209,-3.486907482147217
1667825154925578000,0.492577880859375,-1.2220097780227661,-3.2379517555236816,-3.4356849193573
1667825154935584800,0.502584716796875,-1.6364855766296387,-1.906944990158081,-3.3855929374694824
1667825154945592800,0.5125927734375,-1.956843376159668,-0.4136429727077484,-3.340263605117798
1667825154955600000,0.522599853515625,-2.1252362728118896,0.6736399531364441,-3.3095574378967285
1667825154965608000,0.53260791015625,-2.115203857421875,1.2664380073547363,-3.2378015518188477
1667825154975615700,0.54261572265625,-1.9492642879486084,1.5048176050186157,-3.094484329223633
1667825154985622800,0.552622802734375,-1.6598767042160034,1.4526598453521729,-2.870267868041992
1667825154995630800,0.562630859375,-1.283266305923462,1.171800136566162,-2.56593656539917
1667825155005638000,0.572637939453125,-0.8913496136665344,0.8352213501930237,-2.184528112411499
1667825155015645700,0.582645751953125,-0.5352626442909241,0.5522106885910034,-1.734947681427002
1667825155025653000,0.592653076171875,-0.24001260101795197,0.35472825169563293,-1.2545666694641113
1667825155035660800,0.602660888671875,-0.01763838157057762,0.26970604062080383,-0.7856565117835999
1667825155045667800,0.612667724609375,0.1264069378376007,0.30342432856559753,-0.3725717067718506
1667825155055675600,0.622675537109375,0.18963970243930817,0.39574307203292847,-0.05220780894160271
1667825155065683000,0.632682861328125,0.18908976018428802,0.48592302203178406,0.1792917251586914
1667825155075690800,0.642690673828125,0.14144660532474518,0.5300230979919434,0.3156343996524811
1667825155085697800,0.65269775390625,0.053876813501119614,0.5208746194839478,0.3723794221878052
1667825155095705900,0.662705810546875,-0.031311582773923874,0.4491809904575348,0.36669543385505676
1667825155105714000,0.6727138671875,-0.10542576014995575,0.3290380835533142,0.31685277819633484
1667825155115720700,0.682720703125,-0.16414153575897217,0.17695000767707825,0.2325400412082672
1667825155125728800,0.692728759765625,-0.21840611100196838,0.021518874913454056,0.13214604556560516
1667825155135735800,0.70273583984375,-0.25631195306777954,-0.1223144605755806,0.020352410152554512
1667825155145744000,0.712743896484375,-0.2813589870929718,-0.2333749383687973,-0.09810180217027664
1667825155155750700,0.722750732421875,-0.2785266935825348,-0.2831963002681732,-0.21781381964683533
1667825155165759000,0.732759033203125,-0.2604193389415741,-0.24389176070690155,-0.31630071997642517
1667825155175765800,0.742765869140625,-0.24470987915992737,-0.11599478125572205,-0.3830147683620453
1667825155185773800,0.75277392578125,-0.25491511821746826,0.044497162103652954,-0.4140523076057434
1667825155195780900,0.76278076171875,-0.28079038858413696,0.1601654291152954,-0.41543155908584595
1667825155205789000,0.772788818359375,-0.32221105694770813,0.21864232420921326,-0.3988054394721985
1667825155215795700,0.782795654296875,-0.36677053570747375,0.22648906707763672,-0.3711881935596466
1667825155225803800,0.7928037109375,-0.39929839968681335,0.18707028031349182,-0.32222065329551697
1667825155235811800,0.802811767578125,-0.42228734493255615,0.10238416492938995,-0.2614036500453949
1667825155245819000,0.81281884765625,-0.4465007781982422,-0.004505802411586046,-0.19492341578006744
1667825155255827000,0.822826904296875,-0.4822548031806946,-0.12659841775894165,-0.13408163189888
1667825155265833700,0.832833740234375,-0.522808849811554,-0.2440291792154312,-0.09599710255861282
1667825155275842000,0.842842041015625,-0.565526008605957,-0.32388433814048767,-0.08394603431224823
1667825155285848800,0.852848876953125,-0.6077597141265869,-0.37086620926856995,-0.09980941563844681
1667825155295857000,0.86285693359375,-0.642714262008667,-0.38928836584091187,-0.15794914960861206
1667825155305864000,0.872864013671875,-0.6590623259544373,-0.3855026960372925,-0.2405870407819748
1667825155315872000,0.8828720703125,-0.66191565990448,-0.34904932975769043,-0.3210030496120453
1667825155325878800,0.892878662109375,-0.6546912789344788,-0.3105117976665497,-0.3843593895435333
1667825155335886800,0.902886962890625,-0.6507881283760071,-0.25114914774894714,-0.4211794435977936
1667825155345894000,0.912893798828125,-0.6383264064788818,-0.192172110080719,-0.4147695004940033
1667825155355902000,0.92290185546875,-0.6106463074684143,-0.14230680465698242,-0.38264989852905273
1667825155365909800,0.93290966796875,-0.563300371170044,-0.11267994344234467,-0.335332989692688
1667825155375917000,0.9429169921875,-0.495562344789505,-0.08153533935546875,-0.26269954442977905
1667825155385924900,0.9529248046875,-0.40827083587646484,-0.04152853414416313,-0.16724039614200592
1667825155395932000,0.962931884765625,-0.2973640263080597,0.004382231738418341,-0.04031733050942421
1667825155405939700,0.972939697265625,-0.17340055108070374,0.06758676469326019,0.11968778818845749
1667825155415943200,0.982943115234375,-0.03737560287117958,0.1385863721370697,0.31080421805381775
1667825155425951200,0.992951171875,0.11280244588851929,0.20571880042552948,0.5179065465927124
1667825155435958300,1.002958251953125,0.25897857546806335,0.2482588142156601,0.7199682593345642
1667825155445966300,1.01296630859375,0.3984778821468353,0.2364916354417801,0.8849332928657532
1667825155455973000,1.02297314453125,0.5138134956359863,0.19357453286647797,1.005619764328003
1667825155465981200,1.032981201171875,0.60140460729599,0.1302860975265503,1.0647178888320923
1667825155475988200,1.04298828125,0.6606748700141907,0.04644472897052765,1.0592848062515259
1667825155485996300,1.052996337890625,0.6639609336853027,-0.03741395100951195,1.0052756071090698
1667825155496004000,1.063004150390625,0.6098963618278503,-0.09181913733482361,0.917526364326477
1667825155506011100,1.07301123046875,0.49594342708587646,-0.11662621796131134,0.8021329045295715
1667825155516019200,1.083019287109375,0.34803786873817444,-0.09645862877368927,0.6799300312995911
1667825155526026200,1.093026123046875,0.19435083866119385,-0.04543805494904518,0.568000316619873
1667825155536034000,1.103033935546875,0.051363054662942886,0.042502984404563904,0.47982147336006165
1667825155546041300,1.113041259765625,-0.04983013868331909,0.1306927651166916,0.4246048033237457
1667825155556049200,1.123049072265625,-0.10028186440467834,0.18745164573192596,0.3986198306083679
1667825155566056200,1.13305615234375,-0.10566011816263199,0.20079222321510315,0.408365398645401
1667825155576064000,1.14306396484375,-0.07823914289474487,0.17788317799568176,0.45642906427383423
1667825155586071300,1.1530712890625,-0.01870950497686863,0.11804434657096863,0.5268041491508484
1667825155596079000,1.1630791015625,0.06488845497369766,0.038302913308143616,0.6068739295005798
1667825155606086100,1.173086181640625,0.16120406985282898,-0.05393460392951965,0.6816456913948059
1667825155616094200,1.18309423828125,0.2714823782444,-0.133035808801651,0.7405300140380859
1667825155626101200,1.193101318359375,0.380500465631485,-0.17289774119853973,0.7682628631591797
1667825155636109000,1.203109130859375,0.4943743050098419,-0.17367485165596008,0.7467637062072754
1667825155646117000,1.2131171875,0.600584089756012,-0.13713787496089935,0.6724327206611633
1667825155656124200,1.223124267578125,0.68822181224823,-0.05234629660844803,0.5618537664413452
1667825155666132200,1.23313232421875,0.7437050342559814,0.07660343497991562,0.4226577877998352
1667825155676139000,1.243138916015625,0.7515813112258911,0.23609641194343567,0.27998530864715576
1667825155686147300,1.253147216796875,0.6937446594238281,0.41796183586120605,0.15491901338100433
1667825155696154000,1.263154052734375,0.5809235572814941,0.5969270467758179,0.05876850709319115
1667825155706162200,1.273162109375,0.4443761110305786,0.760173499584198,0.00290417717769742
1667825155716169200,1.283169189453125,0.3184453547000885,0.8895717263221741,0.0038919434882700443
1667825155726177300,1.29317724609375,0.22772210836410522,0.9935383200645447,0.05945959687232971
1667825155736184000,1.30318408203125,0.18683061003684998,1.0523457527160645,0.1564529836177826
1667825155746192100,1.313192138671875,0.18832063674926758,1.0412483215332031,0.28269028663635254
1667825155756200200,1.3232001953125,0.22465521097183228,0.9676390886306763,0.42676597833633423
1667825155766207200,1.333207275390625,0.27572426199913025,0.8469472527503967,0.5653305053710938
1667825155776215000,1.343215087890625,0.309743195772171,0.6736775040626526,0.6657170057296753
1667825155786222300,1.353222412109375,0.30494099855422974,0.4729566276073456,0.7062714099884033
1667825155796230100,1.363230224609375,0.24832725524902344,0.29553577303886414,0.6846861839294434
1667825155806237200,1.3732373046875,0.14617691934108734,0.17681418359279633,0.6092566847801208
1667825155816245000,1.383244873046875,0.008597216568887234,0.11770985275506973,0.4983424246311188
1667825155826252300,1.393252197265625,-0.15664154291152954,0.08603208512067795,0.35930463671684265
1667825155836260000,1.403260009765625,-0.3283006548881531,0.05738899111747742,0.20074161887168884
1667825155846267100,1.41326708984375,-0.4894554615020752,0.019633889198303223,0.05983057618141174
1667825155856275200,1.423275146484375,-0.6253421902656555,-0.030423419550061226,-0.059902749955654144
1667825155866282200,1.4332822265625,-0.7108437418937683,-0.10259854793548584,-0.13523079454898834
1667825155876290000,1.4432900390625,-0.7219771146774292,-0.18269072473049164,-0.1573438197374344
1667825155886297300,1.45329736328125,-0.6648017168045044,-0.2503879964351654,-0.1102713793516159
1667825155896305200,1.46330517578125,-0.5621762871742249,-0.2923514246940613,0.010060623288154602
1667825155906313200,1.473313232421875,-0.4198840856552124,-0.29866498708724976,0.19493992626667023
1667825155916320000,1.483320068359375,-0.23423033952713013,-0.29356130957603455,0.4234023988246918
1667825155926328000,1.493328125,-0.030168022960424423,-0.28294888138771057,0.6711711883544922
1667825155936335000,1.503335205078125,0.17342504858970642,-0.2987677752971649,0.910961389541626
1667825155946343200,1.51334326171875,0.37403643131256104,-0.34088194370269775,1.126666784286499
1667825155956350200,1.52335009765625,0.571807861328125,-0.36802008748054504,1.3138254880905151
1667825155966358300,1.533358154296875,0.749409556388855,-0.35103365778923035,1.480508804321289
1667825155976365000,1.543364990234375,0.8841327428817749,-0.28479018807411194,1.6268582344055176
1667825155986373000,1.553373046875,0.963106095790863,-0.16789180040359497,1.7569634914398193
1667825155996380200,1.563380126953125,0.9835492968559265,-0.05278544872999191,1.855839490890503
1667825156006388200,1.57338818359375,0.9244652390480042,0.04310139641165733,1.9227995872497559
1667825156016396300,1.583396240234375,0.8112789988517761,0.11879429221153259,1.9527159929275513
1667825156026403000,1.593403076171875,0.6613758206367493,0.17389430105686188,1.938240885734558
1667825156036411400,1.603411376953125,0.48286786675453186,0.21288084983825684,1.902740716934204
1667825156046418200,1.613418212890625,0.2808407247066498,0.256396621465683,1.8685390949249268
1667825156056426200,1.62342626953125,0.07144808769226074,0.2798745334148407,1.8500529527664185
1667825156066433300,1.633433349609375,-0.14118482172489166,0.2620691657066345,1.8344343900680542
1667825156076441300,1.64344140625,-0.3710326552391052,0.21605932712554932,1.8498897552490234
1667825156086448000,1.6534482421875,-0.5931791663169861,0.14394012093544006,1.888776421546936
1667825156096456200,1.663456298828125,-0.8056144714355469,0.035358790308237076,1.9395098686218262
1667825156106463200,1.673463134765625,-1.003840446472168,-0.09311503171920776,1.9687963724136353
1667825156116471300,1.68347119140625,-1.1690094470977783,-0.21263264119625092,1.9668054580688477
1667825156126478000,1.69347802734375,-1.2870514392852783,-0.31622907519340515,1.928458571434021
1667825156136486400,1.703486328125,-1.367173671722412,-0.4219845235347748,1.833939790725708
1667825156146494200,1.713494140625,-1.418276309967041,-0.5265447497367859,1.6704970598220825
1667825156156501200,1.723501220703125,-1.4479001760482788,-0.6322687864303589,1.4530984163284302
1667825156166509000,1.733509033203125,-1.454164743423462,-0.7264536023139954,1.1898175477981567
1667825156176516400,1.743516357421875,-1.4495660066604614,-0.812105655670166,0.911176860332489
1667825156186524200,1.753524169921875,-1.442788004875183,-0.8901269435882568,0.6166725158691406
1667825156196531200,1.76353125,-1.4294205904006958,-0.9604458808898926,0.317664235830307
1667825156206539300,1.773539306640625,-1.417686104774475,-1.0033589601516724,0.0025385250337421894
1667825156216546300,1.78354638671875,-1.4104279279708862,-0.9974142909049988,-0.2972412705421448
1667825156226554000,1.79355419921875,-1.4174381494522095,-0.9494089484214783,-0.580184280872345
1667825156236561400,1.8035615234375,-1.4374973773956299,-0.8791065216064453,-0.846462070941925
1667825156246569200,1.8135693359375,-1.458564281463623,-0.7919064164161682,-1.1071487665176392
1667825156256576300,1.823576171875,-1.4712883234024048,-0.699064314365387,-1.3612468242645264
1667825156266584000,1.833583984375,-1.4620565176010132,-0.5763269662857056,-1.6078758239746094
1667825156276592000,1.843592041015625,-1.4343135356903076,-0.38466697931289673,-1.8135610818862915
1667825156286599200,1.85359912109375,-1.3918390274047852,-0.14039945602416992,-1.9625827074050903
1667825156296607200,1.863607177734375,-1.3332269191741943,0.14188364148139954,-2.036998748779297
1667825156306614300,1.8736142578125,-1.2327221632003784,0.43652912974357605,-2.034315347671509
1667825156316622300,1.883622314453125,-1.0821568965911865,0.6814941167831421,-1.9545027017593384
1667825156326629000,1.893629150390625,-0.8617666959762573,0.8049013018608093,-1.8173472881317139
1667825156336637200,1.90363720703125,-0.5843846201896667,0.7588735818862915,-1.639811635017395
1667825156346644200,1.913644287109375,-0.25607866048812866,0.5606289505958557,-1.4599456787109375
1667825156356652300,1.92365234375,0.11166607588529587,0.25833860039711,-1.2876418828964233
1667825156366659000,1.9336591796875,0.5171078443527222,-0.09197333455085754,-1.134826421737671
1667825156376667100,1.943667236328125,0.9288389682769775,-0.38841724395751953,-0.9912176132202148
1667825156386674200,1.953674072265625,1.2992463111877441,-0.5783312320709229,-0.8823012709617615
1667825156396682200,1.96368212890625,1.596718430519104,-0.6510922908782959,-0.8177957534790039
1667825156406690000,1.97368994140625,1.827048659324646,-0.5994921922683716,-0.7876695394515991
1667825156416697000,1.983697021484375,2.00608491897583,-0.41760683059692383,-0.7637868523597717
1667825156426705200,1.993705078125,2.143400192260742,-0.13223659992218018,-0.751876711845398
1667825156436712000,2.0037119140625,2.2657854557037354,0.20157918334007263,-0.7577212452888489
1667825156446720000,2.013719970703125,2.3985280990600586,0.5081801414489746,-0.7590139508247375
1667825156456727000,2.02372705078125,2.5247068405151367,0.73410964012146,-0.7517533898353577
1667825156466735000,2.033735107421875,2.6170458793640137,0.8686552047729492,-0.7152257561683655
1667825156476742100,2.0437421875,2.6654815673828125,0.9355775117874146,-0.6401128768920898
1667825156486750200,2.053750244140625,2.65584135055542,0.9518300294876099,-0.511363685131073
1667825156496757000,2.063757080078125,2.5887949466705322,0.8981444239616394,-0.33452844619750977
1667825156506765000,2.07376513671875,2.4555351734161377,0.776096522808075,-0.12446203082799911
1667825156516772000,2.083772216796875,2.243264675140381,0.6094750761985779,0.1320408582687378
1667825156526780200,2.0937802734375,1.9541242122650146,0.40836194157600403,0.40896832942962646
1667825156536788000,2.1037880859375,1.608520269393921,0.15559251606464386,0.6949825286865234
1667825156546795000,2.113794921875,1.2418999671936035,-0.1446053832769394,0.9771697521209717
1667825156556803000,2.123802978515625,0.8965017795562744,-0.4685203433036804,1.2507139444351196
1667825156566810000,2.13381005859375,0.610141396522522,-0.7586879730224609,1.5113601684570312
1667825156576818000,2.14381787109375,0.39026254415512085,-0.9710950255393982,1.7221336364746094
1667825156586825200,2.1538251953125,0.23677073419094086,-1.1400835514068604,1.8598766326904297
1667825156596833000,2.1638330078125,0.13060595095157623,-1.2745143175125122,1.908517837524414
1667825156606840000,2.173840087890625,0.04519650712609291,-1.3650932312011719,1.8743975162506104
1667825156616848000,2.183847900390625,-0.03720675781369209,-1.3796396255493164,1.7787351608276367
1667825156626855200,2.193855224609375,-0.12701360881328583,-1.3090510368347168,1.6333070993423462
1667825156636863000,2.203863037109375,-0.2109375298023224,-1.1801265478134155,1.449227213859558
1667825156646871000,2.21387109375,-0.2777559757232666,-1.0001834630966187,1.2392314672470093
1667825156656878000,2.223878173828125,-0.3379010856151581,-0.7815277576446533,1.0183541774749756
1667825156666886100,2.23388623046875,-0.3940809965133667,-0.5479467511177063,0.8003185391426086
1667825156676893000,2.243892822265625,-0.4557531476020813,-0.33151480555534363,0.5939086079597473
1667825156686901000,2.25390087890625,-0.5294116735458374,-0.13704973459243774,0.41544008255004883
1667825156696908000,2.263907958984375,-0.5937402844429016,0.05407681688666344,0.2860623896121979
1667825156706916000,2.273916015625,-0.6250420212745667,0.2187323421239853,0.19601798057556152
1667825156716923000,2.2839228515625,-0.6346994638442993,0.3469931185245514,0.1273326575756073
1667825156726931200,2.29393115234375,-0.6225668787956238,0.45396775007247925,0.06424183398485184
1667825156736938000,2.30393798828125,-0.5809664726257324,0.5625874400138855,0.007349525578320026
1667825156746946000,2.313946044921875,-0.5171744227409363,0.6572103500366211,-0.03465145453810692
1667825156756953000,2.323953125,-0.45279571413993835,0.7248559594154358,-0.054596930742263794
1667825156766961200,2.333961181640625,-0.39653322100639343,0.7611135840415955,-0.068075992166996
1667825156776969200,2.34396923828125,-0.35992249846458435,0.7862290740013123,-0.06325539946556091
1667825156786976000,2.35397607421875,-0.33049243688583374,0.8166255950927734,-0.043235089629888535
1667825156796984300,2.363984375,-0.30456414818763733,0.8512037992477417,-0.0020804614759981632
1667825156806991000,2.3739912109375,-0.27858927845954895,0.870983898639679,0.05746142938733101
1667825156816999200,2.383999267578125,-0.24341611564159393,0.8566254377365112,0.12371235340833664
1667825156827006200,2.394006103515625,-0.2006809115409851,0.8118233680725098,0.2016787976026535
1667825156837014300,2.40401416015625,-0.15051281452178955,0.7694870829582214,0.29107871651649475
1667825156847021000,2.41402099609375,-0.08764276653528214,0.7195326089859009,0.3945600986480713
1667825156857029000,2.424029052734375,-0.024982048198580742,0.6735051870346069,0.49652907252311707
1667825156867036200,2.4340361328125,0.03930879011750221,0.6421576142311096,0.5947040915489197
1667825156877044200,2.444044189453125,0.10709928721189499,0.616047203540802,0.6628338694572449
1667825156887052000,2.454052001953125,0.18249072134494781,0.5816023945808411,0.6947686672210693
1667825156897059300,2.464059326171875,0.2613740861415863,0.5517100095748901,0.68381267786026
1667825156907067100,2.474067138671875,0.32329630851745605,0.5054445266723633,0.6455212235450745
1667825156917074200,2.48407421875,0.3702012300491333,0.44584912061691284,0.5717580318450928
1667825156927082000,2.49408203125,0.3964187204837799,0.3599379360675812,0.4719044268131256
1667825156937089300,2.50408935546875,0.39002472162246704,0.24423131346702576,0.34608525037765503
1667825156947097000,2.51409716796875,0.3496410846710205,0.08938819915056229,0.2027626931667328
1667825156957104000,2.524104248046875,0.27235135436058044,-0.09820006787776947,0.039194539189338684
1667825156967112200,2.5341123046875,0.16397029161453247,-0.2856282889842987,-0.13710565865039825
1667825156977119200,2.544119140625,0.01986505091190338,-0.401752233505249,-0.31196296215057373
1667825156987127000,2.554126953125,-0.12321647256612778,-0.3926977515220642,-0.461977481842041
1667825156997134300,2.56413427734375,-0.2446102797985077,-0.2511363625526428,-0.5621333718299866
1667825157007142100,2.57414208984375,-0.313740074634552,-0.051173437386751175,-0.6097115278244019
1667825157017150200,2.584150146484375,-0.33259499073028564,0.10892914980649948,-0.5926398634910583
1667825157027157000,2.594156982421875,-0.3162647485733032,0.18666549026966095,-0.5358802080154419
1667825157037165000,2.6041650390625,-0.2693265378475189,0.1567467302083969,-0.47812050580978394
1667825157047172000,2.614172119140625,-0.19354256987571716,0.06843844801187515,-0.4454539120197296
1667825157057180200,2.62418017578125,-0.1037607491016388,-0.03646799549460411,-0.4444133937358856
1667825157067187000,2.63418701171875,-0.008532235398888588,-0.11186981201171875,-0.4801469147205353
1667825157077195300,2.6441953125,0.050096191465854645,-0.16924893856048584,-0.5295267105102539
1667825157087202000,2.6542021484375,0.05699191242456436,-0.2032434046268463,-0.5908957719802856
1667825157097210000,2.664210205078125,0.028188228607177734,-0.1953710913658142,-0.6493883728981018
1667825157107217200,2.674217041015625,-0.0365164652466774,-0.14762328565120697,-0.6859914064407349
1667825157117225200,2.68422509765625,-0.12390170246362686,-0.10221664607524872,-0.6977535486221313
1667825157127233000,2.69423291015625,-0.21575652062892914,-0.06581416726112366,-0.6750982999801636
1667825157137240000,2.704239990234375,-0.28669434785842896,-0.05662466213107109,-0.6230303049087524
1667825157147248000,2.714248046875,-0.3249450623989105,-0.08709069341421127,-0.5483339428901672
1667825157157255200,2.724255126953125,-0.3432154059410095,-0.15833663940429688,-0.4631226360797882
1667825157167263000,2.734262939453125,-0.34584981203079224,-0.257551908493042,-0.3536424934864044
1667825157177270300,2.744270263671875,-0.341343492269516,-0.38752880692481995,-0.24519164860248566
1667825157187278000,2.754278076171875,-0.3398635685443878,-0.5314881205558777,-0.15086248517036438
1667825157197285000,2.76428515625,-0.3580534756183624,-0.6389157772064209,-0.08095131069421768
1667825157207293000,2.77429296875,-0.3974941074848175,-0.6887381672859192,-0.032468728721141815
1667825157217300200,2.78430029296875,-0.45603811740875244,-0.6613811254501343,0.009867810644209385
1667825157227308000,2.79430810546875,-0.5270829796791077,-0.5929917097091675,0.0496051050722599
1667825157237316000,2.804316162109375,-0.6192566156387329,-0.5091133117675781,0.07997552305459976
1667825157247323100,2.8143232421875,-0.7377941608428955,-0.44074463844299316,0.09211554378271103
1667825157257331200,2.824331298828125,-0.8632490038871765,-0.4029543697834015,0.08272284269332886
1667825157267338000,2.834337890625,-0.9883893728256226,-0.3886556029319763,0.05776476114988327
1667825157277346000,2.844345947265625,-1.0980820655822754,-0.40673235058784485,0.0246086735278368
1667825157287353000,2.85435302734375,-1.1845375299453735,-0.4263686239719391,0.011772769503295422
1667825157297361200,2.864361083984375,-1.2510491609573364,-0.4231211543083191,0.02919117547571659
1667825157307368000,2.874367919921875,-1.2989301681518555,-0.3900063633918762,0.07979975640773773
1667825157317376300,2.884376220703125,-1.331843376159668,-0.34245240688323975,0.1466757208108902
1667825157327383000,2.894383056640625,-1.3520796298980713,-0.2904621958732605,0.22421473264694214
1667825157337391000,2.90439111328125,-1.3348839282989502,-0.2520391643047333,0.27993151545524597
1667825157347398100,2.914398193359375,-1.2924044132232666,-0.22470368444919586,0.3075128197669983
1667825157357406200,2.92440625,-1.2355778217315674,-0.22610104084014893,0.2881825268268585
1667825157367414000,2.9344140625,-1.1724308729171753,-0.2756187915802002,0.20553797483444214
1667825157377421000,2.944421142578125,-1.115964412689209,-0.3375109136104584,0.0753014087677002
1667825157387429000,2.95442919921875,-1.0666338205337524,-0.4008134603500366,-0.09076718986034393
1667825157397436200,2.964436279296875,-1.0280870199203491,-0.4683815836906433,-0.26932281255722046
1667825157407444000,2.97444384765625,-0.992694079875946,-0.5262762904167175,-0.44923800230026245
1667825157417451500,2.984451416015625,-0.959960401058197,-0.5421069264411926,-0.6269810795783997
1667825157427459600,2.99445947265625,-0.9219855666160583,-0.4837019443511963,-0.791560173034668
1667825157437466600,3.004466552734375,-0.875085711479187,-0.34404072165489197,-0.9335402250289917
1667825157447474400,3.014474365234375,-0.8006466031074524,-0.1545935720205307,-1.0183906555175781
1667825157457482500,3.024482421875,-0.6951409578323364,0.01792334020137787,-1.0500484704971313
1667825157467489500,3.034489501953125,-0.5499635338783264,0.11898843944072723,-1.0282001495361328
1667825157477497600,3.04449755859375,-0.3613920211791992,0.06286205351352692,-0.9943636059761047
1667825157487504400,3.05450439453125,-0.10578528791666031,-0.18194237351417542,-0.965882420539856
1667825157497512700,3.0645126953125,0.18217833340168,-0.5774747729301453,-0.9755438566207886
1667825157507519500,3.07451953125,0.439901202917099,-0.9406492710113525,-1.0249249935150146
1667825157517527600,3.084527587890625,0.6499135494232178,-1.144909143447876,-1.072648048400879
1667825157527534600,3.09453466796875,0.8245226740837097,-1.166062355041504,-1.0759586095809937
1667825157537542700,3.104542724609375,0.9757806062698364,-0.9868322014808655,-1.0138188600540161
1667825157547549400,3.114549560546875,1.0991907119750977,-0.5510628819465637,-0.8357577323913574
1667825157557557500,3.1245576171875,1.22864830493927,0.018605109304189682,-0.5428488850593567
1667825157567564500,3.134564453125,1.405441164970398,0.546477735042572,-0.15266890823841095
1667825157577572600,3.144572509765625,1.6678975820541382,0.9321865439414978,0.2785344123840332
1667825157587580400,3.154580322265625,1.9919824600219727,1.154309630393982,0.7212367653846741
1667825157597587700,3.164587646484375,2.32570219039917,1.1714260578155518,1.1402989625930786
1667825157607595500,3.174595458984375,2.6410768032073975,1.0136443376541138,1.5118746757507324
1667825157617602600,3.1846025390625,2.917562246322632,0.7940278649330139,1.8256105184555054
1667825157627610400,3.1946103515625,3.096039056777954,0.5788969397544861,2.0621585845947266
1667825157637617700,3.20461767578125,3.1309938430786133,0.3392702043056488,2.1947481632232666
1667825157647625500,3.21462548828125,2.9927077293395996,0.0835990235209465,2.2352728843688965
1667825157657632500,3.224632568359375,2.707069158554077,-0.15717177093029022,2.19644832611084
1667825157667640300,3.234640380859375,2.2982230186462402,-0.3498554825782776,2.0831942558288574
1667825157677647600,3.244647705078125,1.798287272453308,-0.4847400486469269,1.9299603700637817
1667825157687655400,3.254655517578125,1.2403461933135986,-0.5917053818702698,1.7450240850448608
1667825157697663500,3.26466357421875,0.6731128692626953,-0.6711240410804749,1.528552770614624
1667825157707670500,3.27467041015625,0.1787942498922348,-0.6491633653640747,1.2839435338974
1667825157717678600,3.2846787109375,-0.1535099297761917,-0.5300319194793701,1.036624789237976
1667825157727685400,3.294685302734375,-0.32757094502449036,-0.37555232644081116,0.8233713507652283
1667825157737693400,3.304693359375,-0.4015386402606964,-0.22059442102909088,0.6635487079620361
1667825157747700500,3.314700439453125,-0.417371928691864,-0.054962050169706345,0.5436015129089355
1667825157757708500,3.32470849609375,-0.402317613363266,0.11319739371538162,0.4476563334465027
1667825157767715300,3.33471533203125,-0.3478226959705353,0.29196128249168396,0.3641135096549988
1667825157777723600,3.3447236328125,-0.25431084632873535,0.4750024676322937,0.28455743193626404
1667825157787730400,3.35473046875,-0.12638084590435028,0.6860247254371643,0.21188215911388397
1667825157797738500,3.364738525390625,0.015396798960864544,0.8816386461257935,0.14416064321994781
1667825157807746600,3.37474658203125,0.15861734747886658,1.037521481513977,0.08715274184942245
1667825157817753600,3.384753662109375,0.28358909487724304,1.1347301006317139,0.04524604231119156
1667825157827761700,3.39476171875,0.36360058188438416,1.1657308340072632,0.021026188507676125
1667825157837768400,3.4047685546875,0.37962082028388977,1.1281770467758179,0.02056892402470112
1667825157847776800,3.41477685546875,0.3357902467250824,1.0284392833709717,0.014719557948410511
1667825157857783600,3.424783447265625,0.2450350522994995,0.913184642791748,-0.0006833671359345317
1667825157867791600,3.43479150390625,0.1381421536207199,0.8308148980140686,-0.018278339877724648
1667825157877798700,3.444798583984375,0.041488055139780045,0.7912195324897766,-0.0371076874434948
1667825157887806700,3.454806640625,-0.038304779678583145,0.7985991835594177,-0.03333265706896782
1667825157897813500,3.4648134765625,-0.10326753556728363,0.8378986716270447,0.005617672111839056
1667825157907821600,3.474821533203125,-0.139139786362648,0.898478090763092,0.07623165100812912
1667825157917829600,3.48482958984375,-0.14484773576259613,0.9404417872428894,0.15139618515968323
1667825157927836700,3.494836669921875,-0.1278351992368698,0.9632731080055237,0.22995597124099731
1667825157937844500,3.504844482421875,-0.10287497937679291,0.9953482151031494,0.31597208976745605
1667825157947851800,3.514851806640625,-0.06941475719213486,1.022957682609558,0.4218175411224365
1667825157957859600,3.524859619140625,-0.033420808613300323,1.0269562005996704,0.5365987420082092
1667825157967866600,3.53486669921875,-0.009104548953473568,1.012131929397583,0.6570673584938049
1667825157977874400,3.54487451171875,0.019454658031463623,0.960786759853363,0.7719534635543823
1667825157987881700,3.5548818359375,0.0485137403011322,0.8667678236961365,0.8740840554237366
1667825157997889500,3.5648896484375,0.07560394704341888,0.7216473817825317,0.9516845941543579
1667825158007896600,3.574896484375,0.09557366371154785,0.5337627530097961,0.9958728551864624
1667825158017904600,3.584904541015625,0.10005096346139908,0.30386027693748474,0.9944738745689392
1667825158027912700,3.59491259765625,0.07193277776241302,0.029927805066108704,0.9369953870773315
1667825158037919500,3.60491943359375,0.00020479709201026708,-0.27143576741218567,0.8340836763381958
1667825158047927600,3.614927490234375,-0.12724237143993378,-0.5859827995300293,0.6892529726028442
1667825158057934600,3.6249345703125,-0.30222511291503906,-0.9234945178031921,0.48477253317832947
1667825158067942700,3.634942626953125,-0.521828830242157,-1.2432712316513062,0.20392942428588867
1667825158077949400,3.644949462890625,-0.7516607046127319,-1.4652485847473145,-0.1251046508550644
1667825158087957500,3.65495751953125,-0.966913104057312,-1.5673941373825073,-0.44924837350845337
1667825158097964500,3.664964599609375,-1.1468924283981323,-1.5376170873641968,-0.7097249627113342
1667825158107972600,3.67497265625,-1.2845890522003174,-1.3854315280914307,-0.897809624671936
1667825158117979600,3.684979736328125,-1.3776497840881348,-1.1532659530639648,-1.0074235200881958
1667825158127987700,3.69498779296875,-1.3999865055084229,-0.8789454102516174,-1.0558898448944092
1667825158137995500,3.70499560546875,-1.3472201824188232,-0.6004011631011963,-1.0469615459442139
1667825158148002600,3.71500244140625,-1.2258394956588745,-0.38899675011634827,-1.0088887214660645
1667825158158010400,3.72501025390625,-1.0619146823883057,-0.26485908031463623,-0.9519623517990112
1667825158168017700,3.735017578125,-0.861112654209137,-0.18967671692371368,-0.8830083608627319
1667825158178025500,3.745025390625,-0.6378036141395569,-0.1687687784433365,-0.8035731911659241
1667825158188032500,3.755032470703125,-0.4146139621734619,-0.1925595998764038,-0.7222322225570679
1667825158198040600,3.76504052734375,-0.2128819078207016,-0.24699993431568146,-0.6442527770996094
1667825158208047600,3.775047607421875,-0.05766569450497627,-0.3187854290008545,-0.5796974897384644
1667825158218055400,3.785055419921875,0.05217398703098297,-0.40730732679367065,-0.539980411529541
1667825158228062700,3.795062744140625,0.1281190812587738,-0.4984646439552307,-0.5124635696411133
1667825158238070500,3.805070556640625,0.16650934517383575,-0.5841665267944336,-0.47810691595077515
1667825158248078600,3.81507861328125,0.1635037064552307,-0.6828970909118652,-0.444047212600708
1667825158258085400,3.82508544921875,0.1314552277326584,-0.7775452733039856,-0.39875590801239014
1667825158268093700,3.83509375,0.07889588177204132,-0.8604814410209656,-0.35268962383270264
1667825158278100500,3.8451005859375,0.036380376666784286,-0.9132530689239502,-0.3050166368484497
1667825158288108500,3.855108642578125,0.0007134608458727598,-0.9286453127861023,-0.2514338195323944
1667825158298115600,3.865115478515625,-0.012459066696465015,-0.9261195659637451,-0.20448362827301025
1667825158308123600,3.87512353515625,-0.024479510262608528,-0.9013471007347107,-0.17187002301216125
1667825158318130400,3.88513037109375,-0.05116917937994003,-0.8467978835105896,-0.14924487471580505
1667825158328138500,3.895138427734375,-0.1070401668548584,-0.7614928483963013,-0.13470907509326935
1667825158338145500,3.9051455078125,-0.178724467754364,-0.656981885433197,-0.12340129911899567
1667825158348153600,3.915153564453125,-0.2554919421672821,-0.5633480548858643,-0.1087467223405838
1667825158358161400,3.925161376953125,-0.3151635527610779,-0.49601587653160095,-0.08922494947910309
1667825158368168700,3.935168701171875,-0.335479736328125,-0.45595288276672363,-0.06039303541183472
1667825158378176500,3.945176513671875,-0.31340718269348145,-0.4726852476596832,-0.034320954233407974
1667825158388183600,3.95518359375,-0.25902169942855835,-0.5541492104530334,-0.01991165615618229
1667825158398191400,3.96519140625,-0.18824154138565063,-0.662135899066925,-0.025841450318694115
1667825158408198700,3.97519873046875,-0.12767887115478516,-0.7585968971252441,-0.05223151296377182
1667825158418206500,3.98520654296875,-0.08097793906927109,-0.8225727081298828,-0.09692841023206711
1667825158428214000,3.995214111328125,-0.06272303313016891,-0.8406145572662354,-0.168190598487854
1667825158438221300,4.00522119140625,-0.07011570781469345,-0.7669632434844971,-0.2609005570411682
1667825158448229000,4.01522900390625,-0.09169077128171921,-0.6094566583633423,-0.3610950708389282
1667825158458236200,4.025236083984375,-0.10974327474832535,-0.4108048379421234,-0.4605793356895447
1667825158468244000,4.035243896484375,-0.13590243458747864,-0.1462315171957016,-0.5489706993103027
1667825158478251300,4.045251220703125,-0.14918868243694305,0.1335335522890091,-0.6031697392463684
1667825158488259000,4.055259033203125,-0.11993306130170822,0.3597871959209442,-0.621423602104187
1667825158498266000,4.06526611328125,-0.06244819611310959,0.5279994010925293,-0.6104024052619934
1667825158508274200,4.075274169921875,0.027669178321957588,0.6482799649238586,-0.5646383762359619
1667825158518281200,4.08528125,0.12890978157520294,0.7432352304458618,-0.4809298813343048
1667825158528289000,4.0952890625,0.2289935052394867,0.8374571204185486,-0.3568286895751953
1667825158538297000,4.105297119140625,0.32722607254981995,0.8668876886367798,-0.21408513188362122
1667825158548304100,4.11530419921875,0.4326201379299164,0.7713984251022339,-0.08389197289943695
1667825158558312200,4.125312255859375,0.548794686794281,0.5516583919525146,-0.011963452212512493
1667825158568319000,4.135319091796875,0.6524044275283813,0.317134827375412,-0.0027457191608846188
1667825158578327300,4.145327392578125,0.7248528003692627,0.1239701509475708,-0.03328285366296768
1667825158588334000,4.155333984375,0.7621775269508362,0.0057287258096039295,-0.07491232454776764
1667825158598342100,4.165342041015625,0.7578312158584595,-0.0223817378282547,-0.11528264731168747
1667825158608349200,4.17534912109375,0.7132834792137146,0.028320588171482086,-0.15525484085083008
1667825158618357200,4.185357177734375,0.6353567242622375,0.1658848375082016,-0.17854870855808258
1667825158628364000,4.195364013671875,0.5519012212753296,0.36815619468688965,-0.18079082667827606
1667825158638372000,4.2053720703125,0.5030239820480347,0.5708118081092834,-0.15169206261634827
1667825158648379100,4.215379150390625,0.5049340128898621,0.750161349773407,-0.090230293571949
1667825158658387200,4.22538720703125,0.5652303695678711,0.8813963532447815,0.003733219113200903
1667825158668395000,4.23539501953125,0.6799851655960083,0.9581411480903625,0.12565912306308746
1667825158678402300,4.24540234375,0.8592537641525269,0.9707906246185303,0.2853603661060333
1667825158688410000,4.25541015625,1.0947130918502808,0.9289808869361877,0.46756747364997864
1667825158698417200,4.265417236328125,1.3515411615371704,0.821896493434906,0.6536912322044373
1667825158708425000,4.275425048828125,1.5880706310272217,0.6597784757614136,0.8308079838752747
1667825158718432300,4.285432373046875,1.7501606941223145,0.4884341359138489,0.969605565071106
1667825158728440000,4.295440185546875,1.817427396774292,0.3265344500541687,1.0589993000030518
1667825158738447000,4.305447021484375,1.790520429611206,0.17441068589687347,1.0951762199401855
1667825158748455200,4.315455078125,1.6963633298873901,0.06155950203537941,1.079360842704773
1667825158758463200,4.325463134765625,1.5414211750030518,0.013919278047978878,1.0270462036132812
1667825158768470000,4.335469970703125,1.3331198692321777,0.006444583646953106,0.9332715272903442
1667825158778478000,4.34547802734375,1.093401551246643,0.027159981429576874,0.8098238706588745
1667825158788485000,4.355485107421875,0.8314303755760193,0.0743836835026741,0.6896889209747314
1667825158798493200,4.3654931640625,0.5615925192832947,0.14994847774505615,0.5776129961013794
1667825158808500000,4.3755,0.3295312821865082,0.21901464462280273,0.45455366373062134
1667825158818508000,4.385508056640625,0.1569957435131073,0.25336915254592896,0.3222030699253082
1667825158828515000,4.39551513671875,0.043165579438209534,0.2767341136932373,0.19651038944721222
1667825158838523100,4.405523193359375,-0.019470904022455215,0.28582775592803955,0.09321063756942749
1667825158848530200,4.4155302734375,-0.03868560865521431,0.266815721988678,0.010269415564835072
1667825158858538200,4.425538330078125,-0.01647990755736828,0.24227549135684967,-0.057619087398052216
1667825158868546000,4.435546142578125,0.036131370812654495,0.22576682269573212,-0.09993991255760193
1667825158878553000,4.445552978515625,0.10799624025821686,0.23104865849018097,-0.1117909774184227
1667825158888561000,4.455560791015625,0.18593178689479828,0.2726307213306427,-0.08720334619283676
1667825158898568200,4.465568115234375,0.26104891300201416,0.31844907999038696,-0.021996911615133286
1667825158908576000,4.475575927734375,0.32610246539115906,0.36068442463874817,0.06979212909936905
1667825158918583000,4.4855830078125,0.3668525815010071,0.3993151783943176,0.19327065348625183
1667825158928591000,4.495591064453125,0.3816903829574585,0.3931209146976471,0.34272992610931396
1667825158938598100,4.50559814453125,0.3610692620277405,0.338810533285141,0.48158499598503113
1667825158948606000,4.51560595703125,0.3047122359275818,0.26046034693717957,0.6075474619865417
1667825158958613200,4.52561328125,0.21867002546787262,0.14737027883529663,0.6990635395050049
1667825158968621000,4.53562109375,0.12206225842237473,0.021803032606840134,0.7426483035087585
1667825158978629000,4.545629150390625,0.005629922728985548,-0.07354985177516937,0.7546868324279785
1667825158988636000,4.555635986328125,-0.1293816864490509,-0.08900018036365509,0.7558972835540771
1667825158998644200,4.565644287109375,-0.2718048691749573,0.006414223462343216,0.7614794969558716
1667825159008651000,4.575651123046875,-0.39263996481895447,0.179174542427063,0.7785820364952087
1667825159018659000,4.5856591796875,-0.48433151841163635,0.3690747022628784,0.8127549290657043
1667825159028666000,4.595666015625,-0.5282036662101746,0.5305056571960449,0.8676586747169495
1667825159038674200,4.605674072265625,-0.5238730907440186,0.6334259510040283,0.9265789985656738
1667825159048681000,4.615680908203125,-0.47992613911628723,0.6785646677017212,0.9768648147583008
1667825159058689000,4.62568896484375,-0.4019325375556946,0.671637773513794,0.9996590614318848
1667825159068696000,4.635696044921875,-0.30663982033729553,0.5681438446044922,0.9748876690864563
1667825159078704000,4.6457041015625,-0.20785465836524963,0.38632693886756897,0.9081565737724304
1667825159088711000,4.6557109375,-0.14216965436935425,0.1487330198287964,0.8060318231582642
1667825159098719200,4.66571923828125,-0.1249038502573967,-0.12001295387744904,0.6730934381484985
1667825159108726000,4.67572607421875,-0.16049620509147644,-0.3837346136569977,0.5077923536300659
1667825159118734000,4.685734130859375,-0.2554163336753845,-0.6119744181632996,0.308988481760025
1667825159128742100,4.6957421875,-0.3963630497455597,-0.7812521457672119,0.09671642631292343
1667825159138749200,4.705749267578125,-0.5538296699523926,-0.88704514503479,-0.13053137063980103
1667825159148757200,4.71575732421875,-0.7103199362754822,-0.9549978375434875,-0.34847381711006165
1667825159158764000,4.725763916015625,-0.8594194054603577,-1.0079156160354614,-0.547381579875946
1667825159168772000,4.735772216796875,-0.9699134230613708,-1.062016487121582,-0.7262338995933533
1667825159178779100,4.745779052734375,-1.0282566547393799,-1.1030900478363037,-0.8737969994544983
1667825159188787200,4.755787109375,-1.0368964672088623,-1.115217924118042,-0.9912951588630676
1667825159198794200,4.765794189453125,-1.01233971118927,-1.0857685804367065,-1.071679711341858
1667825159208802000,4.775802001953125,-0.9655436873435974,-1.003969430923462,-1.1198451519012451
1667825159218809000,4.78580908203125,-0.9015540480613708,-0.8726100325584412,-1.1284838914871216
1667825159228817000,4.79581689453125,-0.8144204616546631,-0.7000206708908081,-1.1109520196914673
1667825159238825000,4.805824951171875,-0.698755145072937,-0.5341877937316895,-1.067276120185852
1667825159248832000,4.81583203125,-0.5651915073394775,-0.3963809013366699,-1.0086238384246826
1667825159258840000,4.825840087890625,-0.41173216700553894,-0.30017367005348206,-0.9553816318511963
1667825159268847000,4.83584716796875,-0.24969051778316498,-0.24718183279037476,-0.9062875509262085
1667825159278855200,4.845855224609375,-0.09261808544397354,-0.24842366576194763,-0.8651372194290161
1667825159288862000,4.855862060546875,0.03918628394603729,-0.2868690490722656,-0.8109501004219055
1667825159298870000,4.8658701171875,0.13638180494308472,-0.34797394275665283,-0.7380090951919556
1667825159308877000,4.875876953125,0.19951790571212769,-0.4022188186645508,-0.6367759108543396
1667825159318885000,4.885885009765625,0.22398169338703156,-0.44046100974082947,-0.5187377333641052
1667825159328892000,4.895891845703125,0.21850250661373138,-0.4758211374282837,-0.38975203037261963
1667825159338900000,4.90589990234375,0.19852161407470703,-0.5044050812721252,-0.25993144512176514
1667825159348907000,4.915906982421875,0.1655852347612381,-0.5311789512634277,-0.12437734752893448
1667825159358915000,4.9259150390625,0.13045307993888855,-0.5750963091850281,-0.00475454144179821
1667825159368923100,4.935923095703125,0.09752469509840012,-0.6236777305603027,0.08344855159521103
1667825159378930200,4.94593017578125,0.07640715688467026,-0.6754593849182129,0.13718874752521515
1667825159388938200,4.955938232421875,0.06227722391486168,-0.7164902091026306,0.15452858805656433
1667825159398945000,4.965945068359375,0.048767805099487305,-0.729985237121582,0.1548100858926773
1667825159408953000,4.975953125,0.020145481452345848,-0.6977910995483398,0.1533203125
1667825159418960600,4.985960693359375,-0.03994368761777878,-0.642874538898468,0.14547383785247803
1667825159428968700,4.99596875,-0.13650111854076385,-0.5532402992248535,0.1362968534231186
1667825159438975500,5.0059755859375,-0.27006715536117554,-0.46955499053001404,0.11897938698530197
1667825159448983600,5.015983642578125,-0.4022632837295532,-0.4189687669277191,0.08811388164758682
1667825159458991900,5.025991943359375,-0.5147616267204285,-0.4004294276237488,0.024806013330817223
1667825159468998700,5.03599853515625,-0.5949137210845947,-0.41487789154052734,-0.041905906051397324
1667825159479006700,5.0460068359375,-0.6552672982215881,-0.433323472738266,-0.11753435432910919
1667825159489013800,5.056013671875,-0.7053477764129639,-0.4294714629650116,-0.18843355774879456
1667825159499021800,5.066021728515625,-0.7514625787734985,-0.3962821066379547,-0.2510300874710083
1667825159509028600,5.076028564453125,-0.7933399677276611,-0.3114396333694458,-0.29887670278549194
1667825159519036700,5.08603662109375,-0.8278071284294128,-0.17862540483474731,-0.33200058341026306
1667825159529043700,5.096043701171875,-0.8498618602752686,-0.030901722609996796,-0.3608945310115814
1667825159539051800,5.1060517578125,-0.8468809723854065,0.10296526551246643,-0.3852914869785309
1667825159549058600,5.11605859375,-0.8402185440063477,0.21075405180454254,-0.41449570655822754
1667825159559067000,5.12606689453125,-0.8189902305603027,0.2736200988292694,-0.4552769660949707
1667825159569074700,5.13607470703125,-0.789010226726532,0.30116942524909973,-0.5105308890342712
1667825159579081700,5.146081787109375,-0.7498500347137451,0.3090633153915405,-0.5862448215484619
1667825159589089500,5.156089599609375,-0.711983859539032,0.31678327918052673,-0.6691591739654541
1667825159599096800,5.166096923828125,-0.6812025308609009,0.3682235777378082,-0.7447407245635986
1667825159609104600,5.176104736328125,-0.6530004143714905,0.47264984250068665,-0.788109540939331
1667825159619111700,5.186111572265625,-0.6241794228553772,0.5913160443305969,-0.7861265540122986
1667825159629119700,5.19611962890625,-0.5845726728439331,0.7125718593597412,-0.7269271016120911
1667825159639126800,5.206126708984375,-0.5135021805763245,0.7945227026939392,-0.6430695056915283
1667825159649134600,5.216134521484375,-0.41296306252479553,0.8299981355667114,-0.5489161014556885
1667825159659142000,5.226141845703125,-0.2679118812084198,0.8029622435569763,-0.44766220450401306
1667825159669149700,5.236149658203125,-0.0714491456747055,0.7174614667892456,-0.3469739258289337
1667825159679157800,5.24615771484375,0.15609905123710632,0.5973230600357056,-0.23912203311920166
1667825159689164500,5.25616455078125,0.40537387132644653,0.4303460419178009,-0.1356521099805832
1667825159699172600,5.266172607421875,0.6524100303649902,0.23425830900669098,-0.04265478625893593
1667825159709179600,5.2761796875,0.8778356909751892,0.09271875023841858,0.04357117787003517
1667825159719187700,5.286187744140625,1.0589162111282349,0.020918065682053566,0.12480291724205017
1667825159729194800,5.29619482421875,1.1864739656448364,0.049735065549612045,0.2133769989013672
1667825159739202800,5.306202880859375,1.2602133750915527,0.15640504658222198,0.31122684478759766
1667825159749209600,5.316209716796875,1.290602207183838,0.2745223641395569,0.40426892042160034
1667825159759217700,5.3262177734375,1.2904274463653564,0.3794195055961609,0.48786768317222595
1667825159769224700,5.336224609375,1.309340000152588,0.4529147446155548,0.5534186959266663
1667825159779232800,5.346232666015625,1.3580834865570068,0.4896724820137024,0.6079402565956116
1667825159789240600,5.356240478515625,1.419035792350769,0.4932054579257965,0.6533517241477966
1667825159799247600,5.36624755859375,1.4676851034164429,0.4785119891166687,0.7120168805122375
1667825159809255700,5.376255615234375,1.4749773740768433,0.447517067193985,0.7750352621078491
1667825159819262700,5.3862626953125,1.4288876056671143,0.402688592672348,0.8462790846824646
1667825159829270500,5.3962705078125,1.3264782428741455,0.3414910137653351,0.9242857098579407
1667825159839277800,5.40627783203125,1.1739627122879028,0.24410107731819153,0.9970659613609314
1667825159849285600,5.41628564453125,0.9887262582778931,0.09703360497951508,1.0526410341262817
1667825159859292700,5.426292724609375,0.7772190570831299,-0.09359706193208694,1.0722224712371826
1667825159869300500,5.436300537109375,0.5608310699462891,-0.2940009832382202,1.0494436025619507
1667825159879307800,5.446307861328125,0.35397058725357056,-0.45969274640083313,0.9656078815460205
1667825159889315600,5.456315673828125,0.18786203861236572,-0.5630170106887817,0.8374872207641602
1667825159899322600,5.466322509765625,0.08199872821569443,-0.5987350940704346,0.6772687435150146
1667825159909330700,5.47633056640625,0.030794396996498108,-0.5483174324035645,0.5081407427787781
1667825159919338800,5.4863388671875,0.008621451444923878,-0.44330498576164246,0.35942208766937256
1667825159929345500,5.496345458984375,-0.010656639002263546,-0.31198930740356445,0.2387382686138153
1667825159939353600,5.506353515625,-0.024411866441369057,-0.17542588710784912,0.15724873542785645
1667825159949360600,5.516360595703125,-0.021226724609732628,-0.0542784184217453,0.10766094923019409
1667825159959368700,5.52636865234375,-0.000496945867780596,0.03634629026055336,0.07083768397569656
1667825159969375500,5.53637548828125,0.03628743439912796,0.09826371818780899,0.038964975625276566
1667825159979383800,5.5463837890625,0.09332275390625,0.1604064553976059,0.022479210048913956
1667825159989390600,5.556390625,0.1620645374059677,0.21037587523460388,0.030471090227365494
1667825159999398700,5.566398681640625,0.22452764213085175,0.23628950119018555,0.06295739114284515
1667825160009405700,5.57640576171875,0.26190751791000366,0.23903201520442963,0.11155235767364502
1667825160019413800,5.586413818359375,0.27508509159088135,0.20548604428768158,0.16302593052387238
1667825160029421600,5.596421630859375,0.26164811849594116,0.15083718299865723,0.20284391939640045
1667825160039428600,5.6064287109375,0.23259036242961884,0.08239607512950897,0.23415444791316986
1667825160049436700,5.616436767578125,0.19079844653606415,0.021149493753910065,0.26615631580352783
1667825160059443700,5.626443603515625,0.13584837317466736,0.026265159249305725,0.3022962212562561
1667825160069451500,5.636451416015625,0.07317807525396347,0.08891415596008301,0.3619137406349182
1667825160079458800,5.646458740234375,0.014398380182683468,0.18193304538726807,0.4392649829387665
1667825160089466600,5.656466552734375,-0.024029968306422234,0.2641884982585907,0.5130249857902527
1667825160099473700,5.6664736328125,-0.05835998058319092,0.3113293945789337,0.5731316804885864
1667825160109481500,5.6764814453125,-0.0981457382440567,0.33486106991767883,0.6053178906440735
1667825160119488800,5.68648876953125,-0.16524861752986908,0.3724750280380249,0.6229671835899353
1667825160129496600,5.69649658203125,-0.2516018748283386,0.44013530015945435,0.6391642689704895
1667825160139504600,5.706504638671875,-0.33205172419548035,0.5152678489685059,0.65520179271698
1667825160149511700,5.71651171875,-0.3853761851787567,0.5459293723106384,0.6629177927970886
1667825160159519700,5.726519775390625,-0.39623841643333435,0.4814068377017975,0.6473931670188904
1667825160169526500,5.736526611328125,-0.382064551115036,0.2825842797756195,0.5891562104225159
1667825160179534600,5.74653466796875,-0.38235002756118774,0.0029206888284534216,0.4817732870578766
1667825160189541600,5.756541748046875,-0.4206031560897827,-0.30201366543769836,0.3340056836605072
1667825160199549700,5.7665498046875,-0.513913631439209,-0.5769581198692322,0.16735516488552094
1667825160209556500,5.776556396484375,-0.6678100228309631,-0.7773119807243347,-0.01792866736650467
1667825160219564800,5.786564697265625,-0.8739951252937317,-0.8513039350509644,-0.22045807540416718
1667825160229572900,5.79657275390625,-1.101929783821106,-0.766589343547821,-0.4188747704029083
1667825160239579600,5.80657958984375,-1.29782235622406,-0.5757074952125549,-0.5995614528656006
1667825160249587700,5.816587646484375,-1.4381719827651978,-0.4141625463962555,-0.7353288531303406
1667825160259594800,5.8265947265625,-1.5229350328445435,-0.3480154871940613,-0.8289123177528381
1667825160269602800,5.836602783203125,-1.5282765626907349,-0.3648432195186615,-0.9024131894111633
1667825160279609600,5.846609619140625,-1.4486597776412964,-0.40451472997665405,-0.9694699645042419
1667825160289617700,5.85661767578125,-1.2859163284301758,-0.44335854053497314,-1.0235705375671387
1667825160299624700,5.866624755859375,-1.0758289098739624,-0.48734328150749207,-1.0600422620773315
1667825160309632800,5.8766328125,-0.8423138856887817,-0.5259798765182495,-1.067778468132019
1667825160319639800,5.886639892578125,-0.6143121719360352,-0.5478724241256714,-1.0304081439971924
1667825160329647900,5.89664794921875,-0.3995971977710724,-0.5552331209182739,-0.9443486332893372
1667825160339654700,5.906654541015625,-0.20186388492584229,-0.5838690400123596,-0.8350895643234253
1667825160349662700,5.916662841796875,-0.03524880111217499,-0.6402790546417236,-0.726405918598175
1667825160359670500,5.92667041015625,0.11228073388338089,-0.7167437076568604,-0.64742511510849
1667825160369677800,5.936677734375,0.25243571400642395,-0.8423554301261902,-0.610224187374115
1667825160379685600,5.946685546875,0.38002270460128784,-0.9884492754936218,-0.5983169674873352
1667825160389692700,5.956692626953125,0.4786643087863922,-1.1293810606002808,-0.5942825078964233
1667825160399700700,5.96670068359375,0.5396901369094849,-1.2120776176452637,-0.5704988837242126
1667825160409707800,5.976707763671875,0.561948299407959,-1.2154150009155273,-0.5080256462097168
1667825160419715600,5.986715576171875,0.5475214123725891,-1.1364965438842773,-0.4140975773334503
1667825160429723000,5.996722900390625,0.5023813843727112,-0.9994734525680542,-0.29771745204925537
1667825160439730700,6.006730712890625,0.437546968460083,-0.7998167872428894,-0.1505114734172821
1667825160449737700,6.01673779296875,0.37526175379753113,-0.5485933423042297,0.013438044115900993
1667825160459745500,6.02674560546875,0.3340384364128113,-0.3040560185909271,0.1814156025648117
1667825160469753900,6.03675390625,0.31737688183784485,-0.12787087261676788,0.3448426127433777
1667825160479760600,6.0467607421875,0.3146743178367615,-0.019527096301317215,0.48000574111938477
1667825160489768700,6.056768798828125,0.31065481901168823,0.019510317593812943,0.591230034828186
1667825160499775700,6.066775634765625,0.286241352558136,0.007956193760037422,0.6770713925361633
1667825160509783800,6.07678369140625,0.23085345327854156,-0.027832429856061935,0.7484033703804016
1667825160519790600,6.08679052734375,0.13606515526771545,-0.08862920105457306,0.8100630044937134
1667825160529798700,6.096798583984375,0.006066414527595043,-0.16228237748146057,0.8583391904830933
1667825160539805700,6.1068056640625,-0.13614824414253235,-0.2747732400894165,0.8620609641075134
1667825160549813800,6.116813720703125,-0.26971057057380676,-0.40424787998199463,0.8100001811981201
1667825160559820500,6.126820556640625,-0.38282302021980286,-0.5459730625152588,0.6872193813323975
1667825160569828900,6.136828857421875,-0.48043105006217957,-0.6777212023735046,0.49167677760124207
1667825160579836700,6.146836669921875,-0.5602174997329712,-0.7826367020606995,0.2324148714542389
1667825160589843700,6.15684375,-0.6147225499153137,-0.8490394353866577,-0.08375801146030426
1667825160599851500,6.1668515625,-0.654969334602356,-0.8540640473365784,-0.42649245262145996
1667825160609858800,6.17685888671875,-0.6935492157936096,-0.8108769059181213,-0.7660593390464783
1667825160619866600,6.18686669921875,-0.7467969655990601,-0.6947486996650696,-1.0746022462844849
1667825160629873700,6.196873779296875,-0.820619523525238,-0.5139951705932617,-1.3199886083602905
1667825160639881700,6.2068818359375,-0.9108937382698059,-0.2656889259815216,-1.480814814567566
1667825160649888800,6.216888671875,-0.9684052467346191,0.02527819201350212,-1.552241325378418
1667825160659896600,6.226896484375,-0.9678033590316772,0.37681570649147034,-1.5355310440063477
1667825160669904000,6.23690380859375,-0.8857958912849426,0.7215664386749268,-1.4444186687469482
1667825160679911700,6.24691162109375,-0.7426115274429321,1.0197113752365112,-1.273407220840454
1667825160689919700,6.256919677734375,-0.5426347851753235,1.1970096826553345,-1.0433849096298218
1667825160699926500,6.266926513671875,-0.2710285782814026,1.1572489738464355,-0.7946305274963379
1667825160709934600,6.2769345703125,0.06196350231766701,0.8933733701705933,-0.557084321975708
1667825160719941600,6.286941650390625,0.4271518588066101,0.508669376373291,-0.34508123993873596
1667825160729949700,6.29694970703125,0.7775764465332031,0.12136184424161911,-0.16736581921577454
1667825160739956700,6.306956787109375,1.0547220706939697,-0.16068768501281738,-0.01606791652739048
1667825160749964800,6.31696484375,1.2343597412109375,-0.32504385709762573,0.0808359906077385
1667825160759971600,6.3269716796875,1.3006724119186401,-0.36246687173843384,0.11534177511930466
1667825160769979600,6.336979736328125,1.2488625049591064,-0.23131364583969116,0.09025852382183075
1667825160779986700,6.346986572265625,1.0990841388702393,0.07176925987005234,-0.006936469115316868
1667825160789994800,6.356994873046875,0.889222264289856,0.4970790147781372,-0.16665342450141907
1667825160800002600,6.36700244140625,0.7008284330368042,0.9691773056983948,-0.35661324858665466
1667825160810009600,6.377009521484375,0.6160624027252197,1.435185194015503,-0.5298182964324951
1667825160820017700,6.387017578125,0.6806600093841553,1.826011300086975,-0.6200461983680725
1667825160830024700,6.397024658203125,0.8431863784790039,2.0543129444122314,-0.6221967339515686
1667825160840032500,6.407032470703125,1.0277711153030396,2.1209726333618164,-0.5473933219909668
1667825160850039800,6.417039794921875,1.1928378343582153,1.9949281215667725,-0.42984458804130554
1667825160860047600,6.427047607421875,1.2964500188827515,1.7396308183670044,-0.28249481320381165
1667825160870054700,6.4370546875,1.321966290473938,1.4197114706039429,-0.09190116077661514
1667825160880062500,6.4470625,1.2590410709381104,1.102524995803833,0.13064642250537872
1667825160890069800,6.45706982421875,1.1043494939804077,0.8495934009552002,0.3635483980178833
1667825160900077600,6.46707763671875,0.8685929179191589,0.6247496008872986,0.5746164321899414
1667825160910085600,6.477085693359375,0.5696962475776672,0.40405720472335815,0.7355011701583862
1667825160920092700,6.4870927734375,0.23348411917686462,0.2136041671037674,0.8452276587486267
1667825160930100700,6.497100830078125,-0.10464572161436081,0.043416447937488556,0.9129763841629028
1667825160940107500,6.507107421875,-0.4063531160354614,-0.12808473408222198,0.9499040246009827
1667825160950115600,6.517115478515625,-0.6297622323036194,-0.25853806734085083,0.9656257033348083
1667825160960122600,6.52712255859375,-0.7647925019264221,-0.36320164799690247,0.9586279988288879
1667825160970130700,6.537130615234375,-0.8218267560005188,-0.4506036639213562,0.9422865509986877
1667825160980137500,6.547137451171875,-0.8237063884735107,-0.515709400177002,0.9098913669586182
1667825160990145800,6.557145751953125,-0.8025001883506775,-0.5455935597419739,0.8713966608047485
1667825161000152600,6.567152587890625,-0.7713928818702698,-0.5408602952957153,0.8210565447807312
1667825161010160600,6.57716064453125,-0.7309434413909912,-0.48180046677589417,0.7509352564811707
1667825161020168700,6.587168701171875,-0.6820592284202576,-0.3711296021938324,0.672312319278717
1667825161030175700,6.59717578125,-0.6387224197387695,-0.21227045357227325,0.5894374251365662
1667825161040183800,6.607183837890625,-0.601701021194458,-0.016760604456067085,0.48820215463638306
1667825161050190600,6.617190673828125,-0.5709282159805298,0.18936645984649658,0.3890838325023651
1667825161060198700,6.62719873046875,-0.5423040390014648,0.3772977590560913,0.2988434135913849
1667825161070205700,6.637205810546875,-0.5146675705909729,0.5357366800308228,0.22695325314998627
1667825161080213800,6.6472138671875,-0.48619309067726135,0.6353055834770203,0.17944352328777313
1667825161090220800,6.657220703125,-0.4446871876716614,0.6548028588294983,0.15582367777824402
1667825161100228900,6.667228759765625,-0.40250298380851746,0.6021372675895691,0.14346235990524292
1667825161110235600,6.677235595703125,-0.36284956336021423,0.5295048356056213,0.14626745879650116
1667825161120243700,6.68724365234375,-0.335557222366333,0.47300830483436584,0.1939966380596161
1667825161130251500,6.69725146484375,-0.31877613067626953,0.4440794587135315,0.26454803347587585
1667825161140258800,6.7072587890625,-0.31851112842559814,0.4593939483165741,0.35790008306503296
1667825161150266600,6.7172666015625,-0.3257264494895935,0.5022152066230774,0.4662579894065857
1667825161160273700,6.727273681640625,-0.34004971385002136,0.556117594242096,0.5880664587020874
1667825161170281700,6.73728173828125,-0.36065247654914856,0.6053948402404785,0.7059280872344971
1667825161180288800,6.747288818359375,-0.368508517742157,0.6341361999511719,0.8237705826759338
1667825161190296600,6.757296630859375,-0.34514567255973816,0.5861644148826599,0.9181790947914124
1667825161200303900,6.767303955078125,-0.3015798330307007,0.38547632098197937,0.9596360325813293
1667825161210311700,6.777311767578125,-0.24502679705619812,0.02864469401538372,0.9200974106788635
1667825161220318700,6.787318603515625,-0.21477754414081573,-0.44200271368026733,0.7803075313568115
1667825161230326500,6.797326416015625,-0.22880388796329498,-0.938370943069458,0.5431471467018127
1667825161240333800,6.807333740234375,-0.2894025146961212,-1.3885865211486816,0.220320925116539
1667825161250341600,6.817341552734375,-0.39146098494529724,-1.723374366760254,-0.15569159388542175
1667825161260349700,6.827349609375,-0.5261309146881104,-1.9034531116485596,-0.533412516117096
1667825161270356700,6.837356689453125,-0.6892092823982239,-1.895204782485962,-0.8633866906166077
1667825161280364800,6.84736474609375,-0.8789477944374084,-1.6826038360595703,-1.109108328819275
1667825161290371600,6.85737158203125,-1.0652947425842285,-1.3095521926879883,-1.240548849105835
1667825161300379600,6.867379638671875,-1.191150426864624,-0.9642118215560913,-1.2734589576721191
1667825161310386700,6.87738671875,-1.2321308851242065,-0.7214335799217224,-1.2588245868682861
1667825161320394800,6.887394775390625,-1.1763837337493896,-0.5564587116241455,-1.2054260969161987
1667825161330401500,6.897401611328125,-1.0184968709945679,-0.4724959135055542,-1.1374741792678833
1667825161340409900,6.907409912109375,-0.7776909470558167,-0.4953884482383728,-1.0570578575134277
1667825161350417700,6.917417724609375,-0.4883028268814087,-0.6124775409698486,-0.9611878395080566
1667825161360424700,6.9274248046875,-0.17870956659317017,-0.784527063369751,-0.8743730187416077
1667825161370432500,6.9374326171875,0.1145460233092308,-0.9420570135116577,-0.7920651435852051
1667825161380439800,6.947439697265625,0.3416356146335602,-1.0492295026779175,-0.7509970664978027
1667825161390447600,6.957447509765625,0.48447346687316895,-1.0974854230880737,-0.744931161403656
1667825161400454700,6.96745458984375,0.5526882410049438,-1.0620473623275757,-0.748367965221405
1667825161410462700,6.977462646484375,0.5479118227958679,-0.9910051226615906,-0.749036967754364
1667825161420473600,6.9874736328125,0.4788190424442291,-0.8967412114143372,-0.7363470196723938
1667825161430481700,6.997481689453125,0.3697306513786316,-0.7915122509002686,-0.7102786302566528
1667825161440488700,7.00748876953125,0.24154257774353027,-0.6991431713104248,-0.656541645526886
1667825161450496800,7.017496826171875,0.1486789584159851,-0.6336160898208618,-0.5846578478813171
1667825161460503600,7.027503662109375,0.11039122194051743,-0.5757735371589661,-0.4789822995662689
1667825161470511600,7.03751171875,0.1286967247724533,-0.5372682213783264,-0.35083046555519104
1667825161480519700,7.047519775390625,0.1676049828529358,-0.49666276574134827,-0.21110744774341583
1667825161490526700,7.057526611328125,0.19625473022460938,-0.44328609108924866,-0.06354249268770218
1667825161500534800,7.06753466796875,0.19254547357559204,-0.3850265145301819,0.06699234992265701
1667825161510541600,7.07754150390625,0.14778199791908264,-0.31495049595832825,0.1810893565416336
1667825161520550000,7.0875498046875,0.06845442205667496,-0.23452648520469666,0.2777346670627594
1667825161530556700,7.097556640625,-0.03317153453826904,-0.17461174726486206,0.3462072014808655
1667825161540564700,7.107564697265625,-0.139664426445961,-0.1290714293718338,0.3938429057598114
1667825161550571800,7.11757177734375,-0.23635554313659668,-0.10045656561851501,0.4249526262283325
1667825161560579800,7.127579833984375,-0.29878056049346924,-0.08129512518644333,0.45001110434532166
1667825161570587600,7.137587646484375,-0.32505717873573303,-0.08920710533857346,0.4654340147972107
1667825161580594700,7.1475947265625,-0.31699126958847046,-0.124077208340168,0.43754616379737854
1667825161590602800,7.157602783203125,-0.2908685803413391,-0.17428551614284515,0.3693077266216278
1667825161600609800,7.16760986328125,-0.2510055899620056,-0.2068016529083252,0.25240054726600647
1667825161610617600,7.17761767578125,-0.21441349387168884,-0.20389480888843536,0.09567539393901825
1667825161620625000,7.187625,-0.19200485944747925,-0.1303311139345169,-0.08605578541755676
1667825161630632700,7.1976328125,-0.17168253660202026,0.0019105518003925681,-0.2687438428401947
1667825161640639700,7.2076396484375,-0.15488891303539276,0.13848917186260223,-0.44406744837760925
1667825161650647600,7.2176474609375,-0.1396026313304901,0.2483925074338913,-0.5964245200157166
1667825161660654800,7.22765478515625,-0.11736710369586945,0.3499734401702881,-0.6994022727012634
1667825161670662700,7.23766259765625,-0.08827979117631912,0.4527837336063385,-0.7265105843544006
1667825161680670700,7.247670654296875,-0.03936631605029106,0.5661702156066895,-0.6811593770980835
1667825161690677800,7.257677734375,0.035173967480659485,0.6907281279563904,-0.5541564226150513
1667825161700685800,7.267685791015625,0.14572125673294067,0.8004682064056396,-0.3583424389362335
1667825161710692600,7.277692626953125,0.2971262037754059,0.8120071291923523,-0.11873330920934677
1667825161720700700,7.28770068359375,0.4924112856388092,0.6597344875335693,0.10676240175962448
1667825161730707700,7.297707763671875,0.7368466258049011,0.36868375539779663,0.29630303382873535
1667825161740715800,7.3077158203125,1.0111892223358154,0.03660115599632263,0.429886132478714
1667825161750722600,7.31772265625,1.2818752527236938,-0.27401742339134216,0.48974332213401794
1667825161760730600,7.327730712890625,1.50688898563385,-0.5143941044807434,0.44385626912117004
1667825161770737700,7.337737548828125,1.6648879051208496,-0.6469957828521729,0.3293192982673645
1667825161780745700,7.347745849609375,1.7420830726623535,-0.6369908452033997,0.19678710401058197
1667825161790752800,7.357752685546875,1.7332392930984497,-0.4734634459018707,0.07385904341936111
1667825161800760800,7.3677607421875,1.6505835056304932,-0.1292181760072708,0.02315645106136799
1667825161810768600,7.3777685546875,1.5390130281448364,0.3264889121055603,0.06459390372037888
1667825161820775700,7.387775634765625,1.4502190351486206,0.7256485223770142,0.1968986839056015
1667825161830783500,7.397783447265625,1.4296785593032837,0.9773140549659729,0.38374125957489014
1667825161840790800,7.407790771484375,1.482379674911499,1.0316764116287231,0.5643981099128723
1667825161850798600,7.417798583984375,1.5826455354690552,0.9666659235954285,0.7187701463699341
1667825161860805600,7.4278056640625,1.6889621019363403,0.8176471590995789,0.8374800086021423
1667825161870813700,7.437813720703125,1.7392140626907349,0.6182059645652771,0.9333016276359558
1667825161880820700,7.44782080078125,1.6968677043914795,0.47717827558517456,1.0145914554595947
1667825161890828500,7.45782861328125,1.5685491561889648,0.41475164890289307,1.0920846462249756
1667825161900835800,7.4678359375,1.3659145832061768,0.38531413674354553,1.1550662517547607
1667825161910843600,7.47784375,1.1199032068252563,0.3484187126159668,1.203678011894226
1667825161920851700,7.487851806640625,0.8502594232559204,0.29072317481040955,1.2172528505325317
1667825161930858500,7.4978583984375,0.5934324264526367,0.21689662337303162,1.202940583229065
1667825161940866800,7.50786669921875,0.3760146498680115,0.10469605028629303,1.1369471549987793
1667825161950873600,7.51787353515625,0.21974727511405945,0.004532434046268463,1.0203776359558105
1667825161960881700,7.527881591796875,0.13377271592617035,-0.050094857811927795,0.8587647676467896
1667825161970888700,7.537888671875,0.08891496062278748,-0.03925579413771629,0.6655279397964478
1667825161980896800,7.547896728515625,0.05082935839891434,0.04514377564191818,0.4816095232963562
1667825161990903600,7.557903564453125,0.0006998787284828722,0.18189336359500885,0.34892070293426514
1667825162000911600,7.56791162109375,-0.06949012726545334,0.35573306679725647,0.27922526001930237
1667825162010918700,7.577918701171875,-0.14288125932216644,0.5218874216079712,0.27117183804512024
1667825162020926700,7.5879267578125,-0.19688084721565247,0.6620136499404907,0.2976383566856384
1667825162030934500,7.5979345703125,-0.2174934446811676,0.7499123215675354,0.327190637588501
1667825162040941800,7.60794189453125,-0.20181673765182495,0.7531206607818604,0.333877831697464
1667825162050949600,7.61794970703125,-0.14811170101165771,0.7006717920303345,0.3081711530685425
1667825162060956700,7.627956787109375,-0.08178887516260147,0.6284769773483276,0.2690376043319702
1667825162070964500,7.637964599609375,-0.039384689182043076,0.5739820599555969,0.2435375601053238
1667825162080971800,7.6479716796875,-0.03371375426650047,0.5532927513122559,0.23520585894584656
1667825162090979600,7.6579794921875,-0.06469883769750595,0.5525859594345093,0.23647405207157135
1667825162100986600,7.667986572265625,-0.09879741817712784,0.5469570755958557,0.24201689660549164
1667825162110994700,7.67799462890625,-0.12092668563127518,0.5104014873504639,0.23525139689445496
1667825162121001700,7.688001708984375,-0.13278494775295258,0.41273191571235657,0.20782697200775146
1667825162131009500,7.698009521484375,-0.1471567004919052,0.2928268015384674,0.1535741090774536
1667825162141016800,7.708016845703125,-0.16394472122192383,0.19048579037189484,0.09274884313344955
1667825162151024600,7.718024658203125,-0.18582099676132202,0.11078403890132904,0.03074619546532631
1667825162161032700,7.72803271484375,-0.22066687047481537,0.06242210045456886,-0.029314745217561722
1667825162171039500,7.73803955078125,-0.2788252532482147,0.08627256751060486,-0.06479950249195099
1667825162181047600,7.748047607421875,-0.339781790971756,0.18205341696739197,-0.052567072212696075
1667825162191054600,7.7580546875,-0.3834448456764221,0.29743728041648865,0.014210627414286137
1667825162201062700,7.768062744140625,-0.40674299001693726,0.3689045310020447,0.12331527471542358
1667825162211069700,7.778069580078125,-0.4013277292251587,0.35666143894195557,0.23959554731845856
1667825162221077800,7.788077880859375,-0.37979820370674133,0.2584187686443329,0.3639262914657593
1667825162231084500,7.79808447265625,-0.36106500029563904,0.12424125522375107,0.4774208962917328
1667825162241092600,7.808092529296875,-0.35495224595069885,-0.0241913553327322,0.5753692984580994
1667825162251099600,7.818099609375,-0.3561890125274658,-0.22619745135307312,0.6340571045875549
1667825162261107700,7.828107666015625,-0.3822981119155884,-0.476958304643631,0.6294652819633484
1667825162271115800,7.83811572265625,-0.42936229705810547,-0.7365235686302185,0.5423541069030762
1667825162281122600,7.84812255859375,-0.5086358189582825,-0.9241629838943481,0.39651966094970703
1667825162291131000,7.858130859375,-0.6253632307052612,-1.0138577222824097,0.19345387816429138
1667825162301137700,7.8681376953125,-0.7691121101379395,-1.0258320569992065,-0.06051580607891083
1667825162311145700,7.878145751953125,-0.9249885678291321,-0.9934791922569275,-0.33279871940612793
1667825162321152800,7.88815283203125,-1.074054479598999,-0.9012920260429382,-0.5874999761581421
1667825162331160800,7.898160888671875,-1.2107633352279663,-0.7804334759712219,-0.8103240132331848
1667825162341167600,7.908167724609375,-1.2979732751846313,-0.6434543132781982,-0.9827889800071716
1667825162351175700,7.91817578125,-1.3205989599227905,-0.5094504356384277,-1.1025625467300415
1667825162361182700,7.9281826171875,-1.2805039882659912,-0.3757491111755371,-1.157670259475708
1667825162371190800,7.938190673828125,-1.1970208883285522,-0.22658734023571014,-1.149169683456421
1667825162381197600,7.948197509765625,-1.0798494815826416,-0.08915837109088898,-1.078545093536377
1667825162391206000,7.958205810546875,-0.931197464466095,0.02016199380159378,-0.965207576751709
1667825162401213700,7.968213623046875,-0.7619434595108032,0.09898862987756729,-0.8316841721534729
1667825162411220700,7.978220703125,-0.5873141288757324,0.12318664789199829,-0.6883770823478699
1667825162421228500,7.988228515625,-0.41769710183143616,0.09148623794317245,-0.5475733280181885
1667825162431231000,7.99823095703125,-0.27607765793800354,0.009778328239917755,-0.4184443950653076
1667825162441239000,8.008239013671876,-0.16969209909439087,-0.11027910560369492,-0.29960429668426514
1667825162451246000,8.01824609375,-0.10738371312618256,-0.2342151552438736,-0.19237902760505676
1667825162461254100,8.028254150390625,-0.08339022845029831,-0.36041757464408875,-0.09311369806528091
1667825162471262000,8.038261962890624,-0.08240778744220734,-0.4505636990070343,-0.00872345082461834
1667825162481269200,8.048269287109376,-0.11305598169565201,-0.4902261793613434,0.0710986778140068
1667825162491277000,8.058277099609375,-0.1440623700618744,-0.507706880569458,0.1456216424703598
1667825162501284000,8.0682841796875,-0.17453105747699738,-0.5044605135917664,0.19948914647102356
1667825162511292000,8.0782919921875,-0.20079542696475983,-0.4956667423248291,0.23992684483528137
1667825162521299200,8.08829931640625,-0.2052743285894394,-0.5275881886482239,0.26119351387023926
1667825162531307000,8.09830712890625,-0.20768475532531738,-0.5761125683784485,0.2706544101238251
1667825162541314000,8.10831396484375,-0.20698221027851105,-0.6627108454704285,0.25735270977020264
1667825162551321900,8.11832177734375,-0.220564603805542,-0.7598576545715332,0.20977693796157837
1667825162561329200,8.1283291015625,-0.2621924579143524,-0.8228118419647217,0.1561560481786728
1667825162571337000,8.1383369140625,-0.33837324380874634,-0.8599461317062378,0.07947219163179398
1667825162581344000,8.148343994140625,-0.4426887333393097,-0.872850775718689,-0.012064918875694275
1667825162591352000,8.15835205078125,-0.549468994140625,-0.8371984958648682,-0.1185133308172226
1667825162601360100,8.168360107421876,-0.6585696339607239,-0.7463258504867554,-0.22756871581077576
1667825162611367000,8.178366943359375,-0.7485778331756592,-0.6314575672149658,-0.33467385172843933
1667825162621375000,8.188375,-0.8112441301345825,-0.5148143172264099,-0.4354265630245209
1667825162631382000,8.198382080078124,-0.8361856937408447,-0.4217562973499298,-0.5279586315155029
1667825162641390000,8.20839013671875,-0.8230667114257812,-0.3274122178554535,-0.6087757349014282
1667825162651396900,8.21839697265625,-0.7830612063407898,-0.23754490911960602,-0.6765987277030945
1667825162661405200,8.2284052734375,-0.7205419540405273,-0.16837196052074432,-0.7299239635467529
1667825162671412000,8.238411865234376,-0.6570042371749878,-0.0868627279996872,-0.7870900630950928
1667825162681420000,8.248419921875,-0.6003513336181641,0.03167057782411575,-0.8276984691619873
1667825162691427000,8.258427001953125,-0.55851149559021,0.18700477480888367,-0.8500125408172607
1667825162701435100,8.26843505859375,-0.5178585648536682,0.38121604919433594,-0.8236685991287231
1667825162711442000,8.27844189453125,-0.46605584025382996,0.5880254507064819,-0.7561166882514954
1667825162721450000,8.288449951171875,-0.39205726981163025,0.7592129111289978,-0.6483015418052673
1667825162731458000,8.2984580078125,-0.28642216324806213,0.8671204447746277,-0.5184804201126099
1667825162741465000,8.308465087890625,-0.14840438961982727,0.8685390949249268,-0.39494839310646057
1667825162751473000,8.318472900390624,0.01786981150507927,0.7578019499778748,-0.28864696621894836
1667825162761480200,8.328480224609375,0.21815204620361328,0.5437495708465576,-0.21786202490329742
1667825162771488000,8.338488037109375,0.44315212965011597,0.279965341091156,-0.1848561316728592
1667825162781495000,8.3484951171875,0.6833929419517517,0.041554369032382965,-0.17237336933612823
1667825162791502800,8.3585029296875,0.9238495230674744,-0.13535435497760773,-0.16997092962265015
1667825162801510100,8.36851025390625,1.1562118530273438,-0.2050972282886505,-0.16814559698104858
1667825162811518000,8.37851806640625,1.3760143518447876,-0.19114118814468384,-0.13107866048812866
1667825162821525000,8.38852490234375,1.5772159099578857,-0.10637650638818741,-0.04018310457468033
1667825162831533000,8.398532958984376,1.7567635774612427,-0.0032051142770797014,0.10819438099861145
1667825162841541000,8.408541015625,1.9091224670410156,0.08536896109580994,0.3031420409679413
1667825162851548000,8.4185478515625,2.0350992679595947,0.1369227021932602,0.5007174015045166
1667825162861556000,8.428555908203125,2.1332807540893555,0.17574092745780945,0.6598833799362183
1667825162871563000,8.43856298828125,2.2239158153533936,0.19614766538143158,0.7828335165977478
1667825162881571000,8.448571044921875,2.2643768787384033,0.19562596082687378,0.851929783821106
1667825162891577900,8.458577880859375,2.2250537872314453,0.17435422539710999,0.8829870223999023
1667825162901586200,8.468586181640624,2.0762994289398193,0.14084580540657043,0.8681194186210632
1667825162911593000,8.478593017578126,1.8333666324615479,0.07757335156202316,0.8297637701034546
1667825162921601000,8.48860107421875,1.532224416732788,0.015671370550990105,0.7669768333435059
1667825162931608000,8.498608154296875,1.2122045755386353,-0.028248416259884834,0.7040412425994873
1667825162941616000,8.5086162109375,0.9191205501556396,-0.06446927040815353,0.651387095451355
1667825162951624200,8.518624267578126,0.6747869849205017,-0.09035679697990417,0.624717116355896
1667825162961631000,8.528630859375,0.5096789598464966,-0.07664231210947037,0.6138882040977478
1667825162971639000,8.53863916015625,0.41938316822052,-0.004029096569865942,0.6048531532287598
1667825162981646000,8.54864599609375,0.38836610317230225,0.10242997109889984,0.596916139125824
1667825162991654100,8.558654052734376,0.37753716111183167,0.22835300862789154,0.5894795060157776
1667825163001661200,8.5686611328125,0.37131255865097046,0.3387080132961273,0.5846416354179382
1667825163011669200,8.578669189453125,0.34301912784576416,0.4134538769721985,0.5622628331184387
1667825163021676000,8.588676025390624,0.2948441505432129,0.46133992075920105,0.525858461856842
1667825163031684000,8.59868408203125,0.23670068383216858,0.5080791711807251,0.47804221510887146
1667825163041691100,8.608691162109375,0.18365983664989471,0.5313597321510315,0.4273532032966614
1667825163051699200,8.61869921875,0.13824735581874847,0.5166066288948059,0.3701857924461365
1667825163061706000,8.6287060546875,0.0982820987701416,0.505549967288971,0.3058081269264221
1667825163071714000,8.638714111328126,0.0535748116672039,0.5078222155570984,0.24345260858535767
1667825163081722000,8.64872216796875,0.006834736559540033,0.5343808531761169,0.2006814330816269
1667825163091729200,8.658729248046875,-0.050393398851156235,0.5685721039772034,0.17789942026138306
1667825163101737000,8.668737060546874,-0.11402776837348938,0.6019758582115173,0.17259733378887177
1667825163111744300,8.678744140625,-0.18371151387691498,0.6187719106674194,0.18523722887039185
1667825163121752000,8.688751953125,-0.24865402281284332,0.628221869468689,0.21000249683856964
1667825163131759000,8.698759033203125,-0.2998194694519043,0.6472466588020325,0.23375682532787323
1667825163141767000,8.708766845703124,-0.3132399320602417,0.6654592156410217,0.2605455815792084
1667825163151774200,8.718774169921875,-0.3056408762931824,0.6796150207519531,0.28539445996284485
1667825163161782000,8.728781982421875,-0.30932483077049255,0.674547553062439,0.31248146295547485
1667825163171789000,8.7387890625,-0.32219454646110535,0.6800400614738464,0.33262935280799866
1667825163181797000,8.748797119140624,-0.33444616198539734,0.7118541598320007,0.35569897294044495
1667825163191805200,8.75880517578125,-0.33965688943862915,0.7630952596664429,0.3989093005657196
1667825163201812000,8.76881201171875,-0.3337670564651489,0.7939101457595825,0.4641905725002289
1667825163211820000,8.778820068359375,-0.3254105746746063,0.7773658037185669,0.5431013703346252
1667825163221827000,8.7888271484375,-0.32728493213653564,0.7265220284461975,0.6174536347389221
1667825163231835100,8.798835205078126,-0.3127099573612213,0.6218859553337097,0.6690851449966431
1667825163241842000,8.808842041015625,-0.27384620904922485,0.4549635052680969,0.6793068647384644
1667825163251850200,8.818850341796875,-0.23405350744724274,0.26727190613746643,0.6368779540061951
1667825163261857000,8.82885693359375,-0.21872089803218842,0.0985763743519783,0.5550413727760315
1667825163271865000,8.838864990234375,-0.2421702891588211,-0.028898227959871292,0.44884970784187317
1667825163281872100,8.8488720703125,-0.312351256608963,-0.10109519213438034,0.3307044208049774
1667825163291880200,8.858880126953125,-0.41405150294303894,-0.13863937556743622,0.20634570717811584
1667825163301887000,8.868886962890626,-0.5192540884017944,-0.18361324071884155,0.06645279377698898
1667825163311895000,8.87889501953125,-0.6150117516517639,-0.2700008451938629,-0.06844350695610046
1667825163321903000,8.888903076171875,-0.685981035232544,-0.4022795259952545,-0.20034241676330566
1667825163331910100,8.89891015625,-0.7148637771606445,-0.5578049421310425,-0.3325859308242798
1667825163341918000,8.90891796875,-0.7017911672592163,-0.6982150673866272,-0.4756467044353485
1667825163351925200,8.91892529296875,-0.6635206937789917,-0.7745434045791626,-0.6025630831718445
1667825163361933000,8.92893310546875,-0.6101251244544983,-0.7690674066543579,-0.6944562792778015
1667825163371940000,8.938940185546874,-0.5500351786613464,-0.7188295125961304,-0.7426695823669434
1667825163381948000,8.948947998046876,-0.49038249254226685,-0.6426593661308289,-0.7389749884605408
1667825163391955200,8.958955078125,-0.4195285737514496,-0.5795224905014038,-0.7172028422355652
1667825163401963000,8.968962890625,-0.3518342077732086,-0.5768182873725891,-0.6839066743850708
1667825163411970000,8.978969970703124,-0.27649179100990295,-0.6216456890106201,-0.6679453253746033
1667825163421978000,8.98897802734375,-0.20699232816696167,-0.6875389814376831,-0.6679668426513672
1667825163431985400,8.9989853515625,-0.14077310264110565,-0.7598286271095276,-0.6910165548324585
1667825163441993500,9.008993408203125,-0.09198904782533646,-0.828758955001831,-0.710338830947876
1667825163452001500,9.01900146484375,-0.06075122952461243,-0.8814898133277893,-0.7172763347625732
1667825163462008600,9.029008544921876,-0.044972535222768784,-0.9081991910934448,-0.6923577189445496
1667825163472016600,9.0390166015625,-0.04448118060827255,-0.907590925693512,-0.6307912468910217
1667825163482023400,9.0490234375,-0.04677629470825195,-0.8866970539093018,-0.5453653335571289
1667825163492031500,9.059031494140624,-0.06004922091960907,-0.8401631116867065,-0.43340256810188293
1667825163502038500,9.06903857421875,-0.08730587363243103,-0.782512903213501,-0.30252790451049805
1667825163512046600,9.079046630859375,-0.11162133514881134,-0.7154473066329956,-0.16965427994728088
1667825163522053400,9.089053466796875,-0.13040141761302948,-0.6571086049079895,-0.03634495660662651
1667825163532061700,9.099061767578124,-0.14674469828605652,-0.6174200773239136,0.06907600909471512
1667825163542068500,9.109068359375,-0.17416194081306458,-0.6007902026176453,0.15641437470912933
1667825163552076500,9.11907666015625,-0.20317442715168,-0.6123696565628052,0.22498171031475067
1667825163562084400,9.12908447265625,-0.23626233637332916,-0.6416516304016113,0.2714022099971771
1667825163572091600,9.139091552734374,-0.26545536518096924,-0.6655186414718628,0.2911607325077057
1667825163582099500,9.149099365234376,-0.29450565576553345,-0.6943556070327759,0.2662450075149536
1667825163592106500,9.1591064453125,-0.3061647117137909,-0.752861499786377,0.17994074523448944
1667825163602114600,9.169114501953125,-0.3069641888141632,-0.8503678441047668,0.03731381520628929
1667825163612121600,9.17912158203125,-0.3057583272457123,-0.9879360795021057,-0.16471438109874725
1667825163622129400,9.18912939453125,-0.3252776861190796,-1.1622838973999023,-0.4215767979621887
1667825163632136700,9.19913671875,-0.3818032741546631,-1.3204925060272217,-0.737304151058197
1667825163642144500,9.20914453125,-0.4612906575202942,-1.4097049236297607,-1.0832375288009644
1667825163652151600,9.219151611328124,-0.5825614333152771,-1.3294742107391357,-1.4076728820800781
1667825163662159400,9.229159423828126,-0.7164292335510254,-1.025123119354248,-1.6625475883483887
1667825163672166700,9.239166748046875,-0.8776889443397522,-0.5476436614990234,-1.8036271333694458
1667825163682174500,9.249174560546875,-1.0236408710479736,-0.03425224497914314,-1.7972488403320312
1667825163692182500,9.2591826171875,-1.0822525024414062,0.4308624565601349,-1.6654804944992065
1667825163702189600,9.269189453125,-1.0116523504257202,0.7533134818077087,-1.453680396080017
1667825163712197600,9.27919775390625,-0.8134462833404541,0.9205834269523621,-1.1969449520111084
1667825163722204400,9.289204345703125,-0.5074530839920044,0.9333553910255432,-0.9068548083305359
1667825163732212500,9.29921240234375,-0.14609728753566742,0.7967493534088135,-0.6159747838973999
1667825163742219500,9.309219482421875,0.2578163743019104,0.5339214205741882,-0.348514586687088
1667825163752227600,9.3192275390625,0.6663157343864441,0.24749714136123657,-0.10887961089611053
1667825163762234400,9.329234375,1.0399705171585083,0.0027949875220656395,0.0856669694185257
1667825163772242400,9.339242431640624,1.3734891414642334,-0.14972345530986786,0.2355336993932724
1667825163782249500,9.34924951171875,1.6548457145690918,-0.20154030621051788,0.35668036341667175
1667825163792257500,9.359257568359375,1.8847049474716187,-0.15438291430473328,0.47313666343688965
1667825163802264600,9.3692646484375,2.05568265914917,-0.03039039671421051,0.5758302807807922
1667825163812272600,9.379272705078124,2.1648547649383545,0.15579812228679657,0.6701533198356628
1667825163822280400,9.389280517578126,2.2381818294525146,0.38087198138237,0.7359073162078857
1667825163832287500,9.39928759765625,2.3070919513702393,0.5986165404319763,0.787821888923645
1667825163842295300,9.40929541015625,2.375959634780884,0.7664095759391785,0.8242083787918091
1667825163852302600,9.419302490234376,2.437171459197998,0.8638266324996948,0.8389255404472351
1667825163862310400,9.429310302734375,2.4742672443389893,0.9159843921661377,0.849310576915741
1667825163872317400,9.4393173828125,2.4672534465789795,0.9384945034980774,0.8617256879806519
1667825163882325500,9.449325439453125,2.396099090576172,0.9708257913589478,0.9025071859359741
1667825163892332500,9.45933251953125,2.2645647525787354,0.9813522100448608,0.9823392033576965
1667825163902340400,9.46934033203125,2.091359853744507,0.9638307690620422,1.0850166082382202
1667825163912347600,9.47934765625,1.8888064622879028,0.8887402415275574,1.2067272663116455
1667825163922355500,9.48935546875,1.674189805984497,0.7446153163909912,1.3291711807250977
1667825163932363500,9.499363525390624,1.4647724628448486,0.5289011001586914,1.4424200057983398
1667825163942370300,9.509370361328125,1.2613385915756226,0.2823677659034729,1.5432968139648438
1667825163952378600,9.519378662109375,1.078395128250122,0.04448144882917404,1.607388973236084
1667825163962385400,9.529385498046874,0.9300259351730347,-0.13776132464408875,1.6130934953689575
1667825163972393500,9.5393935546875,0.8267514705657959,-0.24774402379989624,1.5464304685592651
1667825163982400500,9.549400390625,0.740071177482605,-0.2951938211917877,1.429474115371704
1667825163992408600,9.55940869140625,0.6431478261947632,-0.28160610795021057,1.2766940593719482
1667825164002415400,9.569415283203124,0.5410802960395813,-0.23988662660121918,1.1092393398284912
1667825164012423400,9.57942333984375,0.42692896723747253,-0.18140867352485657,0.9422101378440857
1667825164022430500,9.589430419921875,0.3183726370334625,-0.0878177359700203,0.7823382019996643
1667825164032438500,9.5994384765625,0.22597187757492065,0.02257401868700981,0.6489516496658325
1667825164042445300,9.6094453125,0.15742744505405426,0.11863237619400024,0.5485422015190125
1667825164052453600,9.61945361328125,0.10325821489095688,0.20097757875919342,0.4731065630912781
1667825164062461400,9.62946142578125,0.07266195118427277,0.24510349333286285,0.41049912571907043
1667825164072468500,9.639468505859375,0.06818731129169464,0.2383049726486206,0.33368051052093506
1667825164082476300,9.649476318359374,0.06518672406673431,0.21326035261154175,0.23072029650211334
1667825164092483600,9.659483642578126,0.05711868032813072,0.18967007100582123,0.1285683661699295
1667825164102491400,9.669491455078125,0.04241696372628212,0.1750117540359497,0.031870581209659576
1667825164112498400,9.67949853515625,0.014028733596205711,0.16847290098667145,-0.03954687714576721
1667825164122506500,9.689506591796874,-0.029253225773572922,0.19585579633712769,-0.08199233561754227
1667825164132513500,9.699513427734376,-0.07285849750041962,0.2515376806259155,-0.09880753606557846
1667825164142521300,9.709521240234375,-0.12488148361444473,0.357822060585022,-0.08600439131259918
1667825164152528600,9.719528564453125,-0.1750493049621582,0.4946957528591156,-0.06610525399446487
1667825164162536400,9.729536376953124,-0.22926540672779083,0.656692624092102,-0.02828463539481163
1667825164172544500,9.73954443359375,-0.27979862689971924,0.8038696050643921,0.02251090109348297
1667825164182551300,9.74955126953125,-0.3093874156475067,0.9060172438621521,0.07392535358667374
1667825164192559400,9.759559326171875,-0.32608383893966675,1.00690495967865,0.13727210462093353
1667825164202566400,9.76956640625,-0.32173702120780945,1.0876312255859375,0.21882209181785583
1667825164212574500,9.779574462890626,-0.2920592725276947,1.1255477666854858,0.3170948624610901
1667825164222581500,9.78958154296875,-0.23584048449993134,1.1274333000183105,0.42989224195480347
1667825164232589600,9.799589599609375,-0.16217665374279022,1.0869721174240112,0.5417623519897461
1667825164242596400,9.809596435546876,-0.09155788272619247,1.0105375051498413,0.6380364298820496
1667825164252604400,9.8196044921875,-0.030714768916368484,0.9073504209518433,0.7104416489601135
1667825164262611500,9.829611572265625,0.023961525410413742,0.7675475478172302,0.7526506185531616
1667825164272619500,9.83961962890625,0.07337594777345657,0.5821105241775513,0.7443780303001404
1667825164282627600,9.849627685546874,0.10330268740653992,0.37178686261177063,0.6785665154457092
1667825164292634400,9.85963427734375,0.10097800940275192,0.150407075881958,0.5649102330207825
1667825164302642700,9.869642578125,0.058698732405900955,-0.06760966777801514,0.4025341272354126
1667825164312649500,9.8796494140625,-0.018436264246702194,-0.27586647868156433,0.2095324546098709
1667825164322657500,9.889657470703124,-0.1370806246995926,-0.4711531400680542,-0.008727445267140865
1667825164332664600,9.89966455078125,-0.2933754324913025,-0.6188352704048157,-0.23168808221817017
1667825164342672600,9.909672607421875,-0.4351040720939636,-0.7112557291984558,-0.4515663981437683
1667825164352679400,9.919679443359374,-0.534304678440094,-0.7524844408035278,-0.6484706401824951
1667825164362687500,9.9296875,-0.5730512738227844,-0.7529097199440002,-0.8130508065223694
1667825164372694500,9.939694580078125,-0.5499118566513062,-0.7339304685592651,-0.9497058987617493
1667825164382702600,9.94970263671875,-0.47821930050849915,-0.6794437766075134,-1.0531361103057861
1667825164392710400,9.95971044921875,-0.36675962805747986,-0.5906952619552612,-1.1247825622558594
1667825164402717700,9.9697177734375,-0.24040168523788452,-0.4741414785385132,-1.143476128578186
1667825164412725500,9.9797255859375,-0.11812610924243927,-0.3098936676979065,-1.0958750247955322
1667825164422732500,9.989732666015625,-0.021252291277050972,-0.09854335337877274,-0.9778051376342773
1667825164432740600,9.99974072265625,0.031554728746414185,0.12081776559352875,-0.8143959641456604
1667825164442748000,10.009747802734376,0.043291814625263214,0.2926979064941406,-0.6182765364646912
1667825164452755700,10.019755615234375,0.03572923690080643,0.34749510884284973,-0.4192289710044861
1667825164462762800,10.0297626953125,0.031435154378414154,0.28751006722450256,-0.23228196799755096
1667825164472770800,10.039770751953125,0.021631525829434395,0.1357884556055069,-0.06654094159603119
1667825164482777900,10.04977783203125,0.0023550332989543676,-0.050210971385240555,0.0700368732213974
1667825164492785700,10.05978564453125,-0.014821822755038738,-0.25035738945007324,0.1846124529838562
1667825164502793700,10.069793701171875,-0.03897509723901749,-0.4494904577732086,0.26064491271972656
1667825164512800800,10.07980078125,-0.07553363591432571,-0.6122080087661743,0.2909964323043823
1667825164522808800,10.089808837890626,-0.1052025854587555,-0.7262333631515503,0.276084840297699
1667825164532815600,10.099815673828125,-0.12250833958387375,-0.7871864438056946,0.22751598060131073
1667825164542823700,10.10982373046875,-0.12764504551887512,-0.8003126382827759,0.15499810874462128
1667825164552830700,10.119830810546874,-0.13272929191589355,-0.7820724248886108,0.07923570275306702
1667825164562838800,10.1298388671875,-0.14841264486312866,-0.729088306427002,0.018674351274967194
1667825164572845800,10.139845703125,-0.1761864870786667,-0.6867901086807251,-0.027175428345799446
1667825164582854000,10.14985400390625,-0.21145258843898773,-0.6452386379241943,-0.07356023788452148
1667825164592860700,10.159860595703124,-0.23998916149139404,-0.595046877861023,-0.11994398385286331
1667825164602868700,10.16986865234375,-0.2730746865272522,-0.5674589276313782,-0.1648336946964264
1667825164612876500,10.17987646484375,-0.32967403531074524,-0.5805286169052124,-0.21253463625907898
1667825164622883800,10.1898837890625,-0.41632238030433655,-0.6169905066490173,-0.253780335187912
1667825164632891600,10.1998916015625,-0.5206946134567261,-0.6658861637115479,-0.2932127118110657
1667825164642898700,10.209898681640626,-0.6284852623939514,-0.6931313276290894,-0.313250333070755
1667825164652906800,10.21990673828125,-0.7235009670257568,-0.6969865560531616,-0.30216333270072937
1667825164662913800,10.229913818359375,-0.799251139163971,-0.7127367258071899,-0.2736091613769531
1667825164672921600,10.239921630859374,-0.859176516532898,-0.7620611190795898,-0.2611303925514221
1667825164682929000,10.249928955078126,-0.8962924480438232,-0.8522879481315613,-0.29510220885276794
1667825164692936700,10.259936767578125,-0.9160975813865662,-1.0121290683746338,-0.3932548761367798
1667825164702943700,10.26994384765625,-0.9403403401374817,-1.184421181678772,-0.568892776966095
1667825164712951600,10.27995166015625,-0.987469494342804,-1.3180879354476929,-0.7916701436042786
1667825164722960000,10.2899599609375,-1.0866339206695557,-1.3015872240066528,-1.0371243953704834
1667825164732966700,10.299966552734375,-1.222964882850647,-1.0870836973190308,-1.2399957180023193
1667825164742974700,10.309974609375,-1.3774207830429077,-0.6791771650314331,-1.3475959300994873
1667825164752981800,10.319981689453124,-1.5110235214233398,-0.183486208319664,-1.3158864974975586
1667825164762989800,10.32998974609375,-1.606499433517456,0.27221739292144775,-1.1613528728485107
1667825164772996600,10.33999658203125,-1.6001232862472534,0.632556676864624,-0.9413006901741028
1667825164783004700,10.350004638671875,-1.486207127571106,0.881210446357727,-0.6899510025978088
1667825164793011700,10.36001171875,-1.2821325063705444,1.0120749473571777,-0.41959354281425476
1667825164803019800,10.370019775390626,-0.9960696697235107,0.9730386137962341,-0.16993790864944458
1667825164813026600,10.380026611328125,-0.6431531310081482,0.7599269151687622,0.028252676129341125
1667825164823035000,10.390034912109375,-0.22633619606494904,0.3934735357761383,0.15384575724601746
1667825164833042700,10.400042724609374,0.22664566338062286,-0.059602342545986176,0.19901403784751892
1667825164843049700,10.4100498046875,0.6638845205307007,-0.4506273567676544,0.1731744408607483
1667825164853057500,10.4200576171875,1.051792025566101,-0.7315700650215149,0.11667734384536743
1667825164863064800,10.43006494140625,1.3653672933578491,-0.8535860180854797,0.06358669698238373
1667825164873072600,10.44007275390625,1.5998226404190063,-0.799336314201355,0.031263645738363266
1667825164883079700,10.45007958984375,1.7332086563110352,-0.5576320886611938,0.034038394689559937
1667825164893087700,10.460087646484375,1.7700960636138916,-0.20135734975337982,0.07845406234264374
1667825164903094800,10.4700947265625,1.7382020950317383,0.1857624053955078,0.13588832318782806
1667825164913102600,10.4801025390625,1.6848185062408447,0.5614598393440247,0.1786736100912094
1667825164923110700,10.490110595703126,1.6495414972305298,0.8593688011169434,0.19027699530124664
1667825164933117700,10.50011767578125,1.625325322151184,1.0430387258529663,0.19485044479370117
1667825164943125800,10.510125732421875,1.595496654510498,1.181889533996582,0.21686306595802307
1667825164953132500,10.520132568359376,1.5472323894500732,1.2559382915496826,0.2805373966693878
1667825164963140600,10.530140625,1.4730702638626099,1.2716621160507202,0.40798109769821167
1667825164973147600,10.540147705078125,1.3692381381988525,1.2556228637695312,0.5830053687095642
1667825164983155700,10.55015576171875,1.2293164730072021,1.199662685394287,0.8056325912475586
1667825164993162800,10.560162841796876,1.095491886138916,1.099597692489624,1.048049807548523
1667825165003170800,10.5701708984375,0.9610474705696106,0.9655551314353943,1.2790722846984863
1667825165013177600,10.580177490234375,0.8210057020187378,0.8015518188476562,1.4892021417617798
1667825165023185700,10.590185546875,0.6685926914215088,0.6278354525566101,1.6573258638381958
1667825165033193700,10.60019384765625,0.5278283953666687,0.4589707851409912,1.7954262495040894
1667825165043200800,10.61020068359375,0.4155460596084595,0.29745298624038696,1.8951044082641602
1667825165053208800,10.620208740234375,0.3422548174858093,0.15719707310199738,1.9389644861221313
1667825165063215600,10.630215576171874,0.2953283190727234,0.03846057504415512,1.9334858655929565
1667825165073224000,10.640223876953126,0.2580219507217407,-0.05515806004405022,1.8729017972946167
1667825165083230700,10.650230712890625,0.21093088388442993,-0.13572826981544495,1.7482304573059082
1667825165093238800,10.66023876953125,0.1438937932252884,-0.20611615478992462,1.5686020851135254
1667825165103245800,10.670245849609374,0.05420491471886635,-0.23773479461669922,1.3500874042510986
1667825165113254000,10.68025390625,-0.066441610455513,-0.2202729880809784,1.1205053329467773
1667825165123260700,10.6902607421875,-0.22873757779598236,-0.17809650301933289,0.8762316703796387
1667825165133268700,10.700268798828125,-0.41566723585128784,-0.12249715626239777,0.6317194104194641
1667825165143276800,10.71027685546875,-0.6273499131202698,-0.05120832473039627,0.40066832304000854
1667825165153283800,10.720283935546876,-0.8594740033149719,-0.000916393706575036,0.18019454181194305
1667825165163291600,10.730291748046875,-1.085717797279358,0.006104231346398592,-0.012153069488704205
1667825165173299000,10.740298828125,-1.275130271911621,-0.017177121713757515,-0.16730749607086182
1667825165183306800,10.750306640625,-1.417621374130249,-0.047639958560466766,-0.28069186210632324
1667825165193313800,10.760313720703126,-1.5156211853027344,-0.07269071787595749,-0.34642505645751953
1667825165203321600,10.770321533203125,-1.5667099952697754,-0.09017223864793777,-0.3716507852077484
1667825165213329000,10.780328857421875,-1.577730417251587,-0.08293962478637695,-0.3606037199497223
1667825165223336700,10.790336669921874,-1.558517575263977,-0.04156129062175751,-0.3132551312446594
1667825165233343700,10.80034375,-1.5165935754776,0.014897190034389496,-0.2618523836135864
1667825165243351800,10.810351806640625,-1.4633740186691284,0.13463744521141052,-0.19907209277153015
1667825165253359900,10.82035986328125,-1.3957438468933105,0.25429245829582214,-0.13246482610702515
1667825165263366700,10.83036669921875,-1.3237972259521484,0.3445853590965271,-0.07283292710781097
1667825165273374700,10.840374755859376,-1.2609785795211792,0.4278256297111511,-0.025801237672567368
1667825165283381800,10.8503818359375,-1.2151026725769043,0.4891712963581085,0.016573118045926094
1667825165293389800,10.860389892578125,-1.1907895803451538,0.5352309346199036,0.05915360152721405
1667825165303396600,10.870396728515624,-1.186440110206604,0.5689889192581177,0.10999228060245514
1667825165313404700,10.88040478515625,-1.1995795965194702,0.5776553750038147,0.1697663962841034
1667825165323411700,10.89041162109375,-1.1938661336898804,0.5529545545578003,0.2249090075492859
1667825165333419800,10.900419677734375,-1.1623363494873047,0.4673299193382263,0.26883572340011597
1667825165343427600,10.910427490234374,-1.1031079292297363,0.31289106607437134,0.2799818515777588
1667825165353435000,10.920434814453126,-1.0467674732208252,0.12664449214935303,0.2500889301300049
1667825165363442700,10.930442626953125,-1.0007985830307007,-0.10008585453033447,0.17389057576656342
1667825165373449700,10.94044970703125,-0.9850971698760986,-0.3719541132450104,0.04501940682530403
1667825165383457500,10.95045751953125,-1.0169533491134644,-0.6096374988555908,-0.12466017156839371
1667825165393464800,10.96046484375,-1.0886008739471436,-0.8112963438034058,-0.3293033242225647
1667825165403472600,10.97047265625,-1.1861170530319214,-0.9778730869293213,-0.5711303353309631
1667825165413479700,10.980479736328125,-1.2923314571380615,-1.062545657157898,-0.815317690372467
1667825165423487700,10.99048779296875,-1.392124891281128,-1.0696173906326294,-1.0484031438827515
1667825165433494800,11.000494873046875,-1.4811551570892334,-1.0079954862594604,-1.2580008506774902
1667825165443502800,11.0105029296875,-1.5413811206817627,-0.8954530358314514,-1.4218699932098389
1667825165453510700,11.0205107421875,-1.5545600652694702,-0.7687866687774658,-1.5458171367645264
1667825165463518000,11.03051806640625,-1.506608247756958,-0.641444206237793,-1.6289490461349487
1667825165473525800,11.04052587890625,-1.3960775136947632,-0.5354027152061462,-1.6434590816497803
1667825165483532800,11.05053271484375,-1.2481518983840942,-0.47328686714172363,-1.5930070877075195
1667825165493540900,11.060540771484375,-1.0820634365081787,-0.46206989884376526,-1.4846603870391846
1667825165503548000,11.0705478515625,-0.927237868309021,-0.46923884749412537,-1.3317430019378662
1667825165513555700,11.0805556640625,-0.8097317218780518,-0.4777236878871918,-1.1303235292434692
1667825165523563000,11.09056298828125,-0.7378996014595032,-0.4523336589336395,-0.901615560054779
1667825165533570800,11.10057080078125,-0.7078458666801453,-0.4038044512271881,-0.6544683575630188
1667825165543577900,11.110577880859376,-0.7022523880004883,-0.3671915829181671,-0.4174358546733856
1667825165553585700,11.120585693359375,-0.7183187007904053,-0.3527947962284088,-0.21358312666416168
1667825165563594000,11.130593994140625,-0.7329682111740112,-0.34520480036735535,-0.038306109607219696
1667825165573600800,11.140600830078125,-0.7385337352752686,-0.3532683253288269,0.10253410041332245
1667825165583608800,11.15060888671875,-0.7427199482917786,-0.36410683393478394,0.22463950514793396
1667825165593616000,11.160615966796875,-0.7502912878990173,-0.3593307435512543,0.3424508273601532
1667825165603624000,11.1706240234375,-0.7554876804351807,-0.32146430015563965,0.4612480401992798
1667825165613630700,11.180630615234374,-0.7662273645401001,-0.28443625569343567,0.570471465587616
1667825165623638800,11.190638671875,-0.7928510308265686,-0.26881974935531616,0.6730396747589111
1667825165633645800,11.200645751953125,-0.8435951471328735,-0.3114468455314636,0.7497610449790955
1667825165643654000,11.21065380859375,-0.9143944978713989,-0.4088524878025055,0.7972186207771301
1667825165653660700,11.22066064453125,-0.9921603798866272,-0.5493970513343811,0.7986090183258057
1667825165663669000,11.2306689453125,-1.0685970783233643,-0.7107082009315491,0.7507035732269287
1667825165673677000,11.240677001953125,-1.1395632028579712,-0.8939286470413208,0.6401330828666687
1667825165683683800,11.250683837890625,-1.225890874862671,-1.0941567420959473,0.46865376830101013
1667825165693692000,11.26069189453125,-1.3345166444778442,-1.2837693691253662,0.258634477853775
1667825165703699000,11.270698974609376,-1.4729487895965576,-1.4423134326934814,0.008140751160681248
1667825165713707000,11.28070703125,-1.6131062507629395,-1.5752861499786377,-0.2691672742366791
1667825165723713800,11.2907138671875,-1.737908124923706,-1.6981422901153564,-0.5915114879608154
1667825165733721900,11.300721923828124,-1.848577857017517,-1.8701246976852417,-0.985368013381958
1667825165743729000,11.31072900390625,-1.9599297046661377,-2.0815024375915527,-1.4578732252120972
1667825165753736700,11.32073681640625,-2.111053943634033,-2.2481637001037598,-2.0057084560394287
1667825165763744000,11.330743896484375,-2.313042640686035,-2.318394422531128,-2.5721335411071777
1667825165773751800,11.340751708984374,-2.5735678672790527,-2.128877639770508,-3.0867931842803955
1667825165783760000,11.350759765625,-2.856560707092285,-1.6543329954147339,-3.4567983150482178
1667825165793766700,11.3607666015625,-3.1426727771759033,-0.9733129143714905,-3.650930881500244
1667825165803774700,11.370774658203125,-3.3467793464660645,-0.20648500323295593,-3.6511359214782715
1667825165813781800,11.38078173828125,-3.437424898147583,0.5211963057518005,-3.4898085594177246
1667825165823789800,11.390789794921876,-3.4144480228424072,1.1330504417419434,-3.217583417892456
1667825165833796900,11.400796875,-3.2700743675231934,1.5834237337112427,-2.868771553039551
1667825165843805000,11.410804931640625,-3.022078514099121,1.8252512216567993,-2.4754958152770996
1667825165853811700,11.420811767578124,-2.708937883377075,1.8614352941513062,-2.072810173034668
1667825165863819800,11.43081982421875,-2.351165533065796,1.6622092723846436,-1.678517460823059
1667825165873826800,11.440826904296875,-1.9937174320220947,1.3060762882232666,-1.2912623882293701
1667825165883835000,11.4508349609375,-1.6903879642486572,0.8731354475021362,-0.9350036382675171
1667825165893843000,11.460843017578124,-1.4643135070800781,0.41103067994117737,-0.6305848956108093
1667825165903849700,11.470849609375,-1.3064488172531128,-0.025462215766310692,-0.41601237654685974
1667825165913858000,11.480858154296875,-1.19182550907135,-0.4036896824836731,-0.28572043776512146
1667825165923864800,11.49086474609375,-1.1131086349487305,-0.6944528222084045,-0.23782747983932495
1667825165933873000,11.500872802734374,-1.0941038131713867,-0.9074268341064453,-0.2608094811439514
1667825165943880000,11.5108798828125,-1.1422295570373535,-1.0868350267410278,-0.34840884804725647
1667825165953888000,11.520887939453125,-1.2561153173446655,-1.2265310287475586,-0.4882999062538147
1667825165963894800,11.530894775390625,-1.4293979406356812,-1.3183603286743164,-0.6677790880203247
1667825165973902800,11.54090283203125,-1.6263517141342163,-1.3844152688980103,-0.8773355484008789
1667825165983910000,11.550909912109375,-1.82624089717865,-1.4349383115768433,-1.1097050905227661
1667825165993918000,11.56091796875,-2.0149459838867188,-1.4222526550292969,-1.3422741889953613
1667825166003925800,11.57092578125,-2.1806697845458984,-1.3092882633209229,-1.560915231704712
1667825166013933000,11.58093310546875,-2.3126819133758545,-1.0940399169921875,-1.7324522733688354
1667825166023940900,11.59094091796875,-2.393767833709717,-0.836530327796936,-1.8412024974822998
1667825166033948000,11.600947998046875,-2.433799982070923,-0.5400315523147583,-1.8445098400115967
1667825166043955700,11.610955810546875,-2.3795251846313477,-0.16168344020843506,-1.769222617149353
1667825166053963000,11.620962890625,-2.188795804977417,0.1248234212398529,-1.6038848161697388
1667825166063970800,11.630970703125,-1.9663686752319336,0.2142539769411087,-1.4095631837844849
1667825166073977900,11.640977783203125,-1.7903063297271729,0.2336263358592987,-1.1922389268875122
1667825166083986000,11.65098583984375,-1.6776223182678223,0.27257612347602844,-0.9507346749305725
1667825166093993000,11.660992919921876,-1.6449788808822632,0.286805659532547,-0.7343845367431641
1667825166104000800,11.671000732421875,-1.6861953735351562,0.2146875411272049,-0.5758603811264038
1667825166114008800,11.6810087890625,-1.7643916606903076,-0.0011502192355692387,-0.4824396073818207
1667825166124015900,11.691015869140625,-1.8386735916137695,-0.3212728202342987,-0.44712796807289124
1667825166134024000,11.70102392578125,-1.8748887777328491,-0.660796046257019,-0.4358939528465271
1667825166144030700,11.71103076171875,-1.8534642457962036,-0.8853442072868347,-0.44039735198020935
1667825166154038800,11.721038818359375,-1.7507778406143188,-0.9367128610610962,-0.46463000774383545
1667825166164045800,11.7310458984375,-1.681076169013977,-0.9732357263565063,-0.4832995533943176
1667825166174054000,11.741053955078126,-1.682950496673584,-1.0675052404403687,-0.457793653011322
1667825166184061000,11.75106103515625,-1.7483735084533691,-1.030816674232483,-0.37923121452331543
1667825166194069000,11.761069091796875,-1.849988579750061,-0.8284902572631836,-0.2835289239883423
1667825166204075800,11.77107568359375,-1.9554598331451416,-0.5399165153503418,-0.18101824820041656
1667825166214083800,11.781083740234376,-2.053359270095825,-0.1932767778635025,-0.07300656288862228
1667825166224091600,11.791091552734375,-2.0820329189300537,0.15905223786830902,0.04944611340761185
1667825166234099000,11.801098876953125,-2.0382096767425537,0.4435867667198181,0.18850785493850708
1667825166244106800,11.811106689453124,-1.9422271251678467,0.6344515085220337,0.3229498267173767
1667825166254113800,11.82111376953125,-1.8208684921264648,0.7418951392173767,0.43742474913597107
1667825166264121900,11.831121826171875,-1.7101448774337769,0.8126212358474731,0.5350434184074402
1667825166274129000,11.84112890625,-1.6302026510238647,0.8428230881690979,0.6170453429222107
1667825166284136700,11.85113671875,-1.5687994956970215,1.1660592555999756,0.6923071146011353
1667825166294144000,11.86114404296875,-1.4972318410873413,1.6542350053787231,0.7589218020439148
1667825166304151800,11.87115185546875,-1.4228452444076538,1.981054663658142,0.8091626167297363
1667825166314159900,11.881159912109375,-1.403870701789856,2.2669594287872314,0.8399232029914856
1667825166324166700,11.891166748046874,-1.4849176406860352,2.3335812091827393,0.7894940972328186
1667825166334175000,11.901175048828126,-1.6412220001220703,2.338343620300293,0.6546263098716736
1667825166344181800,11.911181640625,-1.7136056423187256,2.3721272945404053,0.49127304553985596
1667825166354189800,11.92118994140625,-1.673373818397522,2.1794886589050293,0.1939939707517624
1667825166364196900,11.93119677734375,-1.5774600505828857,1.7923401594161987,-0.17999427020549774
1667825166374205000,11.941204833984376,-1.5220040082931519,1.5444989204406738,-0.4893110990524292
1667825166384211700,11.951211669921875,-1.4868289232254028,1.5259279012680054,-0.6636053919792175
1667825166394219800,11.9612197265625,-1.462222933769226,1.612701416015625,-0.7701401114463806
1667825166404226800,11.971226806640624,-1.4679714441299438,1.6424342393875122,-0.818457305431366
1667825166414235000,11.98123486328125,-1.4796570539474487,1.6512386798858643,-0.7585071325302124
1667825166424241700,11.99124169921875,-1.467837929725647,1.609489917755127,-0.5916569232940674
1667825166434250000,12.00125,-1.415597915649414,1.4283901453018188,-0.38328373432159424
1667825166444258000,12.011258056640624,-1.3233095407485962,1.1168732643127441,-0.19713890552520752
1667825166454264800,12.021264892578126,-1.2227057218551636,0.7351613640785217,-0.06334248930215836
1667825166464273000,12.03127294921875,-1.150046706199646,0.5069798231124878,0.023139407858252525
1667825166474280000,12.041280029296875,-1.0735065937042236,0.517426609992981,0.06610791385173798
1667825166484288000,12.0512880859375,-0.9882575273513794,0.6526278853416443,0.0782838836312294
1667825166494294800,12.061294677734375,-0.9029772281646729,0.9077799916267395,0.10838799178600311
1667825166504303000,12.07130322265625,-0.8312450051307678,1.2659506797790527,0.14954368770122528
1667825166514310000,12.081309814453125,-0.7709680795669556,1.5246235132217407,0.18547825515270233
1667825166524318000,12.09131787109375,-0.7310672998428345,1.5752938985824585,0.19626112282276154
1667825166534325000,12.101324951171875,-0.7284568548202515,1.5268107652664185,0.202540323138237
1667825166544333000,12.1113330078125,-0.7981783747673035,1.4667197465896606,0.22140055894851685
1667825166554340900,12.1213408203125,-0.921034038066864,1.3616098165512085,0.24785134196281433
1667825166564348000,12.131347900390624,-1.0286520719528198,1.1281770467758179,0.2863342761993408
1667825166574356000,12.14135595703125,-1.0982385873794556,0.7319898009300232,0.3535178601741791
1667825166584363000,12.151363037109375,-1.1594042778015137,0.2581591010093689,0.45734038949012756
1667825166594370800,12.161370849609375,-1.233046293258667,-0.19855517148971558,0.5804186463356018
1667825166604378000,12.171378173828124,-1.3219270706176758,-0.6101214289665222,0.7125564217567444
1667825166614386000,12.181385986328126,-1.395999789237976,-0.9504968523979187,0.8108699321746826
1667825166624393000,12.19139306640625,-1.4202797412872314,-1.1875323057174683,0.8615877628326416
1667825166634400800,12.20140087890625,-1.4021998643875122,-1.2444390058517456,0.8811435699462891
1667825166644408000,12.211407958984376,-1.3327869176864624,-1.0911580324172974,0.8629475235939026
1667825166654416000,12.221415771484375,-1.2062228918075562,-0.868746280670166,0.7788345217704773
1667825166664423000,12.2314228515625,-1.0458869934082031,-0.6487274169921875,0.6586931943893433
1667825166674430700,12.2414306640625,-0.8952769637107849,-0.41531383991241455,0.5433029532432556
1667825166684439000,12.25143896484375,-0.7909460663795471,-0.223052516579628,0.45459386706352234
1667825166694445800,12.26144580078125,-0.7169234752655029,-0.1302139312028885,0.381399005651474
1667825166704454000,12.271453857421875,-0.6560502648353577,-0.06064337491989136,0.31533879041671753
1667825166714461000,12.2814609375,-0.5998772978782654,0.001249555149115622,0.23936358094215393
1667825166724469000,12.291468994140626,-0.5603834390640259,0.09630949050188065,0.15892040729522705
1667825166734475800,12.301475830078125,-0.5390563011169434,0.2088586688041687,0.09435286372900009
1667825166744483800,12.31148388671875,-0.5415180921554565,0.2937043309211731,0.042789276689291
1667825166754491000,12.321490966796874,-0.5478308796882629,0.37368571758270264,-0.002645584288984537
1667825166764499000,12.3314990234375,-0.540960431098938,0.45103776454925537,-0.02123977430164814
1667825166774505700,12.341505615234375,-0.5237319469451904,0.48862454295158386,-0.009586048312485218
1667825166784514000,12.35151416015625,-0.5042072534561157,0.5574049353599548,0.042622294276952744
1667825166794522000,12.361522216796875,-0.5047028660774231,0.5562658905982971,0.27625927329063416
1667825166804529000,12.37152880859375,-0.5062514543533325,0.08530397713184357,0.4087526202201843
1667825166814537000,12.381536865234375,-0.4587017893791199,-0.22783581912517548,0.4813234806060791
1667825166824544000,12.3915439453125,-0.37060976028442383,-0.5292524099349976,0.46505823731422424
1667825166834552000,12.401552001953124,-0.31356483697891235,-0.7123990654945374,0.38689205050468445
1667825166844558800,12.411558837890626,-0.31705865263938904,-0.7698266506195068,0.22666163742542267
1667825166854567200,12.421567138671875,-0.35814324021339417,-0.7772653698921204,0.04213813319802284
1667825166864574000,12.431573974609375,-0.4358614683151245,-0.7171275019645691,-0.06863099336624146
