time,seconds_elapsed,z,y,x
1667266153837854500,0.1038544921875,6.179165363311768,-4.242474555969238,4.036392688751221
1667266153840252200,0.106252197265625,6.162415504455566,-4.223331928253174,4.065106391906738
1667266153842649900,0.10864990234375,6.16480827331543,-4.211368083953857,4.096213340759277
1667266153845047800,0.1110478515625,6.186343669891357,-4.189533233642578,4.144069671630859
1667266153847445500,0.113445556640625,6.258128643035889,-4.158426761627197,4.208974838256836
1667266153849843500,0.115843505859375,6.372983932495117,-4.144069671630859,4.275974273681641
1667266153852241200,0.1182412109375,6.524031162261963,-4.144069671630859,4.323830604553223
1667266153854638800,0.120638916015625,6.646064758300781,-4.148855209350586,4.35254430770874
1667266153857036800,0.123036865234375,6.813562393188477,-4.175176620483398,4.390829563140869
1667266153859434500,0.1254345703125,6.971488952636719,-4.211368083953857,4.3788652420043945
1667266153861832200,0.127832275390625,7.1249284744262695,-4.268795490264893,4.388436794281006
1667266153864230100,0.130230224609375,7.2589263916015625,-4.316651821136475,4.374079704284668
1667266153866627800,0.1326279296875,7.378567695617676,-4.383651256561279,4.383651256561279
1667266153869025800,0.13502587890625,7.498208999633789,-4.445864677429199,4.398007869720459
1667266153871423500,0.137423583984375,7.606184959411621,-4.529613494873047,4.402793884277344
1667266153873821400,0.139821533203125,7.71386194229126,-4.610969066619873,4.376472473144531
1667266153876219100,0.14221923828125,7.809575080871582,-4.704289436340332,4.319045066833496
1667266153878616800,0.144616943359375,7.890930652618408,-4.78594446182251,4.2831525802612305
1667266153881014500,0.1470146484375,7.972286701202393,-4.857728958129883,4.2281174659729
1667266153883412500,0.14941259765625,8.036892890930176,-4.919942378997803,4.124927043914795
1667266153885810200,0.15181005859375,8.091927528381348,-4.998905658721924,4.048357009887695
1667266153888208100,0.1542080078125,8.13260555267334,-5.039583683013916,3.9550366401672363
1667266153890605800,0.156605712890625,8.161619186401367,-5.101797103881836,3.866502285003662
1667266153893003800,0.159003662109375,8.16401195526123,-5.171188831329346,3.75643253326416
1667266153895401500,0.1614013671875,8.19272518157959,-5.221437931060791,3.670290946960449
1667266153897799200,0.163799072265625,8.19272518157959,-5.221437931060791,3.5814573764801025
1667266153900197000,0.166197021484375,8.166404724121094,-5.207081317901611,3.5407793521881104
1667266153902594800,0.1685947265625,8.140083312988281,-5.24536657333374,3.4713873863220215
1667266153904992500,0.170992431640625,8.123034477233887,-5.2477593421936035,3.4307093620300293
1667266153907390500,0.173390380859375,8.094321250915527,-5.238187789916992,3.4259238243103027
1667266153909788200,0.1757880859375,8.063214302062988,-5.24536657333374,3.4331023693084717
1667266153912186000,0.17818603515625,8.041678428649902,-5.228616714477539,3.435495138168335
1667266153914583800,0.180583740234375,8.029714584350586,-5.211866855621338,3.452244758605957
1667266153916981500,0.1829814453125,8.01775074005127,-5.180759906768799,3.5048868656158447
1667266153919379500,0.18537939453125,8.00100040435791,-5.166403293609619,3.528815269470215
1667266153921777200,0.187777099609375,7.99382209777832,-5.123332500457764,3.5742788314819336
1667266153924174800,0.1901748046875,7.9866437911987305,-5.0826544761657715,3.614956855773926
1667266153926572800,0.19257275390625,8.01057243347168,-5.049154758453369,3.675076484680176
1667266153928970500,0.194970458984375,8.036892890930176,-5.013262748718262,3.7181472778320312
1667266153931368400,0.197368408203125,8.051250457763672,-4.946263313293457,3.75643253326416
1667266153933766100,0.19976611328125,8.056035995483398,-4.903192520141602,3.804288864135742
1667266153936163800,0.202163818359375,8.051250457763672,-4.867300510406494,3.849752426147461
1667266153938561800,0.204561767578125,8.027321815490723,-4.836193561553955,3.88803768157959
1667266153940959500,0.20695947265625,8.012965202331543,-4.812265396118164,3.928715705871582
1667266153943357200,0.209357177734375,7.9866437911987305,-4.749752998352051,4.01246452331543
1667266153945755100,0.211755126953125,7.950751304626465,-4.744967460632324,4.072285175323486
1667266153948152800,0.21415283203125,7.922037601470947,-4.728217601776123,4.1297125816345215
1667266153950550800,0.21655078125,7.890930652618408,-4.721039295196533,4.177569389343262
1667266153952948500,0.218948486328125,7.847859859466553,-4.706682205200195,4.191926002502441
1667266153955346200,0.22134619140625,7.819146156311035,-4.704289436340332,4.203890323638916
1667266153957744000,0.223744140625,7.764111042022705,-4.701896667480469,4.189533233642578
1667266153960141800,0.226141845703125,7.699504852294922,-4.706682205200195,4.201497554779053
1667266153962539800,0.228539794921875,7.63729190826416,-4.704289436340332,4.187140464782715
1667266153964937500,0.2309375,7.567600727081299,-4.694717884063721,4.16799783706665
1667266153967335200,0.233335205078125,7.52213716506958,-4.668396949768066,4.098606109619141
1667266153969733000,0.235733154296875,7.471887588500977,-4.587040901184082,3.8856449127197266
1667266153972130800,0.238130859375,7.445566654205322,-4.570291042327881,3.9071803092956543
1667266153974528500,0.240528564453125,7.4001030921936035,-4.584648132324219,4.033999919891357
1667266153976926500,0.242926513671875,7.3761749267578125,-4.589433670043945,4.144069671630859
1667266153979324200,0.24532421875,7.373782157897949,-4.548755645751953,4.139284133911133
1667266153981722000,0.24772216796875,7.3761749267578125,-4.5391845703125,4.158426761627197
1667266153984119800,0.250119873046875,7.345067977905273,-4.567898273468018,4.208974838256836
1667266153986517500,0.252517578125,7.3043904304504395,-4.570291042327881,4.261617183685303
1667266153988915500,0.25491552734375,7.246962547302246,-4.584648132324219,4.3070807456970215
1667266153991313200,0.257313232421875,7.208677291870117,-4.587040901184082,4.328616142272949
1667266153993711000,0.259711181640625,7.1799635887146,-4.587040901184082,4.321437835693359
1667266153996108800,0.26210888671875,7.151249408721924,-4.579862594604492,4.3549370765686035
1667266153998506500,0.264506591796875,7.127321243286133,-4.5583271980285645,4.390829563140869
1667266154000904400,0.266904541015625,7.098607540130615,-4.541577339172363,4.417150497436523
1667266154003302100,0.26930224609375,7.06271505355835,-4.536791801452637,4.412364959716797
1667266154005699800,0.271699951171875,7.036394119262695,-4.510470867156982,4.383651256561279
1667266154008097800,0.274097900390625,7.05553674697876,-4.4721856117248535,4.340580463409424
1667266154010495500,0.27649560546875,7.06271505355835,-4.443471431732178,4.3070807456970215
1667266154012893400,0.2788935546875,7.050751209259033,-4.445864677429199,4.295116424560547
1667266154015291100,0.281291015625,7.057929515838623,-4.462614059448242,4.304687976837158
1667266154017688800,0.283688720703125,7.084250450134277,-4.4961137771606445,4.278367042541504
1667266154020086800,0.286086669921875,7.136892795562744,-4.563112735748291,4.264009952545166
1667266154022484500,0.288484375,7.191927433013916,-4.618147850036621,4.235296249389648
1667266154024882400,0.29088232421875,7.220641613006592,-4.634897232055664,4.218546390533447
1667266154027280100,0.293280029296875,7.268497943878174,-4.67078971862793,4.163212299346924
1667266154029677800,0.295677734375,7.325925827026367,-4.721039295196533,4.093820571899414
1667266154032075800,0.29807568359375,7.357032299041748,-4.764110088348389,4.055535316467285
1667266154034473500,0.300473388671875,7.371389389038086,-4.795515537261963,4.010071754455566
1667266154036871200,0.30287109375,7.380960464477539,-4.838586330413818,3.9789650440216064
1667266154039269000,0.30526904296875,7.407281398773193,-4.862514495849609,3.9239299297332764
1667266154041666800,0.307666748046875,7.4240312576293945,-4.888835906982422,3.8617167472839355
1667266154044064800,0.310064697265625,7.462316513061523,-4.9175496101379395,3.8234314918518066
1667266154046462500,0.31246240234375,7.546065330505371,-4.9414777755737305,3.7683966159820557
1667266154048860200,0.314860107421875,7.649255752563477,-4.936692237854004,3.749253988265991
1667266154051258000,0.317258056640625,7.737790107727051,-4.931906700134277,3.722932815551758
1667266154053655800,0.31965576171875,7.8382887840271,-4.91037130355835,3.715754508972168
1667266154056053500,0.322053466796875,7.938787460327148,-4.8792643547058105,3.6966118812561035
1667266154058451500,0.324451416015625,8.020143508911133,-4.845765113830566,3.7109687328338623
1667266154060849200,0.32684912109375,8.084749221801758,-4.824229717254639,3.7420754432678223
1667266154063247000,0.3292470703125,8.149654388427734,-4.805087089538574,3.78753924369812
1667266154065644800,0.331644775390625,8.214261054992676,-4.7835516929626465,3.8306100368499756
1667266154068042500,0.33404248046875,8.271688461303711,-4.776372909545898,3.8784663677215576
1667266154070440400,0.3364404296875,8.314759254455566,-4.754538536071777,3.943072557449341
1667266154072838100,0.338838134765625,8.314759254455566,-4.752145767211914,3.998107433319092
1667266154075235800,0.34123583984375,8.305188179016113,-4.759324073791504,4.062713623046875
1667266154077633800,0.3436337890625,8.293224334716797,-4.756931304931641,4.153641223907471
1667266154080031500,0.346031494140625,8.257331848144531,-4.7401814460754395,4.2281174659729
1667266154082429400,0.348429443359375,8.19272518157959,-4.730610370635986,4.299902439117432
1667266154084827100,0.3508271484375,8.11824893951416,-4.701896667480469,4.369294166564941
1667266154087224800,0.353224853515625,8.046463966369629,-4.713860511779785,4.417150497436523
1667266154089622800,0.355622802734375,7.950751304626465,-4.704289436340332,4.436293125152588
1667266154092020500,0.3580205078125,7.843074321746826,-4.656432628631592,4.42193603515625
1667266154094418200,0.360418212890625,7.723433494567871,-4.622933387756348,4.40757942199707
1667266154096816000,0.362816162109375,7.5774712562561035,-4.6061835289001465,4.35254430770874
1667266154099213800,0.3652138671875,7.431210041046143,-4.579862594604492,4.319045066833496
1667266154101611800,0.36761181640625,7.2732834815979,-4.541577339172363,4.29033088684082
1667266154104009500,0.370009521484375,7.122535705566406,-4.505684852600098,4.264009952545166
1667266154106407200,0.3724072265625,6.957131862640381,-4.491328239440918,4.237689018249512
1667266154108805000,0.37480517578125,6.799205780029297,-4.4961137771606445,4.232903480529785
1667266154111202800,0.377202880859375,6.6939215660095215,-4.460221290588379,4.206283092498779
1667266154113600800,0.379600830078125,6.6245293617248535,-4.381258487701416,4.127319812774658
1667266154115998500,0.38199853515625,6.62931489944458,-4.366901397705078,4.007678985595703
1667266154118396200,0.384396240234375,6.643671989440918,-4.359723091125488,3.9335012435913086
1667266154120794000,0.386794189453125,6.653243541717529,-4.364508628845215,3.9382870197296143
1667266154123191800,0.38919189453125,6.67717170715332,-4.3788652420043945,3.969393730163574
1667266154125589500,0.391589599609375,6.727420806884766,-4.388436794281006,4.000500202178955
1667266154127987500,0.393987548828125,6.823133945465088,-4.409972190856934,4.024428367614746
1667266154130385200,0.39638525390625,6.930810928344727,-4.417150497436523,4.053142547607422
1667266154132783000,0.398783203125,7.041179656982422,-4.438685894012451,4.072285175323486
1667266154135180800,0.401180908203125,7.165606498718262,-4.455435752868652,4.108177185058594
1667266154137578500,0.40357861328125,7.290033340454102,-4.491328239440918,4.124927043914795
1667266154139976400,0.4059765625,7.428816795349121,-4.508078098297119,4.096213340759277
1667266154142374100,0.4083740234375,7.591827869415283,-4.508078098297119,4.077070713043213
1667266154144771800,0.410771728515625,7.744968891143799,-4.524827480316162,4.048357009887695
1667266154147169800,0.413169677734375,7.898109436035156,-4.543970108032227,4.017250061035156
1667266154149567500,0.4155673828125,8.034500122070312,-4.543970108032227,3.967000722885132
1667266154151965400,0.41796533203125,8.17836856842041,-4.565505504608154,3.928715705871582
1667266154154363100,0.420363037109375,8.276473999023438,-4.599005222320557,3.8688950538635254
1667266154156760800,0.4227607421875,8.343473434448242,-4.625326156616211,3.7971103191375732
1667266154159158800,0.42515869140625,8.384151458740234,-4.632504463195801,3.7731821537017822
1667266154161556500,0.427556396484375,8.42722225189209,-4.685146808624268,3.7181472778320312
1667266154163954200,0.4299541015625,8.446364402770996,-4.701896667480469,3.675076484680176
1667266154166352100,0.43235205078125,8.443971633911133,-4.711467742919922,3.660719633102417
1667266154168749800,0.434749755859375,8.451150894165039,-4.701896667480469,3.638885021209717
1667266154171147800,0.437147705078125,8.448758125305176,-4.692325115203857,3.5958142280578613
1667266154173545500,0.43954541015625,8.44157886505127,-4.689932346343994,3.5575289726257324
1667266154175943400,0.441943359375,8.424829483032227,-4.649254322052002,3.5359935760498047
1667266154178341000,0.444341064453125,8.384151458740234,-4.618147850036621,3.507279872894287
1667266154180738800,0.44673876953125,8.319544792175293,-4.584648132324219,3.4713873863220215
1667266154183136500,0.449136474609375,8.247760772705078,-4.543970108032227,3.4331023693084717
1667266154185534500,0.451534423828125,8.207082748413086,-4.488935470581055,3.387638568878174
1667266154187932200,0.45393212890625,8.152048110961914,-4.457828521728516,3.334996461868286
1667266154190330000,0.456330078125,8.058428764343262,-4.41475772857666,3.294318675994873
1667266154192727800,0.458727783203125,7.969893932342529,-4.366901397705078,3.2344980239868164
1667266154195125500,0.46112548828125,7.9005022048950195,-4.326223373413086,3.2105698585510254
1667266154197523500,0.4635234375,7.809575080871582,-4.275974273681641,3.191427230834961
1667266154199921200,0.465921142578125,7.733004570007324,-4.2281174659729,3.2057840824127197
1667266154202318800,0.46831884765625,7.685148239135742,-4.1608195304870605,3.2273194789886475
1667266154204716800,0.470716796875,7.64447021484375,-4.098606109619141,3.253640651702881
1667266154207114500,0.473114501953125,7.606184959411621,-4.031607151031494,3.315854072570801
1667266154209512400,0.475512451171875,7.579864025115967,-3.9813578128814697,3.4091739654541016
1667266154211910100,0.47791015625,7.5341010093688965,-3.9311084747314453,3.500101327896118
1667266154214307800,0.480307861328125,7.519744396209717,-3.880859136581421,3.607778310775757
1667266154216705800,0.482705810546875,7.5341010093688965,-3.849752426147461,3.699004650115967
1667266154219103500,0.485103515625,7.558029651641846,-3.7899320125579834,3.809074640274048
1667266154221501400,0.48750146484375,7.548458099365234,-3.76361083984375,3.928715705871582
1667266154223899100,0.489899169921875,7.543672561645508,-3.7109687328338623,4.007678985595703
1667266154226296800,0.492296875,7.5412797927856445,-3.6559338569641113,4.048357009887695
1667266154228694800,0.49469482421875,7.524529933929443,-3.6460635662078857,4.07467794418335
1667266154231092500,0.497092529296875,7.488637447357178,-3.600599765777588,4.098606109619141
1667266154233490400,0.499490478515625,7.464709281921387,-3.5479576587677,4.1297125816345215
1667266154235888000,0.50188818359375,7.464709281921387,-3.5024940967559814,4.175176620483398
1667266154238285800,0.504285888671875,7.483851909637451,-3.4474592208862305,4.218546390533447
1667266154240683800,0.506683837890625,7.498208999633789,-3.4235310554504395,4.256831645965576
1667266154243081500,0.50908154296875,7.548458099365234,-3.4067811965942383,4.292723655700684
1667266154245479200,0.511479248046875,7.642077445983887,-3.3828530311584473,4.323830604553223
1667266154247877000,0.513877197265625,7.773682594299316,-3.3780672550201416,4.326223373413086
1667266154250274800,0.51627490234375,7.910073280334473,-3.3852458000183105,4.314259052276611
1667266154252672800,0.5186728515625,8.070392608642578,-3.4019956588745117,4.292723655700684
1667266154255070500,0.521070556640625,8.190332412719727,-3.411566972732544,4.304687976837158
1667266154257468200,0.52346826171875,8.321938514709473,-3.404388427734375,4.271188259124756
1667266154259866000,0.5258662109375,8.41286563873291,-3.4139597415924072,4.2281174659729
1667266154262263800,0.528263916015625,8.506185531616211,-3.4618160724639893,4.1991047859191895
1667266154264661500,0.53066162109375,8.585148811340332,-3.5192439556121826,4.124927043914795
1667266154267059500,0.5330595703125,8.599505424499512,-3.562314748764038,4.065106391906738
1667266154269457200,0.53545703125,8.589934349060059,-3.617349624633789,4.024428367614746
1667266154271855000,0.537855224609375,8.575576782226562,-3.653541088104248,3.969393730163574
1667266154274252800,0.540252685546875,8.561220169067383,-3.715754508972168,3.88803768157959
1667266154276650500,0.542650390625,8.55164909362793,-3.7612180709838867,3.79471755027771
1667266154279048400,0.54504833984375,8.506185531616211,-3.840181350708008,3.7133617401123047
1667266154281446100,0.547446044921875,8.458329200744629,-3.8856449127197266,3.64127779006958
1667266154283844000,0.549843994140625,8.410472869873047,-3.9311084747314453,3.5671002864837646
1667266154286241800,0.55224169921875,8.405686378479004,-3.952643871307373,3.5120654106140137
1667266154288639500,0.554639404296875,8.39611530303955,-3.959822416305542,3.435495138168335
1667266154291037400,0.557037353515625,8.367402076721191,-3.943072557449341,3.366103172302246
1667266154293435100,0.55943505859375,8.338687896728516,-3.928715705871582,3.3445677757263184
1667266154295832800,0.561832763671875,8.29561710357666,-3.921537160873413,3.301496982574463
1667266154298230800,0.564230712890625,8.238189697265625,-3.9095730781555176,3.303889751434326
1667266154300628500,0.56662841796875,8.161619186401367,-3.897608995437622,3.3206396102905273
1667266154303026400,0.5690263671875,8.067999839782715,-3.8760735988616943,3.3302109241485596
1667266154305424100,0.571424072265625,7.9866437911987305,-3.873680830001831,3.3062827587127686
1667266154307821800,0.57382177734375,7.905287742614746,-3.8306100368499756,3.315854072570801
1667266154310219800,0.5762197265625,7.850253105163574,-3.7971103191375732,3.3230323791503906
1667266154312617500,0.578617431640625,7.7832536697387695,-3.7372899055480957,3.3373894691467285
1667266154315015200,0.58101513671875,7.723433494567871,-3.6870405673980713,3.373281717300415
1667266154317413000,0.5834130859375,7.682755470275879,-3.617349624633789,3.411566972732544
1667266154319810800,0.585810791015625,7.675576686859131,-3.5814573764801025,3.4713873863220215
1667266154322208800,0.588208740234375,7.649255752563477,-3.5359935760498047,3.5024940967559814
1667266154324606500,0.5906064453125,7.63729190826416,-3.5048868656158447,3.524029493331909
1667266154327004200,0.593004150390625,7.620542049407959,-3.492922782897949,3.5024940967559814
1667266154329402000,0.595402099609375,7.596613883972168,-3.492922782897949,3.4785659313201904
1667266154331799800,0.5977998046875,7.584649562835693,-3.483351469039917,3.4331023693084717
1667266154334197500,0.600197509765625,7.543672561645508,-3.4737801551818848,3.421138286590576
1667266154336595500,0.602595458984375,7.512565612792969,-3.490530014038086,3.3828530311584473
1667266154338993200,0.6049931640625,7.488637447357178,-3.4953157901763916,3.366103172302246
1667266154341391000,0.60739111328125,7.457530975341797,-3.497708559036255,3.332603693008423
1667266154343788800,0.609788818359375,7.426424026489258,-3.4881372451782227,3.311068296432495
1667266154346186500,0.6121865234375,7.407281398773193,-3.500101327896118,3.2679975032806396
1667266154348584400,0.61458447265625,7.3522467613220215,-3.524029493331909,3.232105255126953
1667266154350982100,0.616982177734375,7.294818878173828,-3.569493293762207,3.193819999694824
1667266154353379800,0.6193798828125,7.230212688446045,-3.593421459197998,3.129213809967041
1667266154355777800,0.62177783203125,7.196712970733643,-3.6511483192443848,3.1004998683929443
1667266154358175500,0.624175537109375,7.182356357574463,-3.6822550296783447,3.07627272605896
1667266154360573400,0.626573486328125,7.220641613006592,-3.722932815551758,3.028416156768799
1667266154362971100,0.62897119140625,7.306783199310303,-3.7444684505462646,2.99013090133667
1667266154365368800,0.631368896484375,7.402495861053467,-3.7971103191375732,2.999702215194702
1667266154367766800,0.633766845703125,7.531708240509033,-3.833002805709839,2.9925239086151123
1667266154370164500,0.63616455078125,7.680362701416016,-3.8760735988616943,3.006880760192871
1667266154372562400,0.6385625,7.840681552886963,-3.9382870197296143,3.0403802394866943
1667266154374960000,0.640960205078125,8.029714584350586,-3.9813578128814697,3.0667014122009277
1667266154377357800,0.64335791015625,8.235795974731445,-4.031607151031494,3.0810582637786865
1667266154379755800,0.645755859375,8.467900276184082,-4.089034557342529,3.1148569583892822
1667266154382153500,0.648153564453125,8.707481384277344,-4.132105827331543,3.13639235496521
1667266154384551200,0.65055126953125,8.937192916870117,-4.175176620483398,3.1818559169769287
1667266154386949000,0.65294921875,9.181260108947754,-4.216153621673584,3.19860577583313
1667266154389346800,0.655346923828125,9.389735221862793,-4.235296249389648,3.2273194789886475
1667266154391744800,0.657744873046875,9.583553314208984,-4.280759811401367,3.284747362136841
1667266154394142500,0.660142578125,9.75105094909668,-4.359723091125488,3.2919256687164307
1667266154396540200,0.6625400390625,9.90688419342041,-4.4243292808532715,3.303889751434326
1667266154398938000,0.664938232421875,10.03848934173584,-4.498506546020508,3.303889751434326
1667266154401335800,0.667335693359375,10.103095054626465,-4.579862594604492,3.294318675994873
1667266154403733500,0.6697333984375,10.143773078918457,-4.644468784332275,3.284747362136841
1667266154406131500,0.67213134765625,10.158130645751953,-4.718646049499512,3.287140130996704
1667266154408529200,0.674529052734375,10.129416465759277,-4.78594446182251,3.246462106704712
1667266154410927000,0.676927001953125,10.06002426147461,-4.819443702697754,3.215355396270752
1667266154413324800,0.67932470703125,9.969097137451172,-4.867300510406494,3.184248685836792
1667266154415722500,0.681722412109375,9.870991706848145,-4.915156841278076,3.16749906539917
1667266154418120400,0.684120361328125,9.75105094909668,-4.9486565589904785,3.1172497272491455
1667266154420518100,0.68651806640625,9.609874725341797,-4.960620403289795,3.085843801498413
1667266154422915800,0.688915771484375,9.492626190185547,-4.967798709869385,3.0571300983428955
1667266154425313800,0.691313720703125,9.392127990722656,-4.929513931274414,3.045166015625
1667266154427711500,0.69371142578125,9.289237022399902,-4.91037130355835,3.0332016944885254
1667266154430109400,0.696109375,9.205188751220703,-4.869693279266357,3.054737091064453
1667266154432507100,0.698507080078125,9.157332420349121,-4.819443702697754,3.0667014122009277
1667266154434905000,0.700905029296875,9.121439933776855,-4.742574691772461,3.129213809967041
1667266154437302800,0.703302734375,9.114261627197266,-4.692325115203857,3.200998544692993
1667266154439700500,0.705700439453125,9.123832702636719,-4.622933387756348,3.2967114448547363
1667266154442098200,0.70809814453125,9.154939651489258,-4.529613494873047,3.418745279312134
1667266154444496100,0.71049609375,9.200403213500977,-4.460221290588379,3.555136203765869
1667266154446893800,0.712893798828125,9.250652313232422,-4.398007869720459,3.6822550296783447
1667266154449291800,0.715291748046875,9.337093353271484,-4.326223373413086,3.81864595413208
1667266154451689500,0.717689453125,9.4088773727417,-4.2831525802612305,3.9502511024475098
1667266154454087400,0.72008740234375,9.475876808166504,-4.268795490264893,4.045963764190674
1667266154456485000,0.722485107421875,9.547661781311035,-4.2592244148254395,4.134498596191406
1667266154458882800,0.7248828125,9.633803367614746,-4.247260093688965,4.191926002502441
1667266154461280800,0.72728076171875,9.707980155944824,-4.235296249389648,4.278367042541504
1667266154463678500,0.729678466796875,9.808479309082031,-4.237689018249512,4.326223373413086
1667266154466076200,0.732076171875,9.92124080657959,-4.2209391593933105,4.359723091125488
1667266154468474000,0.73447412109375,10.04566764831543,-4.225724697113037,4.364508628845215
1667266154470871800,0.736871826171875,10.064809799194336,-4.237689018249512,4.41475772857666
1667266154473269800,0.739269775390625,10.189236640930176,-4.218546390533447,4.443471431732178
1667266154475667500,0.74166748046875,10.344770431518555,-4.206283092498779,4.450650215148926
1667266154478065200,0.744065185546875,10.507781982421875,-4.179962158203125,4.493721008300781
1667266154480463000,0.746463134765625,10.636994361877441,-4.179962158203125,4.584648132324219
1667266154482860800,0.74886083984375,10.735099792480469,-4.213760852813721,4.709074974060059
1667266154485258500,0.751258544921875,10.809277534484863,-4.266402721405029,4.805087089538574
1667266154487656400,0.753656494140625,10.869097709655762,-4.328616142272949,4.922335147857666
1667266154490054100,0.75605419921875,10.919346809387207,-4.381258487701416,4.984548568725586
1667266154492452000,0.7584521484375,10.979466438293457,-4.4650068283081055,5.053940296173096
1667266154494849800,0.760849853515625,11.039287567138672,-4.534399032592773,5.0826544761657715
1667266154497247500,0.76324755859375,11.139785766601562,-4.596612453460693,5.125725269317627
1667266154499645400,0.7656455078125,11.24746322631836,-4.644468784332275,5.159224510192871
1667266154502043100,0.768043212890625,11.345568656921387,-4.694717884063721,5.173581600189209
1667266154504440800,0.77044091796875,11.460424423217773,-4.749752998352051,5.195116996765137
1667266154506838800,0.7728388671875,11.551650047302246,-4.790729999542236,5.187938690185547
1667266154509236500,0.775236572265625,11.635398864746094,-4.860121726989746,5.164010524749756
1667266154511634400,0.777634521484375,11.723933219909668,-4.884049892425537,5.118546962738037
1667266154514032000,0.7800322265625,11.7957181930542,-4.9175496101379395,5.085047245025635
1667266154516429800,0.782429931640625,11.853145599365234,-4.931906700134277,5.039583683013916
1667266154518827800,0.784827880859375,11.903395652770996,-4.9725847244262695,5.015655517578125
1667266154521225500,0.7872255859375,11.929716110229492,-5.01086950302124,4.943870544433594
1667266154523623400,0.78962353515625,11.953644752502441,-5.027619361877441,4.864907741546631
1667266154526021000,0.792021240234375,11.946466445922852,-5.077868938446045,4.764110088348389
1667266154528418800,0.794418701171875,11.901002883911133,-5.097011566162109,4.682754039764404
1667266154530816800,0.796816650390625,11.817254066467285,-5.1065826416015625,4.599005222320557
1667266154533214500,0.79921435546875,11.731112480163574,-5.13529634475708,4.486542224884033
1667266154535612200,0.801612060546875,11.621042251586914,-5.149653434753418,4.383651256561279
1667266154538010000,0.804010009765625,11.474781036376953,-5.159224510192871,4.304687976837158
1667266154540407800,0.80640771484375,11.309676170349121,-5.18315315246582,4.1991047859191895
1667266154542805800,0.8088056640625,11.127821922302246,-5.207081317901611,4.091427803039551
1667266154545203500,0.811203369140625,10.943573951721191,-5.226223945617676,4.01246452331543
1667266154547601200,0.81360107421875,10.766206741333008,-5.223830699920654,3.91914439201355
1667266154549999000,0.8159990234375,10.601101875305176,-5.228616714477539,3.8306100368499756
1667266154552396800,0.818396728515625,10.424033164978027,-5.231009483337402,3.7540395259857178
1667266154554794500,0.82079443359375,10.251450538635254,-5.228616714477539,3.677469253540039
1667266154557192400,0.8231923828125,10.079167366027832,-5.2477593421936035,3.6029927730560303
1667266154559590100,0.825590087890625,9.940383911132812,-5.257330417633057,3.545564889907837
1667266154561988000,0.827988037109375,9.839884757995605,-5.269294738769531,3.521636724472046
1667266154564385800,0.8303857421875,9.786943435668945,-5.238187789916992,3.476173162460327
1667266154566783500,0.832783447265625,9.786943435668945,-5.197509765625,3.4498519897460938
1667266154569181400,0.835181396484375,9.849455833435059,-5.147260665893555,3.4570305347442627
1667266154571579100,0.8375791015625,9.954740524291992,-5.075475692749023,3.4809587001800537
1667266154573977000,0.83997705078125,9.973882675170898,-4.998905658721924,3.5407793521881104
1667266154576374800,0.842374755859375,10.048060417175293,-4.922335147857666,3.614956855773926
1667266154578772500,0.8447724609375,10.2418794631958,-4.852943420410156,3.7516467571258545
1667266154581170400,0.84717041015625,10.469496726989746,-4.817050933837891,3.9335012435913086
1667266154583568100,0.849568115234375,10.699207305908203,-4.809872627258301,4.144069671630859
1667266154585966000,0.851966064453125,10.919346809387207,-4.826622486114502,4.362115859985352
1667266154588363800,0.85436376953125,11.161321640014648,-4.884049892425537,4.565505504608154
1667266154590761500,0.856761474609375,11.414960861206055,-4.984548568725586,4.744967460632324
1667266154593159400,0.859159423828125,11.654541969299316,-5.089832782745361,4.876871585845947
1667266154595557000,0.86155712890625,11.86750316619873,-5.226223945617676,4.984548568725586
1667266154597954800,0.863954833984375,12.032608032226562,-5.372485160827637,5.046761989593506
1667266154600352800,0.866352783203125,12.116655349731445,-5.530411243438721,5.056333541870117
1667266154602750500,0.86875048828125,12.147762298583984,-5.664409637451172,5.030012130737305
1667266154605148400,0.8711484375,12.123833656311035,-5.774479389190674,4.924727916717529
1667266154607546000,0.873546142578125,12.049357414245605,-5.911169052124023,4.800301551818848
1667266154609943800,0.87594384765625,11.963215827941895,-6.057131290435791,4.642076015472412
1667266154612341800,0.878341796875,11.843574523925781,-6.200700759887695,4.4721856117248535
1667266154614739500,0.880739501953125,11.700005531311035,-6.3825554847717285,4.266402721405029
1667266154617137200,0.88313720703125,11.55404281616211,-6.555137634277344,4.084249019622803
1667266154619535000,0.88553515625,11.426924705505371,-6.73938512802124,3.8712878227233887
1667266154621932800,0.887932861328125,11.297712326049805,-6.914061069488525,3.6487553119659424
1667266154624330800,0.890330810546875,11.166107177734375,-7.089035987854004,3.4378879070281982
1667266154626728400,0.892728515625,11.075180053710938,-7.246962547302246,3.215355396270752
1667266154629126100,0.895126220703125,11.001002311706543,-7.40488862991333,2.997309446334839
1667266154631524000,0.897524169921875,10.883454322814941,-7.507780075073242,2.817847728729248
1667266154633921800,0.899921875,10.749456405639648,-7.610970497131348,2.7029922008514404
1667266154636319500,0.902319580078125,10.603494644165039,-7.668398380279541,2.6503500938415527
1667266154638717400,0.904717529296875,10.452746391296387,-7.72104024887085,2.6383860111236572
1667266154641115100,0.907115234375,10.337592124938965,-7.7593255043029785,2.652743101119995
1667266154643513000,0.90951318359375,10.222736358642578,-7.747361660003662,2.698206663131714
1667266154645910800,0.911910888671875,10.112667083740234,-7.72104024887085,2.7436702251434326
1667266154648308700,0.914308837890625,10.009775161743164,-7.692326545715332,2.7819554805755615
1667266154650706400,0.91670654296875,9.9140625,-7.65164852142334,2.8896324634552
1667266154653104000,0.919104248046875,9.786943435668945,-7.6013994216918945,2.98295259475708
1667266154655502000,0.921502197265625,9.705587387084961,-7.531708240509033,3.045166015625
1667266154657899800,0.923899658203125,9.655338287353516,-7.438388347625732,3.1004998683929443
1667266154660297500,0.92629736328125,9.6433744430542,-7.333104133605957,3.1268210411071777
1667266154662695400,0.9286953125,9.662516593933105,-7.220641613006592,3.1555347442626953
1667266154665093000,0.931093017578125,9.688838005065918,-7.0770721435546875,3.184248685836792
1667266154667491000,0.933490966796875,9.698409080505371,-6.93320369720459,3.215355396270752
1667266154669888800,0.935888671875,9.719944953918457,-6.780063152313232,3.246462106704712
1667266154672286500,0.938286376953125,9.75344467163086,-6.679564476013184,3.2727832794189453
1667266154674684400,0.940684326171875,9.779765129089355,-6.595815658569336,3.334996461868286
1667266154677082000,0.94308203125,9.823135375976562,-6.543173313140869,3.387638568878174
1667266154679479800,0.945479736328125,9.882955551147461,-6.5288166999816895,3.428316593170166
1667266154681877800,0.947877685546875,9.964311599731445,-6.547959327697754,3.459423303604126
1667266154684275500,0.950275390625,10.02173900604248,-6.567101955413818,3.490530014038086
1667266154686673400,0.95267333984375,10.103095054626465,-6.626922130584717,3.531208038330078
1667266154689071000,0.955071044921875,10.165308952331543,-6.722635269165039,3.555136203765869
1667266154691468800,0.95746875,10.225129127502441,-6.784848690032959,3.552743434906006
1667266154693866800,0.95986669921875,10.26341438293457,-6.868597507476807,3.5336008071899414
1667266154696264400,0.962264404296875,10.308877944946289,-6.952346324920654,3.4809587001800537
1667266154698662100,0.964662109375,10.328021049499512,-7.019644260406494,3.418745279312134
1667266154701060000,0.96706005859375,10.292128562927246,-7.079464912414551,3.380460262298584
1667266154703457800,0.969457763671875,10.24905776977539,-7.134500026702881,3.3278181552886963
1667266154705855700,0.971855712890625,10.194023132324219,-7.182356357574463,3.2727832794189453
1667266154708253400,0.97425341796875,10.127023696899414,-7.2349982261657715,3.215355396270752
1667266154710651100,0.976651123046875,10.048060417175293,-7.270890712738037,3.208176851272583
1667266154713049000,0.979049072265625,9.957133293151855,-7.2732834815979,3.1962127685546875
1667266154715446800,0.98144677734375,9.887741088867188,-7.275676250457764,3.208176851272583
1667266154717844500,0.983844482421875,9.835099220275879,-7.246962547302246,3.2344980239868164
1667266154720242400,0.986242431640625,9.770194053649902,-7.203891754150391,3.2608189582824707
1667266154722640100,0.98864013671875,9.731908798217773,-7.141678333282471,3.301496982574463
1667266154725038000,0.9910380859375,9.72233772277832,-7.0531439781188965,3.342175006866455
1667266154727435800,0.993435791015625,9.717552185058594,-6.945167541503906,3.356531858444214
1667266154729833700,0.995833740234375,9.731908798217773,-6.813562393188477,3.3852458000183105
1667266154732231400,0.9982314453125,9.758230209350586,-6.698707103729248,3.373281717300415
1667266154734629000,1.000629150390625,9.806086540222168,-6.591030120849609,3.390031576156616
1667266154737027000,1.003027099609375,9.851848602294922,-6.480959892272949,3.445066452026367
1667266154739424800,1.0054248046875,9.92124080657959,-6.416054725646973,3.514458179473877
1667266154741822500,1.007822509765625,9.978668212890625,-6.334698677062988,3.559921979904175
1667266154744220400,1.010220458984375,10.036096572875977,-6.27487850189209,3.6269209384918213
1667266154746618000,1.0126181640625,10.110274314880371,-6.231807708740234,3.675076484680176
1667266154749016000,1.01501611328125,10.225129127502441,-6.1935224533081055,3.691826343536377
1667266154751413800,1.017413818359375,10.356734275817871,-6.152844429016113,3.7133617401123047
1667266154753811500,1.0198115234375,10.498209953308105,-6.090631008148193,3.715754508972168
1667266154756209400,1.02220947265625,10.656136512756348,-6.04038143157959,3.691826343536377
1667266154758607000,1.024607177734375,10.83559799194336,-5.999703884124756,3.6293137073516846
1667266154761004800,1.0270048828125,11.010573387145996,-5.973382472991943,3.5575289726257324
1667266154763402800,1.02940283203125,11.204392433166504,-5.97098970413208,3.468994617462158
1667266154765800400,1.031800537109375,11.388639450073242,-5.97098970413208,3.3613176345825195
1667266154768198400,1.034198486328125,11.601900100708008,-6.006882190704346,3.256033420562744
1667266154770596000,1.03659619140625,11.862717628479004,-6.049952983856201,3.193819999694824
1667266154772994000,1.038994140625,12.099905967712402,-6.136094570159912,3.1268210411071777
1667266154775391700,1.041391845703125,12.310474395751953,-6.191129684448242,3.0499515533447266
1667266154777789400,1.04378955078125,12.535399436950684,-6.2413787841796875,2.918346405029297
1667266154780187400,1.0461875,12.758231163024902,-6.286842346191406,2.784348249435425
1667266154782585000,1.048585205078125,12.98076343536377,-6.372983932495117,2.674278497695923
1667266154784982800,1.050982666015625,13.17697525024414,-6.4666032791137695,2.612065076828003
1667266154787380700,1.053380615234375,13.37587833404541,-6.574280261993408,2.635993242263794
1667266154789778400,1.0557783203125,13.564911842346191,-6.703492641448975,2.6575286388397217
1667266154792176400,1.05817626953125,13.761422157287598,-6.818347930908203,2.6886353492736816
1667266154794574000,1.060573974609375,13.955241203308105,-6.954739093780518,2.7269206047058105
1667266154796971800,1.0629716796875,14.146666526794434,-7.079464912414551,2.801098108291626
1667266154799369700,1.06536962890625,14.345569610595703,-7.215855598449707,2.8298118114471436
1667266154801767400,1.067767333984375,14.525032043457031,-7.33549690246582,2.8752756118774414
1667266154804165000,1.0701650390625,14.659029960632324,-7.488637447357178,2.942274570465088
1667266154806563000,1.07256298828125,14.757135391235352,-7.627720355987549,3.0092735290527344
1667266154808960800,1.074960693359375,14.828920364379883,-7.788039684295654,3.0786654949188232
1667266154811358700,1.077358642578125,14.843276977539062,-7.95553731918335,3.160320520401001
1667266154813756400,1.07975634765625,14.814562797546387,-8.149654388427734,3.2368907928466797
1667266154816154000,1.082154052734375,14.7810640335083,-8.353044509887695,3.2991042137145996
1667266154818552000,1.084552001953125,14.733206748962402,-8.554041862487793,3.3206396102905273
1667266154820949800,1.08694970703125,14.615959167480469,-8.748159408569336,3.3278181552886963
1667266154823347500,1.089347412109375,14.498710632324219,-8.958727836608887,3.2991042137145996
1667266154825745400,1.091745361328125,14.35274887084961,-9.109476089477539,3.248854875564575
1667266154828143000,1.09414306640625,14.187344551086426,-9.253045082092285,3.1746773719787598
1667266154830541000,1.096541015625,14.003097534179688,-9.361021041870117,3.0957143306732178
1667266154832938800,1.098938720703125,13.797314643859863,-9.432806015014648,3.0020952224731445
1667266154835336700,1.101336669921875,13.60319709777832,-9.454340934753418,2.887239694595337
1667266154837734400,1.103734375,13.411770820617676,-9.456734657287598,2.760420083999634
1667266154840132000,1.106132080078125,13.210773468017578,-9.420842170715332,2.659921407699585
1667266154842530000,1.108530029296875,13.023834228515625,-9.361021041870117,2.597707986831665
1667266154844927700,1.110927734375,12.84915828704834,-9.27009391784668,2.5522444248199463
1667266154847325400,1.113325439453125,12.681660652160645,-9.162117958068848,2.5450658798217773
1667266154849723400,1.115723388671875,12.501899719238281,-9.028120040893555,2.5450658798217773
1667266154852121000,1.11812109375,12.387044906616211,-8.884550094604492,2.5618157386779785
1667266154854519000,1.12051904296875,12.305688858032227,-8.731410026550293,2.597707986831665
1667266154856916700,1.122916748046875,12.248260498046875,-8.55164909362793,2.6479573249816895
1667266154859314400,1.125314453125,12.226725578308105,-8.367402076721191,2.738884687423706
1667266154861712400,1.12771240234375,12.236296653747559,-8.154440879821777,2.7915267944335938
1667266154864110000,1.130110107421875,12.279367446899414,-7.981858253479004,2.8752756118774414
1667266154866507800,1.1325078125,12.353545188903809,-7.826324462890625,2.942274570465088
1667266154868905700,1.13490576171875,12.513864517211914,-7.6875410079956055,2.9781668186187744
1667266154871303400,1.137303466796875,12.698410987854004,-7.584649562835693,2.9853453636169434
1667266154873701400,1.139701416015625,12.906586647033691,-7.526922702789307,2.9925239086151123
1667266154876099000,1.14209912109375,13.102797508239746,-7.500601768493652,2.9877381324768066
1667266154878496800,1.144496826171875,13.306487083435059,-7.502994537353516,2.973381280899048
1667266154880894700,1.146894775390625,13.488341331481934,-7.5101728439331055,2.9566314220428467
1667266154883292400,1.14929248046875,13.636695861816406,-7.560422420501709,2.9374887943267822
1667266154885690400,1.1516904296875,13.768600463867188,-7.5942206382751465,2.9087750911712646
1667266154888088000,1.154088134765625,13.845170974731445,-7.658827304840088,2.856132984161377
1667266154890485800,1.15648583984375,13.943276405334473,-7.725826263427734,2.8130621910095215
1667266154892883700,1.1588837890625,14.017454147338867,-7.795217990875244,2.762812852859497
1667266154895281400,1.161281494140625,14.048561096191406,-7.8526458740234375,2.6886353492736816
1667266154897679400,1.163679443359375,14.041382789611816,-7.922037601470947,2.628814697265625
1667266154900077000,1.1660771484375,14.000704765319824,-7.996214866638184,2.5857439041137695
1667266154902474800,1.168474853515625,13.904991149902344,-8.065607070922852,2.5378875732421875
1667266154904872700,1.170872802734375,13.751851081848145,-8.106285095214844,2.5450658798217773
1667266154907270400,1.1732705078125,13.564911842346191,-8.173583030700684,2.5450658798217773
1667266154909668000,1.175668212890625,13.35434341430664,-8.221439361572266,2.5232315063476562
1667266154912066000,1.178066162109375,13.129118919372559,-8.250153541564941,2.533101797103882
1667266154914463700,1.180463623046875,12.875479698181152,-8.235795974731445,2.557030200958252
1667266154916861700,1.18286181640625,12.597613334655762,-8.211868286132812,2.614457845687866
1667266154919259400,1.18525927734375,12.298510551452637,-8.166404724121094,2.6551358699798584
1667266154921657000,1.187656982421875,12.008679389953613,-8.075178146362305,2.6790640354156494
1667266154924055000,1.190054931640625,11.721540451049805,-7.989036560058594,2.6958138942718506
1667266154926452700,1.19245263671875,11.44128131866455,-7.8765740394592285,2.7173492908477783
1667266154928850400,1.194850341796875,11.175678253173828,-7.7593255043029785,2.7125635147094727
1667266154931248400,1.197248291015625,10.933704376220703,-7.6253275871276855,2.753241539001465
1667266154933646000,1.19964599609375,10.692028999328613,-7.474280834197998,2.762812852859497
1667266154936044000,1.2020439453125,10.4790678024292,-7.297211647033691,2.777169704437256
1667266154938441700,1.204441650390625,10.28734302520752,-7.112964630126953,2.825026273727417
1667266154940839400,1.20683935546875,10.088738441467285,-6.942774772644043,2.8609185218811035
1667266154943237400,1.2092373046875,9.89970588684082,-6.799205780029297,2.9303104877471924
1667266154945635000,1.211635009765625,9.72233772277832,-6.646064758300781,3.004487991333008
1667266154948033000,1.214032958984375,9.550054550170898,-6.476174354553223,3.119642496109009
1667266154950430700,1.2164306640625,9.39452075958252,-6.308377742767334,3.2656047344207764
1667266154952828400,1.218828369140625,9.279664993286133,-6.1241302490234375,3.4307093620300293
1667266154955226400,1.221226318359375,9.183652877807617,-5.9422760009765625,3.593421459197998
1667266154957624000,1.2236240234375,9.138189315795898,-5.762515068054199,3.75643253326416
1667266154960022000,1.22602197265625,9.097511291503906,-5.585446357727051,3.904787540435791
1667266154962419700,1.228419677734375,9.111868858337402,-5.415555953979492,4.053142547607422
1667266154964817400,1.2308173828125,9.121439933776855,-5.231009483337402,4.184747695922852
1667266154967215400,1.23321533203125,9.107083320617676,-5.070690155029297,4.302295207977295
1667266154969613000,1.235613037109375,9.09990406036377,-4.915156841278076,4.388436794281006
1667266154972010800,1.2380107421875,9.09272575378418,-4.781158924102783,4.460221290588379
1667266154974408700,1.24040869140625,9.020941734313965,-4.651647090911865,4.512863636016846
1667266154976806400,1.242806396484375,8.934800148010254,-4.548755645751953,4.536791801452637
1667266154979204400,1.245204345703125,8.846264839172363,-4.493721008300781,4.570291042327881
1667266154981602000,1.24760205078125,8.791230201721191,-4.4650068283081055,4.599005222320557
1667266154983999700,1.249999755859375,8.74337387084961,-4.450650215148926,4.5822553634643555
1667266154986397700,1.252397705078125,8.748159408569336,-4.450650215148926,4.551148891448975
1667266154988795400,1.25479541015625,8.781659126281738,-4.450650215148926,4.46979284286499
1667266154991193300,1.257193359375,8.846264839172363,-4.474578380584717,4.328616142272949
1667266154993591000,1.259591064453125,8.908478736877441,-4.481756687164307,4.196712017059326
1667266154995988700,1.26198876953125,8.965906143188477,-4.474578380584717,4.0435709953308105
1667266154998386700,1.26438671875,9.035298347473145,-4.4482574462890625,3.8856449127197266
1667266155000784400,1.266784423828125,9.111868858337402,-4.41475772857666,3.7612180709838867
1667266155003182000,1.26918212890625,9.190832138061523,-4.364508628845215,3.6269209384918213
1667266155005580000,1.271580078125,9.248259544372559,-4.335794448852539,3.492922782897949
1667266155007977700,1.273977783203125,9.322735786437988,-4.297509670257568,3.3852458000183105
1667266155010375700,1.276375732421875,9.382556915283203,-4.240081787109375,3.301496982574463
1667266155012773400,1.2787734375,9.418449401855469,-4.175176620483398,3.239283561706543
1667266155015171000,1.281171142578125,9.430413246154785,-4.100998878479004,3.2129626274108887
1667266155017569000,1.283569091796875,9.535696983337402,-4.017250061035156,3.270390272140503
1667266155019966700,1.285966796875,9.595518112182617,-3.895216226577759,3.3302109241485596
1667266155022364700,1.28836474609375,9.545269012451172,-3.7851462364196777,3.342175006866455
1667266155024762400,1.290762451171875,9.456734657287598,-3.653541088104248,3.3469607830047607
1667266155027160000,1.29316015625,9.365806579589844,-3.531208038330078,3.311068296432495
1667266155029558000,1.29555810546875,9.289237022399902,-3.3828530311584473,3.294318675994873
1667266155031955700,1.297955810546875,9.226723670959473,-3.2129626274108887,3.284747362136841
1667266155034353700,1.300353759765625,9.152546882629395,-3.028416156768799,3.2895328998565674
1667266155036751400,1.30275146484375,9.10229778289795,-2.8369903564453125,3.325425386428833
1667266155039149000,1.305149169921875,9.080761909484863,-2.6240291595458984,3.3996028900146484
1667266155041547000,1.307547119140625,9.080761909484863,-2.4011974334716797,3.468994617462158
1667266155043944700,1.30994482421875,9.119047164916992,-2.1786649227142334,3.559921979904175
1667266155046342400,1.31234228515625,9.169296264648438,-1.9486548900604248,3.64127779006958
1667266155048740400,1.314740234375,9.243474006652832,-1.7165511846542358,3.722932815551758
1667266155051138000,1.317137939453125,9.310771942138672,-1.4796617031097412,3.809074640274048
1667266155053536000,1.319535888671875,9.413662910461426,-1.2448660135269165,3.897608995437622
1667266155055933700,1.32193359375,9.540482521057129,-1.0031908750534058,4.000500202178955
1667266155058331400,1.324331298828125,9.657731056213379,-0.7755736112594604,4.108177185058594
1667266155060729300,1.326729248046875,9.782157897949219,-0.5745765566825867,4.211368083953857
1667266155063127000,1.329126953125,9.897313117980957,-0.4094717800617218,4.2831525802612305
1667266155065524700,1.331524658203125,9.981060981750488,-0.2584248483181,4.3310089111328125
1667266155067922700,1.333922607421875,10.076774597167969,-0.12203395366668701,4.350151538848877
1667266155070320400,1.3363203125,10.13180923461914,-0.007178467698395252,4.338187217712402
1667266155072718300,1.33871826171875,10.17727279663086,0.09092725813388824,4.311866283416748
1667266155075116000,1.341115966796875,10.208379745483398,0.13639089465141296,4.244867324829102
1667266155077514000,1.343513916015625,10.196415901184082,0.16271193325519562,4.182354927062988
1667266155079911700,1.34591162109375,10.15573787689209,0.16510476171970367,4.098606109619141
1667266155082309400,1.348309326171875,10.083952903747559,0.13878370821475983,4.024428367614746
1667266155084707300,1.350707275390625,9.985847473144531,0.11964113265275955,3.9143588542938232
1667266155087105000,1.35310498046875,9.868598937988281,0.07417750358581543,3.78753924369812
1667266155089502700,1.355502685546875,9.712766647338867,-0.004785645287483931,3.6583266258239746
1667266155091900700,1.357900634765625,9.523733139038086,-0.07896314561367035,3.507279872894287
1667266155094298400,1.36029833984375,9.322735786437988,-0.18903298676013947,3.339782238006592
1667266155096696300,1.3626962890625,9.097511291503906,-0.2994019389152527,3.2057840824127197
1667266155099094000,1.365093994140625,8.848658561706543,-0.4046861231327057,3.0499515533447266
1667266155101491700,1.36749169921875,8.592327117919922,-0.524327278137207,2.8896324634552
1667266155103889700,1.3698896484375,8.266902923583984,-0.6487540602684021,2.7891337871551514
1667266155106287400,1.372287353515625,7.9005022048950195,-0.768395185470581,2.693420886993408
1667266155108685000,1.37468505859375,7.632505893707275,-0.8210372924804688,2.5761725902557373
1667266155111083000,1.3770830078125,7.395317554473877,-0.8787640929222107,2.434697151184082
1667266155113480700,1.379480712890625,7.170392036437988,-0.9337990283966064,2.348555326461792
1667266155115878700,1.381878662109375,6.935596466064453,-0.9840483069419861,2.2504496574401855
1667266155118276400,1.3842763671875,6.7178497314453125,-1.0151549577713013,2.1619153022766113
1667266155120674000,1.386674072265625,6.500102519989014,-1.0007981061935425,2.121237277984619
1667266155123072000,1.389072021484375,6.301199436187744,-1.0223335027694702,2.080559253692627
1667266155125469700,1.3914697265625,6.104988098144531,-1.0223335027694702,2.0303099155426025
1667266155127867400,1.393867431640625,5.930311679840088,-1.012762188911438,1.9606190919876099
1667266155130265300,1.396265380859375,5.760122299194336,-1.0271191596984863,1.8936200141906738
1667266155132663000,1.3986630859375,5.602196216583252,-1.0055837631225586,1.8194425106048584
1667266155135061000,1.40106103515625,5.458626747131348,-0.97926265001297,1.7309080362319946
1667266155137458700,1.403458740234375,5.305186748504639,-0.9433703422546387,1.6351951360702515
1667266155139856600,1.405856689453125,5.1544389724731445,-0.9194421172142029,1.5634105205535889
1667266155142254300,1.40825439453125,4.986941337585449,-0.8955138921737671,1.4964114427566528
1667266155144652000,1.410652099609375,4.809872627258301,-0.8739784955978394,1.4270195960998535
1667266155147050000,1.413050048828125,4.656432628631592,-0.8644071817398071,1.3549357652664185
1667266155149447700,1.41544775390625,4.503292083740234,-0.8282157182693481,1.2903295755386353
1667266155151845400,1.417845458984375,4.340580463409424,-0.8066803216934204,1.2329018115997314
1667266155154243300,1.420243408203125,4.211368083953857,-0.768395185470581,1.1850453615188599
1667266155156641000,1.42264111328125,4.086641788482666,-0.6966105103492737,1.1443674564361572
1667266155159039000,1.4250390625,3.9646079540252686,-0.6056832075119019,1.067797064781189
1667266155161436700,1.427436767578125,3.8545382022857666,-0.4980062246322632,1.0055837631225586
1667266155163834400,1.42983447265625,3.7516467571258545,-0.40707895159721375,0.9218349456787109
1667266155166232300,1.432232421875,3.6583266258239746,-0.28504499793052673,0.8377870321273804
1667266155168630000,1.434630126953125,3.583850145339966,-0.15553347766399384,0.797109067440033
1667266155171028000,1.437028076171875,3.538386583328247,-0.02153540402650833,0.7636095285415649
1667266155173425700,1.43942578125,3.524029493331909,0.1052841991186142,0.734895646572113
1667266155175823400,1.4418232421875,3.521636724472046,0.2225325107574463,0.7492526173591614
1667266155178221300,1.44422119140625,3.521636724472046,0.35443684458732605,0.7516453862190247
1667266155180619000,1.446618896484375,3.552743434906006,0.4549354016780853,0.7923234105110168
1667266155183017000,1.449016845703125,3.61017107963562,0.5578267574310303,0.8428717851638794
1667266155185414700,1.45141455078125,3.677469253540039,0.6415755748748779,0.9002995491027832
1667266155187812400,1.453812255859375,3.7540395259857178,0.6966105103492737,0.9840483069419861
1667266155190210300,1.456210205078125,3.8377883434295654,0.766002357006073,1.0893324613571167
1667266155192608000,1.45860791015625,3.945465326309204,0.8306085467338562,1.225723385810852
1667266155195005700,1.461005615234375,4.045963764190674,0.8787640929222107,1.3357932567596436
1667266155197403600,1.463403564453125,4.153641223907471,0.9026923179626465,1.4533406496047974
1667266155199801300,1.46580126953125,4.275974273681641,0.9385846853256226,1.55623197555542
1667266155202199300,1.46819921875,4.3788652420043945,0.9385846853256226,1.6663018465042114
1667266155204597000,1.470596923828125,4.474578380584717,0.9601200819015503,1.7476578950881958
1667266155206994700,1.47299462890625,4.570291042327881,1.0031908750534058,1.8457635641098022
1667266155209392600,1.475392578125,4.661218643188477,1.0199406147003174,1.9199410676956177
1667266155211790300,1.477790283203125,4.771587371826172,1.0079765319824219,1.9800606966018677
1667266155214188300,1.480188232421875,4.8553361892700195,1.0199406147003174,1.9872392416000366
1667266155216586000,1.4825859375,4.936692237854004,1.0342975854873657,2.011167526245117
1667266155218983700,1.484983642578125,5.027619361877441,1.0199406147003174,2.0470597743988037
1667266155221381600,1.487381591796875,5.1209397315979,0.9960124492645264,2.049452543258667
1667266155223779300,1.489779296875,5.2477593421936035,0.9385846853256226,2.0685951709747314
1667266155226177000,1.492177001953125,5.307579517364502,0.9290133714675903,2.066202402114868
1667266155228575000,1.494574951171875,5.334199905395508,0.9026923179626465,2.0542383193969727
1667266155230972700,1.49697265625,5.360520839691162,0.8787640929222107,2.0398812294006348
1667266155233370600,1.49937060546875,5.38205623626709,0.8524430394172668,1.9992033243179321
1667266155235768300,1.501768310546875,5.405984401702881,0.8353942036628723,1.9319051504135132
1667266155238166000,1.504166015625,5.43709135055542,0.8138588070869446,1.8266209363937378
1667266155240564000,1.50656396484375,5.4897332191467285,0.8090731501579285,1.7237296104431152
1667266155242961700,1.508961669921875,5.556732177734375,0.8210372924804688,1.6184453964233398
1667266155245359600,1.511359619140625,5.635695457458496,0.8210372924804688,1.5107684135437012
1667266155247757300,1.51375732421875,5.750551223754883,0.857228696346283,1.3956137895584106
1667266155250155000,1.516155029296875,5.8944196701049805,0.8691928386688232,1.2664014101028442
1667266155252553000,1.518552978515625,6.042774677276611,0.890728235244751,1.1515458822250366
1667266155254950700,1.52095068359375,6.21984338760376,0.9146564602851868,1.0414760112762451
1667266155257348600,1.5233486328125,6.384948253631592,0.9457631707191467,0.9170492887496948
1667266155259746300,1.525746337890625,6.5288166999816895,0.9625129103660583,0.8258228898048401
1667266155262144000,1.52814404296875,6.681957244873047,0.981655478477478,0.734895646572113
1667266155264542000,1.5305419921875,6.847062110900879,0.9768698215484619,0.6655037999153137
1667266155266939600,1.532939697265625,7.065107822418213,0.9720842242240906,0.6080760359764099
1667266155269337300,1.53533740234375,7.297211647033691,0.9720842242240906,0.5721837282180786
1667266155271735300,1.5377353515625,7.5341010093688965,0.9337990283966064,0.5745765566825867
1667266155274133000,1.540133056640625,7.742575645446777,0.8979067206382751,0.6152545213699341
1667266155276531000,1.542531005859375,7.936394691467285,0.857228696346283,0.701396107673645
1667266155278928600,1.5449287109375,8.134998321533203,0.8042874932289124,0.7779664397239685
1667266155281326300,1.547326416015625,8.324331283569336,0.7707880139350891,0.8691928386688232
1667266155283724300,1.549724365234375,8.460721969604492,0.766002357006073,0.97926265001297
1667266155286122000,1.5521220703125,8.54447078704834,0.7612167000770569,1.0701899528503418
1667266155288519700,1.554519775390625,8.633005142211914,0.7157530784606934,1.158724308013916
1667266155290917600,1.556917724609375,8.65932559967041,0.6535396575927734,1.2759727239608765
1667266155293315300,1.5593154296875,8.597112655639648,0.5626124143600464,1.350150227546692
1667266155295713300,1.56171337890625,8.530113220214844,0.45972105860710144,1.4365909099578857
1667266155298111000,1.564111083984375,8.439186096191406,0.39032918214797974,1.4605190753936768
1667266155300509000,1.566509033203125,8.329116821289062,0.3089732229709625,1.438983678817749
1667266155302906600,1.56890673828125,8.19272518157959,0.2105683982372284,1.410269856452942
1667266155305304300,1.57130419921875,8.036892890930176,0.14356936514377594,1.3621143102645874
1667266155307702300,1.573702392578125,7.9005022048950195,0.06939185410737991,1.287936806678772
1667266155310100000,1.576099853515625,7.7593255043029785,0.019142581149935722,1.2113664150238037
1667266155312497700,1.57849755859375,7.613363265991211,-0.02153540402650833,1.0917253494262695
1667266155314895600,1.5808955078125,7.469494819641113,-0.04546362906694412,0.9768698215484619
1667266155317293300,1.583293212890625,7.34267520904541,-0.05742774158716202,0.8715856671333313
1667266155319691300,1.585691162109375,7.223034381866455,-0.08853443711996078,0.7947162389755249
1667266155322089000,1.5880888671875,7.132106781005859,-0.1052841991186142,0.6942176818847656
1667266155324486700,1.590486572265625,7.069893836975098,-0.1052841991186142,0.6080760359764099
1667266155326884600,1.592884521484375,6.997809886932373,-0.08374879509210587,0.5434698462486267
1667266155329282300,1.5952822265625,6.949953556060791,-0.06699903309345245,0.4692923426628113
1667266155331680000,1.597679931640625,6.916453838348389,-0.05024927482008934,0.3735794425010681
1667266155334078000,1.600077880859375,6.882954120635986,0.004785645287483931,0.2922234535217285
1667266155336475600,1.6024755859375,6.839883327484131,0.038285162299871445,0.19142581522464752
1667266155338873600,1.60487353515625,6.832705020904541,0.07178468257188797,0.12681959569454193
1667266155341271300,1.607271240234375,6.823133945465088,0.10767702013254166,0.05742774158716202
1667266155343669200,1.609669189453125,6.799205780029297,0.13639089465141296,-0.02153540402650833
1667266155346067000,1.61206689453125,6.770491600036621,0.18903298676013947,-0.062213387340307236
1667266155348464600,1.614464599609375,6.758527755737305,0.22971096634864807,-0.08614161610603333
1667266155350862600,1.616862548828125,6.7417778968811035,0.26560330390930176,-0.08853443711996078
1667266155353260300,1.61926025390625,6.7657060623168945,0.3209373354911804,-0.0933200865983963
1667266155355658000,1.621657958984375,6.784848690032959,0.37836506962776184,-0.07657032459974289
1667266155358056000,1.624055908203125,6.830312252044678,0.4334000051021576,-0.07417750358581543
1667266155360453600,1.62645361328125,6.859025955200195,0.5003990530967712,-0.10049854964017868
1667266155362851600,1.6288515625,6.887740135192871,0.5626124143600464,-0.04307080805301666
1667266155365249300,1.631249267578125,6.930810928344727,0.6535396575927734,-0.009571290574967861
1667266155367647000,1.63364697265625,6.937989234924316,0.7085745930671692,-0.02871387079358101
1667266155370045000,1.636044921875,6.921239376068115,0.7540382146835327,-0.040677983313798904
1667266155372442600,1.638442626953125,6.9068827629089355,0.8234301209449768,0.014356935396790504
1667266155374840300,1.64084033203125,6.890132904052734,0.8739784955978394,0.07657032459974289
1667266155377238300,1.64323828125,6.8757758140563965,0.9361918568611145,0.13160525262355804
1667266155379636000,1.645635986328125,6.8757758140563965,1.012762188911438,0.20338992774486542
1667266155382034000,1.648033935546875,6.885347366333008,1.0869396924972534,0.2560320198535919
1667266155384431600,1.650431640625,6.861418724060059,1.1730812788009644,0.3400799036026001
1667266155386829600,1.65282958984375,6.844669342041016,1.2281162738800049,0.44297128915786743
1667266155389227300,1.655227294921875,6.837490558624268,1.2687941789627075,0.5171487927436829
1667266155391625000,1.657625,6.8757758140563965,1.323829174041748,0.5745765566825867
1667266155394023000,1.66002294921875,6.93320369720459,1.3884353637695312,0.6032904386520386
1667266155396420600,1.662420654296875,7.065107822418213,1.434198021888733,0.5961119532585144
1667266155398818300,1.664818359375,7.249355316162109,1.5346965789794922,0.6056832075119019
1667266155401216300,1.66721630859375,7.45274543762207,1.6256239414215088,0.6272186636924744
1667266155403614000,1.669614013671875,7.6875410079956055,1.7045869827270508,0.6248258352279663
1667266155406012000,1.672011962890625,7.941180229187012,1.7644076347351074,0.5865406394004822
1667266155408409600,1.67440966796875,8.19272518157959,1.8266209363937378,0.5578267574310303
1667266155410807300,1.676807373046875,8.436793327331543,1.8529419898986816,0.5506483316421509
1667266155413205200,1.679205322265625,8.65214729309082,1.903191328048706,0.5697908997535706
1667266155415603000,1.68160302734375,8.83669376373291,1.9486548900604248,0.6367899179458618
1667266155418000600,1.684000732421875,8.975478172302246,1.9510477781295776,0.734895646572113
1667266155420398600,1.686398681640625,9.095118522644043,1.9390836954116821,0.8306085467338562
1667266155422796300,1.68879638671875,9.183652877807617,1.9319051504135132,0.893121063709259
1667266155425194200,1.6911943359375,9.241081237792969,1.903191328048706,0.9601200819015503
1667266155427592000,1.693592041015625,9.267701148986816,1.9055840969085693,1.012762188911438
1667266155429989600,1.69598974609375,9.241081237792969,1.8744773864746094,0.9960124492645264
1667266155432387600,1.6983876953125,9.142974853515625,1.831406593322754,0.9481559991836548
1667266155434785300,1.700785400390625,9.020941734313965,1.781157374382019,0.9768698215484619
1667266155437183200,1.703183349609375,8.8438720703125,1.7189439535140991,1.0247262716293335
1667266155439581000,1.705580810546875,8.609076499938965,1.659123420715332,1.1324033737182617
1667266155441978600,1.707978515625,8.353044509887695,1.6064813137054443,1.2113664150238037
1667266155444376600,1.71037646484375,8.070392608642578,1.5753746032714844,1.2735798358917236
1667266155446774300,1.712774169921875,7.752147197723389,1.5490535497665405,1.3094722032546997
1667266155449172200,1.715172119140625,7.435995578765869,1.501197099685669,1.323829174041748
1667266155451570000,1.71756982421875,7.103393077850342,1.5107684135437012,1.3286148309707642
1667266155453967600,1.719967529296875,6.792026996612549,1.5203397274017334,1.3070793151855469
1667266155456365600,1.722365478515625,6.488138675689697,1.5538392066955566,1.2233306169509888
1667266155458763300,1.72476318359375,6.174379825592041,1.5873386859893799,1.1228320598602295
1667266155461161000,1.727160888671875,5.886941909790039,1.659123420715332,1.0055837631225586
1667266155463559000,1.729558837890625,5.633302688598633,1.7380865812301636,0.8883354067802429
1667266155465956600,1.73195654296875,5.391627788543701,1.8337994813919067,0.734895646572113
1667266155468354600,1.7343544921875,5.195116996765137,1.9247267246246338,0.5506483316421509
1667266155470752300,1.736752197265625,5.056333541870117,2.056631088256836,0.33768710494041443
1667266155473150000,1.73914990234375,4.977370262145996,2.173879384994507,0.1818545162677765
1667266155475548000,1.7415478515625,4.9725847244262695,2.262413740158081,0.07657032459974289
1667266155477945600,1.743945556640625,4.939085006713867,2.3820550441741943,-0.04546362906694412
1667266155480343600,1.746343505859375,4.874478816986084,2.5016961097717285,-0.11724831163883209
1667266155482741200,1.7487412109375,4.814658164978027,2.6479573249816895,-0.23210379481315613
1667266155485139000,1.751138916015625,4.812265396118164,2.777169704437256,-0.3400799036026001
1667266155487537000,1.753536865234375,4.826622486114502,2.863311290740967,-0.4381856322288513
1667266155489934600,1.7559345703125,4.852943420410156,2.8944180011749268,-0.5530411601066589
1667266155492332300,1.758332275390625,4.905585289001465,2.9015965461730957,-0.6032904386520386
1667266155494730200,1.760730224609375,4.977370262145996,2.8824539184570312,-0.5530411601066589
1667266155497128000,1.7631279296875,5.051547527313232,2.8465616703033447,-0.4549354016780853
1667266155499526000,1.76552587890625,5.132903575897217,2.7580273151397705,-0.2946162819862366
1667266155501923600,1.767923583984375,5.219045162200928,2.691028118133545,-0.08374879509210587
1667266155504321300,1.7703212890625,5.346164226531982,2.612065076828003,0.15553347766399384
1667266155506719200,1.77271923828125,5.472983360290527,2.504088878631592,0.40707895159721375
1667266155509117000,1.775116943359375,5.616552829742432,2.389233350753784,0.6559324860572815
1667266155511515000,1.777514892578125,5.7720866203308105,2.3222343921661377,0.8715856671333313
1667266155513912600,1.77991259765625,5.9566330909729,2.2169501781463623,1.0558329820632935
1667266155516310300,1.782310302734375,6.171987056732178,2.1260228157043457,1.252044439315796
1667266155518708200,1.784708251953125,6.372983932495117,2.042274236679077,1.3908281326293945
1667266155521106000,1.78710595703125,6.591030120849609,1.9776679277420044,1.5155540704727173
1667266155523503900,1.78950390625,6.792026996612549,1.92951238155365,1.623231053352356
1667266155525901600,1.791901611328125,7.031608581542969,1.8888343572616577,1.7428722381591797
1667266155528299300,1.79429931640625,7.254140853881836,1.86729896068573,1.8242281675338745
1667266155530697200,1.796697265625,7.502994537353516,1.8577276468276978,1.903191328048706
1667266155533095000,1.799094970703125,7.754539966583252,1.8625133037567139,1.953440546989441
1667266155535492600,1.80149267578125,8.003393173217773,1.8744773864746094,1.9968105554580688
1667266155537890600,1.803890625,8.223832130432129,1.8577276468276978,1.9728822708129883
1667266155540288300,1.806288330078125,8.443971633911133,1.8577276468276978,1.9151554107666016
1667266155542686200,1.808686279296875,8.666504859924316,1.8649061918258667,1.8577276468276978
1667266155545084000,1.811083984375,8.851051330566406,1.8649061918258667,1.77397882938385
1667266155547481600,1.813481689453125,9.018548965454102,1.86729896068573,1.6639090776443481
1667266155549879600,1.815879638671875,9.154939651489258,1.8481563329696655,1.532303810119629
1667266155552277200,1.81827734375,9.257830619812012,1.807478427886963,1.410269856452942
1667266155554675000,1.820675048828125,9.346664428710938,1.7883358001708984,1.3070793151855469
1667266155557073000,1.823072998046875,9.399306297302246,1.7380865812301636,1.2113664150238037
1667266155559470600,1.825470703125,9.416056632995605,1.678265929222107,1.1324033737182617
1667266155561868500,1.82786865234375,9.411270141601562,1.6328023672103882,1.0558329820632935
1667266155564266200,1.830266357421875,9.375378608703613,1.5777673721313477,0.981655478477478
1667266155566664200,1.832664306640625,9.334700584411621,1.5490535497665405,0.924227774143219
1667266155569062000,1.835061767578125,9.329915046691895,1.4964114427566528,0.8715856671333313
1667266155571459600,1.83745947265625,9.303593635559082,1.474876046180725,0.8282157182693481
1667266155573857500,1.839857421875,9.26291561126709,1.4222339391708374,0.7731808423995972
1667266155576255200,1.842255126953125,9.231510162353516,1.3573286533355713,0.7109674215316772
1667266155578653000,1.84465283203125,9.20997428894043,1.3405789136886597,0.6343970894813538
1667266155581051000,1.84705078125,9.20279598236084,1.311864972114563,0.5482555031776428
1667266155583448600,1.849448486328125,9.157332420349121,1.2783654928207397,0.45254257321357727
1667266155585846500,1.851846435546875,9.095118522644043,1.2305090427398682,0.36640095710754395
1667266155588244200,1.854244140625,9.028120040893555,1.1874382495880127,0.2560320198535919
1667266155590642000,1.856641845703125,8.94676399230957,1.158724308013916,0.13639089465141296
1667266155593040000,1.859039794921875,8.85344409942627,1.1300104856491089,0.02632104977965355
1667266155595437600,1.8614375,8.7505521774292,1.098903775215149,-0.08614161610603333
1667266155597835300,1.863835205078125,8.65214729309082,1.0701899528503418,-0.20817556977272034
1667266155600233200,1.866233154296875,8.554041862487793,1.043868899345398,-0.368793785572052
1667266155602631000,1.868630859375,8.443971633911133,1.0510473251342773,-0.5147559642791748
1667266155605028900,1.87102880859375,8.355437278747559,1.0414760112762451,-0.6367899179458618
1667266155607426600,1.873426513671875,8.259724617004395,1.036690354347229,-0.7707880139350891
1667266155609824500,1.875824462890625,8.166404724121094,1.0223335027694702,-0.8715856671333313
1667266155612222200,1.87822216796875,8.063214302062988,1.043868899345398,-0.9529415965080261
1667266155614620000,1.880619873046875,7.943572998046875,1.0534402132034302,-1.0055837631225586
1667266155617017900,1.883017822265625,7.833503246307373,1.0510473251342773,-1.0462616682052612
1667266155619415600,1.88541552734375,7.756932735443115,1.098903775215149,-1.072582721710205
1667266155621813200,1.887813232421875,7.680362701416016,1.134796142578125,-1.0845468044281006
1667266155624211200,1.890211181640625,7.646862983703613,1.1778669357299805,-1.1060823202133179
1667266155626609000,1.89260888671875,7.603792190551758,1.2305090427398682,-1.1108678579330444
1667266155629006800,1.8950068359375,7.579864025115967,1.3286148309707642,-1.0869396924972534
1667266155631404500,1.897404541015625,7.538887023925781,1.40279221534729,-1.0630114078521729
1667266155633802200,1.89980224609375,7.519744396209717,1.4605190753936768,-1.0558329820632935
1667266155636200200,1.9022001953125,7.502994537353516,1.5155540704727173,-1.0654042959213257
1667266155638598000,1.904597900390625,7.481459140777588,1.596909999847412,-1.043868899345398
1667266155640995600,1.90699560546875,7.479066371917725,1.651944875717163,-1.012762188911438
1667266155643393500,1.9093935546875,7.4479594230651855,1.714158296585083,-0.9744769930839539
1667266155645791200,1.911791259765625,7.428816795349121,1.7596219778060913,-0.9170492887496948
1667266155648189200,1.914189208984375,7.402495861053467,1.8098711967468262,-0.8476574420928955
1667266155650587000,1.9165869140625,7.383353233337402,1.8385851383209229,-0.7707880139350891
1667266155652984600,1.918984619140625,7.368996620178223,1.8888343572616577,-0.6702894568443298
1667266155655382500,1.921382568359375,7.39053201675415,1.9462621212005615,-0.5626124143600464
1667266155657780200,1.9237802734375,7.385746002197266,1.994417667388916,-0.48843491077423096
1667266155660178000,1.926177978515625,7.395317554473877,2.0542383193969727,-0.3735794425010681
1667266155662575900,1.928575927734375,7.414460182189941,2.11405873298645,-0.2922234535217285
1667266155664973600,1.9309736328125,7.4240312576293945,2.1858434677124023,-0.22013968229293823
1667266155667371500,1.93337158203125,7.435995578765869,2.2648067474365234,-0.16510476171970367
1667266155669769200,1.935769287109375,7.438388347625732,2.3365912437438965,-0.08853443711996078
1667266155672167200,1.938167236328125,7.428816795349121,2.434697151184082,0.004785645287483931
1667266155674564900,1.94056494140625,7.431210041046143,2.506481647491455,0.09810572862625122
1667266155676962600,1.942962646484375,7.4479594230651855,2.5474588871002197,0.20099709928035736
1667266155679360500,1.945360595703125,7.443173885345459,2.614457845687866,0.2946162819862366
1667266155681758200,1.94775830078125,7.426424026489258,2.683849811553955,0.41186460852622986
1667266155684156000,1.950156005859375,7.445566654205322,2.7340989112854004,0.5338985323905945
1667266155686553900,1.952553955078125,7.457530975341797,2.825026273727417,0.6487540602684021
1667266155688951600,1.95495166015625,7.483851909637451,2.911167860031128,0.7779664397239685
1667266155691349500,1.957349609375,7.5412797927856445,3.004487991333008,0.9050851464271545
1667266155693747200,1.959747314453125,7.584649562835693,3.085843801498413,1.0342975854873657
1667266155696145000,1.962144775390625,7.675576686859131,3.16749906539917,1.134796142578125
1667266155698542800,1.96454296875,7.778468132019043,3.253640651702881,1.2233306169509888
1667266155700940500,1.9669404296875,7.895716667175293,3.3302109241485596,1.292722463607788
1667266155703338200,1.969338134765625,8.00100040435791,3.4091739654541016,1.3142578601837158
1667266155705736200,1.971736083984375,8.108677864074707,3.5168511867523193,1.350150227546692
1667266155708134000,1.9741337890625,8.223832130432129,3.5958142280578613,1.378864049911499
1667266155710531800,1.97653173828125,8.341080665588379,3.6487553119659424,1.40279221534729
1667266155712929500,1.978929443359375,8.470293045043945,3.722932815551758,1.4294124841690063
1667266155715327500,1.981327392578125,8.592327117919922,3.7923247814178467,1.4844473600387573
1667266155717725200,1.98372509765625,8.717052459716797,3.8688950538635254,1.505982756614685
1667266155720123000,1.986122802734375,8.81515884399414,3.935894250869751,1.5418751239776611
1667266155722520800,1.988520751953125,8.918049812316895,3.969393730163574,1.5777673721313477
1667266155724918500,1.99091845703125,8.997013092041016,4.00528621673584,1.6208382844924927
1667266155727316200,1.993316162109375,9.073583602905273,4.029214382171631,1.6710875034332275
1667266155729714200,1.995714111328125,9.159725189208984,4.045963764190674,1.7309080362319946
1667266155732112000,1.99811181640625,9.219545364379883,4.031607151031494,1.7715860605239868
1667266155734509800,2.000509765625,9.267701148986816,4.01246452331543,1.7979071140289307
1667266155736907500,2.002907470703125,9.289237022399902,3.967000722885132,1.8026927709579468
1667266155739305200,2.00530517578125,9.27727222442627,3.9263229370117188,1.7859430313110352
1667266155741703200,2.007703125,9.257830619812012,3.895216226577759,1.7261223793029785
1667266155744100900,2.010100830078125,9.231510162353516,3.8449668884277344,1.6399807929992676
1667266155746498600,2.01249853515625,9.18843936920166,3.804288864135742,1.5227324962615967
1667266155748896500,2.014896484375,9.126225471496582,3.739682674407959,1.4003994464874268
1667266155751294200,2.017294189453125,9.087940216064453,3.675076484680176,1.2687941789627075
1667266155753692200,2.019692138671875,9.047262191772461,3.607778310775757,1.103689432144165
1667266155756089900,2.02208984375,8.989834785461426,3.524029493331909,0.9864411354064941
1667266155758487600,2.024487548828125,8.980263710021973,3.466601848602295,0.8739784955978394
1667266155760885500,2.026885498046875,8.9850492477417,3.4019956588745117,0.7612167000770569
1667266155763283200,2.029283203125,8.975478172302246,3.3278181552886963,0.6607181429862976
1667266155765681000,2.031680908203125,8.975478172302246,3.2679975032806396,0.5889334678649902
1667266155768078800,2.034078857421875,8.965906143188477,3.200998544692993,0.5458626747131348
1667266155770476500,2.0364765625,8.94676399230957,3.1411778926849365,0.5171487927436829
1667266155772874500,2.03887451171875,8.95394229888916,3.1028928756713867,0.4668995141983032
1667266155775272200,2.041272216796875,8.941978454589844,3.0499515533447266,0.45254257321357727
1667266155777670100,2.043670166015625,8.910871505737305,3.0092735290527344,0.43100717663764954
1667266155780067800,2.04606787109375,8.874979019165039,2.9542386531829834,0.39990049600601196
1667266155782465500,2.048465576171875,8.834300994873047,2.92073917388916,0.3735794425010681
1667266155784863500,2.050863525390625,8.819944381713867,2.8896324634552,0.37118661403656006
1667266155787261200,2.05326123046875,8.81515884399414,2.887239694595337,0.3496512174606323
1667266155789659000,2.055658935546875,8.793622970581055,2.8680970668792725,0.3448655605316162
1667266155792056800,2.058056884765625,8.791230201721191,2.863311290740967,0.3281157910823822
1667266155794454500,2.06045458984375,8.798408508300781,2.896811008453369,0.3089732229709625
1667266155796852500,2.0628525390625,8.798408508300781,2.9231319427490234,0.30179476737976074
1667266155799250200,2.065250244140625,8.798408508300781,2.9566314220428467,0.2826521694660187
1667266155801647900,2.06764794921875,8.82233715057373,2.9805595874786377,0.2826521694660187
1667266155804045800,2.0700458984375,8.812766075134277,3.0188448429107666,0.29700911045074463
1667266155806443500,2.072443603515625,8.82951545715332,3.061915636062622,0.3233301639556885
1667266155808841200,2.07484130859375,8.86062240600586,3.090928554534912,0.37836506962776184
1667266155811239200,2.0772392578125,8.879764556884766,3.1483564376831055,0.44297128915786743
1667266155813636900,2.079636962890625,8.906085968017578,3.1866414546966553,0.5147559642791748
1667266155816034800,2.082034912109375,8.913264274597168,3.2057840824127197,0.5721837282180786
1667266155818432500,2.0844326171875,8.913264274597168,3.208176851272583,0.6200401782989502
1667266155820830200,2.086830322265625,8.894122123718262,3.19860577583313,0.6655037999153137
1667266155823228200,2.089228271484375,8.877371788024902,3.193819999694824,0.701396107673645
1667266155825625900,2.0916259765625,8.855836868286133,3.1651060581207275,0.7253243923187256
1667266155828023800,2.09402392578125,8.82951545715332,3.1411778926849365,0.7444669604301453
1667266155830421500,2.09642138671875,8.827122688293457,3.1387851238250732,0.7612167000770569
1667266155832819200,2.098819091796875,8.848658561706543,3.119642496109009,0.7540382146835327
1667266155835217200,2.101217041015625,8.865407943725586,3.1100711822509766,0.768395185470581
1667266155837614800,2.10361474609375,8.886942863464355,3.11246395111084,0.7588238716125488
1667266155840012800,2.1060126953125,8.906085968017578,3.10528564453125,0.7564310431480408
1667266155842410500,2.108410400390625,8.949156761169434,3.0738797187805176,0.7396813035011292
