time,seconds_elapsed,z,y,x
1667267063648041000,0.090041015625,0.025655584409832954,0.02504473738372326,0.01038440316915512
1667267063650438700,0.092438720703125,0.022601349279284477,0.02076880633831024,0.005497625097632408
1667267063652836600,0.094836669921875,0.020157959312200546,0.01954711228609085,-0.0006108472589403391
1667267063655234300,0.097234375,0.01832541823387146,0.01832541823387146,-0.004886778071522713
1667267063657632000,0.099632080078125,0.017714571207761765,0.016492875292897224,-0.007330167107284069
1667267063660029700,0.10202978515625,0.01588202826678753,0.015271181240677834,-0.012216945178806782
1667267063662427400,0.104427490234375,0.014049487188458443,0.013438640162348747,-0.01710372418165207
1667267063664825300,0.106825439453125,0.013438640162348747,0.013438640162348747,-0.01954711228609085
1667267063667223000,0.10922314453125,0.012216945178806782,0.011606098152697086,-0.02076880633831024
1667267063669620700,0.111620849609375,0.014049487188458443,0.011606098152697086,-0.021990500390529633
1667267063672018400,0.114018310546875,0.013438640162348747,0.012827792204916477,-0.02626643143594265
1667267063674416000,0.116416015625,0.010995250195264816,0.011606098152697086,-0.026877280324697495
1667267063676814000,0.11881396484375,0.01038440316915512,0.01038440316915512,-0.028098974376916885
1667267063679211800,0.121211669921875,0.008551862090826035,0.00916270911693573,-0.026877280324697495
1667267063681609500,0.123609375,0.008551862090826035,0.012216945178806782,-0.026877280324697495
1667267063684007200,0.126007080078125,0.007941014133393764,0.014049487188458443,-0.025655584409832954
1667267063686404900,0.12840478515625,0.004275931045413017,0.013438640162348747,-0.025655584409832954
1667267063688802800,0.130802734375,0.005497625097632408,0.01038440316915512,-0.025655584409832954
1667267063691200500,0.133200439453125,0.005497625097632408,0.006108472589403391,-0.024433890357613564
1667267063693598200,0.13559814453125,0.006719320081174374,0.0006108472589403391,-0.020157959312200546
1667267063695996000,0.137995849609375,0.009773556143045425,0,-0.017714571207761765
1667267063698393600,0.1403935546875,0.009773556143045425,-0.0024433890357613564,-0.01038440316915512
1667267063700791600,0.14279150390625,0.009773556143045425,-0.005497625097632408,-0.007941014133393764
1667267063703189200,0.145189208984375,0.012216945178806782,-0.004275931045413017,-0.0036650835536420345
1667267063705587000,0.1475869140625,0.013438640162348747,-0.005497625097632408,0.0018325417768210173
1667267063707984600,0.149984619140625,0.013438640162348747,-0.005497625097632408,0.006108472589403391
1667267063710382600,0.152382568359375,0.010995250195264816,-0.0030542362947016954,0.011606098152697086
1667267063712780300,0.1547802734375,0.012216945178806782,0.0012216945178806782,0.012216945178806782
1667267063715178000,0.157177978515625,0.011606098152697086,0.004275931045413017,0.01588202826678753
1667267063717575700,0.15957568359375,0.011606098152697086,0.0036650835536420345,0.018936265259981155
1667267063719973400,0.161973388671875,0.014049487188458443,0.007941014133393764,0.01832541823387146
1667267063722371000,0.16437109375,0.014049487188458443,0.007330167107284069,0.01832541823387146
1667267063724769000,0.16676904296875,0.016492875292897224,0.006719320081174374,0.017714571207761765
1667267063727166700,0.169166748046875,0.015271181240677834,0.005497625097632408,0.017714571207761765
1667267063729564400,0.171564453125,0.015271181240677834,0.0024433890357613564,0.014049487188458443
1667267063731962000,0.173962158203125,0.016492875292897224,-0.004275931045413017,0.012827792204916477
1667267063734359800,0.17635986328125,0.017714571207761765,-0.013438640162348747,0.011606098152697086
1667267063736757800,0.1787578125,0.020157959312200546,-0.021990500390529633,0.008551862090826035
1667267063739155500,0.181155517578125,0.02076880633831024,-0.031153209507465363,0.005497625097632408
1667267063741553200,0.18355322265625,0.02076880633831024,-0.04092676565051079,0.0030542362947016954
1667267063743950800,0.185950927734375,0.021379653364419937,-0.05008947476744652,-0.0018325417768210173
1667267063746348500,0.1883486328125,0.02076880633831024,-0.05803048983216286,-0.005497625097632408
1667267063748746500,0.19074658203125,0.023823043331503868,-0.06047387793660164,-0.009773556143045425
1667267063751144200,0.193144287109375,0.022601349279284477,-0.05986303091049194,-0.014660334214568138
1667267063753542000,0.1955419921875,0.022601349279284477,-0.05986303091049194,-0.01710372418165207
1667267063755939600,0.197939697265625,0.020157959312200546,-0.056808795779943466,-0.023823043331503868
1667267063758337500,0.200337646484375,0.01954711228609085,-0.053143709897994995,-0.02748812735080719
1667267063760735200,0.2027353515625,0.015271181240677834,-0.04337015375494957,-0.03237490355968475
1667267063763133000,0.2051328125,0.011606098152697086,-0.03787253051996231,-0.036039989441633224
1667267063765530600,0.207530517578125,0.01038440316915512,-0.031153209507465363,-0.03787253051996231
1667267063767928300,0.20992822265625,0.005497625097632408,-0.02076880633831024,-0.038483377546072006
1667267063770326000,0.212325927734375,0.0018325417768210173,-0.01038440316915512,-0.0390942245721817
1667267063772724000,0.214723876953125,-0.0036650835536420345,0,-0.04153761267662048
1667267063775121700,0.21712158203125,-0.0036650835536420345,0.010995250195264816,-0.038483377546072006
1667267063777519400,0.219519287109375,-0.004275931045413017,0.01954711228609085,-0.03542914241552353
1667267063779917000,0.2219169921875,-0.007941014133393764,0.022601349279284477,-0.033596597611904144
1667267063782314800,0.224314697265625,-0.007330167107284069,0.031153209507465363,-0.031153209507465363
1667267063784712700,0.226712646484375,-0.007941014133393764,0.034818295389413834,-0.025655584409832954
1667267063787110400,0.2291103515625,-0.009773556143045425,0.038483377546072006,-0.020157959312200546
1667267063789508000,0.231508056640625,-0.010995250195264816,0.03787253051996231,-0.016492875292897224
1667267063791905800,0.23390576171875,-0.012827792204916477,0.038483377546072006,-0.011606098152697086
1667267063794303500,0.236303466796875,-0.014049487188458443,0.03665083646774292,-0.005497625097632408
1667267063796701400,0.238701416015625,-0.014660334214568138,0.033596597611904144,-0.0024433890357613564
1667267063799099100,0.24109912109375,-0.018936265259981155,0.03298575058579445,0.0006108472589403391
1667267063801496800,0.243496826171875,-0.021379653364419937,0.03176405653357506,0.0030542362947016954
1667267063803894500,0.24589453125,-0.023212196305394173,0.028098974376916885,0.007941014133393764
1667267063806292500,0.24829248046875,-0.026877280324697495,0.02626643143594265,0.009773556143045425
1667267063808690200,0.250690185546875,-0.02870982140302658,0.02076880633831024,0.009773556143045425
1667267063811088000,0.253087890625,-0.02993151545524597,0.015271181240677834,0.00916270911693573
1667267063813485600,0.255485595703125,-0.030542362481355667,0.007941014133393764,0.007941014133393764
1667267063815883300,0.25788330078125,-0.028098974376916885,-0.0030542362947016954,0.006108472589403391
1667267063818281000,0.260281005859375,-0.025655584409832954,-0.013438640162348747,0.006719320081174374
1667267063820679000,0.262678955078125,-0.022601349279284477,-0.021990500390529633,0.007330167107284069
1667267063823076600,0.26507666015625,-0.021990500390529633,-0.03542914241552353,0.006108472589403391
1667267063825474300,0.267474365234375,-0.01954711228609085,-0.042759306728839874,0.004886778071522713
1667267063827872000,0.2698720703125,-0.01954711228609085,-0.05070032179355621,0.006719320081174374
1667267063830269700,0.272269775390625,-0.01832541823387146,-0.05619794875383377,0.010995250195264816
1667267063832667600,0.274667724609375,-0.021379653364419937,-0.06413896381855011,0.012827792204916477
1667267063835065300,0.2770654296875,-0.023823043331503868,-0.07085828483104706,0.017714571207761765
1667267063837463000,0.279463134765625,-0.02748812735080719,-0.07452336698770523,0.021990500390529633
1667267063839860700,0.28186083984375,-0.028098974376916885,-0.0787992998957634,0.02626643143594265
1667267063842258400,0.284258544921875,-0.030542362481355667,-0.08429691940546036,0.031153209507465363
1667267063844656400,0.286656494140625,-0.03176405653357506,-0.08612946420907974,0.03420744836330414
1667267063847054000,0.28905419921875,-0.03237490355968475,-0.08735115826129913,0.038483377546072006
1667267063849451800,0.29145166015625,-0.033596597611904144,-0.08612946420907974,0.04153761267662048
1667267063851849500,0.293849365234375,-0.03237490355968475,-0.08368607610464096,0.04337015375494957
1667267063854247200,0.2962470703125,-0.02993151545524597,-0.08124268800020218,0.042759306728839874
1667267063856645000,0.29864501953125,-0.028098974376916885,-0.08002099394798279,0.04214845970273018
1667267063859042800,0.301042724609375,-0.023823043331503868,-0.07574506103992462,0.04092676565051079
1667267063861440500,0.3034404296875,-0.021379653364419937,-0.07207997888326645,0.037261683493852615
1667267063863838200,0.305838134765625,-0.01832541823387146,-0.06780404597520828,0.034818295389413834
1667267063866236000,0.30823583984375,-0.01588202826678753,-0.0653606578707695,0.028098974376916885
1667267063868633900,0.3106337890625,-0.012827792204916477,-0.05925218388438225,0.021990500390529633
1667267063871031600,0.313031494140625,-0.011606098152697086,-0.054365407675504684,0.015271181240677834
1667267063873429200,0.31542919921875,-0.010995250195264816,-0.047646086663007736,0.008551862090826035
1667267063875827000,0.317826904296875,-0.01038440316915512,-0.04092676565051079,-0.0018325417768210173
1667267063878224600,0.320224609375,-0.011606098152697086,-0.03420744836330414,-0.01038440316915512
1667267063880622600,0.32262255859375,-0.010995250195264816,-0.026877280324697495,-0.01954711228609085
1667267063883020300,0.325020263671875,-0.011606098152697086,-0.018936265259981155,-0.028098974376916885
1667267063885418000,0.32741796875,-0.014049487188458443,-0.013438640162348747,-0.036039989441633224
1667267063887815700,0.329815673828125,-0.015271181240677834,-0.007330167107284069,-0.045202698558568954
1667267063890213400,0.33221337890625,-0.015271181240677834,-0.0012216945178806782,-0.05131116881966591
1667267063892611300,0.334611328125,-0.016492875292897224,0.004886778071522713,-0.056808795779943466
1667267063895009000,0.337009033203125,-0.021990500390529633,0.00916270911693573,-0.06291726976633072
1667267063897406700,0.33940673828125,-0.021379653364419937,0.015271181240677834,-0.0653606578707695
1667267063899804400,0.341804443359375,-0.025655584409832954,0.018936265259981155,-0.07085828483104706
1667267063902202000,0.3442021484375,-0.02993151545524597,0.018936265259981155,-0.07207997888326645
1667267063904600000,0.34660009765625,-0.03176405653357506,0.01588202826678753,-0.07269082218408585
1667267063906997800,0.348997802734375,-0.03237490355968475,0.011606098152697086,-0.07024743407964706
1667267063909395500,0.3513955078125,-0.03420744836330414,0.004886778071522713,-0.06902574002742767
1667267063911793200,0.353793212890625,-0.033596597611904144,-0.006719320081174374,-0.0647498071193695
1667267063914190800,0.35619091796875,-0.037261683493852615,-0.017714571207761765,-0.06047387793660164
1667267063916588500,0.358588623046875,-0.0397050715982914,-0.033596597611904144,-0.05619794875383377
1667267063918986500,0.360986572265625,-0.04092676565051079,-0.04581354558467865,-0.05131116881966591
1667267063921384200,0.36338427734375,-0.04459185153245926,-0.061084724962711334,-0.04703523963689804
1667267063923782000,0.365781982421875,-0.04886778071522713,-0.07513421028852463,-0.04459185153245926
1667267063926179600,0.3681796875,-0.04825693368911743,-0.08735115826129913,-0.04153761267662048
1667267063928577500,0.37057763671875,-0.05008947476744652,-0.10017894953489304,-0.04092676565051079
1667267063930975200,0.372975341796875,-0.04947862774133682,-0.10811996459960938,-0.0397050715982914
1667267063933373000,0.375373046875,-0.04947862774133682,-0.11667182296514511,-0.04153761267662048
1667267063935770600,0.3777705078125,-0.046424392610788345,-0.12705622613430023,-0.04459185153245926
1667267063938168300,0.380168212890625,-0.04459185153245926,-0.13621893525123596,-0.05008947476744652
1667267063940566300,0.382566162109375,-0.04337015375494957,-0.15210096538066864,-0.05375456064939499
1667267063942964000,0.3849638671875,-0.04153761267662048,-0.16737215220928192,-0.06352811306715012
1667267063945361700,0.387361572265625,-0.0397050715982914,-0.18569757044315338,-0.07513421028852463
1667267063947759400,0.38975927734375,-0.037261683493852615,-0.20524467527866364,-0.08735115826129913
1667267063950157000,0.392156982421875,-0.033596597611904144,-0.2229592502117157,-0.10140064358711243
1667267063952554800,0.3945546875,-0.030542362481355667,-0.2363978922367096,-0.11483928561210632
1667267063954952700,0.39695263671875,-0.02626643143594265,-0.24311721324920654,-0.12888877093791962
1667267063957350400,0.399350341796875,-0.01954711228609085,-0.25472331047058105,-0.13866232335567474
1667267063959748000,0.401748046875,-0.014049487188458443,-0.25594499707221985,-0.14721418917179108
1667267063962145800,0.404145751953125,-0.009773556143045425,-0.25533416867256165,-0.1557660549879074
1667267063964543500,0.40654345703125,-0.006108472589403391,-0.25533416867256165,-0.16065283119678497
1667267063966941400,0.40894140625,-0.004275931045413017,-0.2516690790653229,-0.16553960740566254
1667267063969339100,0.411339111328125,-0.0030542362947016954,-0.24311721324920654,-0.16676130890846252
1667267063971736800,0.41373681640625,-0.0036650835536420345,-0.23090025782585144,-0.16553960740566254
1667267063974134500,0.416134521484375,-0.004275931045413017,-0.21929416060447693,-0.16126367449760437
1667267063976532500,0.418532470703125,-0.006108472589403391,-0.20219044387340546,-0.1575985997915268
1667267063978930200,0.42093017578125,-0.007941014133393764,-0.18630841374397278,-0.15026842057704926
1667267063981328000,0.423327880859375,-0.00916270911693573,-0.1716480851173401,-0.13988402485847473
1667267063983725600,0.4257255859375,-0.01038440316915512,-0.1569877415895462,-0.12888877093791962
1667267063986123300,0.428123291015625,-0.008551862090826035,-0.1441599577665329,-0.11483928561210632
1667267063988521000,0.43052099609375,-0.00916270911693573,-0.1319430023431778,-0.10323318839073181
1667267063990919000,0.4329189453125,-0.006719320081174374,-0.12094775587320328,-0.08979454636573792
1667267063993316600,0.435316650390625,-0.005497625097632408,-0.10934165865182877,-0.07391251623630524
1667267063995714300,0.43771435546875,-0.0036650835536420345,-0.09834641218185425,-0.0647498071193695
1667267063998112000,0.440112060546875,-0.0024433890357613564,-0.0910162404179573,-0.05375456064939499
1667267064000509700,0.442509765625,-0.0012216945178806782,-0.08246438205242157,-0.042759306728839874
1667267064002907600,0.44490771484375,0.0018325417768210173,-0.07574506103992462,-0.033596597611904144
1667267064005305300,0.447305419921875,0.0030542362947016954,-0.07024743407964706,-0.02504473738372326
1667267064007703000,0.449703125,0.004886778071522713,-0.06291726976633072,-0.020157959312200546
1667267064010100700,0.452100830078125,0.005497625097632408,-0.05619794875383377,-0.01588202826678753
1667267064012498400,0.45449853515625,0.007330167107284069,-0.04886778071522713,-0.010995250195264816
1667267064014896400,0.456896484375,0.007941014133393764,-0.045202698558568954,-0.009773556143045425
1667267064017294000,0.459294189453125,0.011606098152697086,-0.04153761267662048,-0.011606098152697086
1667267064019691800,0.46169189453125,0.014049487188458443,-0.0390942245721817,-0.014049487188458443
1667267064022089500,0.46408935546875,0.016492875292897224,-0.037261683493852615,-0.01710372418165207
1667267064024487200,0.466487060546875,0.016492875292897224,-0.036039989441633224,-0.022601349279284477
1667267064026885000,0.468885009765625,0.01588202826678753,-0.028098974376916885,-0.030542362481355667
1667267064029282800,0.47128271484375,0.016492875292897224,-0.021990500390529633,-0.03787253051996231
1667267064031680500,0.473680419921875,0.017714571207761765,-0.012216945178806782,-0.045202698558568954
1667267064034078200,0.476078125,0.016492875292897224,-0.0024433890357613564,-0.0525328628718853
1667267064036476000,0.478475830078125,0.013438640162348747,0.007941014133393764,-0.06169557198882103
1667267064038873900,0.480873779296875,0.010995250195264816,0.016492875292897224,-0.06963659077882767
1667267064041271600,0.483271484375,0.00916270911693573,0.02870982140302658,-0.0787992998957634
1667267064043669200,0.485669189453125,0.005497625097632408,0.0390942245721817,-0.08735115826129913
1667267064046067000,0.48806689453125,0.006108472589403391,0.04703523963689804,-0.09712471067905426
1667267064048464600,0.490464599609375,0.0006108472589403391,0.05497625470161438,-0.10628741979598999
1667267064050862600,0.492862548828125,0,0.062306419014930725,-0.11361759155988693
1667267064053260300,0.49526025390625,-0.0018325417768210173,0.06780404597520828,-0.1178935244679451
1667267064055658000,0.497657958984375,-0.0018325417768210173,0.06780404597520828,-0.12583453953266144
1667267064058055700,0.5000556640625,-0.0024433890357613564,0.06719319522380829,-0.12705622613430023
1667267064060453600,0.50245361328125,-0.0006108472589403391,0.061084724962711334,-0.12766708433628082
1667267064062851300,0.504851318359375,0.0018325417768210173,0.05497625470161438,-0.12644538283348083
1667267064065249000,0.5072490234375,0.0036650835536420345,0.05008947476744652,-0.12522368133068085
1667267064067646700,0.509646728515625,0.005497625097632408,0.04581354558467865,-0.12033691257238388
1667267064070044400,0.51204443359375,0.008551862090826035,0.04092676565051079,-0.11483928561210632
1667267064072442000,0.514442138671875,0.011606098152697086,0.0390942245721817,-0.10811996459960938
1667267064074840000,0.516840087890625,0.015271181240677834,0.034818295389413834,-0.10078980028629303
1667267064077237800,0.51923779296875,0.01832541823387146,0.03237490355968475,-0.09529217332601547
1667267064079635500,0.521635498046875,0.02076880633831024,0.02993151545524597,-0.08551861345767975
1667267064082033200,0.524033203125,0.02076880633831024,0.02993151545524597,-0.07757759839296341
1667267064084430800,0.526430908203125,0.023823043331503868,0.02870982140302658,-0.06841489672660828
1667267064086828800,0.528828857421875,0.02626643143594265,0.029320668429136276,-0.061084724962711334
1667267064089226500,0.5312265625,0.025655584409832954,0.028098974376916885,-0.04947862774133682
1667267064091624200,0.533624267578125,0.02626643143594265,0.028098974376916885,-0.04337015375494957
1667267064094022000,0.53602197265625,0.025655584409832954,0.025655584409832954,-0.04031591862440109
1667267064096419600,0.538419677734375,0.02626643143594265,0.025655584409832954,-0.03665083646774292
1667267064098817500,0.540817626953125,0.026877280324697495,0.028098974376916885,-0.03542914241552353
1667267064101215200,0.54321533203125,0.029320668429136276,0.03176405653357506,-0.03176405653357506
1667267064103613000,0.545613037109375,0.031153209507465363,0.03787253051996231,-0.03237490355968475
1667267064106010600,0.5480107421875,0.03176405653357506,0.04153761267662048,-0.03665083646774292
1667267064108408300,0.550408203125,0.029320668429136276,0.04947862774133682,-0.0390942245721817
1667267064110806300,0.55280615234375,0.02626643143594265,0.05497625470161438,-0.04153761267662048
1667267064113204000,0.555203857421875,0.024433890357613564,0.06047387793660164,-0.043981000781059265
1667267064115601700,0.5576015625,0.020157959312200546,0.06841489672660828,-0.047646086663007736
1667267064117999400,0.559999267578125,0.01710372418165207,0.0787992998957634,-0.0525328628718853
1667267064120397000,0.56239697265625,0.014049487188458443,0.08918370306491852,-0.05864133685827255
1667267064122794800,0.564794677734375,0.011606098152697086,0.10017894953489304,-0.06352811306715012
1667267064125192700,0.567192626953125,0.010995250195264816,0.11422843486070633,-0.0659715011715889
1667267064127590400,0.56959033203125,0.008551862090826035,0.130721315741539,-0.07024743407964706
1667267064129988000,0.571988037109375,0.006108472589403391,0.13988402485847473,-0.07452336698770523
1667267064132385800,0.5743857421875,0.0024433890357613564,0.1459924876689911,-0.0787992998957634
1667267064134783500,0.576783447265625,-0.0012216945178806782,0.14721418917179108,-0.08368607610464096
1667267064137181400,0.579181396484375,-0.004275931045413017,0.1447708010673523,-0.0916270911693573
1667267064139579100,0.5815791015625,-0.006108472589403391,0.1423274129629135,-0.09651386737823486
1667267064141976800,0.583976806640625,-0.0030542362947016954,0.13377554714679718,-0.10140064358711243
1667267064144374500,0.58637451171875,-0.0024433890357613564,0.12461283802986145,-0.10628741979598999
1667267064146772500,0.5887724609375,-0.0012216945178806782,0.11606097966432571,-0.11117420345544815
1667267064149170200,0.591170166015625,0.0018325417768210173,0.11117420345544815,-0.11545012891292572
1667267064151568000,0.59356787109375,0.0024433890357613564,0.10262233763933182,-0.11911521852016449
1667267064153965600,0.595965576171875,0.0036650835536420345,0.09468132257461548,-0.12278030067682266
1667267064156363300,0.59836328125,0.0036650835536420345,0.08429691940546036,-0.12583453953266144
1667267064158761200,0.60076123046875,0.006108472589403391,0.0787992998957634,-0.12766708433628082
1667267064161159000,0.603158935546875,0.006719320081174374,0.07452336698770523,-0.130721315741539
1667267064163556600,0.605556640625,0.006719320081174374,0.07452336698770523,-0.1325538605451584
1667267064165954300,0.607954345703125,0.007330167107284069,0.07391251623630524,-0.13316470384597778
1667267064168352000,0.61035205078125,0.005497625097632408,0.07513421028852463,-0.13316470384597778
1667267064170749700,0.612749755859375,0.009773556143045425,0.0787992998957634,-0.12888877093791962
1667267064173147600,0.615147705078125,0.008551862090826035,0.0794101431965828,-0.12583453953266144
1667267064175545300,0.61754541015625,0.00916270911693573,0.08185353130102158,-0.12339114397764206
1667267064177943000,0.619943115234375,0.007330167107284069,0.08063183724880219,-0.1172826737165451
1667267064180340700,0.6223408203125,0.005497625097632408,0.07757759839296341,-0.11545012891292572
1667267064182738400,0.624738525390625,0.0018325417768210173,0.0781884491443634,-0.11178504675626755
1667267064185136400,0.627136474609375,0.0006108472589403391,0.07696675509214401,-0.10811996459960938
1667267064187534000,0.6295341796875,-0.0018325417768210173,0.07635590434074402,-0.10262233763933182
1667267064189931800,0.631931884765625,-0.0018325417768210173,0.07574506103992462,-0.09834641218185425
1667267064192329500,0.63432958984375,-0.0030542362947016954,0.07696675509214401,-0.09284878522157669
1667267064194727400,0.6367275390625,-0.0006108472589403391,0.07757759839296341,-0.08796200156211853
1667267064197125000,0.639125,0.0012216945178806782,0.08002099394798279,-0.08002099394798279
1667267064199522800,0.641522705078125,0.0024433890357613564,0.08246438205242157,-0.07452336698770523
1667267064201920500,0.64392041015625,0.0024433890357613564,0.08612946420907974,-0.07024743407964706
1667267064204318200,0.646318115234375,0.005497625097632408,0.08979454636573792,-0.062306419014930725
1667267064206716000,0.6487158203125,0.006108472589403391,0.09651386737823486,-0.055587101727724075
1667267064209113900,0.65111376953125,0.006108472589403391,0.10384403169155121,-0.04825693368911743
1667267064211511600,0.653511474609375,0.006108472589403391,0.10873081535100937,-0.04337015375494957
1667267064213909200,0.6559091796875,0.005497625097632408,0.11545012891292572,-0.03665083646774292
1667267064216307000,0.658306884765625,0.005497625097632408,0.11972606182098389,-0.030542362481355667
1667267064218704600,0.66070458984375,0.007941014133393764,0.12400199472904205,-0.024433890357613564
1667267064221102600,0.6631025390625,0.008551862090826035,0.12461283802986145,-0.018936265259981155
1667267064223500300,0.665500244140625,0.009773556143045425,0.12155860662460327,-0.01038440316915512
1667267064225898000,0.66789794921875,0.00916270911693573,0.11972606182098389,-0.006108472589403391
1667267064228295700,0.670295654296875,0.01038440316915512,0.11361759155988693,-0.0006108472589403391
1667267064230693600,0.672693603515625,0.014049487188458443,0.10873081535100937,0.008551862090826035
1667267064233091300,0.67509130859375,0.014660334214568138,0.10628741979598999,0.014660334214568138
1667267064235489000,0.677489013671875,0.015271181240677834,0.10140064358711243,0.021379653364419937
1667267064237886700,0.67988671875,0.01588202826678753,0.10201149433851242,0.02626643143594265
1667267064240284400,0.682284423828125,0.015271181240677834,0.1050657257437706,0.03176405653357506
1667267064242682000,0.68468212890625,0.01588202826678753,0.10689827054738998,0.03542914241552353
1667267064245080000,0.687080078125,0.015271181240677834,0.10689827054738998,0.04031591862440109
1667267064247477800,0.689477783203125,0.01710372418165207,0.10873081535100937,0.042759306728839874
1667267064249875500,0.69187548828125,0.01588202826678753,0.10873081535100937,0.045202698558568954
1667267064252273200,0.694273193359375,0.014049487188458443,0.11117420345544815,0.04337015375494957
1667267064254670800,0.6966708984375,0.014049487188458443,0.11545012891292572,0.042759306728839874
1667267064257068800,0.69906884765625,0.014660334214568138,0.12339114397764206,0.04214845970273018
1667267064259466500,0.701466552734375,0.01588202826678753,0.130721315741539,0.04153761267662048
1667267064261864200,0.7038642578125,0.016492875292897224,0.13560809195041656,0.03787253051996231
1667267064264262000,0.706261962890625,0.01710372418165207,0.1441599577665329,0.034818295389413834
1667267064266659600,0.70865966796875,0.01832541823387146,0.15210096538066864,0.03237490355968475
1667267064269057500,0.7110576171875,0.020157959312200546,0.16004198789596558,0.026877280324697495
1667267064271455200,0.713455322265625,0.022601349279284477,0.1692046970129013,0.021990500390529633
1667267064273853000,0.71585302734375,0.025655584409832954,0.17409147322177887,0.02076880633831024
1667267064276250600,0.718250732421875,0.02626643143594265,0.18142163753509521,0.01710372418165207
1667267064278648300,0.7206484375,0.028098974376916885,0.18753011524677277,0.013438640162348747
1667267064281046300,0.72304638671875,0.02993151545524597,0.1973036676645279,0.00916270911693573
1667267064283444000,0.72544384765625,0.03176405653357506,0.20585553348064423,0.007330167107284069
1667267064285841700,0.727841552734375,0.03420744836330414,0.21501824259757996,0.006108472589403391
1667267064288239400,0.7302392578125,0.036039989441633224,0.2241809368133545,0.005497625097632408
1667267064290637000,0.732636962890625,0.0390942245721817,0.23090025782585144,-0.0018325417768210173
1667267064293035000,0.735034912109375,0.045202698558568954,0.23823043704032898,-0.0012216945178806782
1667267064295432700,0.7374326171875,0.05008947476744652,0.24617144465446472,0
1667267064297830400,0.739830322265625,0.054365407675504684,0.2504473626613617,-0.0012216945178806782
1667267064300228000,0.74222802734375,0.061084724962711334,0.25533416867256165,0.0006108472589403391
1667267064302625800,0.744625732421875,0.06413896381855011,0.2608317732810974,0.004275931045413017
1667267064305023500,0.7470234375,0.06780404597520828,0.2620534598827362,0.005497625097632408
1667267064307421400,0.74942138671875,0.06963659077882767,0.2632751762866974,0.009773556143045425
1667267064309819100,0.751819091796875,0.07330167293548584,0.2644968628883362,0.01588202826678753
1667267064312216800,0.754216796875,0.0787992998957634,0.2608317732810974,0.023823043331503868
1667267064314614500,0.756614501953125,0.07696675509214401,0.25777754187583923,0.03176405653357506
1667267064317012500,0.759012451171875,0.07391251623630524,0.25472331047058105,0.0397050715982914
1667267064319410200,0.76141015625,0.07452336698770523,0.2480039894580841,0.04703523963689804
1667267064321808000,0.763807861328125,0.07207997888326645,0.23823043704032898,0.054365407675504684
1667267064324205600,0.76620556640625,0.07330167293548584,0.22662433981895447,0.06169557198882103
1667267064326603300,0.768603271484375,0.07513421028852463,0.21501824259757996,0.06780404597520828
1667267064329001200,0.771001220703125,0.07391251623630524,0.20096874237060547,0.07330167293548584
1667267064331399000,0.77339892578125,0.0794101431965828,0.18814095854759216,0.08002099394798279
1667267064333796600,0.775796630859375,0.08429691940546036,0.17653486132621765,0.08368607610464096
1667267064336194300,0.7781943359375,0.08490777015686035,0.16431790590286255,0.08735115826129913
1667267064338592000,0.780592041015625,0.08857285231351852,0.15149012207984924,0.08857285231351852
1667267064340990000,0.782989990234375,0.08918370306491852,0.14049486815929413,0.0910162404179573
1667267064343387600,0.7853876953125,0.0910162404179573,0.1325538605451584,0.0922379344701767
1667267064345785300,0.787785400390625,0.0910162404179573,0.12094775587320328,0.09468132257461548
1667267064348183000,0.79018310546875,0.08796200156211853,0.11361759155988693,0.09590301662683487
1667267064350580700,0.792580810546875,0.08612946420907974,0.10873081535100937,0.09468132257461548
1667267064352978400,0.794978515625,0.08063183724880219,0.10262233763933182,0.09529217332601547
1667267064355376400,0.79737646484375,0.0787992998957634,0.09956810623407364,0.09284878522157669
1667267064357774000,0.799774169921875,0.07391251623630524,0.09895725548267365,0.0922379344701767
1667267064360171800,0.802171875,0.06963659077882767,0.09834641218185425,0.08979454636573792
1667267064362569500,0.804569580078125,0.0659715011715889,0.10017894953489304,0.08551861345767975
1667267064364967400,0.806967529296875,0.06413896381855011,0.1050657257437706,0.08124268800020218
1667267064367365000,0.809365234375,0.06169557198882103,0.10689827054738998,0.07452336698770523
1667267064369762800,0.8117626953125,0.05803048983216286,0.11117420345544815,0.0659715011715889
1667267064372160500,0.814160400390625,0.05803048983216286,0.11422843486070633,0.054365407675504684
1667267064374558200,0.81655810546875,0.05803048983216286,0.11667182296514511,0.045202698558568954
1667267064376956200,0.8189560546875,0.05803048983216286,0.12033691257238388,0.036039989441633224
1667267064379353900,0.821353759765625,0.06047387793660164,0.12461283802986145,0.023212196305394173
1667267064381751600,0.82375146484375,0.061084724962711334,0.12400199472904205,0.012827792204916477
1667267064384149200,0.826149169921875,0.06352811306715012,0.12583453953266144,-0.0012216945178806782
1667267064386547000,0.828546875,0.0653606578707695,0.12461283802986145,-0.014660334214568138
1667267064388944600,0.830944580078125,0.06841489672660828,0.12400199472904205,-0.026877280324697495
1667267064391342600,0.833342529296875,0.06963659077882767,0.12216944992542267,-0.037261683493852615
1667267064393740300,0.835740234375,0.07269082218408585,0.11911521852016449,-0.05008947476744652
1667267064396138000,0.838137939453125,0.07513421028852463,0.11606097966432571,-0.05864133685827255
1667267064398535700,0.84053564453125,0.0794101431965828,0.11178504675626755,-0.06780404597520828
1667267064400933600,0.84293359375,0.08002099394798279,0.10934165865182877,-0.07696675509214401
1667267064403331300,0.845331298828125,0.08368607610464096,0.1056765764951706,-0.08185353130102158
1667267064405729000,0.84772900390625,0.08429691940546036,0.09834641218185425,-0.08490777015686035
1667267064408126700,0.850126708984375,0.08307522535324097,0.08918370306491852,-0.0916270911693573
1667267064410524400,0.8525244140625,0.08429691940546036,0.08307522535324097,-0.09590301662683487
1667267064412922400,0.85492236328125,0.08124268800020218,0.0787992998957634,-0.09956810623407364
1667267064415320000,0.857320068359375,0.07757759839296341,0.07452336698770523,-0.09956810623407364
1667267064417717800,0.8597177734375,0.07513421028852463,0.07513421028852463,-0.09773556143045425
1667267064420115500,0.862115478515625,0.07085828483104706,0.07696675509214401,-0.09468132257461548
1667267064422513200,0.86451318359375,0.07085828483104706,0.07696675509214401,-0.09040539711713791
1667267064424910800,0.866910888671875,0.06413896381855011,0.0794101431965828,-0.08429691940546036
1667267064427308800,0.869308837890625,0.062306419014930725,0.08185353130102158,-0.0781884491443634
1667267064429706500,0.87170654296875,0.06169557198882103,0.08063183724880219,-0.07085828483104706
1667267064432104200,0.874104248046875,0.056808795779943466,0.08368607610464096,-0.0647498071193695
1667267064434502000,0.876501953125,0.05741964280605316,0.08551861345767975,-0.05741964280605316
1667267064436899600,0.878899658203125,0.055587101727724075,0.08857285231351852,-0.05070032179355621
1667267064439297500,0.881297607421875,0.054365407675504684,0.0916270911693573,-0.045202698558568954
1667267064441695200,0.8836953125,0.055587101727724075,0.09468132257461548,-0.0397050715982914
1667267064444093000,0.886093017578125,0.05619794875383377,0.09834641218185425,-0.03420744836330414
1667267064446490600,0.88849072265625,0.055587101727724075,0.09956810623407364,-0.03298575058579445
1667267064448888600,0.890888671875,0.05619794875383377,0.10262233763933182,-0.02993151545524597
1667267064451286300,0.893286376953125,0.056808795779943466,0.1050657257437706,-0.03176405653357506
1667267064453684000,0.89568408203125,0.05619794875383377,0.1044548824429512,-0.03237490355968475
1667267064456081700,0.89808154296875,0.05619794875383377,0.10384403169155121,-0.03665083646774292
1667267064458479400,0.900479248046875,0.055587101727724075,0.10262233763933182,-0.04031591862440109
1667267064460877300,0.902877197265625,0.055587101727724075,0.10201149433851242,-0.04703523963689804
1667267064463275000,0.90527490234375,0.055587101727724075,0.10017894953489304,-0.054365407675504684
1667267064465672700,0.907672607421875,0.055587101727724075,0.09529217332601547,-0.05986303091049194
1667267064468070400,0.9100703125,0.056808795779943466,0.0922379344701767,-0.0659715011715889
1667267064470468000,0.912468017578125,0.055587101727724075,0.08857285231351852,-0.07269082218408585
1667267064472865800,0.91486572265625,0.056808795779943466,0.08490777015686035,-0.08002099394798279
1667267064475263700,0.917263671875,0.055587101727724075,0.08307522535324097,-0.08612946420907974
1667267064477661400,0.919661376953125,0.05497625470161438,0.08429691940546036,-0.0922379344701767
1667267064480059100,0.92205908203125,0.05375456064939499,0.08857285231351852,-0.09773556143045425
1667267064482456800,0.924456787109375,0.05008947476744652,0.08979454636573792,-0.10201149433851242
1667267064484854500,0.9268544921875,0.04703523963689804,0.09590301662683487,-0.10873081535100937
1667267064487252500,0.92925244140625,0.04703523963689804,0.09956810623407364,-0.11361759155988693
1667267064489650200,0.931650146484375,0.04459185153245926,0.10628741979598999,-0.11911521852016449
1667267064492048000,0.9340478515625,0.04337015375494957,0.11422843486070633,-0.12155860662460327
1667267064494445600,0.936445556640625,0.042759306728839874,0.12216944992542267,-0.12644538283348083
1667267064496843500,0.938843505859375,0.045202698558568954,0.1319430023431778,-0.1313321590423584
1667267064499241200,0.9412412109375,0.04459185153245926,0.14049486815929413,-0.13560809195041656
1667267064501639000,0.943638916015625,0.04581354558467865,0.14782503247261047,-0.13988402485847473
1667267064504036600,0.94603662109375,0.04825693368911743,0.15515519678592682,-0.13988402485847473
1667267064506434300,0.948434326171875,0.04886778071522713,0.16370706260204315,-0.1435490995645523
1667267064508832300,0.950832275390625,0.051922015845775604,0.1704263836145401,-0.1453816443681717
1667267064511230000,0.95322998046875,0.0525328628718853,0.17470231652259827,-0.14782503247261047
1667267064513627600,0.955627685546875,0.055587101727724075,0.18019993603229523,-0.14965757727622986
1667267064516025300,0.958025390625,0.055587101727724075,0.18081079423427582,-0.15210096538066864
1667267064518423000,0.960423095703125,0.05986303091049194,0.17958909273147583,-0.15026842057704926
1667267064520820700,0.96282080078125,0.06291726976633072,0.17286977171897888,-0.14843589067459106
1667267064523218700,0.96521875,0.0659715011715889,0.16737215220928192,-0.14660334587097168
1667267064525616400,0.967616455078125,0.06841489672660828,0.15943112969398499,-0.1435490995645523
1667267064528014000,0.97001416015625,0.07085828483104706,0.15271180868148804,-0.13744063675403595
1667267064530411800,0.972411865234375,0.07207997888326645,0.1459924876689911,-0.13377554714679718
1667267064532809500,0.9748095703125,0.07391251623630524,0.13866232335567474,-0.130721315741539
1667267064535207400,0.97720751953125,0.07452336698770523,0.1313321590423584,-0.12644538283348083
1667267064537605000,0.979605224609375,0.07635590434074402,0.12461283802986145,-0.12033691257238388
1667267064540002800,0.9820029296875,0.08002099394798279,0.1185043677687645,-0.11667182296514511
1667267064542400500,0.984400390625,0.08124268800020218,0.11545012891292572,-0.11117420345544815
1667267064544798500,0.986798583984375,0.08368607610464096,0.1178935244679451,-0.1050657257437706
1667267064547196200,0.989196044921875,0.08735115826129913,0.1172826737165451,-0.09834641218185425
1667267064549593900,0.99159375,0.08857285231351852,0.1172826737165451,-0.09407047927379608
1667267064551991600,0.993991455078125,0.09040539711713791,0.1185043677687645,-0.08735115826129913
1667267064554389200,0.99638916015625,0.0916270911693573,0.12033691257238388,-0.08307522535324097
1667267064556787200,0.998787109375,0.09284878522157669,0.12522368133068085,-0.0787992998957634
1667267064559185000,1.001184814453125,0.09407047927379608,0.12766708433628082,-0.07269082218408585
1667267064561582600,1.00358251953125,0.0922379344701767,0.130721315741539,-0.06841489672660828
1667267064563980300,1.005980224609375,0.09040539711713791,0.1325538605451584,-0.06413896381855011
1667267064566378000,1.0083779296875,0.08979454636573792,0.13316470384597778,-0.061084724962711334
1667267064568775700,1.010775634765625,0.08551861345767975,0.13316470384597778,-0.05864133685827255
1667267064571173600,1.013173583984375,0.08307522535324097,0.13377554714679718,-0.05803048983216286
1667267064573571300,1.0155712890625,0.08185353130102158,0.13560809195041656,-0.055587101727724075
1667267064575969000,1.017968994140625,0.0794101431965828,0.13621893525123596,-0.05741964280605316
1667267064578366700,1.02036669921875,0.07757759839296341,0.13316470384597778,-0.05864133685827255
1667267064580764700,1.0227646484375,0.07574506103992462,0.13316470384597778,-0.056808795779943466
1667267064583162400,1.025162353515625,0.07452336698770523,0.1313321590423584,-0.05864133685827255
1667267064585560000,1.02756005859375,0.06963659077882767,0.12888877093791962,-0.06169557198882103
1667267064587957800,1.029957763671875,0.06658235192298889,0.12705622613430023,-0.0647498071193695
1667267064590355500,1.03235546875,0.06413896381855011,0.12888877093791962,-0.06963659077882767
1667267064592753400,1.03475341796875,0.05925218388438225,0.1301104724407196,-0.07330167293548584
1667267064595151000,1.037151123046875,0.055587101727724075,0.13560809195041656,-0.0781884491443634
1667267064597548800,1.039548828125,0.05008947476744652,0.14171656966209412,-0.08674030750989914
1667267064599946500,1.041946533203125,0.04092676565051079,0.1453816443681717,-0.0910162404179573
1667267064602344200,1.04434423828125,0.03237490355968475,0.14843589067459106,-0.09834641218185425
1667267064604742000,1.046741943359375,0.025655584409832954,0.14721418917179108,-0.1044548824429512
1667267064607139800,1.049139892578125,0.01954711228609085,0.15026842057704926,-0.10750912129878998
1667267064609537500,1.05153759765625,0.011606098152697086,0.15393351018428802,-0.11300674080848694
1667267064611935200,1.053935302734375,0.004886778071522713,0.15393351018428802,-0.11911521852016449
1667267064614333000,1.0563330078125,0,0.15454435348510742,-0.12278030067682266
1667267064616730600,1.058730712890625,-0.006719320081174374,0.15943112969398499,-0.12827792763710022
1667267064619128600,1.061128662109375,-0.013438640162348747,0.16431790590286255,-0.13316470384597778
1667267064621526300,1.0635263671875,-0.01954711228609085,0.16370706260204315,-0.13927318155765533
1667267064623924000,1.065924072265625,-0.023823043331503868,0.16126367449760437,-0.1429382562637329
1667267064626321700,1.06832177734375,-0.029320668429136276,0.1588202863931656,-0.1435490995645523
1667267064628719600,1.0707197265625,-0.03298575058579445,0.1588202863931656,-0.1453816443681717
1667267064631117300,1.073117431640625,-0.034818295389413834,0.16126367449760437,-0.14904673397541046
1667267064633515000,1.075514892578125,-0.03787253051996231,0.16615045070648193,-0.15210096538066864
1667267064635912700,1.07791259765625,-0.04153761267662048,0.1716480851173401,-0.15271180868148804
1667267064638310400,1.080310302734375,-0.04337015375494957,0.17592400312423706,-0.1557660549879074
1667267064640708400,1.082708251953125,-0.04459185153245926,0.1832541823387146,-0.1569877415895462
1667267064643106000,1.08510595703125,-0.043981000781059265,0.18630841374397278,-0.1563768982887268
1667267064645503700,1.087503662109375,-0.046424392610788345,0.19241689145565033,-0.1563768982887268
1667267064647901400,1.0899013671875,-0.047646086663007736,0.19363857805728912,-0.1575985997915268
1667267064650299100,1.092299072265625,-0.04886778071522713,0.19119518995285034,-0.1588202863931656
1667267064652697000,1.094697021484375,-0.05131116881966591,0.18997350335121155,-0.1575985997915268
1667267064655094800,1.0970947265625,-0.05375456064939499,0.18936264514923096,-0.1582094430923462
1667267064657492500,1.099492431640625,-0.055587101727724075,0.18875180184841156,-0.16065283119678497
1667267064659890200,1.10189013671875,-0.05864133685827255,0.18936264514923096,-0.16187451779842377
1667267064662288000,1.104287841796875,-0.05986303091049194,0.19180603325366974,-0.16248537600040436
1667267064664685600,1.106685546875,-0.061084724962711334,0.19424942135810852,-0.16309621930122375
1667267064667083500,1.10908349609375,-0.0647498071193695,0.19974705576896667,-0.16676130890846252
1667267064669481200,1.111481201171875,-0.06658235192298889,0.20157960057258606,-0.16553960740566254
1667267064671879000,1.11387890625,-0.06963659077882767,0.2095206081867218,-0.1692046970129013
1667267064674276600,1.116276611328125,-0.07269082218408585,0.21196399629116058,-0.17348061501979828
1667267064676674600,1.118674560546875,-0.07146912813186646,0.21501824259757996,-0.17592400312423706
1667267064679072300,1.121072265625,-0.07269082218408585,0.21746163070201874,-0.18142163753509521
1667267064681470000,1.123469970703125,-0.07146912813186646,0.21929416060447693,-0.18630841374397278
1667267064683867600,1.12586767578125,-0.07207997888326645,0.2217375487089157,-0.19180603325366974
1667267064686265300,1.128265380859375,-0.07207997888326645,0.2211267054080963,-0.1973036676645279
1667267064688663300,1.130663330078125,-0.06902574002742767,0.21929416060447693,-0.20096874237060547
1667267064691061000,1.13306103515625,-0.06780404597520828,0.21746163070201874,-0.20585553348064423
1667267064693458700,1.135458740234375,-0.06841489672660828,0.21623992919921875,-0.21196399629116058
1667267064695856400,1.1378564453125,-0.06413896381855011,0.21623992919921875,-0.21746163070201874
1667267064698254000,1.140254150390625,-0.0653606578707695,0.21623992919921875,-0.2223484069108963
1667267064700652000,1.142652099609375,-0.06658235192298889,0.21257483959197998,-0.22662433981895447
1667267064703049700,1.1450498046875,-0.0653606578707695,0.20768806338310242,-0.23151111602783203
1667267064705447400,1.147447509765625,-0.06658235192298889,0.20402298867702484,-0.2357870489358902
1667267064707845000,1.14984521484375,-0.0653606578707695,0.20585553348064423,-0.237008735537529
1667267064710242800,1.152242919921875,-0.0659715011715889,0.20646637678146362,-0.24189551174640656
1667267064712640800,1.154640869140625,-0.06413896381855011,0.20219044387340546,-0.24433889985084534
1667267064715038500,1.15703857421875,-0.061084724962711334,0.19913621246814728,-0.24494975805282593
1667267064717436200,1.159436279296875,-0.05864133685827255,0.1954711228609085,-0.24678228795528412
1667267064719833900,1.161833740234375,-0.053143709897994995,0.18691925704479218,-0.24617144465446472
1667267064722231800,1.164231689453125,-0.04947862774133682,0.18142163753509521,-0.24678228795528412
1667267064724629500,1.16662939453125,-0.04703523963689804,0.17348061501979828,-0.24250635504722595
1667267064727027200,1.169027099609375,-0.04214845970273018,0.16859383881092072,-0.24067382514476776
1667267064729425000,1.1714248046875,-0.03665083646774292,0.16248537600040436,-0.237008735537529
1667267064731822600,1.173822509765625,-0.033596597611904144,0.1588202863931656,-0.23212195932865143
1667267064734220300,1.17622021484375,-0.030542362481355667,0.1582094430923462,-0.22967857122421265
1667267064736618200,1.1786181640625,-0.02870982140302658,0.1588202863931656,-0.22845686972141266
1667267064739016000,1.181015869140625,-0.02504473738372326,0.1588202863931656,-0.2217375487089157
1667267064741413600,1.18341357421875,-0.021379653364419937,0.16309621930122375,-0.21868331730365753
1667267064743811300,1.185811279296875,-0.01832541823387146,0.1704263836145401,-0.21318569779396057
1667267064746209000,1.188208984375,-0.01588202826678753,0.18019993603229523,-0.20707722008228302
1667267064748607000,1.19060693359375,-0.012216945178806782,0.19119518995285034,-0.20219044387340546
1667267064751004700,1.193004638671875,-0.007941014133393764,0.19974705576896667,-0.1966928243637085
1667267064753402400,1.19540234375,-0.004275931045413017,0.20707722008228302,-0.18814095854759216
1667267064755800000,1.197800048828125,-0.0006108472589403391,0.21257483959197998,-0.17958909273147583
1667267064758197800,1.20019775390625,0.0012216945178806782,0.21440738439559937,-0.17286977171897888
1667267064760595700,1.202595703125,0.006719320081174374,0.21440738439559937,-0.16248537600040436
1667267064762993400,1.204993408203125,0.00916270911693573,0.21257483959197998,-0.15026842057704926
1667267064765391000,1.20739111328125,0.014660334214568138,0.21929416060447693,-0.13866232335567474
1667267064767788800,1.209788818359375,0.01710372418165207,0.2235700935125351,-0.12766708433628082
1667267064770186800,1.212186767578125,0.01954711228609085,0.22479179501533508,-0.11972606182098389
1667267064772584400,1.21458447265625,0.022601349279284477,0.23273280262947083,-0.10811996459960938
1667267064774982100,1.216982177734375,0.021990500390529633,0.24311721324920654,-0.09895725548267365
1667267064777379800,1.2193798828125,0.024433890357613564,0.2510582208633423,-0.08979454636573792
1667267064779777500,1.221777587890625,0.024433890357613564,0.2651077210903168,-0.08063183724880219
1667267064782175500,1.224175537109375,0.025655584409832954,0.27915719151496887,-0.07269082218408585
1667267064784573200,1.2265732421875,0.025655584409832954,0.29687178134918213,-0.0653606578707695
1667267064786971000,1.228970947265625,0.021379653364419937,0.3164188861846924,-0.05925218388438225
1667267064789368600,1.23136865234375,0.01588202826678753,0.33413344621658325,-0.053143709897994995
1667267064791766300,1.233766357421875,0.012216945178806782,0.3536805510520935,-0.04825693368911743
1667267064794164000,1.2361640625,0.006719320081174374,0.37261682748794556,-0.04214845970273018
1667267064796562000,1.23856201171875,0.0036650835536420345,0.38605546951293945,-0.038483377546072006
1667267064798959600,1.240959716796875,-0.0012216945178806782,0.40010493993759155,-0.03420744836330414
1667267064801357300,1.243357421875,-0.004275931045413017,0.41476529836654663,-0.02993151545524597
1667267064803755000,1.245755126953125,-0.006108472589403391,0.42576053738594055,-0.02748812735080719
1667267064806152700,1.248152587890625,-0.010995250195264816,0.4306473135948181,-0.023823043331503868
1667267064808550700,1.250550537109375,-0.012216945178806782,0.4367557764053345,-0.021379653364419937
1667267064810948400,1.2529482421875,-0.014049487188458443,0.4428642690181732,-0.017714571207761765
1667267064813346000,1.255345947265625,-0.015271181240677834,0.4489727318286896,-0.015271181240677834
1667267064815743700,1.25774365234375,-0.014660334214568138,0.4563029110431671,-0.011606098152697086
1667267064818141700,1.2601416015625,-0.013438640162348747,0.46546560525894165,-0.006719320081174374
1667267064820539400,1.262539306640625,-0.00916270911693573,0.47707170248031616,-0.0024433890357613564
1667267064822937000,1.26493701171875,-0.006108472589403391,0.48928865790367126,-0.0012216945178806782
1667267064825334800,1.267334716796875,-0.004275931045413017,0.5015056133270264,0.0030542362947016954
1667267064827732500,1.269732421875,0,0.5070032477378845,0.004275931045413017
1667267064830130400,1.27213037109375,0.0036650835536420345,0.5155550837516785,0.006108472589403391
1667267064832528100,1.274528076171875,0.009773556143045425,0.5222744345664978,0.007330167107284069
1667267064834925800,1.27692578125,0.012827792204916477,0.5253286361694336,0.007330167107284069
1667267064837323500,1.279323486328125,0.013438640162348747,0.5283828973770142,0.005497625097632408
1667267064839721200,1.28172119140625,0.014660334214568138,0.5332696437835693,0.0024433890357613564
1667267064842119200,1.284119140625,0.01588202826678753,0.5369347333908081,-0.0012216945178806782
1667267064844516900,1.286516845703125,0.013438640162348747,0.5436540842056274,-0.007330167107284069
1667267064846914600,1.28891455078125,0.009773556143045425,0.5485408306121826,-0.014660334214568138
1667267064849312300,1.291312255859375,0.006108472589403391,0.5564818382263184,-0.021379653364419937
1667267064851710000,1.2937099609375,0.0030542362947016954,0.5674771070480347,-0.03176405653357506
1667267064854107600,1.296107666015625,0,0.578472375869751,-0.04703523963689804
1667267064856505600,1.298505615234375,-0.004886778071522713,0.5913001298904419,-0.06047387793660164
1667267064858903300,1.3009033203125,-0.008551862090826035,0.6035171151161194,-0.07696675509214401
1667267064861301000,1.303301025390625,-0.008551862090826035,0.6218425035476685,-0.09651386737823486
1667267064863699000,1.305698974609375,-0.010995250195264816,0.6346703171730042,-0.11483928561210632
1667267064866096600,1.3080966796875,-0.01038440316915512,0.6487197875976562,-0.13927318155765533
1667267064868494300,1.310494384765625,-0.008551862090826035,0.6615476012229919,-0.16309621930122375
1667267064870892000,1.31289208984375,-0.004886778071522713,0.6694886088371277,-0.1844758689403534
1667267064873289700,1.315289794921875,-0.004275931045413017,0.6768187880516052,-0.2101314514875412
1667267064875687400,1.3176875,-0.0030542362947016954,0.6768187880516052,-0.237008735537529
1667267064878085400,1.32008544921875,-0.0012216945178806782,0.6713211536407471,-0.2626643180847168
1667267064880483000,1.322483154296875,0.0024433890357613564,0.6633801460266113,-0.2907632887363434
1667267064882880800,1.324880859375,0.0024433890357613564,0.6493306159973145,-0.31825143098831177
1667267064885278500,1.327278564453125,0.0024433890357613564,0.6316160559654236,-0.34573954343795776
1667267064887676200,1.32967626953125,0.004275931045413017,0.6108472347259521,-0.37139514088630676
1667267064890074000,1.33207421875,0.0036650835536420345,0.5858024954795837,-0.39766156673431396
1667267064892471800,1.334471923828125,0.0024433890357613564,0.5625903010368347,-0.4220954477787018
1667267064894869500,1.336869384765625,0.0036650835536420345,0.5369347333908081,-0.4416425824165344
1667267064897267200,1.33926708984375,0.0030542362947016954,0.5088357925415039,-0.4599680006504059
1667267064899665000,1.341664794921875,0.0030542362947016954,0.47890424728393555,-0.4746283292770386
1667267064902062800,1.344062744140625,0.004275931045413017,0.44958359003067017,-0.48806697130203247
1667267064904460500,1.34646044921875,0.0036650835536420345,0.416597843170166,-0.4966188073158264
1667267064906858200,1.348858154296875,0.0012216945178806782,0.3817795515060425,-0.5051707029342651
1667267064909256000,1.351255859375,-0.004886778071522713,0.34696123003959656,-0.5057815313339233
1667267064911654000,1.35365380859375,-0.00916270911693573,0.31031039357185364,-0.5063923597335815
1667267064914051600,1.356051513671875,-0.014049487188458443,0.2724378705024719,-0.5015056133270264
1667267064916449300,1.35844921875,-0.022601349279284477,0.23884128034114838,-0.497229665517807
1667267064918847000,1.360846923828125,-0.03420744836330414,0.20768806338310242,-0.49112120270729065
1667267064921244700,1.36324462890625,-0.04337015375494957,0.18019993603229523,-0.4844018816947937
1667267064923642600,1.365642578125,-0.05497625470161438,0.1557660549879074,-0.47768256068229675
1667267064926040300,1.368040283203125,-0.06780404597520828,0.13377554714679718,-0.4709632396697998
1667267064928438000,1.37043798828125,-0.08246438205242157,0.1172826737165451,-0.46302223205566406
1667267064930835700,1.372835693359375,-0.09956810623407364,0.09956810623407364,-0.4563029110431671
1667267064933233400,1.3752333984375,-0.12278030067682266,0.08124268800020218,-0.45202696323394775
1667267064935631000,1.377631103515625,-0.15393351018428802,0.06658235192298889,-0.444085955619812
1667267064938029000,1.380029052734375,-0.182643324136734,0.056808795779943466,-0.43858832120895386
1667267064940426800,1.3824267578125,-0.21196399629116058,0.03665083646774292,-0.4337015450000763
1667267064942824400,1.384824462890625,-0.24433889985084534,0.010995250195264816,-0.4306473135948181
1667267064945222100,1.38722216796875,-0.2718270421028137,-0.014660334214568138,-0.4306473135948181
1667267064947619800,1.389619873046875,-0.3017585575580597,-0.03787253051996231,-0.4312581717967987
1667267064950017800,1.392017822265625,-0.3268032968044281,-0.062306419014930725,-0.4337015450000763
1667267064952415500,1.39441552734375,-0.3500154912471771,-0.08490777015686035,-0.44103172421455383
1667267064954813200,1.396813232421875,-0.367730051279068,-0.10873081535100937,-0.448361873626709
1667267064957211000,1.3992109375,-0.38422292470932007,-0.129499614238739,-0.45508119463920593
1667267064959608800,1.40160888671875,-0.39766156673431396,-0.14965757727622986,-0.46424391865730286
1667267064962006500,1.404006591796875,-0.4074351191520691,-0.16737215220928192,-0.4752391576766968
1667267064964404200,1.406404296875,-0.4159869849681854,-0.182643324136734,-0.4862344264984131
1667267064966802000,1.408802001953125,-0.420873761177063,-0.19241689145565033,-0.4953971207141876
1667267064969199600,1.41119970703125,-0.42392799258232117,-0.20096874237060547,-0.5082249045372009
1667267064971597600,1.41359765625,-0.42637139558792114,-0.20585553348064423,-0.5173876285552979
1667267064973995300,1.415995361328125,-0.42698222398757935,-0.20463383197784424,-0.5234960913658142
1667267064976393000,1.41839306640625,-0.42637139558792114,-0.20096874237060547,-0.5283828973770142
1667267064978790700,1.420790771484375,-0.42576053738594055,-0.19424942135810852,-0.53143709897995
1667267064981188400,1.423188232421875,-0.4227063059806824,-0.18142163753509521,-0.5308262705802917
1667267064983586300,1.42558642578125,-0.416597843170166,-0.16859383881092072,-0.527161180973053
1667267064985984000,1.42798388671875,-0.4074351191520691,-0.1557660549879074,-0.5222744345664978
1667267064988381700,1.430381591796875,-0.390942245721817,-0.13744063675403595,-0.5131117105484009
1667267064990779400,1.432779296875,-0.3683409094810486,-0.12461283802986145,-0.503948986530304
1667267064993177000,1.435177001953125,-0.33718767762184143,-0.11545012891292572,-0.49112120270729065
1667267064995574800,1.43757470703125,-0.3005368411540985,-0.10811996459960938,-0.48073679208755493
1667267064997972700,1.43997265625,-0.2596100866794586,-0.11117420345544815,-0.46668729186058044
1667267065000370400,1.442370361328125,-0.21746163070201874,-0.12094775587320328,-0.45019441843032837
1667267065002768100,1.44476806640625,-0.17348061501979828,-0.14049486815929413,-0.4294256269931793
1667267065005166000,1.447166015625,-0.130721315741539,-0.16553960740566254,-0.4092676639556885
1667267065007563800,1.449563720703125,-0.0922379344701767,-0.19913621246814728,-0.38605546951293945
1667267065009961500,1.45196142578125,-0.05619794875383377,-0.23823043704032898,-0.36162158846855164
1667267065012359200,1.454359130859375,-0.024433890357613564,-0.27976804971694946,-0.3365768492221832
1667267065014756900,1.4567568359375,-0.0018325417768210173,-0.3243598937988281,-0.30908870697021484
1667267065017154600,1.459154541015625,0.014049487188458443,-0.37139514088630676,-0.28282228112220764
1667267065019552500,1.461552490234375,0.028098974376916885,-0.4227063059806824,-0.25594499707221985
1667267065021950200,1.4639501953125,0.036039989441633224,-0.4746283292770386,-0.23273280262947083
1667267065024348000,1.466347900390625,0.03665083646774292,-0.5283828973770142,-0.2107423096895218
1667267065026745600,1.46874560546875,0.03420744836330414,-0.582748293876648,-0.19241689145565033
1667267065029143300,1.471143310546875,0.029320668429136276,-0.6365028619766235,-0.17653486132621765
1667267065031541200,1.473541259765625,0.02076880633831024,-0.6896465420722961,-0.16553960740566254
1667267065033939000,1.47593896484375,0.012216945178806782,-0.7434011101722717,-0.16126367449760437
1667267065036336600,1.478336669921875,0.0018325417768210173,-0.7886037826538086,-0.16004198789596558
1667267065038734300,1.480734375,-0.005497625097632408,-0.8252546191215515,-0.16615045070648193
1667267065041132000,1.483132080078125,-0.013438640162348747,-0.8576295375823975,-0.17409147322177887
1667267065043530000,1.485530029296875,-0.021379653364419937,-0.8771766424179077,-0.18997350335121155
1667267065045927700,1.487927734375,-0.028098974376916885,-0.8857285380363464,-0.2095206081867218
1667267065048325400,1.490325439453125,-0.036039989441633224,-0.8887827396392822,-0.23212195932865143
1667267065050723000,1.49272314453125,-0.04153761267662048,-0.8814526200294495,-0.258999228477478
1667267065053121000,1.49512109375,-0.04581354558467865,-0.8674030900001526,-0.2895416021347046
1667267065055518700,1.497518798828125,-0.04886778071522713,-0.8472451567649841,-0.32069480419158936
1667267065057916400,1.49991650390625,-0.056808795779943466,-0.8240329623222351,-0.3542914092540741
1667267065060314000,1.502314208984375,-0.062306419014930725,-0.7953231334686279,-0.38788801431655884
1667267065062711800,1.5047119140625,-0.07085828483104706,-0.7641699314117432,-0.42392799258232117
1667267065065109500,1.507109619140625,-0.0781884491443634,-0.7293516397476196,-0.4599680006504059
1667267065067507500,1.509507568359375,-0.08796200156211853,-0.6914790868759155,-0.49356457591056824
1667267065069905200,1.5119052734375,-0.09895725548267365,-0.6517740488052368,-0.5253286361694336
1667267065072302800,1.514302734375,-0.11300674080848694,-0.6139014959335327,-0.554649293422699
1667267065074700500,1.516700439453125,-0.12522368133068085,-0.5723638534545898,-0.5833591222763062
1667267065077098200,1.51909814453125,-0.13988402485847473,-0.5344913601875305,-0.6077930331230164
1667267065079496200,1.52149609375,-0.15454435348510742,-0.4966188073158264,-0.6261184215545654
1667267065081894000,1.523893798828125,-0.16492876410484314,-0.4575245976448059,-0.6456655263900757
1667267065084291600,1.52629150390625,-0.18142163753509521,-0.416597843170166,-0.656660795211792
1667267065086689300,1.528689208984375,-0.19241689145565033,-0.37261682748794556,-0.6615476012229919
1667267065089087000,1.5310869140625,-0.20463383197784424,-0.33474430441856384,-0.6652126908302307
1667267065091485000,1.53348486328125,-0.21440738439559937,-0.29503923654556274,-0.660936713218689
1667267065093882600,1.535882568359375,-0.21990501880645752,-0.25716668367385864,-0.6536065936088562
1667267065096280300,1.5382802734375,-0.22601348161697388,-0.22662433981895447,-0.6371136903762817
1667267065098678000,1.540677978515625,-0.23090025782585144,-0.1979145109653473,-0.6132906675338745
1667267065101076000,1.543075927734375,-0.23334364593029022,-0.18081079423427582,-0.5858024954795837
1667267065103473700,1.5454736328125,-0.2339545041322708,-0.17286977171897888,-0.5558710098266602
1667267065105871400,1.547871337890625,-0.23273280262947083,-0.1716480851173401,-0.5198310017585754
1667267065108269000,1.55026904296875,-0.22845686972141266,-0.182643324136734,-0.4856235682964325
1667267065110666800,1.552666748046875,-0.2235700935125351,-0.1960819661617279,-0.4471401870250702
1667267065113064700,1.555064697265625,-0.21623992919921875,-0.21501824259757996,-0.41048935055732727
1667267065115462400,1.55746240234375,-0.2089097648859024,-0.2351761907339096,-0.37383851408958435
1667267065117860000,1.559860107421875,-0.20035789906978607,-0.25533416867256165,-0.3365768492221832
1667267065120257800,1.5622578125,-0.19119518995285034,-0.27060532569885254,-0.2987042963504791
1667267065122655500,1.564655517578125,-0.18081079423427582,-0.27060532569885254,-0.2644968628883362
1667267065125053400,1.567053466796875,-0.16676130890846252,-0.25472331047058105,-0.23028941452503204
1667267065127451100,1.569451171875,-0.14965757727622986,-0.22051586210727692,-0.1966928243637085
1667267065129848800,1.571848876953125,-0.12766708433628082,-0.16798299551010132,-0.16615045070648193
1667267065132246500,1.57424658203125,-0.11056335270404816,-0.09407047927379608,-0.13682979345321655
1667267065134644200,1.576644287109375,-0.09407047927379608,0.0006108472589403391,-0.1172826737165451
1667267065137042000,1.5790419921875,-0.08063183724880219,0.10934165865182877,-0.10140064358711243
1667267065139439900,1.58143994140625,-0.07330167293548584,0.22601348161697388,-0.09040539711713791
1667267065141837600,1.583837646484375,-0.06719319522380829,0.34573954343795776,-0.08612946420907974
1667267065144235300,1.5862353515625,-0.0653606578707695,0.46546560525894165,-0.08796200156211853
1667267065146633000,1.588633056640625,-0.0659715011715889,0.5821374654769897,-0.09590301662683487
1667267065149031000,1.591031005859375,-0.07146912813186646,0.6945333480834961,-0.11056335270404816
1667267065151428600,1.5934287109375,-0.07696675509214401,0.7977665066719055,-0.12705622613430023
1667267065153826300,1.595826416015625,-0.0794101431965828,0.8942803740501404,-0.15026842057704926
1667267065156224000,1.59822412109375,-0.08612946420907974,0.9773555994033813,-0.17775654792785645
1667267065158621700,1.60062158203125,-0.0922379344701767,1.0482138395309448,-0.2101314514875412
1667267065161019600,1.60301953125,-0.0922379344701767,1.1038010120391846,-0.24250635504722595
1667267065163417300,1.605417236328125,-0.08796200156211853,1.1404517889022827,-0.2773246467113495
1667267065165815000,1.60781494140625,-0.07513421028852463,1.1593880653381348,-0.3170297145843506
1667267065168212700,1.610212646484375,-0.05803048983216286,1.1642749309539795,-0.35978904366493225
1667267065170610400,1.6126103515625,-0.03542914241552353,1.1496145725250244,-0.40193748474121094
1667267065173008400,1.61500830078125,-0.006108472589403391,1.1178505420684814,-0.4422534108161926
1667267065175406000,1.617406005859375,0.028098974376916885,1.068982720375061,-0.4819584786891937
1667267065177803800,1.6198037109375,0.06963659077882767,1.0072871446609497,-0.517998456954956
1667267065180201500,1.622201416015625,0.11239589750766754,0.9297095537185669,-0.5540384650230408
1667267065182599200,1.62459912109375,0.1563768982887268,0.8441908955574036,-0.582748293876648
1667267065184997000,1.6269970703125,0.20157960057258606,0.7458444833755493,-0.6041279435157776
1667267065187394800,1.629394775390625,0.2473931461572647,0.6389462351799011,-0.6200099587440491
1667267065189792500,1.63179248046875,0.2883199155330658,0.5296045541763306,-0.6273401379585266
1667267065192190200,1.634190185546875,0.3243598937988281,0.4178195297718048,-0.6303943991661072
1667267065194588200,1.636588134765625,0.36101073026657104,0.31092125177383423,-0.624896764755249
1667267065196985900,1.63898583984375,0.38422292470932007,0.2101314514875412,-0.6126797795295715
1667267065199383600,1.641383544921875,0.40010493993759155,0.12278030067682266,-0.5949652194976807
1667267065201781200,1.64378125,0.40987852215766907,0.047646086663007736,-0.5754181146621704
1667267065204179000,1.646178955078125,0.4037700295448303,-0.017714571207761765,-0.5515950918197632
1667267065206577000,1.648576904296875,0.38605546951293945,-0.0659715011715889,-0.5277720093727112
1667267065208974600,1.650974609375,0.36039987206459045,-0.1044548824429512,-0.4990622103214264
1667267065211372300,1.653372314453125,0.3274141252040863,-0.12888877093791962,-0.4734066128730774
1667267065213770000,1.65577001953125,0.28404396772384644,-0.1423274129629135,-0.44958359003067017
1667267065216167700,1.658167724609375,0.23823043704032898,-0.1447708010673523,-0.42698222398757935
1667267065218565400,1.6605654296875,0.18997350335121155,-0.12705622613430023,-0.4056025743484497
1667267065220963300,1.66296337890625,0.14110571146011353,-0.09590301662683487,-0.38483378291130066
1667267065223361000,1.665361083984375,0.09284878522157669,-0.05070032179355621,-0.3646758198738098
1667267065225758700,1.6677587890625,0.05131116881966591,0.0018325417768210173,-0.34573954343795776
1667267065228156400,1.670156494140625,0.014660334214568138,0.055587101727724075,-0.3286358118057251
1667267065230554000,1.67255419921875,-0.017714571207761765,0.11056335270404816,-0.3115321099758148
1667267065232952000,1.6749521484375,-0.04092676565051079,0.16126367449760437,-0.3011476993560791
1667267065235349800,1.677349853515625,-0.05864133685827255,0.20707722008228302,-0.2901524603366852
1667267065237747500,1.67974755859375,-0.06902574002742767,0.2486148327589035,-0.2852656841278076
1667267065240145200,1.682145263671875,-0.07146912813186646,0.2877090573310852,-0.2864873707294464
1667267065242543000,1.684543212890625,-0.06719319522380829,0.3151971995830536,-0.28404396772384644
1667267065244940800,1.68694091796875,-0.05864133685827255,0.3390202224254608,-0.288930743932724
1667267065247338500,1.68933837890625,-0.04825693368911743,0.35978904366493225,-0.29442837834358215
1667267065249736200,1.691736083984375,-0.034818295389413834,0.37567105889320374,-0.2993151545524597
1667267065252134000,1.6941337890625,-0.021379653364419937,0.38788801431655884,-0.3054236173629761
1667267065254531800,1.69653173828125,-0.005497625097632408,0.3958290219306946,-0.31031039357185364
1667267065256929500,1.698929443359375,0.010995250195264816,0.4074351191520691,-0.314586341381073
1667267065259327200,1.7013271484375,0.026877280324697495,0.41415444016456604,-0.31947311758995056
1667267065261725000,1.703724853515625,0.042759306728839874,0.4202629029750824,-0.32191649079322815
1667267065264122600,1.70612255859375,0.05741964280605316,0.4196520745754242,-0.32252734899520874
1667267065266520600,1.7085205078125,0.07269082218408585,0.4178195297718048,-0.3243598937988281
1667267065268918300,1.710918212890625,0.08674030750989914,0.4062134325504303,-0.3243598937988281
1667267065271316000,1.71331591796875,0.10201149433851242,0.3897205591201782,-0.32191649079322815
1667267065273713700,1.715713623046875,0.11606097966432571,0.3665083646774292,-0.3176405727863312
1667267065276111400,1.718111328125,0.129499614238739,0.3384093940258026,-0.312142938375473
1667267065278509300,1.72050927734375,0.13927318155765533,0.3017585575580597,-0.3023693859577179
1667267065280907000,1.722906982421875,0.14782503247261047,0.2608317732810974,-0.29442837834358215
1667267065283304700,1.7253046875,0.15515519678592682,0.21379654109477997,-0.28160059452056885
1667267065285702400,1.727702392578125,0.16370706260204315,0.16248537600040436,-0.26755109429359436
1667267065288100400,1.730100341796875,0.16676130890846252,0.10811996459960938,-0.25350162386894226
1667267065290498000,1.732498046875,0.1698155403137207,0.053143709897994995,-0.2351761907339096
1667267065292895700,1.734895751953125,0.1704263836145401,-0.0024433890357613564,-0.21746163070201874
1667267065295293400,1.73729345703125,0.1692046970129013,-0.056808795779943466,-0.1979145109653473
1667267065297691100,1.739691162109375,0.16615045070648193,-0.10995250940322876,-0.17653486132621765
1667267065300088800,1.7420888671875,0.16187451779842377,-0.16065283119678497,-0.15210096538066864
1667267065302486800,1.74448681640625,0.15515519678592682,-0.2107423096895218,-0.12827792763710022
1667267065304884500,1.746884521484375,0.14843589067459106,-0.258999228477478,-0.10262233763933182
1667267065307282200,1.7492822265625,0.13927318155765533,-0.3011476993560791,-0.07696675509214401
1667267065309679900,1.751679931640625,0.12888877093791962,-0.3414636254310608,-0.05070032179355621
1667267065312077600,1.75407763671875,0.1178935244679451,-0.3811686933040619,-0.023823043331503868
1667267065314475500,1.7564755859375,0.10934165865182877,-0.4196520745754242,0.005497625097632408
1667267065316873200,1.758873291015625,0.09712471067905426,-0.45385950803756714,0.033596597611904144
1667267065319271000,1.76127099609375,0.08490777015686035,-0.4844018816947937,0.06291726976633072
1667267065321668600,1.763668701171875,0.07513421028852463,-0.5173876285552979,0.08857285231351852
1667267065324066300,1.76606640625,0.06291726976633072,-0.5473191738128662,0.11483928561210632
1667267065326464300,1.76846435546875,0.05070032179355621,-0.5754181146621704,0.14049486815929413
1667267065328862000,1.770862060546875,0.04337015375494957,-0.601073682308197,0.16615045070648193
1667267065331259600,1.773259765625,0.037261683493852615,-0.6267293095588684,0.18936264514923096
1667267065333657300,1.7756572265625,0.030542362481355667,-0.648108959197998,0.2107423096895218
1667267065336055300,1.77805517578125,0.025655584409832954,-0.6713211536407471,0.22845686972141266
1667267065338453000,1.780452880859375,0.02076880633831024,-0.6920899152755737,0.24433889985084534
1667267065340850700,1.7828505859375,0.01588202826678753,-0.7091936469078064,0.25777754187583923
1667267065343248400,1.785248291015625,0.013438640162348747,-0.7244648337364197,0.265718549489975
1667267065345646000,1.78764599609375,0.012827792204916477,-0.7330167293548584,0.2754921019077301
1667267065348044000,1.7900439453125,0.007941014133393764,-0.7452336549758911,0.27854636311531067
1667267065350441700,1.792441650390625,0.00916270911693573,-0.7525638341903687,0.27915719151496887
1667267065352839400,1.79483935546875,0.010995250195264816,-0.7592831254005432,0.2773246467113495
1667267065355237000,1.797237060546875,0.012216945178806782,-0.7617265582084656,0.2742704153060913
1667267065357634800,1.799634765625,0.014660334214568138,-0.762948215007782,0.26632940769195557
1667267065360032500,1.802032470703125,0.017714571207761765,-0.7641699314117432,0.2583884000778198
1667267065362430500,1.804430419921875,0.018936265259981155,-0.7605048418045044,0.2473931461572647
1667267065364828200,1.806828125,0.02076880633831024,-0.7574505805969238,0.23334364593029022
1667267065367225900,1.809225830078125,0.020157959312200546,-0.754396378993988,0.21807247400283813
1667267065369623600,1.81162353515625,0.018936265259981155,-0.7501204609870911,0.20035789906978607
1667267065372021200,1.814021240234375,0.01832541823387146,-0.7470661997795105,0.1820324808359146
1667267065374419200,1.816419189453125,0.014049487188458443,-0.7434011101722717,0.16431790590286255
1667267065376817000,1.81881689453125,0.008551862090826035,-0.731184184551239,0.14721418917179108
1667267065379214600,1.821214599609375,0.0012216945178806782,-0.7165238261222839,0.12888877093791962
1667267065381612300,1.8236123046875,-0.005497625097632408,-0.6975875496864319,0.11545012891292572
1667267065384010200,1.82601025390625,-0.014049487188458443,-0.6725428104400635,0.1050657257437706
1667267065386408000,1.828407958984375,-0.024433890357613564,-0.6456655263900757,0.09651386737823486
1667267065388805600,1.8308056640625,-0.034818295389413834,-0.6175665855407715,0.0910162404179573
1667267065391203300,1.833203369140625,-0.04337015375494957,-0.5888567566871643,0.08735115826129913
1667267065393601000,1.83560107421875,-0.0525328628718853,-0.555260181427002,0.08612946420907974
1667267065395999000,1.8379990234375,-0.06352811306715012,-0.5192201733589172,0.09407047927379608
1667267065398396700,1.840396728515625,-0.07207997888326645,-0.4813476502895355,0.10262233763933182
1667267065400794400,1.84279443359375,-0.0787992998957634,-0.4416425824165344,0.11422843486070633
1667267065403192000,1.845192138671875,-0.08612946420907974,-0.4056025743484497,0.1301104724407196
1667267065405589800,1.84758984375,-0.08979454636573792,-0.3689517378807068,0.15210096538066864
1667267065407987700,1.84998779296875,-0.09345962852239609,-0.33352261781692505,0.1716480851173401
1667267065410385400,1.852385498046875,-0.09651386737823486,-0.2993151545524597,0.1973036676645279
1667267065412783000,1.854783203125,-0.09712471067905426,-0.26694026589393616,0.22479179501533508
1667267065415180800,1.857180908203125,-0.09529217332601547,-0.23945212364196777,0.2504473626613617
1667267065417578500,1.85957861328125,-0.0916270911693573,-0.21379654109477997,0.27854636311531067
1667267065419976200,1.86197607421875,-0.08918370306491852,-0.18569757044315338,0.3054236173629761
1667267065422374100,1.8643740234375,-0.08429691940546036,-0.16126367449760437,0.33352261781692505
1667267065424771800,1.866771728515625,-0.0781884491443634,-0.1429382562637329,0.36039987206459045
1667267065427169500,1.86916943359375,-0.07146912813186646,-0.12522368133068085,0.38910970091819763
1667267065429567200,1.871567138671875,-0.06413896381855011,-0.10934165865182877,0.416597843170166
1667267065431965200,1.873965087890625,-0.05497625470161438,-0.0910162404179573,0.43919917941093445
1667267065434363000,1.87636279296875,-0.04825693368911743,-0.07574506103992462,0.4618005156517029
1667267065436760600,1.878760498046875,-0.0390942245721817,-0.05986303091049194,0.4825693368911743
1667267065439158300,1.881158203125,-0.02870982140302658,-0.0397050715982914,0.5015056133270264
1667267065441556000,1.883555908203125,-0.02076880633831024,-0.018936265259981155,0.5204418897628784
1667267065443954000,1.885953857421875,-0.013438640162348747,0.0024433890357613564,0.5351021885871887
1667267065446351600,1.8883515625,-0.007941014133393764,0.02993151545524597,0.5485408306121826
1667267065448749300,1.890749267578125,-0.0012216945178806782,0.05864133685827255,0.5583143830299377
1667267065451147000,1.89314697265625,0.007941014133393764,0.08796200156211853,0.5644228458404541
1667267065453544700,1.895544677734375,0.011606098152697086,0.11911521852016449,0.5711421966552734
1667267065455942700,1.897942626953125,0.015271181240677834,0.14904673397541046,0.5772506594657898
1667267065458340400,1.90034033203125,0.017714571207761765,0.17958909273147583,0.5809157490730286
1667267065460738000,1.902738037109375,0.02076880633831024,0.208298921585083,0.5839699506759644
1667267065463135700,1.9051357421875,0.022601349279284477,0.23151111602783203,0.5864133834838867
1667267065465533400,1.907533447265625,0.022601349279284477,0.2522799074649811,0.5931326746940613
1667267065467931400,1.909931396484375,0.021990500390529633,0.2644968628883362,0.5943543910980225
1667267065470329000,1.9123291015625,0.023212196305394173,0.26816195249557495,0.5986303091049194
1667267065472726800,1.914726806640625,0.020157959312200546,0.2608317732810974,0.6041279435157776
1667267065475124500,1.91712451171875,0.016492875292897224,0.24494975805282593,0.610236406326294
1667267065477522400,1.9195224609375,0.016492875292897224,0.21807247400283813,0.6139014959335327
1667267065479920000,1.921920166015625,0.016492875292897224,0.18019993603229523,0.6193991303443909
1667267065482317800,1.92431787109375,0.01588202826678753,0.13866232335567474,0.6230642199516296
1667267065484715500,1.926715576171875,0.015271181240677834,0.08918370306491852,0.6255075931549072
1667267065487113200,1.92911328125,0.01588202826678753,0.043981000781059265,0.6285618543624878
1667267065489511000,1.931510986328125,0.015271181240677834,-0.009773556143045425,0.6322268843650818
1667267065491908900,1.933908935546875,0.015271181240677834,-0.0653606578707695,0.6328377723693848
1667267065494306600,1.936306640625,0.015271181240677834,-0.1178935244679451,0.6352811455726624
1667267065496704300,1.938704345703125,0.01710372418165207,-0.16676130890846252,0.633448600769043
1667267065499102000,1.94110205078125,0.015271181240677834,-0.21929416060447693,0.6340594291687012
1667267065501499600,1.943499755859375,0.014049487188458443,-0.26632940769195557,0.6297835111618042
1667267065503897600,1.945897705078125,0.014049487188458443,-0.30664533376693726,0.6261184215545654
1667267065506295300,1.94829541015625,0.014049487188458443,-0.33718767762184143,0.6206207871437073
1667267065508693000,1.95069287109375,0.01038440316915512,-0.367730051279068,0.6132906675338745
1667267065511090700,1.953090576171875,0.011606098152697086,-0.38788801431655884,0.6029062271118164
1667267065513488400,1.95548828125,0.00916270911693573,-0.3958290219306946,0.5894675850868225
1667267065515886300,1.95788623046875,0.006719320081174374,-0.39766156673431396,0.5766398310661316
1667267065518284000,1.960283935546875,0.004275931045413017,-0.3939964771270752,0.5613686442375183
1667267065520681700,1.962681640625,0,-0.3811686933040619,0.5393781065940857
1667267065523079400,1.965079345703125,-0.004275931045413017,-0.36039987206459045,0.5204418897628784
1667267065525477400,1.967477294921875,-0.007330167107284069,-0.337798535823822,0.499673068523407
1667267065527875000,1.969875,-0.012827792204916477,-0.30786702036857605,0.4746283292770386
1667267065530272800,1.972272705078125,-0.01832541823387146,-0.27854636311531067,0.45202696323394775
1667267065532670500,1.97467041015625,-0.020157959312200546,-0.24372805655002594,0.42698222398757935
1667267065535068200,1.977068115234375,-0.023212196305394173,-0.20524467527866364,0.40071579813957214
1667267065537465900,1.9794658203125,-0.024433890357613564,-0.16615045070648193,0.37689274549484253
1667267065539863800,1.98186376953125,-0.02504473738372326,-0.12583453953266144,0.3536805510520935
1667267065542261500,1.984261474609375,-0.023823043331503868,-0.08246438205242157,0.3268032968044281
1667267065544659200,1.9866591796875,-0.022601349279284477,-0.04337015375494957,0.3054236173629761
1667267065547057000,1.989056884765625,-0.021379653364419937,-0.0018325417768210173,0.28404396772384644
1667267065549454600,1.99145458984375,-0.018936265259981155,0.03542914241552353,0.265718549489975
1667267065551852500,1.9938525390625,-0.01588202826678753,0.07146912813186646,0.24494975805282593
1667267065554250200,1.996250244140625,-0.014049487188458443,0.10384403169155121,0.22723518311977386
1667267065556648000,1.99864794921875,-0.00916270911693573,0.13377554714679718,0.21379654109477997
1667267065559045600,2.001045654296875,-0.005497625097632408,0.15393351018428802,0.20035789906978607
1667267065561443300,2.003443359375,-0.0024433890357613564,0.17225892841815948,0.18875180184841156
1667267065563841300,2.00584130859375,0.0018325417768210173,0.1844758689403534,0.17897824943065643
1667267065566239000,2.008239013671875,0.006719320081174374,0.1954711228609085,0.1704263836145401
1667267065568636700,2.01063671875,0.013438640162348747,0.19913621246814728,0.16798299551010132
1667267065571034400,2.013034423828125,0.022601349279284477,0.19974705576896667,0.16553960740566254
1667267065573432300,2.015432373046875,0.030542362481355667,0.1973036676645279,0.16370706260204315
1667267065575830000,2.017830078125,0.038483377546072006,0.19363857805728912,0.16309621930122375
1667267065578227700,2.020227783203125,0.04886778071522713,0.18630841374397278,0.16431790590286255
1667267065580625400,2.02262548828125,0.055587101727724075,0.17409147322177887,0.1710372269153595
1667267065583023000,2.025023193359375,0.061084724962711334,0.16492876410484314,0.17653486132621765
1667267065585420800,2.0274208984375,0.06719319522380829,0.15026842057704926,0.18019993603229523
1667267065587818800,2.02981884765625,0.07024743407964706,0.13560809195041656,0.18875180184841156
1667267065590216400,2.032216552734375,0.07207997888326645,0.12033691257238388,0.19974705576896667
1667267065592614100,2.0346142578125,0.07269082218408585,0.10323318839073181,0.21318569779396057
1667267065595011800,2.03701171875,0.07085828483104706,0.08429691940546036,0.22723518311977386
1667267065597409500,2.039409423828125,0.06841489672660828,0.06841489672660828,0.24067382514476776
1667267065599807500,2.041807373046875,0.06658235192298889,0.051922015845775604,0.25533416867256165
1667267065602205200,2.044205078125,0.06169557198882103,0.033596597611904144,0.2724378705024719
1667267065604603000,2.046602783203125,0.05986303091049194,0.01954711228609085,0.2907632887363434
1667267065607000600,2.04900048828125,0.053143709897994995,0.004275931045413017,0.30969956517219543
1667267065609398500,2.0513984375,0.04947862774133682,-0.007941014133393764,0.3292466700077057
1667267065611796200,2.053796142578125,0.045202698558568954,-0.02076880633831024,0.3506263196468353
1667267065614194000,2.05619384765625,0.04153761267662048,-0.02993151545524597,0.37261682748794556
1667267065616591600,2.058591552734375,0.0390942245721817,-0.04031591862440109,0.395218163728714
1667267065618989300,2.0609892578125,0.037261683493852615,-0.04581354558467865,0.4172086715698242
1667267065621387300,2.06338720703125,0.037261683493852615,-0.05131116881966591,0.43797749280929565
1667267065623785000,2.065784912109375,0.037261683493852615,-0.05070032179355621,0.4611896872520447
1667267065626182700,2.0681826171875,0.038483377546072006,-0.05008947476744652,0.4825693368911743
1667267065628580400,2.070580322265625,0.038483377546072006,-0.04214845970273018,0.503948986530304
1667267065630978000,2.07297802734375,0.04153761267662048,-0.037261683493852615,0.5241069197654724
1667267065633375700,2.075375732421875,0.046424392610788345,-0.03298575058579445,0.5448757410049438
1667267065635773700,2.077773681640625,0.05070032179355621,-0.023212196305394173,0.5656445622444153
1667267065638171400,2.08017138671875,0.05741964280605316,-0.01038440316915512,0.5876350402832031
1667267065640569000,2.082569091796875,0.062306419014930725,0.0012216945178806782,0.6041279435157776
1667267065642966800,2.084966796875,0.06902574002742767,0.017714571207761765,0.6187883019447327
1667267065645364500,2.087364501953125,0.07757759839296341,0.028098974376916885,0.6303943991661072
1667267065647762400,2.089762451171875,0.08429691940546036,0.037261683493852615,0.6444438695907593
1667267065650160000,2.09216015625,0.09284878522157669,0.04214845970273018,0.6603258848190308
1667267065652557800,2.094557861328125,0.10384403169155121,0.04703523963689804,0.6743753552436829
1667267065654955500,2.09695556640625,0.11361759155988693,0.05008947476744652,0.6872031688690186
1667267065657353500,2.099353515625,0.12461283802986145,0.04825693368911743,0.7006418108940125
1667267065659751200,2.101751220703125,0.1325538605451584,0.04581354558467865,0.7091936469078064
1667267065662148900,2.10414892578125,0.1435490995645523,0.04459185153245926,0.7226322889328003
1667267065664546600,2.106546630859375,0.15149012207984924,0.04153761267662048,0.7299624681472778
1667267065666944300,2.1089443359375,0.1588202863931656,0.03542914241552353,0.7415685653686523
1667267065669342200,2.11134228515625,0.16676130890846252,0.02748812735080719,0.7458444833755493
1667267065671740000,2.113739990234375,0.17286977171897888,0.016492875292897224,0.7513421177864075
1667267065674137600,2.1161376953125,0.18081079423427582,0.007330167107284069,0.7556180357933044
1667267065676535300,2.118535400390625,0.18814095854759216,-0.005497625097632408,0.758672297000885
1667267065678933000,2.12093310546875,0.18997350335121155,-0.022601349279284477,0.7592831254005432
1667267065681330700,2.12333056640625,0.1960819661617279,-0.04337015375494957,0.7574505805969238
1667267065683728600,2.125728759765625,0.20035789906978607,-0.0659715011715889,0.7568397521972656
1667267065686126300,2.128126220703125,0.20463383197784424,-0.0922379344701767,0.7556180357933044
1667267065688524000,2.13052392578125,0.208298921585083,-0.12155860662460327,0.7531746625900269
1667267065690921700,2.132921630859375,0.21257483959197998,-0.15210096538066864,0.7495095729827881
1667267065693319400,2.1353193359375,0.21501824259757996,-0.1820324808359146,0.7458444833755493
1667267065695717400,2.13771728515625,0.21685077250003815,-0.2113531529903412,0.739736020565033
1667267065698115000,2.140114990234375,0.21868331730365753,-0.24006296694278717,0.7348492741584778
1667267065700512800,2.1425126953125,0.21990501880645752,-0.26999449729919434,0.7299624681472778
1667267065702910500,2.144910400390625,0.21990501880645752,-0.29626092314720154,0.7220214605331421
1667267065705308400,2.147308349609375,0.21929416060447693,-0.32130566239356995,0.7146912813186646
1667267065707706000,2.1497060546875,0.2211267054080963,-0.34573954343795776,0.70797199010849
1667267065710103800,2.152103759765625,0.2217375487089157,-0.3671191930770874,0.7024743556976318
1667267065712501500,2.15450146484375,0.2217375487089157,-0.38605546951293945,0.6969767212867737
1667267065714899200,2.156899169921875,0.2211267054080963,-0.40132665634155273,0.6896465420722961
1667267065717297200,2.159297119140625,0.2211267054080963,-0.41354358196258545,0.684148907661438
1667267065719694800,2.16169482421875,0.2211267054080963,-0.42759308218955994,0.6780404448509216
1667267065722092500,2.164092529296875,0.2211267054080963,-0.4330907166004181,0.6725428104400635
1667267065724490200,2.166490234375,0.21990501880645752,-0.4355340898036957,0.6688777208328247
1667267065726888000,2.168887939453125,0.22051586210727692,-0.4367557764053345,0.6676560640335083
1667267065729285600,2.17128564453125,0.2211267054080963,-0.42759308218955994,0.6670452356338501
1667267065731683600,2.17368359375,0.21929416060447693,-0.41171106696128845,0.6700994372367859
1667267065734081300,2.176081298828125,0.21623992919921875,-0.38849884271621704,0.6774296164512634
1667267065736479000,2.17847900390625,0.21257483959197998,-0.363454133272171,0.6865923404693604
1667267065738876700,2.180876708984375,0.21257483959197998,-0.3414636254310608,0.7000309824943542
1667267065741274400,2.1832744140625,0.21379654109477997,-0.3268032968044281,0.7140804529190063
1667267065743672300,2.18567236328125,0.21562908589839935,-0.3158080279827118,0.7324058413505554
1667267065746070000,2.188070068359375,0.21929416060447693,-0.3133646547794342,0.7525638341903687
1667267065748467700,2.1904677734375,0.22723518311977386,-0.3151971995830536,0.7733326554298401
1667267065750865400,2.192865478515625,0.2345653474330902,-0.32313820719718933,0.7934905886650085
1667267065753263400,2.195263427734375,0.24556060135364532,-0.33535513281822205,0.8130376935005188
1667267065755661000,2.1976611328125,0.25594499707221985,-0.3512371778488159,0.833195686340332
1667267065758058800,2.200058837890625,0.26694026589393616,-0.37444937229156494,0.8484668135643005
1667267065760456400,2.20245654296875,0.27854636311531067,-0.39888325333595276,0.8625163435935974
1667267065762854100,2.204854248046875,0.2901524603366852,-0.42759308218955994,0.8722898960113525
1667267065765251800,2.207251953125,0.3005368411540985,-0.4569137394428253,0.8790091872215271
1667267065767649800,2.20964990234375,0.3127537965774536,-0.4844018816947937,0.8826742768287659
1667267065770047500,2.212047607421875,0.32313820719718933,-0.5131117105484009,0.8814526200294495
1667267065772445200,2.214445068359375,0.33291175961494446,-0.5393781065940857,0.8765658140182495
1667267065774843000,2.2168427734375,0.34573954343795776,-0.5650337338447571,0.8674030900001526
1667267065777240600,2.219240478515625,0.3536805510520935,-0.5876350402832031,0.8533536195755005
1667267065779638500,2.221638427734375,0.367730051279068,-0.6084038615226746,0.8350282311439514
1667267065782036200,2.2240361328125,0.3762819170951843,-0.6285618543624878,0.8130376935005188
1667267065784434000,2.226433837890625,0.38483378291130066,-0.6462764143943787,0.7879929542541504
1667267065786831600,2.22883154296875,0.3958290219306946,-0.6560499668121338,0.7611156702041626
1667267065789229600,2.2312294921875,0.4037700295448303,-0.6639909744262695,0.7317950129508972
1667267065791627300,2.233627197265625,0.41048935055732727,-0.6713211536407471,0.7000309824943542
1667267065794025000,2.23602490234375,0.4172086715698242,-0.6749862432479858,0.6664343476295471
1667267065796422700,2.238422607421875,0.4214846193790436,-0.6743753552436829,0.629172682762146
1667267065798820400,2.2408203125,0.4220954477787018,-0.6688777208328247,0.5906893014907837
1667267065801218300,2.24321826171875,0.4220954477787018,-0.6633801460266113,0.5479300022125244
1667267065803616000,2.245615966796875,0.418430358171463,-0.652384877204895,0.5008947253227234
1667267065806013700,2.248013671875,0.4159869849681854,-0.6401679515838623,0.45324867963790894
1667267065808411400,2.250411376953125,0.41110020875930786,-0.6267293095588684,0.40071579813957214
1667267065810809000,2.25280908203125,0.40193748474121094,-0.6077930331230164,0.34757208824157715
1667267065813206800,2.255206787109375,0.3939964771270752,-0.5894675850868225,0.2907632887363434
1667267065815604700,2.257604736328125,0.3836120665073395,-0.5686988234519958,0.23151111602783203
1667267065818002400,2.26000244140625,0.37383851408958435,-0.5399889945983887,0.17286977171897888
1667267065820400000,2.262400146484375,0.36284327507019043,-0.5082249045372009,0.10995250940322876
1667267065822797800,2.2647978515625,0.34940463304519653,-0.47768256068229675,0.05131116881966591
1667267065825195500,2.267195556640625,0.3365768492221832,-0.4416425824165344,-0.007330167107284069
1667267065827593500,2.269593505859375,0.3268032968044281,-0.4080459773540497,-0.0647498071193695
1667267065829991200,2.2719912109375,0.3151971995830536,-0.367730051279068,-0.12033691257238388
1667267065832388900,2.274388916015625,0.3035911023616791,-0.3304683566093445,-0.17409147322177887
1667267065834786600,2.27678662109375,0.29442837834358215,-0.29320669174194336,-0.22479179501533508
1667267065837184500,2.2791845703125,0.284654825925827,-0.25472331047058105,-0.27060532569885254
1667267065839582200,2.281582275390625,0.2736595869064331,-0.20646637678146362,-0.312142938375473
1667267065841980000,2.28397998046875,0.2626643180847168,-0.1582094430923462,-0.34818294644355774
1667267065844377600,2.286377685546875,0.2516690790653229,-0.11178504675626755,-0.3781144618988037
1667267065846775300,2.288775390625,0.24189551174640656,-0.0647498071193695,-0.4031592011451721
1667267065849173000,2.291173095703125,0.23151111602783203,-0.01710372418165207,-0.4220954477787018
1667267065851571000,2.293571044921875,0.2211267054080963,0.025655584409832954,-0.4324798583984375
1667267065853968600,2.29596875,0.2095206081867218,0.06413896381855011,-0.43981003761291504
1667267065856366300,2.298366455078125,0.1973036676645279,0.09956810623407364,-0.4422534108161926
1667267065858764000,2.300763916015625,0.18691925704479218,0.130721315741539,-0.43858832120895386
1667267065861161700,2.30316162109375,0.17775654792785645,0.15943112969398499,-0.42759308218955994
1667267065863559700,2.3055595703125,0.16553960740566254,0.182643324136734,-0.416597843170166
1667267065865957400,2.307957275390625,0.15454435348510742,0.20341213047504425,-0.39766156673431396
1667267065868355000,2.31035498046875,0.14660334587097168,0.2211267054080963,-0.3781144618988037
1667267065870752800,2.312752685546875,0.13988402485847473,0.2357870489358902,-0.3555130958557129
1667267065873150500,2.315150390625,0.13377554714679718,0.24556060135364532,-0.33291175961494446
1667267065875548400,2.31754833984375,0.12888877093791962,0.2516690790653229,-0.30725616216659546
1667267065877946000,2.319946044921875,0.12522368133068085,0.25411245226860046,-0.28037887811660767
1667267065880343800,2.32234375,0.12339114397764206,0.25350162386894226,-0.2516690790653229
1667267065882741500,2.324741455078125,0.12155860662460327,0.2516690790653229,-0.2241809368133545
1667267065885139200,2.32713916015625,0.12094775587320328,0.24556060135364532,-0.1973036676645279
1667267065887537200,2.329537109375,0.12339114397764206,0.2339545041322708,-0.1692046970129013
1667267065889934800,2.331934814453125,0.12644538283348083,0.2217375487089157,-0.13927318155765533
1667267065892332500,2.33433251953125,0.12766708433628082,0.20646637678146362,-0.10995250940322876
1667267065894730200,2.336730224609375,0.1319430023431778,0.1844758689403534,-0.08429691940546036
1667267065897128000,2.3391279296875,0.13438639044761658,0.15943112969398499,-0.05986303091049194
1667267065899526000,2.34152587890625,0.13560809195041656,0.13316470384597778,-0.03665083646774292
1667267065901923600,2.343923583984375,0.13377554714679718,0.09956810623407364,-0.013438640162348747
1667267065904321300,2.3463212890625,0.13499724864959717,0.06658235192298889,0.007941014133393764
1667267065906719000,2.348718994140625,0.13499724864959717,0.030542362481355667,0.02626643143594265
1667267065909116700,2.35111669921875,0.13377554714679718,-0.0024433890357613564,0.04153761267662048
1667267065911514400,2.353514404296875,0.1313321590423584,-0.03665083646774292,0.051922015845775604
1667267065913912300,2.355912353515625,0.129499614238739,-0.07024743407964706,0.05986303091049194
1667267065916310000,2.35831005859375,0.129499614238739,-0.10078980028629303,0.06658235192298889
1667267065918707700,2.360707763671875,0.1301104724407196,-0.12522368133068085,0.06780404597520828
1667267065921105400,2.36310546875,0.129499614238739,-0.1447708010673523,0.06719319522380829
1667267065923503400,2.36550341796875,0.12827792763710022,-0.1582094430923462,0.06352811306715012
1667267065925901000,2.367901123046875,0.1301104724407196,-0.16798299551010132,0.056808795779943466
1667267065928298800,2.370298828125,0.13316470384597778,-0.17409147322177887,0.04886778071522713
1667267065930696400,2.372696533203125,0.13377554714679718,-0.17958909273147583,0.03542914241552353
1667267065933094100,2.37509423828125,0.13621893525123596,-0.1820324808359146,0.021990500390529633
1667267065935492000,2.3774921875,0.13866232335567474,-0.17958909273147583,0.007330167107284069
1667267065937889800,2.379889892578125,0.14110571146011353,-0.17653486132621765,-0.012827792204916477
1667267065940287500,2.38228759765625,0.1423274129629135,-0.1704263836145401,-0.03298575058579445
1667267065942685200,2.384685302734375,0.14721418917179108,-0.16004198789596558,-0.054365407675504684
1667267065945083000,2.387082763671875,0.15026842057704926,-0.14904673397541046,-0.07452336698770523
1667267065947480600,2.38948046875,0.15393351018428802,-0.13377554714679718,-0.09590301662683487
1667267065949878500,2.39187841796875,0.16004198789596558,-0.1178935244679451,-0.11422843486070633
1667267065952276200,2.394276123046875,0.16431790590286255,-0.09345962852239609,-0.13377554714679718
1667267065954674000,2.396673828125,0.16431790590286255,-0.06902574002742767,-0.15026842057704926
1667267065957071600,2.399071533203125,0.16492876410484314,-0.04703523963689804,-0.16248537600040436
1667267065959469600,2.401469482421875,0.16553960740566254,-0.026877280324697495,-0.17348061501979828
1667267065961867300,2.4038671875,0.16492876410484314,-0.009773556143045425,-0.1832541823387146
1667267065964265000,2.406264892578125,0.16492876410484314,0.0018325417768210173,-0.19302773475646973
1667267065966662700,2.40866259765625,0.16676130890846252,0.009773556143045425,-0.1979145109653473
1667267065969060400,2.411060302734375,0.16431790590286255,0.014049487188458443,-0.20341213047504425
1667267065971458300,2.413458251953125,0.16492876410484314,0.014049487188458443,-0.20646637678146362
1667267065973856000,2.41585595703125,0.1710372269153595,0.01038440316915512,-0.2113531529903412
1667267065976253700,2.418253662109375,0.17470231652259827,0.006108472589403391,-0.21685077250003815
1667267065978651400,2.4206513671875,0.17775654792785645,0,-0.21623992919921875
1667267065981049000,2.423049072265625,0.17958909273147583,-0.004886778071522713,-0.21807247400283813
1667267065983446800,2.42544677734375,0.17897824943065643,-0.008551862090826035,-0.21807247400283813
1667267065985844700,2.4278447265625,0.17592400312423706,-0.010995250195264816,-0.21868331730365753
1667267065988242400,2.430242431640625,0.1710372269153595,-0.014660334214568138,-0.21685077250003815
1667267065990640000,2.43264013671875,0.16615045070648193,-0.02076880633831024,-0.21501824259757996
1667267065993037800,2.435037841796875,0.15943112969398499,-0.03298575058579445,-0.2107423096895218
1667267065995435500,2.437435546875,0.15210096538066864,-0.04703523963689804,-0.2095206081867218
1667267065997833500,2.43983349609375,0.1429382562637329,-0.06291726976633072,-0.20646637678146362
1667267066000231200,2.442231201171875,0.1325538605451584,-0.07696675509214401,-0.20280128717422485
1667267066002628900,2.44462890625,0.12522368133068085,-0.09284878522157669,-0.19913621246814728
1667267066005026600,2.447026611328125,0.1172826737165451,-0.11056335270404816,-0.19363857805728912
1667267066007424500,2.449424560546875,0.10689827054738998,-0.11972606182098389,-0.18936264514923096
1667267066009822200,2.451822265625,0.10017894953489304,-0.12522368133068085,-0.1850867122411728
1667267066012220000,2.454219970703125,0.09345962852239609,-0.12766708433628082,-0.18081079423427582
1667267066014617600,2.45661767578125,0.08857285231351852,-0.12888877093791962,-0.17592400312423706
1667267066017015300,2.459015380859375,0.08307522535324097,-0.12339114397764206,-0.1704263836145401
1667267066019413000,2.4614130859375,0.08002099394798279,-0.11911521852016449,-0.16553960740566254
1667267066021811000,2.46381103515625,0.07574506103992462,-0.11178504675626755,-0.1582094430923462
1667267066024208600,2.466208740234375,0.07207997888326645,-0.10201149433851242,-0.15210096538066864
1667267066026606300,2.4686064453125,0.06902574002742767,-0.0922379344701767,-0.1447708010673523
1667267066029004000,2.471004150390625,0.0659715011715889,-0.0787992998957634,-0.13805148005485535
1667267066031401700,2.473401611328125,0.06352811306715012,-0.06841489672660828,-0.1319430023431778
1667267066033799700,2.475799560546875,0.05925218388438225,-0.05497625470161438,-0.12705622613430023
1667267066036197400,2.478197265625,0.05741964280605316,-0.046424392610788345,-0.12033691257238388
1667267066038595000,2.480594970703125,0.054365407675504684,-0.034818295389413834,-0.11483928561210632
1667267066040992800,2.48299267578125,0.05008947476744652,-0.022601349279284477,-0.11361759155988693
1667267066043390500,2.485390380859375,0.047646086663007736,-0.01038440316915512,-0.11117420345544815
1667267066045788400,2.487788330078125,0.04581354558467865,0.0018325417768210173,-0.11117420345544815
1667267066048186000,2.49018603515625,0.04214845970273018,0.016492875292897224,-0.10750912129878998
1667267066050583800,2.492583740234375,0.042759306728839874,0.026877280324697495,-0.10628741979598999
1667267066052981500,2.4949814453125,0.04214845970273018,0.038483377546072006,-0.1044548824429512
1667267066055379200,2.497379150390625,0.04214845970273018,0.05131116881966591,-0.10262233763933182
1667267066057777200,2.499777099609375,0.042759306728839874,0.06047387793660164,-0.10078980028629303
1667267066060174800,2.5021748046875,0.04214845970273018,0.07330167293548584,-0.10017894953489304
1667267066062572500,2.504572509765625,0.0397050715982914,0.08246438205242157,-0.10017894953489304
1667267066064970200,2.50697021484375,0.03542914241552353,0.09407047927379608,-0.10017894953489304
1667267066067368000,2.509367919921875,0.03176405653357506,0.10628741979598999,-0.10262233763933182
1667267066069766000,2.511765869140625,0.024433890357613564,0.11911521852016449,-0.1056765764951706
1667267066072163600,2.51416357421875,0.017714571207761765,0.1313321590423584,-0.11056335270404816
1667267066074561300,2.516561279296875,0.00916270911693573,0.1441599577665329,-0.11911521852016449
1667267066076959000,2.518958984375,0.0006108472589403391,0.1557660549879074,-0.12583453953266144
1667267066079356700,2.521356689453125,-0.009773556143045425,0.16615045070648193,-0.13621893525123596
1667267066081754400,2.52375439453125,-0.021990500390529633,0.17714570462703705,-0.14782503247261047
1667267066084152300,2.52615234375,-0.03298575058579445,0.18569757044315338,-0.16187451779842377
1667267066086550000,2.528550048828125,-0.04337015375494957,0.19058434665203094,-0.17775654792785645
1667267066088947700,2.53094775390625,-0.05497625470161438,0.1973036676645279,-0.19363857805728912
1667267066091345400,2.533345458984375,-0.06719319522380829,0.1985253542661667,-0.2101314514875412
1667267066093743400,2.535743408203125,-0.07574506103992462,0.20157960057258606,-0.22906772792339325
1667267066096141000,2.53814111328125,-0.08368607610464096,0.19974705576896667,-0.24372805655002594
1667267066098538800,2.540538818359375,-0.09040539711713791,0.19974705576896667,-0.2596100866794586
1667267066100936400,2.5429365234375,-0.09590301662683487,0.1966928243637085,-0.2718270421028137
1667267066103334100,2.545334228515625,-0.09895725548267365,0.19119518995285034,-0.28404396772384644
1667267066105731800,2.54773193359375,-0.10201149433851242,0.18691925704479218,-0.29626092314720154
1667267066108129800,2.5501298828125,-0.10201149433851242,0.18142163753509521,-0.30603447556495667
1667267066110527500,2.552527587890625,-0.10140064358711243,0.17409147322177887,-0.30908870697021484
1667267066112925200,2.55492529296875,-0.10017894953489304,0.16615045070648193,-0.3127537965774536
1667267066115323000,2.557322998046875,-0.09956810623407364,0.16004198789596558,-0.3164188861846924
1667267066117720600,2.559720458984375,-0.09773556143045425,0.1557660549879074,-0.3170297145843506
1667267066120118500,2.562118408203125,-0.09651386737823486,0.15026842057704926,-0.3127537965774536
1667267066122516200,2.56451611328125,-0.09407047927379608,0.14782503247261047,-0.30664533376693726
1667267066124914000,2.566913818359375,-0.0916270911693573,0.14843589067459106,-0.29687178134918213
1667267066127311600,2.5693115234375,-0.08979454636573792,0.15454435348510742,-0.2852656841278076
1667267066129709600,2.57170947265625,-0.08979454636573792,0.16065283119678497,-0.2718270421028137
1667267066132107300,2.574107177734375,-0.08735115826129913,0.16553960740566254,-0.2522799074649811
1667267066134505000,2.5765048828125,-0.08490777015686035,0.17775654792785645,-0.2363978922367096
1667267066136902700,2.578902587890625,-0.08185353130102158,0.19302773475646973,-0.21990501880645752
1667267066139300400,2.58130029296875,-0.08368607610464096,0.20768806338310242,-0.20402298867702484
1667267066141698000,2.583697998046875,-0.08368607610464096,0.2229592502117157,-0.18875180184841156
1667267066144096000,2.586095947265625,-0.08368607610464096,0.2376195788383484,-0.1710372269153595
1667267066146493700,2.58849365234375,-0.08674030750989914,0.2516690790653229,-0.1563768982887268
1667267066148891400,2.590891357421875,-0.08857285231351852,0.2632751762866974,-0.13805148005485535
1667267066151289000,2.5932890625,-0.09040539711713791,0.2730487287044525,-0.12216944992542267
1667267066153686800,2.595686767578125,-0.09345962852239609,0.27915719151496887,-0.1056765764951706
1667267066156084700,2.598084716796875,-0.09590301662683487,0.2779355049133301,-0.08796200156211853
1667267066158482400,2.600482421875,-0.09773556143045425,0.2767138183116913,-0.07085828483104706
1667267066160880000,2.602880126953125,-0.09895725548267365,0.2736595869064331,-0.05619794875383377
1667267066163277800,2.60527783203125,-0.09956810623407364,0.26816195249557495,-0.043981000781059265
1667267066165675500,2.607675537109375,-0.09895725548267365,0.25533416867256165,-0.026877280324697495
1667267066168073500,2.610073486328125,-0.09712471067905426,0.24128466844558716,-0.012216945178806782
1667267066170471200,2.61247119140625,-0.09529217332601547,0.22784602642059326,-0.0006108472589403391
1667267066172868900,2.614868896484375,-0.0910162404179573,0.21318569779396057,0.012216945178806782
1667267066175266600,2.6172666015625,-0.08674030750989914,0.19913621246814728,0.02504473738372326
1667267066177664300,2.619664306640625,-0.08185353130102158,0.18997350335121155,0.0390942245721817
1667267066180062200,2.622062255859375,-0.0781884491443634,0.18019993603229523,0.05131116881966591
1667267066182460000,2.6244599609375,-0.07330167293548584,0.16859383881092072,0.06413896381855011
1667267066184857600,2.626857666015625,-0.06841489672660828,0.15943112969398499,0.07513421028852463
1667267066187255300,2.62925537109375,-0.0659715011715889,0.15393351018428802,0.08674030750989914
1667267066189653000,2.631653076171875,-0.062306419014930725,0.14843589067459106,0.09468132257461548
1667267066192050700,2.63405078125,-0.05864133685827255,0.1429382562637329,0.10323318839073181
1667267066194448600,2.63644873046875,-0.055587101727724075,0.13560809195041656,0.11056335270404816
1667267066196846300,2.638846435546875,-0.05497625470161438,0.129499614238739,0.11422843486070633
1667267066199244000,2.641244140625,-0.0525328628718853,0.12644538283348083,0.11667182296514511
1667267066201641700,2.643641845703125,-0.05008947476744652,0.12033691257238388,0.1185043677687645
1667267066204039400,2.646039306640625,-0.04825693368911743,0.11667182296514511,0.1185043677687645
1667267066206437400,2.648437255859375,-0.04703523963689804,0.11178504675626755,0.11483928561210632
1667267066208835000,2.6508349609375,-0.043981000781059265,0.10811996459960938,0.11239589750766754
1667267066211232800,2.653232666015625,-0.04031591862440109,0.10323318839073181,0.11178504675626755
1667267066213630500,2.65563037109375,-0.037261683493852615,0.10140064358711243,0.1044548824429512
1667267066216028200,2.658028076171875,-0.03176405653357506,0.09895725548267365,0.09834641218185425
1667267066218426000,2.660426025390625,-0.02626643143594265,0.09345962852239609,0.08918370306491852
1667267066220823800,2.66282373046875,-0.01832541823387146,0.0916270911693573,0.08002099394798279
1667267066223221500,2.665221435546875,-0.012827792204916477,0.08551861345767975,0.07146912813186646
1667267066225619200,2.667619140625,-0.006719320081174374,0.08063183724880219,0.05925218388438225
1667267066228017000,2.670016845703125,0.0012216945178806782,0.07330167293548584,0.04825693368911743
1667267066230414800,2.672414794921875,0.009773556143045425,0.0659715011715889,0.03665083646774292
1667267066232812500,2.6748125,0.017714571207761765,0.05925218388438225,0.026877280324697495
1667267066235210200,2.677210205078125,0.023823043331503868,0.053143709897994995,0.014660334214568138
1667267066237608000,2.67960791015625,0.033596597611904144,0.05070032179355621,0.004275931045413017
1667267066240005600,2.682005615234375,0.042759306728839874,0.047646086663007736,-0.005497625097632408
1667267066242403300,2.6844033203125,0.05070032179355621,0.04337015375494957,-0.010995250195264816
1667267066244801300,2.68680126953125,0.05864133685827255,0.04153761267662048,-0.017714571207761765
1667267066247199000,2.689198974609375,0.062306419014930725,0.0390942245721817,-0.01954711228609085
1667267066249596700,2.6915966796875,0.06841489672660828,0.04337015375494957,-0.022601349279284477
1667267066251994400,2.693994384765625,0.06963659077882767,0.04337015375494957,-0.02504473738372326
1667267066254392300,2.696392333984375,0.07207997888326645,0.042759306728839874,-0.023823043331503868
1667267066256790000,2.6987900390625,0.07207997888326645,0.045202698558568954,-0.025655584409832954
1667267066259187700,2.701187744140625,0.07207997888326645,0.04459185153245926,-0.024433890357613564
1667267066261585400,2.70358544921875,0.07269082218408585,0.04337015375494957,-0.022601349279284477
1667267066263983000,2.705983154296875,0.07269082218408585,0.0390942245721817,-0.022601349279284477
1667267066266380800,2.708380859375,0.07269082218408585,0.03665083646774292,-0.021379653364419937
1667267066268778800,2.71077880859375,0.07391251623630524,0.03176405653357506,-0.01710372418165207
1667267066271176400,2.713176513671875,0.07757759839296341,0.02748812735080719,-0.013438640162348747
1667267066273574100,2.71557421875,0.0794101431965828,0.02076880633831024,-0.008551862090826035
1667267066275971800,2.717971923828125,0.08246438205242157,0.014049487188458443,-0.0018325417768210173
1667267066278369500,2.72036962890625,0.08674030750989914,0.009773556143045425,0.004275931045413017
1667267066280767500,2.722767578125,0.0910162404179573,0.005497625097632408,0.01588202826678753
1667267066283165200,2.725165283203125,0.09468132257461548,-0.0018325417768210173,0.023823043331503868
1667267066285563000,2.72756298828125,0.09895725548267365,-0.009773556143045425,0.03298575058579445
1667267066287960600,2.729960693359375,0.10323318839073181,-0.018936265259981155,0.045202698558568954
1667267066290358300,2.732358154296875,0.10689827054738998,-0.02993151545524597,0.05619794875383377
1667267066292756200,2.734756103515625,0.11300674080848694,-0.0390942245721817,0.06841489672660828
1667267066295154000,2.73715380859375,0.11606097966432571,-0.045202698558568954,0.08063183724880219
1667267066297551600,2.739551513671875,0.1178935244679451,-0.045202698558568954,0.09284878522157669
1667267066299949300,2.74194921875,0.12155860662460327,-0.045202698558568954,0.1050657257437706
1667267066302347000,2.744346923828125,0.12522368133068085,-0.043981000781059265,0.1172826737165451
1667267066304745000,2.746744873046875,0.12644538283348083,-0.042759306728839874,0.1313321590423584
1667267066307142700,2.749142578125,0.130721315741539,-0.03787253051996231,0.14171656966209412
1667267066309540400,2.751540283203125,0.13438639044761658,-0.03176405653357506,0.15515519678592682
1667267066311938000,2.75393798828125,0.13866232335567474,-0.02870982140302658,0.16615045070648193
1667267066314335700,2.756335693359375,0.14171656966209412,-0.023212196305394173,0.17653486132621765
1667267066316733400,2.7587333984375,0.1441599577665329,-0.014660334214568138,0.183865025639534
1667267066319131400,2.76113134765625,0.14721418917179108,-0.008551862090826035,0.19180603325366974
1667267066321529000,2.763529052734375,0.14904673397541046,-0.004886778071522713,0.19913621246814728
1667267066323926800,2.7659267578125,0.15332266688346863,0.0018325417768210173,0.20463383197784424
1667267066326324500,2.768324462890625,0.1569877415895462,0.010995250195264816,0.2107423096895218
1667267066328722400,2.770722412109375,0.16065283119678497,0.018936265259981155,0.2101314514875412
1667267066331120000,2.7731201171875,0.16370706260204315,0.02748812735080719,0.2101314514875412
1667267066333517800,2.775517822265625,0.16492876410484314,0.036039989441633224,0.20646637678146362
1667267066335915500,2.77791552734375,0.16615045070648193,0.045202698558568954,0.20219044387340546
1667267066338313200,2.780313232421875,0.16737215220928192,0.04886778071522713,0.1948602795600891
1667267066340711200,2.782711181640625,0.16492876410484314,0.05070032179355621,0.1832541823387146
1667267066343108900,2.78510888671875,0.16187451779842377,0.05375456064939499,0.17409147322177887
1667267066345506600,2.787506591796875,0.1588202863931656,0.055587101727724075,0.16004198789596558
1667267066347904300,2.789904296875,0.15393351018428802,0.05375456064939499,0.1435490995645523
1667267066350302000,2.792302001953125,0.14965757727622986,0.05008947476744652,0.12705622613430023
1667267066352699600,2.79469970703125,0.1447708010673523,0.04825693368911743,0.11056335270404816
1667267066355097600,2.79709765625,0.14110571146011353,0.04153761267662048,0.09284878522157669
1667267066357495300,2.799495361328125,0.13682979345321655,0.03542914241552353,0.07330167293548584
1667267066359893000,2.80189306640625,0.13377554714679718,0.031153209507465363,0.053143709897994995
1667267066362290700,2.804290771484375,0.13377554714679718,0.02504473738372326,0.03237490355968475
1667267066364688400,2.8066884765625,0.13316470384597778,0.018936265259981155,0.010995250195264816
1667267066367086300,2.80908642578125,0.1313321590423584,0.011606098152697086,-0.006108472589403391
1667267066369484000,2.811484130859375,0.12888877093791962,0.004886778071522713,-0.02748812735080719
1667267066371881700,2.8138818359375,0.129499614238739,-0.004275931045413017,-0.04459185153245926
1667267066374279400,2.816279541015625,0.12888877093791962,-0.012827792204916477,-0.0653606578707695
1667267066376677000,2.818677001953125,0.129499614238739,-0.023212196305394173,-0.08246438205242157
1667267066379075000,2.821074951171875,0.12827792763710022,-0.03237490355968475,-0.09834641218185425
1667267066381472800,2.82347265625,0.129499614238739,-0.042759306728839874,-0.11483928561210632
1667267066383870500,2.825870361328125,0.129499614238739,-0.05131116881966591,-0.12644538283348083
1667267066386268200,2.82826806640625,0.129499614238739,-0.06047387793660164,-0.13682979345321655
1667267066388665900,2.830665771484375,0.13438639044761658,-0.07146912813186646,-0.14110571146011353
1667267066391063600,2.8330634765625,0.13805148005485535,-0.07635590434074402,-0.1435490995645523
1667267066393461500,2.83546142578125,0.14171656966209412,-0.08368607610464096,-0.1423274129629135
1667267066395859200,2.837859130859375,0.1441599577665329,-0.09040539711713791,-0.13866232335567474
1667267066398257000,2.8402568359375,0.14660334587097168,-0.09773556143045425,-0.1325538605451584
1667267066400654600,2.842654541015625,0.15026842057704926,-0.10323318839073181,-0.12278030067682266
1667267066403052300,2.84505224609375,0.15393351018428802,-0.10934165865182877,-0.11117420345544815
1667267066405450200,2.8474501953125,0.15515519678592682,-0.1178935244679451,-0.09651386737823486
1667267066407848000,2.849847900390625,0.1563768982887268,-0.12827792763710022,-0.08002099394798279
1667267066410245600,2.85224560546875,0.1557660549879074,-0.13988402485847473,-0.06413896381855011
1667267066412643300,2.854643310546875,0.1563768982887268,-0.14721418917179108,-0.04459185153245926
1667267066415041000,2.857041015625,0.15271180868148804,-0.15515519678592682,-0.02626643143594265
1667267066417439000,2.85943896484375,0.14904673397541046,-0.16004198789596558,-0.0030542362947016954
1667267066419836700,2.861836669921875,0.1441599577665329,-0.16431790590286255,0.017714571207761765
1667267066422234400,2.864234375,0.14171656966209412,-0.1692046970129013,0.038483377546072006
1667267066424632000,2.866632080078125,0.13927318155765533,-0.17714570462703705,0.06047387793660164
1667267066427029800,2.86902978515625,0.13866232335567474,-0.183865025639534,0.08063183724880219
1667267066429427700,2.871427734375,0.13560809195041656,-0.1948602795600891,0.10017894953489304
1667267066431825400,2.873825439453125,0.13560809195041656,-0.20402298867702484,0.1178935244679451
1667267066434223000,2.87622314453125,0.13499724864959717,-0.21379654109477997,0.13438639044761658
1667267066436620800,2.878620849609375,0.13805148005485535,-0.22723518311977386,0.14965757727622986
1667267066439018500,2.8810185546875,0.13805148005485535,-0.23823043704032898,0.16126367449760437
1667267066441416200,2.883416259765625,0.13927318155765533,-0.2473931461572647,0.1704263836145401
1667267066443814100,2.885814208984375,0.13866232335567474,-0.25716668367385864,0.17958909273147583
1667267066446211800,2.8882119140625,0.13805148005485535,-0.26816195249557495,0.18630841374397278
1667267066448609500,2.890609619140625,0.13927318155765533,-0.2767138183116913,0.18936264514923096
1667267066451007200,2.89300732421875,0.13744063675403595,-0.288930743932724,0.19302773475646973
1667267066453405200,2.8954052734375,0.13805148005485535,-0.29565006494522095,0.19119518995285034
1667267066455803000,2.897802978515625,0.13499724864959717,-0.3011476993560791,0.18691925704479218
1667267066458200600,2.90020068359375,0.13377554714679718,-0.3029802441596985,0.18081079423427582
1667267066460598300,2.902598388671875,0.1301104724407196,-0.3011476993560791,0.1716480851173401
1667267066462996000,2.904995849609375,0.12583453953266144,-0.29565006494522095,0.16065283119678497
1667267066465393700,2.9073935546875,0.12461283802986145,-0.2864873707294464,0.14782503247261047
1667267066467791600,2.90979150390625,0.11972606182098389,-0.2767138183116913,0.13621893525123596
1667267066470189300,2.912189208984375,0.11667182296514511,-0.265718549489975,0.11911521852016449
1667267066472587000,2.9145869140625,0.11422843486070633,-0.25716668367385864,0.10262233763933182
1667267066474984700,2.916984619140625,0.10750912129878998,-0.2480039894580841,0.08796200156211853
1667267066477382400,2.91938232421875,0.10262233763933182,-0.237008735537529,0.07146912813186646
1667267066479780400,2.9217802734375,0.09590301662683487,-0.22784602642059326,0.053143709897994995
1667267066482178000,2.924177978515625,0.08979454636573792,-0.21501824259757996,0.03665083646774292
1667267066484575700,2.92657568359375,0.08490777015686035,-0.20219044387340546,0.021379653364419937
1667267066486973400,2.928973388671875,0.07757759839296341,-0.1850867122411728,0.006108472589403391
1667267066489371100,2.93137109375,0.07269082218408585,-0.16859383881092072,-0.006719320081174374
1667267066491769000,2.93376904296875,0.06719319522380829,-0.15087927877902985,-0.01832541823387146
1667267066494166800,2.936166748046875,0.05986303091049194,-0.13682979345321655,-0.028098974376916885
1667267066496564500,2.938564453125,0.051922015845775604,-0.12461283802986145,-0.036039989441633224
1667267066498962200,2.940962158203125,0.045202698558568954,-0.11422843486070633,-0.04459185153245926
1667267066501359900,2.94335986328125,0.038483377546072006,-0.10384403169155121,-0.05008947476744652
1667267066503757600,2.945757568359375,0.033596597611904144,-0.09284878522157669,-0.0525328628718853
1667267066506155500,2.948155517578125,0.025655584409832954,-0.08429691940546036,-0.05619794875383377
1667267066508553200,2.95055322265625,0.02076880633831024,-0.0781884491443634,-0.05864133685827255
1667267066510951000,2.952950927734375,0.01710372418165207,-0.07024743407964706,-0.06169557198882103
1667267066513348600,2.9553486328125,0.011606098152697086,-0.0647498071193695,-0.05925218388438225
1667267066515746300,2.957746337890625,0.007941014133393764,-0.05803048983216286,-0.05741964280605316
1667267066518144300,2.960144287109375,0.004275931045413017,-0.054365407675504684,-0.0525328628718853
1667267066520542000,2.9625419921875,0.0036650835536420345,-0.05131116881966591,-0.04886778071522713
1667267066522939600,2.964939697265625,0.0036650835536420345,-0.046424392610788345,-0.042759306728839874
1667267066525337300,2.96733740234375,0.0006108472589403391,-0.045202698558568954,-0.03787253051996231
1667267066527735000,2.969735107421875,0.0006108472589403391,-0.04337015375494957,-0.02993151545524597
1667267066530133000,2.972133056640625,-0.0006108472589403391,-0.04214845970273018,-0.02504473738372326
1667267066532530700,2.97453076171875,-0.0030542362947016954,-0.037261683493852615,-0.01710372418165207
1667267066534928400,2.976928466796875,-0.005497625097632408,-0.03420744836330414,-0.010995250195264816
1667267066537326000,2.979326171875,-0.006108472589403391,-0.033596597611904144,-0.004275931045413017
1667267066539723800,2.981723876953125,-0.00916270911693573,-0.02748812735080719,0.0006108472589403391
1667267066542121700,2.984121826171875,-0.007941014133393764,-0.021990500390529633,0.004886778071522713
1667267066544519400,2.98651953125,-0.00916270911693573,-0.014660334214568138,0.012216945178806782
1667267066546917000,2.988917236328125,-0.01038440316915512,-0.006108472589403391,0.017714571207761765
1667267066549314800,2.991314697265625,-0.011606098152697086,0.006719320081174374,0.025655584409832954
1667267066551712500,2.99371240234375,-0.00916270911693573,0.01954711228609085,0.03298575058579445
1667267066554110200,2.996110107421875,-0.008551862090826035,0.02993151545524597,0.0397050715982914
1667267066556508200,2.998508056640625,-0.007941014133393764,0.0397050715982914,0.04703523963689804
1667267066558905900,3.00090576171875,-0.006719320081174374,0.05131116881966591,0.05619794875383377
1667267066561303600,3.003303466796875,-0.004275931045413017,0.06047387793660164,0.0647498071193695
1667267066563701200,3.005701171875,0,0.07146912813186646,0.07391251623630524
1667267066566099200,3.00809912109375,0.005497625097632408,0.08002099394798279,0.08246438205242157
1667267066568497000,3.010496826171875,0.006108472589403391,0.08735115826129913,0.0910162404179573
1667267066570894600,3.01289453125,0.011606098152697086,0.09468132257461548,0.10078980028629303
1667267066573292300,3.015292236328125,0.017714571207761765,0.09834641218185425,0.10934165865182877
