time,seconds_elapsed,z,y,x
1667824915390389000,0.015388916015625,0.05990764847397804,-0.9009925621569156,0.012562106061726808
1667824915400397000,0.02539697265625,-0.05049216987490654,-0.8098699834689498,0.08551206359611824
1667824915410404900,0.03540478515625,-0.2349544187784195,-0.6981757413953542,0.1628719465272501
1667824915420412200,0.045412109375,-0.4385930773168802,-0.5710954218804836,0.24421253312500193
1667824915430420000,0.055419921875,-0.705350747591257,-0.38518589677810666,0.39082134538181124
1667824915440427000,0.065427001953125,-1.0546885013967753,-0.13334990130364893,0.6132219144701957
1667824915450434800,0.075434814453125,-1.2925246130913495,0.17950871814936398,0.7785565613165497
1667824915460442000,0.085442138671875,-1.5095125825464724,0.4652303243517875,0.7695075048770755
1667824915470450000,0.095449951171875,-1.5290741921067237,0.8258332762762903,0.7241735214829444
1667824915480458000,0.1054580078125,-1.3509633580565452,1.2138222477763891,0.6002757775269448
1667824915490465000,0.115465087890625,-1.0009738623440265,1.476197172921896,0.4149510300425812
1667824915500473000,0.12547314453125,-0.19784137043654917,1.5146560829147695,0.1849353097753599
1667824915510480000,0.13547998046875,1.0239444035649299,1.0315972564056515,-0.03919949922710657
1667824915520488000,0.145488037109375,2.272944347706437,0.11017740776985883,-0.35751550730317827
1667824915530495000,0.155494873046875,2.7233628873735665,0.06394435664415359,-1.131956888385862
1667824915540503000,0.1655029296875,3.4701328560680147,0.2780287136122584,-1.197644581566006
1667824915550509800,0.175509765625,3.9822038420498367,0.15549012918025254,-1.1067515738502145
1667824915560518100,0.18551806640625,3.2679163392871615,0.2874623123899102,-1.8470622834026813
1667824915570526000,0.19552587890625,1.7451088063597677,0.9308186683610081,-1.7993121057122945
1667824915580533000,0.205532958984375,-0.06049100131988525,1.9937369457036256,-0.17257004145998506
1667824915590540800,0.215540771484375,1.1217623882383108,1.3144877308353782,-0.4140967878334224
1667824915600548000,0.225548095703125,0.20617782162725926,1.5149205790698528,-0.4309748573981225
1667824915610556000,0.235555908203125,-0.01080722521841526,1.7555518744409084,-0.37638467761985955
1667824915620563000,0.24556298828125,-0.4133089984565973,1.7026956057831644,-0.4227083296384662
1667824915630571000,0.255571044921875,-0.7541501420736313,1.351234283952415,-0.5743174526669085
1667824915640579000,0.2655791015625,-0.7067226204663515,1.0126613775283098,-0.6054791913889348
1667824915650585900,0.2755859375,-0.5634639040887356,0.6762842275828123,-0.871606527870521
1667824915660594000,0.285593994140625,-0.6168365978360175,0.3933431920096278,-1.1320464663654566
1667824915670601000,0.29560107421875,-0.6453700338810682,0.31302900758385654,-1.0722620789449662
1667824915680609000,0.305609130859375,-0.3004150252044201,0.4733405655711889,-0.6464741226654499
1667824915690615800,0.31561572265625,-0.23831834225356577,0.6217413210123777,-0.23445129156187175
1667824915700624000,0.325623779296875,-0.2893184616506099,0.758514767023921,0.01525580212511122
1667824915710631000,0.335630859375,-0.14440847093462944,0.9132835961923003,0.08883417548984289
1667824915720639000,0.345638916015625,-0.09301613734960555,0.9795882522270083,0.17611768747158346
1667824915730646800,0.355646728515625,-0.037599370554089545,0.9802592833563685,0.27961854008696974
1667824915740654000,0.365654052734375,-0.005634206494688988,0.9515589663118124,0.20766155737899242
1667824915750662000,0.375661865234375,0.04973404498398304,0.8920797723829745,-0.007122974614566192
1667824915760669000,0.3856689453125,0.10122340920269489,0.7404249835819006,-0.25905140674598515
1667824915770676700,0.3956767578125,0.09384849652051926,0.7006494380325079,-0.2651823107164353
1667824915780684000,0.40568408203125,0.2698877849936485,0.7203039865732193,-0.12558701221719384
1667824915790691800,0.41569189453125,0.6704524526894092,0.6619578883275389,0.026443039637058973
1667824915800700000,0.425699951171875,0.9317717313021421,0.5555217129126191,0.17079915932994336
1667824915810707000,0.43570703125,1.098251748791337,0.5026458627715706,0.17363098522238432
1667824915820715000,0.445715087890625,1.5607605392247437,0.44072044473439453,0.15293357656523585
1667824915830721800,0.4557216796875,1.9062948090940712,0.43301966109871864,0.28643245788551863
1667824915840729900,0.465729736328125,2.246326974415779,0.4478822991877794,0.1312035369247198
1667824915850737000,0.47573681640625,1.842788259345293,-0.04467676159441471,-0.30857838485054667
1667824915860745000,0.485744873046875,1.7865800499111413,-0.6989449722021818,-0.7752012595392763
1667824915870751700,0.495751708984375,1.698751544332504,-0.7928130502060056,-0.5815270917847752
1667824915880760000,0.505760009765625,0.8764806367129087,-0.30538492257148026,-0.07630085713118315
1667824915890768100,0.51576806640625,0.07406827577352523,0.3254147341653704,0.22918401868343352
1667824915900775000,0.52577490234375,-0.5018704944849014,0.6830278566241264,0.2276015717975795
1667824915910783000,0.535782958984375,-2.695635507014394,0.747479578268528,0.3600182839043438
1667824915920790000,0.5457900390625,-1.072159860679507,0.8371385141447186,0.7044457615755498
1667824915930798000,0.555798095703125,0.7012649395823478,0.70278089710325,0.6348518547371029
1667824915940804900,0.565804931640625,0.5484323391735554,0.3000876929461956,0.08397329145520925
1667824915950813000,0.57581298828125,0.7009370228022337,0.1979299255028367,-0.1803276333168149
1667824915960821000,0.585821044921875,0.29320611673891545,0.1865332099586725,-0.33405009523741896
1667824915970828000,0.595828125,-0.36368835071921346,0.24547201340049504,-0.4269748279765248
1667824915980835800,0.6058359375,-0.788078715160489,0.3394327381238341,-0.41667526001930233
1667824915990843100,0.615843017578125,-0.8807108216285705,0.39528818859755993,-0.3319457433693111
1667824916000851000,0.625850830078125,-1.02970720487535,0.4769157937094569,-0.23019947933629153
1667824916010858000,0.63585791015625,-1.2153121940732001,0.4691062890022993,-0.25579335479810833
1667824916020865800,0.64586572265625,-1.2229226690769195,0.22336685683727264,-0.34455767992213365
1667824916030874000,0.6558740234375,-0.9945587346047162,-0.10145955604612826,-0.5388267448298633
1667824916040881000,0.665880859375,-0.7809504707157612,-0.3033881957963109,-0.6874132321015
1667824916050889000,0.675888916015625,-0.7124439207226038,-0.44148149223476646,-0.7240598319754004
1667824916060896000,0.68589599609375,-0.5814420438498258,-0.4677133733391762,-0.7001297980725765
1667824916070904000,0.695904052734375,-0.3778741124600172,-0.4388908912196755,-0.7061435054041445
1667824916080910800,0.705910888671875,-0.3734498662769794,-0.4916571435064077,-0.5981498714141548
1667824916090919000,0.7159189453125,-0.6243067875862122,-0.5424868747726083,-0.3488603455521166
1667824916100926000,0.725926025390625,-1.0094535213977098,-0.41807518994510173,-0.05934387711137533
1667824916110934000,0.73593408203125,-1.3131319323122501,-0.291306420597434,0.19328049226179717
1667824916120941800,0.74594189453125,-1.562322966235876,-0.23542700472623107,0.35318127749115225
1667824916130949000,0.75594921875,-1.7174141592264174,-0.3270806215509772,0.28416677797585727
1667824916140957000,0.76595703125,-1.7357196312457321,-0.43763592272251844,0.11366145049333572
1667824916150964000,0.7759638671875,-1.6150789893895388,-0.4803481062456965,0.009126432524621485
1667824916160971800,0.7859716796875,-1.4924731849402189,-0.44213878709971904,-0.037949499166011806
1667824916170979000,0.79597900390625,-1.3321464293837546,-0.34829496675431726,-0.06807692640423774
1667824916180987000,0.80598681640625,-1.1324719983011484,-0.27749767547547816,-0.1331996791779995
1667824916190995000,0.815994873046875,-1.1295873827755452,-0.2589271227791905,-0.2119379925891757
1667824916200998100,0.825998046875,-1.2347183208107948,-0.28744653029888867,-0.3245239228054881
1667824916211006200,0.836006103515625,-1.2849170606970786,-0.33475919335484505,-0.4086056430712342
1667824916221013000,0.846012939453125,-1.2531693387806415,-0.3601365034565329,-0.5113169527441263
1667824916231021000,0.85602099609375,-1.178467441278696,-0.4026777143269777,-0.6638070233255624
1667824916241028000,0.866028076171875,-1.0767173778533934,-0.4850447396293282,-0.7615972432091832
1667824916251036200,0.8760361328125,-0.9392074342608451,-0.5170195482999086,-0.8366913548991084
1667824916261044000,0.8860439453125,-0.7697288194775581,-0.49824967363923783,-0.9178454972803592
1667824916271051300,0.89605126953125,-0.517041175609827,-0.5177534155324102,-0.9518898057013749
1667824916281059000,0.90605908203125,-0.29011574950814245,-0.6347533627986908,-0.9983099038317799
1667824916291066000,0.916066162109375,-0.20112287632524967,-0.7092153140649199,-0.9664379710137844
1667824916301074000,0.926073974609375,-0.2995768208146095,-0.6831584972664714,-0.8097013489037752
1667824916311081200,0.936081298828125,-0.4955255093723535,-0.6401788949787617,-0.6035536301538348
1667824916321089000,0.946089111328125,-0.6143582250237465,-0.635746757750213,-0.40775341015607114
1667824916331096000,0.956095947265625,-0.5328741200357675,-0.5784978070914745,-0.33197716142088174
1667824916341104000,0.966104248046875,-0.42111645733714104,-0.5565642077028751,-0.2803530649065971
1667824916351112200,0.9761123046875,-0.407666024133563,-0.5995502397313713,-0.19235212537050245
1667824916361119000,0.986118896484375,-0.4700438621133566,-0.5678977948829531,-0.08480272801667452
1667824916371127000,0.996126953125,-0.46204468005299565,-0.5075228211581707,0.05675736774951219
1667824916381134000,1.006134033203125,-0.36352234650254245,-0.518029602125287,0.13501111251413822
1667824916391142100,1.01614208984375,-0.1580862831532955,-0.5375777676820754,0.14623568636178969
1667824916401149000,1.02614892578125,0.08922668193876743,-0.516643992985785,0.12303688934296368
1667824916411157200,1.0361572265625,0.35408640963733196,-0.5276520014733076,0.11105302156060934
1667824916421165000,1.0461650390625,0.4130699290037155,-0.5010930803716183,0.1971577720865607
1667824916431172000,1.056172119140625,0.2690659472167492,-0.3613865035176277,0.4094555378988385
1667824916441180000,1.066179931640625,0.13768588468134402,-0.20915625291615722,0.5972077682584523
1667824916451187200,1.076187255859375,0.0664227294564247,-0.12867255714237688,0.6862339591890573
1667824916461195000,1.086195068359375,-0.02070727246403694,-0.08730477396547794,0.7612950453922152
1667824916471202000,1.0962021484375,-0.08861118038892746,-0.09112287094891071,0.8362129237323999
1667824916481210000,1.106210205078125,-0.0753162300080061,-0.1406184310019016,0.8617994926705956
1667824916491217200,1.116217041015625,0.09707388830780983,-0.18127075938582418,0.8422957507774234
1667824916501225000,1.126224853515625,0.4277823449671268,-0.1386889242440462,0.8429214814603329
1667824916511233000,1.13623291015625,0.7636772643536329,-0.05068038592338562,0.8439981707811355
1667824916521240000,1.146239990234375,1.0277215840160847,0.027367607136070726,0.8148958488069474
1667824916531248000,1.156248046875,1.2778560362696647,0.11133739145994186,0.7209462299995124
1667824916541255000,1.1662548828125,1.5221365017980337,0.18222703719735145,0.6204894212551415
1667824916551263000,1.176262939453125,1.762507100406289,0.22079028434753417,0.58332259689942
1667824916561270000,1.18627001953125,1.9710978283941745,0.2276081476688385,0.5648915988042951
1667824916571278000,1.196278076171875,2.105912541553378,0.1481292450234294,0.5378273585289717
1667824916581286100,1.2062861328125,2.2030857985824346,0.1534361192598939,0.5564696612872183
1667824916591293200,1.216293212890625,2.3043203137010333,0.2551537417203188,0.5965532498724758
1667824916601301200,1.22630126953125,2.315910798251629,0.2790662399664521,0.6069786361664533
1667824916611308000,1.23630810546875,2.106970526173711,0.27272973042130466,0.5702344211369752
1667824916621316000,1.246316162109375,1.8245956000506878,0.32846272355914113,0.5683304872117936
1667824916631323100,1.2563232421875,1.670631365263462,0.39351679501086473,0.5215785267785191
1667824916641331200,1.266331298828125,1.7008020471215246,0.427793158622086,0.40946956642419097
1667824916651339000,1.276339111328125,1.9831693744599819,0.3913026260927319,0.25465514454841615
1667824916661346300,1.28634619140625,2.3586405174314975,0.3389931776627898,0.03708323772549629
1667824916671354000,1.29635400390625,2.854063150951266,0.3614858722388744,-0.25607114882618187
1667824916681361200,1.306361083984375,3.332920434117317,0.4121536909416318,-0.5148373819552362
1667824916691369000,1.316368896484375,3.4867560740888117,0.5155126508682966,-0.6206925426118075
1667824916701376300,1.326376220703125,3.35954715975821,0.5890402438938618,-0.6685789139024912
1667824916711384000,1.336384033203125,3.1143963411360978,0.6049509297311305,-0.7782740911133587
1667824916721390800,1.346390869140625,2.886677134308219,0.5759253262549638,-0.9268252148106694
1667824916731399200,1.356399169921875,2.6727538131207225,0.4756006194576621,-1.054464191121608
1667824916741407200,1.3664072265625,2.3445599696308372,0.27427462177574635,-1.2055448332965373
1667824916751414000,1.3764140625,1.7189035210013388,0.13170359540134668,-1.107239357367158
1667824916761422000,1.386422119140625,1.2251830152243375,-0.018465046495199203,-0.9078687315367162
1667824916771429000,1.39642919921875,1.0508324104905127,-0.23860183537006377,-0.9709792677052318
1667824916781437200,1.406437255859375,0.9597299978077412,-0.5310895747065544,-1.1213311572141944
1667824916791444000,1.41644384765625,0.8441238429874182,-0.8274328204274177,-1.092752420722693
1667824916801452000,1.4264521484375,0.8139455623447894,-1.0200158319443464,-1.0612500518694519
1667824916811460000,1.436460205078125,0.792957719373703,-1.111782261493802,-0.9859365983404219
1667824916821467100,1.446467041015625,0.8569979376077651,-1.1020958569988608,-0.7243208209991455
1667824916831475000,1.456474853515625,0.8656786721915006,-0.9950748674333095,-0.380439725164324
1667824916841482200,1.466482177734375,0.7278729605227708,-0.92651629499197,-0.3332148865222931
1667824916851490000,1.476489990234375,0.628422990733385,-1.0569891795545816,-0.5013451554365456
1667824916861497000,1.4864970703125,0.13495266032516956,-1.4404647652834652,-0.3262916631303727
1667824916871505000,1.4965048828125,-0.5967629471004009,-1.4843383938014507,-0.16434490515664218
1667824916881513200,1.50651318359375,-1.085420324268937,-1.3709797256469727,-0.1585237977877259
1667824916891520000,1.51652001953125,-1.3202496553629637,-1.4826128851830958,-0.3135942402511835
1667824916901528000,1.526528076171875,-1.1470698479741812,-1.5548445931792259,-0.3013704262331128
1667824916911535000,1.53653515625,-0.7948965784817934,-1.4939140313982964,-0.27692981245964765
1667824916921543200,1.546543212890625,-0.43798926620483397,-1.3119500290513038,-0.12389262938946485
1667824916931550000,1.556550048828125,-0.6426572677910327,-1.1326046847701072,0.03291004369407892
1667824916941558000,1.56655810546875,-0.5289133997112512,-1.133841533088684,-0.019310411278158426
1667824916951565000,1.57656494140625,0.8699562033802271,-1.1703694750189781,-0.1317313601911068
1667824916961573000,1.586572998046875,1.2611305269181727,-1.0491904885023833,0.08939633941724896
1667824916971581000,1.596580810546875,0.989307389947772,-0.7959703451931476,0.27939181865900753
1667824916981588200,1.606588134765625,0.9673457335084676,-0.45687341489493843,0.47410760442093014
1667824916991596000,1.616595947265625,0.8032949889928102,-0.13693126692175864,0.6771662711143493
1667824917001603000,1.62660302734375,0.5104407544314861,0.21623685882687568,0.8908888090327381
1667824917011611000,1.63661083984375,0.2575847682595253,0.5733019920140504,0.9380547570943831
1667824917021618200,1.6466181640625,0.08212649454474448,0.9832342075139283,0.9316709012761711
1667824917031626000,1.6566259765625,0.02492109076678753,1.262183835363388,0.8135702992916106
1667824917041634000,1.666634033203125,0.16998305717408657,1.2427192564368248,0.7050085100248455
1667824917051641000,1.67664111328125,0.5881733979314565,0.9037573506951332,0.4215620091475546
1667824917061649200,1.686649169921875,0.9414175115257502,0.5413222149074077,0.19353212893530725
1667824917071656000,1.696656005859375,1.1992834348142147,0.37062545650601386,0.32132264254614706
1667824917081664000,1.7066640625,1.04403032926023,0.2522469143629074,0.642947775170207
1667824917091671000,1.716671142578125,0.47842356792390345,0.02172083342075348,0.9120398797415197
1667824917101679000,1.72667919921875,-0.3586006721913814,-0.11556406924426554,1.2740198191076517
1667824917111686000,1.736685791015625,-1.2696359049350023,0.060602060478925704,1.696596119864285
1667824917121694200,1.746694091796875,-2.118729353028536,0.29581892958581446,1.965759828367084
1667824917131702300,1.756702392578125,-2.7431822710871696,0.5830459719151259,2.123176395565271
1667824917141709000,1.766708984375,-2.8930764799565076,0.9115957892358303,2.1243971695318815
1667824917151717000,1.776717041015625,-2.4852070422053334,1.1499690765470265,2.0217617015741762
1667824917161724200,1.78672412109375,-1.6683014610111713,1.2653899379283189,1.7960339608244598
1667824917171732200,1.796732177734375,-0.8655354643285273,1.2959306221425533,1.421788998647034
1667824917181739000,1.806739013671875,-0.1980313400506973,1.148482052859664,1.008202498423308
1667824917191747000,1.8167470703125,0.34429157633185387,1.0350696086913347,0.6615507688313722
1667824917201755000,1.8267548828125,0.6591080518543719,1.1132283686488866,0.2843698993325233
1667824917211761700,1.83676171875,0.8949345772922038,1.2914707201242446,-0.0085594462916255
1667824917221769700,1.846769775390625,1.0515291605830193,1.4976000264346598,-0.22977555483579634
1667824917231776800,1.85677685546875,1.1994979543477295,1.6062275744140146,-0.5075013399787247
1667824917241784800,1.866784912109375,1.3176748364388942,1.5530752454191445,-0.7264245152801275
1667824917251791600,1.87679150390625,1.3953461051404474,1.3599685022890566,-0.8902144169025122
1667824917261800000,1.886800048828125,1.441405261003971,1.120411558151245,-0.9713904788546264
1667824917271808000,1.89680810546875,1.3884972621589897,0.8547796770364046,-1.014445630596578
1667824917281814800,1.906814697265625,1.2061311087518929,0.5159767612487077,-1.0339427966184913
1667824917291822800,1.91682275390625,0.8728361427307129,0.1990647747516632,-0.9390352925643324
1667824917301830000,1.926829833984375,0.460080101981759,-0.05546352854669094,-0.8192454223185777
1667824917311838000,1.936837890625,-0.021760580909252165,-0.1979799021244049,-0.632608167463541
1667824917321844700,1.9468447265625,-0.5092185191601515,-0.26660627910494805,-0.4781742693379521
1667824917331852800,1.956852783203125,-0.7437187644302845,-0.33749475579857824,-0.4964131058618426
1667824917341860900,1.96686083984375,-0.6922030967265367,-0.4090180232644081,-0.5714058030039072
1667824917351868000,1.976867919921875,-0.5192541754841804,-0.4245440936982631,-0.6331919587008654
1667824917361875700,1.986875732421875,-0.30653380034565925,-0.46686406303346156,-0.7391998257011174
1667824917371883000,1.996883056640625,-0.14354337853789328,-0.5319610968440771,-0.9018177609346807
1667824917381890800,2.006890869140625,-0.008566168293356895,-0.6060439856648445,-1.0568014018975198
1667824917391897900,2.01689794921875,0.08955810585021973,-0.7207663433879613,-1.1473892891868949
1667824917401905700,2.02690576171875,0.0696083737552166,-0.8399339900821446,-1.1040171804502605
1667824917411913000,2.036912841796875,-0.031927754658460615,-0.86825349111557,-1.0219912236705422
1667824917421920800,2.046920654296875,-0.0842652601391077,-0.8824509432941675,-1.004521910214424
1667824917431928800,2.0569287109375,-0.1746697536855936,-0.9013485359877348,-1.0317650141879915
1667824917441936000,2.066935791015625,-0.20968729105293749,-0.8255144195854663,-1.0549188030213117
1667824917451944000,2.07694384765625,-0.053988779819011685,-0.6943821943312883,-1.2083575526297092
1667824917461950700,2.08695068359375,0.02896072154641151,-0.720520844194293,-1.351710523162037
1667824917471958800,2.096958740234375,0.09978256274461746,-0.9034066375613212,-1.4507206402294337
1667824917481965800,2.1069658203125,0.014088146585226058,-1.109001690864563,-1.4429782094091177
1667824917491974000,2.116973876953125,-0.11286825428903102,-1.1739596084654331,-1.2912727133341133
1667824917501981700,2.126981689453125,-0.28002514812648294,-1.1882961768537759,-1.064437157472968
1667824917511989000,2.136989013671875,-0.4870394205778837,-1.1472434509754181,-0.8483141342841088
1667824917521996800,2.146996826171875,-0.7827595659643412,-1.0390537098914385,-0.5452656918361782
1667824917532003800,2.15700390625,-1.0784574995189904,-0.8328899167895316,-0.17052520122677087
1667824917542011600,2.16701171875,-1.3646458464503288,-0.59657823818326,0.13733429476469755
1667824917552019000,2.17701904296875,-1.4677104996055363,-0.3507330075562,0.2501549105197191
1667824917562026800,2.18702685546875,-1.365824242579937,-0.20797113478481769,0.1322884095519781
1667824917572034800,2.197034912109375,-1.2469359973490237,-0.21319383786916732,-0.06153963358998298
1667824917582041900,2.207041748046875,-1.0964625272870063,-0.29741233625710006,-0.1770528494298458
1667824917592050000,2.2170498046875,-0.9553221182376146,-0.4209557138174772,-0.2189981402337551
1667824917602056700,2.227056640625,-0.7681932804733514,-0.4395546158254146,-0.2739079804204404
1667824917612064800,2.237064697265625,-0.5679921951681375,-0.32100597781240936,-0.18473273640796542
1667824917622071800,2.24707177734375,-0.4826829789340496,-0.21892565951943396,0.033385552251338955
1667824917632080000,2.257079833984375,-0.6903109993696213,-0.2171983973354101,0.34370778509452937
1667824917642088000,2.267087890625,-1.125887359213829,-0.3233177618861198,0.6740459471367299
1667824917652094700,2.2770947265625,-1.5878572204649448,-0.421655386519432,1.0669340888552368
1667824917662103000,2.28710302734375,-2.0464409464091062,-0.40772506084442134,1.4756089977703988
1667824917672109800,2.29710986328125,-2.2929864342600106,-0.3191504130735993,1.7731424761891363
1667824917682118000,2.307117919921875,-2.284019283950329,-0.3217480283513665,1.9031280156262218
1667824917692125000,2.317125,-1.9724030657738445,-0.44737639549225566,1.8508122835859655
1667824917702133000,2.327133056640625,-1.4448475104123353,-0.5946887711748481,1.6600025653518735
1667824917712140800,2.337140869140625,-0.8037935861647129,-0.7137535420164466,1.3646971382461488
1667824917722147800,2.34714794921875,-0.14290975680947304,-0.8417693888157606,0.9775181679546833
1667824917732156000,2.357156005859375,0.5106780703186988,-0.8549319449886679,0.6346499024242163
1667824917742163000,2.367162841796875,1.1193459747463463,-0.8020616478055715,0.2797568525791168
1667824917752170800,2.377170654296875,1.7287164744853973,-0.7281760351225733,-0.010145400308817625
1667824917762178000,2.387177978515625,2.2507108885884284,-0.5785276177078486,-0.17729323405697942
1667824917772185900,2.397185791015625,2.5643875464260577,-0.418210799023509,-0.30873847078308464
1667824917782193000,2.40719287109375,2.674181800097227,-0.31212007604539393,-0.361398047824949
1667824917792200700,2.41720068359375,2.614566412568092,-0.2855459573745727,-0.357185106305033
1667824917802209000,2.427208984375,2.405335633111,-0.2581891638934612,-0.38968247754499313
1667824917812215800,2.4372158203125,2.08140236967504,-0.23481588709056375,-0.3540910858124494
1667824917822224000,2.447223876953125,1.8544179068624973,-0.2607125448912382,-0.31131212066337466
1667824917832231000,2.45723095703125,1.7770406526714562,-0.3465028226405382,-0.33302564756050707
1667824917842239000,2.467239013671875,1.7685270913481712,-0.3988888434380293,-0.35060981956794857
1667824917852246800,2.477246826171875,1.768182223433256,-0.4609235670685768,-0.4795385434284806
1667824917862253800,2.48725390625,1.811903291738033,-0.530305146330595,-0.6092772684976459
1667824917872262000,2.497261962890625,1.7779858245670794,-0.6075801091909409,-0.6661693685427308
1667824917882269000,2.50726904296875,1.751824378350377,-0.7725801172554493,-0.6475554150961339
1667824917892276700,2.51727685546875,1.6826432900965214,-1.022655532798171,-0.7184732640147209
1667824917902284000,2.527283935546875,1.5130226364940405,-1.2374077060252426,-0.749887223932147
1667824917912291800,2.537291748046875,1.4145529099136591,-1.091618009865284,-0.6053326225250959
1667824917922299000,2.547298828125,1.314168874144554,-0.8910276329815388,-0.49628407265469426
1667824917932306700,2.557306640625,1.1920973227024079,-0.8684054668068886,-0.45372941778078674
1667824917942314800,2.567314697265625,1.0270412005364895,-0.8521335464417934,-0.2958246286742389
1667824917952321800,2.57732177734375,0.8616858031630515,-0.7068366022348403,0.021587416299432515
1667824917962329900,2.587329833984375,0.6220347510010004,-0.5256786555737256,0.2792875545669347
1667824917972337000,2.5973369140625,0.2779705536842346,-0.3881675429373979,0.42960050030499697
1667824917982345000,2.607344970703125,-0.08609890530705451,-0.32088147464990613,0.5296344074621796
1667824917992351700,2.617351806640625,-0.5199216994822025,-0.28345804518461226,0.6514522764042019
1667824918002359800,2.62735986328125,-0.9763970549702644,-0.16108137331604958,0.9617045127511024
1667824918012367600,2.63736767578125,-1.3611936601698398,-0.03423135542571545,1.335131874935329
1667824918022375000,2.647375,-1.6164783347934484,0.029567455267906186,1.6969553085654974
1667824918032382700,2.6573828125,-1.527020182186365,0.08945990617275237,1.9761843378782271
1667824918042389800,2.6673896484375,-1.1512333973944187,0.06745616415739059,2.141916459609568
1667824918052397800,2.677397705078125,-0.7073755314171314,0.035054362246394154,2.2451734204664824
1667824918062404900,2.68740478515625,-0.29994565412700175,0.1791308247476816,2.4330621366873384
1667824918072412700,2.69741259765625,0.013313070559501648,0.4412631733089685,2.5724285218015313
1667824918082420700,2.707420654296875,0.21472703878581523,0.7244698740810156,2.4857725671336053
1667824918092427800,2.717427734375,0.3812187467128038,0.9676742348104714,2.2520982512935994
1667824918102435800,2.727435791015625,0.531558361262083,1.095398112925887,1.953129040983319
1667824918112442600,2.737442626953125,0.6551660362303257,1.0886123983085154,1.7204343838304281
1667824918122451000,2.747450927734375,0.5796738651335239,1.0419149445414542,1.6314134535968303
1667824918132457700,2.757457763671875,0.271017081284523,0.8785983595192431,1.6684347320020199
1667824918142465800,2.7674658203125,-0.09121580992937088,0.7423743640840054,1.8072867378532886
1667824918152473900,2.777473876953125,-0.4756926816552877,0.8658633811086416,1.9896151895985006
1667824918162481000,2.78748095703125,-0.7704244005262851,1.0342179602980612,2.1156465845823287
1667824918172489000,2.797489013671875,-0.9810475111246109,1.0924836867839098,2.2028674796566365
1667824918182495700,2.807495849609375,-1.1977975801706313,1.1240431926518677,2.306982810908556
1667824918192503800,2.81750390625,-1.2455448352515697,1.2626380088716744,2.424970600168407
1667824918202514200,2.82751416015625,-1.0132307018488644,1.49791683729887,2.397880933190882
1667824918212522200,2.837522216796875,-0.570052050307393,1.6775480127841234,2.1821122763976453
1667824918222530000,2.847530029296875,-0.09591887305378913,1.7210171521544455,1.8371756801605224
1667824918232537300,2.857537353515625,0.3462929792821407,1.7264076130211352,1.5357909331411121
1667824918242545200,2.867545166015625,0.7046995902061463,1.7240742016375064,1.272890522816777
1667824918252552200,2.87755224609375,0.9957353771686553,1.6424124019950628,0.9794988203778863
1667824918262560300,2.887560302734375,1.2088140642255545,1.6387649854034185,0.7224783349376172
1667824918272567300,2.8975673828125,1.3324772687733173,1.759226179039478,0.43753830756694073
1667824918282575000,2.9075751953125,1.389948045489192,1.9412796132355927,0.15545527706257997
1667824918292583200,2.917583251953125,1.4729174205988644,2.105076675251126,-0.03833937526643276
1667824918302590200,2.927590087890625,1.6506687736868857,2.1892098334431647,-0.2499421445518732
1667824918312598300,2.937598388671875,1.868155924835801,2.210238592946529,-0.5454549307979643
1667824918322605000,2.94760498046875,2.0251532437086106,2.1056839934945106,-0.8275048627503215
1667824918332613000,2.957613037109375,2.1549369769632816,1.9032699083149431,-1.0467850347958505
1667824918342620200,2.9676201171875,2.1450006893604994,1.6609429149419068,-1.2565807546593248
1667824918352628200,2.977628173828125,2.078349411845207,1.3765315145552157,-1.4005955501012504
1667824918362636000,2.987635986328125,1.9615356348007915,0.9993319403558969,-1.5116064860858023
1667824918372643300,2.997643310546875,1.7252438299387693,0.6343266618192196,-1.562920493737608
1667824918382651100,3.007651123046875,1.3529828811854123,0.4349626118600368,-1.5910067705370485
1667824918392658200,3.017658203125,0.8867237983077764,0.28002514812648294,-1.5430252683088181
1667824918402666000,3.027666015625,0.4255348583012819,0.13184066578447817,-1.4810409596912562
1667824918412673300,3.03767333984375,-0.007635609444975853,0.047721536117792125,-1.471095027477294
1667824918422681000,3.04768115234375,-0.4123673336923122,0.0164390936255455,-1.5194761965475976
1667824918432689200,3.057689208984375,-0.7613537898421288,-0.09024141193926334,-1.612465299759805
1667824918442696200,3.0676962890625,-0.9532488190948962,-0.2584486916124821,-1.6913026896312833
1667824918452704300,3.077704345703125,-1.0426584563851355,-0.3856891701251268,-1.7617001679375768
1667824918462711000,3.0877109375,-1.0983721603006125,-0.54985974162817,-1.8406698058865962
1667824918472719000,3.097718994140625,-1.1668062295794486,-0.8314119531914591,-1.9096195696026086
1667824918482726100,3.10772607421875,-1.2137275552302598,-1.1806935928955673,-1.930178373506665
1667824918492734200,3.117734130859375,-1.2457926725327968,-1.5533192833080887,-1.9332842305675149
1667824918502742000,3.127741943359375,-1.4514268888026476,-1.9268918991819024,-1.9122692073285579
1667824918512749300,3.137749267578125,-1.5004460635155439,-2.072019624301791,-1.7638981163732705
1667824918522757000,3.147757080078125,-1.6365011321246623,-2.177565572878718,-1.6039783341825007
1667824918532764200,3.15776416015625,-1.7915888179838657,-2.233902377128601,-1.4305997893512248
1667824918542772000,3.16777197265625,-2.1610954995930194,-2.276378121547401,-1.2021858782574533
1667824918552779300,3.177779296875,-2.567490773138404,-2.3089392056733367,-0.9326993675410747
1667824918562787000,3.187787109375,-2.93652633010447,-2.325740995131433,-0.7559507617548108
1667824918572795100,3.197795166015625,-3.1420956644445655,-2.3710914182037115,-0.6741629976451396
1667824918582802200,3.20780224609375,-3.270134599858522,-2.343150687354803,-0.6426280416965484
1667824918592810200,3.217810302734375,-3.241609931641817,-2.2071289364933966,-0.5944511630266904
1667824918602817000,3.227817138671875,-3.066826780709624,-2.032219236572087,-0.5494453156083822
1667824918612825000,3.2378251953125,-2.7872295026063916,-1.8194491770729422,-0.4924328040540218
1667824918622832000,3.24783203125,-2.6104531320303677,-1.6121470275908707,-0.44678690516650676
1667824918632840200,3.257840087890625,-2.5028800615400075,-1.3962620509415864,-0.4427471282564103
1667824918642848300,3.26784814453125,-2.3215274690896273,-1.1490277040436863,-0.4062432978540659
1667824918652855000,3.27785498046875,-2.0856296319812535,-0.8793143988341092,-0.2860607750289142
1667824918662863400,3.28786328125,-1.8762550601392984,-0.566025571270287,-0.1545648310288787
1667824918672870100,3.2978701171875,-1.7305898671418427,-0.2251671842575073,-0.034928397779166696
1667824918682878200,3.307878173828125,-1.5402800612539052,0.08511281687915324,0.019924597653746604
1667824918692886000,3.317885986328125,-1.1508721628665923,0.3427200892314315,0.06476911703050137
1667824918702893300,3.327893310546875,-0.6052163026690482,0.5404784575596452,0.05684899155572056
1667824918712901000,3.337901123046875,-0.06477671581506729,0.6828232739627361,-0.02920987400189042
1667824918722908200,3.347908203125,0.44654783571362494,0.8058733150482177,-0.09243892198354005
1667824918732916200,3.357916259765625,0.7663724947869778,0.8523404671907424,-0.14598872586339712
1667824918742923300,3.36792333984375,0.9389660267204045,0.8568167358219623,-0.08833513992652296
1667824918752931000,3.37793115234375,0.9927835416257381,0.8367264262124896,-0.014454495679587126
1667824918762938400,3.3879384765625,1.033606550401449,0.8232339074328541,0.054541591396182774
1667824918772946200,3.3979462890625,1.0045102197766302,0.802245187678933,0.10995821206122636
1667824918782954200,3.407954345703125,0.8998276100307703,0.780954562368989,0.18483400482535361
1667824918792961000,3.4179609375,0.7773410480469465,0.6591138970732688,0.368102806160599
1667824918802969300,3.42796923828125,0.6315127734422683,0.4211474369972944,0.5794339188978076
1667824918812976000,3.43797607421875,0.4207300883680582,0.18418226291835307,0.7963378633312881
1667824918822984200,3.447984130859375,0.15395838956832886,0.03765723822116852,1.0781579320505261
1667824918832991200,3.4579912109375,-0.039512510699033734,-0.05081657952368259,1.323755325396359
1667824918842999300,3.467999267578125,-0.21808219443261623,-0.1431222305163741,1.4256088491961358
1667824918853007000,3.478007080078125,-0.3877718216180801,-0.14412088616490362,1.5446495085097849
1667824918863014100,3.48801416015625,-0.3572480885386467,0.012872633315622805,1.615523079895228
1667824918873022000,3.49802197265625,-0.062010173711180686,0.2126677681684494,1.4710688701227306
1667824918883029200,3.508029296875,0.4253057257205248,0.3519765778765082,1.1837027115836738
1667824918893037000,3.518037109375,0.9835878432571887,0.43240357502698895,0.9105455495305359
1667824918903045000,3.528045166015625,1.591053386157751,0.4550070365011692,0.6083411566913127
1667824918913052200,3.53805224609375,2.0822101789265868,0.42189504049420357,0.31580504816845056
1667824918923060200,3.548060302734375,2.4756781663596628,0.3693722415745258,0.11652940714508295
1667824918933067000,3.55806689453125,2.7535347382754085,0.35247838991880415,-0.027446517591178415
1667824918943075000,3.568074951171875,2.9000837283700704,0.3002501900315285,-0.1775759965211153
1667824918953082000,3.57808203125,2.79788182952404,0.23557518102526664,-0.27302871336787937
1667824918963090200,3.588090087890625,2.4884780267000197,0.21456191135197877,-0.19069179094284772
1667824918973098200,3.59809814453125,2.0925661532461644,0.19117080663144587,-0.14889657613411544
1667824918983105300,3.608105224609375,1.6915701083958148,0.11892594689279794,-0.14760770536735654
1667824918993113300,3.61811328125,1.3237421736538408,0.0782718649432063,-0.06683423286676407
1667824919003120000,3.6281201171875,1.032752563920617,0.07173457212895154,-0.023479221395403146
1667824919013128200,3.638128173828125,0.7342331432044505,0.025711948883533477,-0.03566752570867538
1667824919023135200,3.64813525390625,0.489905331403017,-0.062113926346600054,-0.0727550012178719
1667824919033143300,3.658143310546875,0.45695115630626676,-0.1005558852046728,-0.14702128378152846
1667824919043151000,3.668151123046875,0.6056991177499293,-0.17621289147436617,-0.24504502016007898
1667824919053158400,3.678158447265625,0.6233493407309055,-0.34941900234818457,-0.425858245036751
1667824919063166200,3.688166259765625,0.6824567787379026,-0.5528863959729671,-0.5182549353137612
1667824919073173000,3.698173095703125,0.7319242817401885,-0.7831652241557836,-0.6384279596582054
1667824919083181000,3.70818115234375,0.6461801812201738,-0.9005565088272094,-0.7093690433219075
1667824919093188000,3.71818798828125,0.4741933830082416,-0.9244488410681485,-0.7101093402951956
1667824919103196200,3.728196044921875,0.18871289208531378,-0.9386398635059594,-0.6517129731670022
1667824919113204200,3.738204345703125,-0.1681248620867729,-1.0027128149658442,-0.5751717314086854
1667824919123211300,3.748211181640625,-0.5027285726189613,-1.0684557454645633,-0.45093291893005366
1667824919133219300,3.75821923828125,-0.6608142712503672,-1.1786895595967768,-0.3222435567833483
1667824919143226000,3.76822607421875,-0.5762322002470494,-1.3098884203463792,-0.21861396322175858
1667824919153234200,3.778234130859375,-0.44090252330303187,-1.4278192187219858,-0.1405371824592352
1667824919163241200,3.7882412109375,-0.3840688754469156,-1.5320283657371996,-0.009925766208767891
1667824919173249300,3.798249267578125,-0.4403472275078296,-1.6074585775136947,0.13847338179722427
1667824919183257000,3.808257080078125,-0.5421820466071366,-1.642618738222122,0.297148570754379
1667824919193264000,3.81826416015625,-0.7150853751420975,-1.5666750239655374,0.49843613612204785
1667824919203269600,3.82826953125,-0.9676759883761406,-1.433041045023501,0.6904303879655898
1667824919213277000,3.83827685546875,-1.27411626521945,-1.223054186502099,0.9322074923709034
1667824919223284700,3.84828466796875,-1.4846131190896033,-1.0506646527081727,1.1255201333366334
1667824919233291800,3.858291748046875,-1.4781032988041638,-0.9722457805097102,1.2772504715919495
1667824919243299800,3.8682998046875,-1.2115642397165298,-0.9460779045522213,1.4110318961806594
1667824919253308000,3.878307861328125,-0.852013134932518,-0.8142045055419206,1.494161430288106
1667824919263314700,3.888314697265625,-0.5281564438641071,-0.5883399866700172,1.5139854901768266
1667824919273322800,3.89832275390625,-0.23318624006211755,-0.30051907010078427,1.4767374172784387
1667824919283329800,3.908329833984375,0.11418985828161239,0.01676759492754936,1.3747783872775732
1667824919293337900,3.918337890625,0.4558165993183851,0.34604689556658264,1.2583639848142862
1667824919303344600,3.9283447265625,0.7502958047330379,0.7038707381665706,1.1392169425167142
1667824919313352700,3.938352783203125,1.0669447563797234,1.0284311935901642,0.9873375511795282
1667824919323360800,3.94836083984375,1.3227315353065727,1.2529834608197212,0.8656082373037933
1667824919333367800,3.958367919921875,1.5055845954477787,1.4673767376065254,0.8328608368255197
1667824919343375600,3.968375732421875,1.6778215690284966,1.6078730035334825,0.7936058810841292
1667824919353383000,3.9783828125,1.8368021706730127,1.6234516809374093,0.7158724338665604
1667824919363390700,3.988390625,1.9396260008096693,1.5237825154393911,0.6071130762010812
1667824919373398800,3.998398681640625,1.9486790758371353,1.3643436486333609,0.5217472344089299
1667824919383405600,4.008405517578125,1.8405635690331459,1.1678384952366352,0.5016095054611563
1667824919393414000,4.018413818359375,1.5770324595898388,1.0206231501877308,0.5192708343580364
1667824919403420700,4.028420654296875,1.1615104612588882,1.0013643229663372,0.6608893823131918
1667824919413428700,4.0384287109375,0.6439917312651873,1.099331360721588,0.9421054937899113
1667824919423435800,4.048435791015625,0.17057283976078033,1.2401175495058296,1.2232331963308154
1667824919433443800,4.05844384765625,-0.18540858984291553,1.3187024259209632,1.43109371034801
1667824919443452000,4.068451904296875,-0.4349064977586269,1.2676923696517943,1.5127235074169934
1667824919453458700,4.078458740234375,-0.597668956029415,1.1537363201260566,1.5522631983838975
1667824919463467000,4.088467041015625,-0.5773936452418565,1.0069418308377265,1.5238387756712735
1667824919473473800,4.098473876953125,-0.5518558838814497,0.8879980560272932,1.4136558149434626
1667824919483481900,4.10848193359375,-0.5545353322237729,0.8248223456680774,1.2888364260978995
1667824919493489000,4.118489013671875,-0.6011860242396593,0.8483516898155212,1.161871549656242
1667824919503497000,4.1284970703125,-0.6241928058177232,0.9417676401376723,1.0007520362868905
1667824919513504800,4.1385048828125,-0.5538233845621348,1.0066793805092573,0.7482686828196048
1667824919523511800,4.14851171875,-0.34417467195391654,0.9996703785300254,0.5095471665926278
1667824919533520000,4.158519775390625,-0.04511164588034153,0.982263316655159,0.31118586393520237
1667824919543527000,4.16852685546875,0.27463994795680047,0.9560019171953201,0.10473507058545946
1667824919553534700,4.17853466796875,0.5484954675376414,0.905092983213067,-0.09692147422507405
1667824919563542800,4.188542724609375,0.7548334481626748,0.871342104780674,-0.241758838096261
1667824919573549800,4.1985498046875,0.8807856404304504,0.8489408878803253,-0.2984410947829485
1667824919583558000,4.208557861328125,0.893522372406721,0.8408978666782378,-0.34549729885980485
1667824919593564700,4.218564697265625,0.7623299413979053,0.8653332197546958,-0.4401180949270725
1667824919603572700,4.22857275390625,0.6855956612855195,0.9425129055470227,-0.5158120722062886
1667824919613579800,4.238579833984375,0.6046691901803016,0.9740367555797099,-0.5692388342283666
1667824919623587800,4.248587890625,0.598937368530035,0.9583815058082341,-0.6335105231307446
1667824919633595600,4.258595703125,0.5851479126304387,0.8842115232259035,-0.7356003399044275
1667824919643603000,4.26860302734375,0.5420645577073097,0.7727560583442449,-0.8417921851694583
1667824919653610800,4.27861083984375,0.5131693026125431,0.6581365764737129,-0.8544923845276235
1667824919663617800,4.28861767578125,0.472689408186078,0.6351648662090301,-0.7933001030705868
1667824919673625600,4.29862548828125,0.3649672846138477,0.6393471203297376,-0.7910561235360801
1667824919683633000,4.3086328125,0.21750001063048838,0.6149515147417783,-0.8420135728351771
1667824919693640700,4.318640625,0.08129179728627205,0.5472679715692996,-0.9482559792436659
1667824919703648800,4.328648681640625,-0.001650105294585228,0.46782735510766504,-1.061246252477169
1667824919713655800,4.33865576171875,-0.07268588150441646,0.38844168370366094,-1.0789188334204256
1667824919723664000,4.348663818359375,-0.08957330341935157,0.3314654125064611,-1.0568060780726372
1667824919733670700,4.358670654296875,-0.1167471415489912,0.24759061298966406,-1.1563258982278406
1667824919743678700,4.3686787109375,-0.08702595702409743,0.11753449253439903,-1.3437377907171844
1667824919753685800,4.378685791015625,0.002364391043782234,-0.023030162453651425,-1.4657861074142158
1667824919763693800,4.38869384765625,0.07951718882918357,-0.21653730307817456,-1.5303016880750655
1667824919773702000,4.398701904296875,-0.009797171393036841,-0.5227466937750578,-1.5648305651426315
1667824919783709000,4.408708984375,-0.26891163343787194,-0.8057663475424051,-1.4812376513071357
1667824919793717000,4.418717041015625,-0.7012666931480169,-1.1276000083506106,-1.2863282426692544
1667824919803723800,4.428723876953125,-1.1103303091198204,-1.391055714470148,-1.0269798257380722
1667824919813731800,4.43873193359375,-1.521244521394372,-1.4742881244301795,-0.7925432933539152
1667824919823739000,4.44873876953125,-1.8980553885370492,-1.4145850586175919,-0.5737624491326511
1667824919833746700,4.45874658203125,-2.187139456909895,-1.245833589065075,-0.3878203369349241
1667824919843754800,4.468754638671875,-2.359956276205182,-1.0078130607143043,-0.2707125453799963
1667824919853761800,4.47876171875,-2.195436745133996,-0.774372845891118,-0.22117504588142037
1667824919863769900,4.488769775390625,-1.8495517621308564,-0.5167322557911277,-0.21412483510896563
1667824919873776600,4.498776611328125,-1.4326947158038614,-0.3203910607844591,-0.34212460755631324
1667824919883784700,4.50878466796875,-0.9627624973714352,-0.22664251750707626,-0.49456762412562966
1667824919893792800,4.518792724609375,-0.5217360554277897,-0.25641104830503464,-0.7042661672249436
1667824919903799800,4.5287998046875,-0.24377017791867256,-0.4448109289184212,-1.0956289990723131
1667824919913808000,4.538807861328125,-0.047239305558800695,-0.6870590118363499,-1.4991222675658762
1667824919923814700,4.548814697265625,0.05507482149004936,-0.8718407019525766,-1.725145630261302
1667824919933823000,4.558822998046875,0.118267482984066,-0.9062927143916487,-1.6028760720290243
1667824919943829800,4.568829833984375,0.17174480614960191,-0.9623147536039351,-1.229200288041681
1667824919953837800,4.578837890625,-0.10305179367363453,-1.190295241716504,-0.8051372558586299
1667824919963845600,4.588845703125,-0.8057628404110669,-1.5134236185103653,-0.3060236588664353
1667824919973853000,4.59885302734375,-1.7712421955257653,-1.742639201375842,0.24425679239183662
1667824919983860700,4.60886083984375,-2.788316713321209,-1.7907763325572013,0.7956289844095706
1667824919993867800,4.61886767578125,-3.7606934267342087,-1.6761846154764293,1.4282402206130325
1667824920003875800,4.628875732421875,-4.379487588378787,-1.4270552486121653,1.9547582496203482
1667824920013883000,4.6388828125,-4.430775292545556,-0.9611480479121207,2.3567111568041144
1667824920023890700,4.648890625,-3.784980895772576,-0.40799978613257404,2.4377123005807397
1667824920033898000,4.65889794921875,-2.7253186976164576,-0.0797773010700941,2.0964459172889587
1667824920043905800,4.66890576171875,-1.5225877526968716,-0.062229661680758,1.620529656010866
1667824920053913900,4.678913818359375,-0.3323351810783148,-0.3719254331886768,1.1147779361784458
1667824920063920600,4.688920654296875,0.7048024660587311,-0.6181453423470258,0.7318732822053134
1667824920073929000,4.698928955078125,1.6174316899955272,-0.651509851810336,0.4601163423389196
1667824920083935700,4.708935791015625,2.305962820211053,-0.6152382227286696,0.17654270795062182
1667824920093943800,4.71894384765625,2.749216290554404,-0.5406310177728534,-0.06924129400849342
1667824920103951600,4.72895166015625,3.009282354235649,-0.4136874763801694,-0.12437924386262893
1667824920113959000,4.738958984375,2.9887825870424507,-0.3281912131413817,-0.09773469030410051
1667824920123966700,4.748966796875,2.6901293108135462,-0.3668020988255739,-0.10420958540663122
1667824920133973800,4.758973876953125,2.2921885618805886,-0.36726883955448864,-0.06498977404385804
1667824920143981600,4.768981689453125,1.8665268623292446,-0.3094143242180347,0.035737960596382616
1667824920153988900,4.77898876953125,1.5678034434735775,-0.20795564495474098,0.19329861244037747
1667824920163996700,4.78899658203125,1.442332312721014,-0.0793769035756588,0.2542943484120071
1667824920174004700,4.799004638671875,1.426910287183523,-0.03946867155730724,0.18704262078553438
1667824920184011800,4.80901171875,1.4629448926389217,-0.008542202895879744,0.11726926572695374
1667824920194019800,4.819019775390625,1.4973738164633512,0.028804654201865194,-0.011715572234988212
1667824920204025300,4.829025390625,1.553253524595499,0.02179915935397148,-0.1936107471294701
1667824920214033400,4.839033447265625,1.6107102727860212,-0.0373965414583683,-0.29389556030780073
1667824920224040200,4.849040283203125,1.5650836631208658,-0.20688860024511813,-0.4010683794341981
1667824920234048300,4.85904833984375,1.4580723181664943,-0.35452012487947937,-0.4388138804607093
1667824920244056300,4.869056396484375,1.389537711122632,-0.39033611914813515,-0.38168607196360826
1667824920254063400,4.8790634765625,1.3739607872843742,-0.40130408788621424,-0.39381504730507727
1667824920264071200,4.8890712890625,1.3706202446848152,-0.48208735112845896,-0.5020891056716442
1667824920274078500,4.899078369140625,1.3243471538096665,-0.5773708488881588,-0.5407765637233853
1667824920284086300,4.909086181640625,1.2685071931660175,-0.6134925481051207,-0.49899830004945395
1667824920294093300,4.91909326171875,1.2487696425169705,-0.6534042872548103,-0.5321224248856306
1667824920304101000,4.92910107421875,1.2194979553252459,-0.6999357368052005,-0.5352601383894682
1667824920314109400,4.939109375,1.1028858383327722,-0.7378536717891693,-0.5029311094537378
1667824920324116200,4.9491162109375,1.0306699124276637,-0.767045279482007,-0.41807124442234633
1667824920334124300,4.959124267578125,0.9401315633684396,-0.8431856853544711,-0.29316856120750306
1667824920344131300,4.96913134765625,0.7339256846904754,-0.9299486075282096,-0.0737177087701857
1667824920354139400,4.979139404296875,0.4425847773015499,-0.9747054486215114,0.2080839475095272
1667824920364146200,4.989146240234375,0.018771920487284658,-0.9851227977395057,0.5235979037769138
1667824920374154200,4.999154296875,-0.471993827137351,-0.9673439799427985,0.8426790510065854
1667824920384162300,5.009162353515625,-0.9350234265744686,-0.9250994139313697,1.1716238589942454
1667824920394169300,5.01916943359375,-1.2264590265095232,-0.7422334943085909,1.5207830413624643
1667824920404177400,5.029177490234375,-1.3163076397389173,-0.5215840797364711,1.7850377889052031
1667824920414184400,5.039184326171875,-1.1755857483625411,-0.30646950293779374,1.9665213142588733
1667824920424192500,5.049192626953125,-0.8870505460441112,-0.13235095339417458,1.9998909382887184
1667824920434200300,5.059200439453125,-0.49062663141489027,-0.0006008885025978088,1.9070479655489325
1667824920444207400,5.069207275390625,-0.05253975005447864,0.1131745437592268,1.7917362636305392
1667824920454215200,5.079215087890625,0.366757090640068,0.3447778985440731,1.7122652520306407
1667824920464222500,5.089222412109375,0.7584452089190483,0.6728636054843664,1.639943527663499
1667824920474230300,5.099230224609375,1.1034428876936435,1.0416863964825869,1.4818378091573714
1667824920484237300,5.1092373046875,1.4289566983193158,1.3365315126001833,1.278086922416091
1667824920494245400,5.119245361328125,1.6931722828954456,1.43461837734282,1.0533327028736472
1667824920504253400,5.12925341796875,1.844410892111063,1.3863088122040033,0.8949043282844126
1667824920514260200,5.13926025390625,1.8374889838933943,1.2520277675300835,0.8208895362637937
1667824920524268300,5.149268310546875,1.6249989103794098,1.1392997984945774,0.8658572436287999
1667824920534275300,5.159275390625,1.2487228807657957,1.1119272229224442,0.9773904499217867
1667824920544283400,5.169283447265625,0.8511369366198778,1.162543895959854,1.1304410769954323
1667824920554290200,5.179290283203125,0.4543669850319624,1.234219723638892,1.278459847381711
1667824920564298500,5.189298583984375,0.08404080373346805,1.3074556402415036,1.4134100234888494
1667824920574306300,5.199306396484375,-0.24415070166885852,1.3999392781496047,1.5266384893923997
1667824920584313300,5.209313232421875,-0.6050444532334804,1.4598533563643694,1.6224093322776256
1667824920594321200,5.219321044921875,-0.8093664178609847,1.483647488927841,1.6802254152998328
1667824920604328400,5.229328369140625,-0.828847947922349,1.4869161353349685,1.601651498670131
1667824920614336300,5.239336181640625,-0.6505033051162957,1.4743296254843472,1.4156405590198933
1667824920624343300,5.24934326171875,-0.4305710989028215,1.4386071547180412,1.1020103706724942
1667824920634351400,5.259351318359375,-0.25768296793699264,1.4102332931488752,0.7388792154446244
1667824920644359400,5.269359375,-0.05083996039927006,1.4467273328095673,0.3506229713104665
1667824920654366200,5.2793662109375,0.2758914093226194,1.5089058488249778,-0.07674465537592769
1667824920664374300,5.289374267578125,0.6285486629396677,1.5142723442941903,-0.48990752336010335
1667824920674381300,5.29938134765625,0.9969511826992035,1.4760948815912007,-0.8046024183295667
1667824920684389400,5.309389404296875,1.2760340815395117,1.3075228602588176,-1.0253960636779664
1667824920694396200,5.319396240234375,1.464706641614437,1.0931418584316968,-1.164420211225748
1667824920704404500,5.329404541015625,1.5592314299613237,0.9298726196825504,-1.2953946155697107
1667824920714412500,5.33941259765625,1.5285066213518381,0.7945195618629455,-1.3885443161711095
1667824920724419300,5.34941943359375,1.2606465427935123,0.6463648901373148,-1.3922414171233772
1667824920734427100,5.35942724609375,0.8285890047252178,0.5402396803677082,-1.300956195219606
1667824920744434400,5.369434326171875,0.37843291538655754,0.4522001623868942,-1.2707647628344594
1667824920754442200,5.379442138671875,0.028671383211016654,0.3048188131213188,-1.2921069722011684
1667824920764449300,5.38944921875,-0.21573650808930395,0.10870295130312442,-1.273329937147349
1667824920774457300,5.399457275390625,-0.4602034361004829,-0.07412175952643156,-1.2627686495140193
1667824920784465400,5.40946533203125,-0.7456622997134924,-0.2557715813577175,-1.2335893167808651
1667824920794472200,5.41947216796875,-0.9515835162311792,-0.3407622331619263,-1.1301739504918455
1667824920804480300,5.429480224609375,-1.0000053095728159,-0.42728374779522416,-1.0428449188679456
1667824920814487300,5.4394873046875,-0.9103443278700113,-0.5677163008362055,-0.9984355760380625
1667824920824495400,5.449495361328125,-0.7520406025737524,-0.6990767818883061,-1.0355850108675657
1667824920834502100,5.459502197265625,-0.6216840378671884,-0.7902613198965788,-1.124606087231636
1667824920844510200,5.46951025390625,-0.5420534517914056,-0.7937836488038301,-1.1880652907073497
1667824920854518500,5.4795185546875,-0.545213961648941,-0.7786191051587462,-1.2089167939476668
1667824920864525300,5.489525390625,-0.6127689100056887,-0.9221566384777427,-1.2151765849947929
1667824920874533400,5.499533447265625,-0.6405202557623386,-1.1777876423209905,-1.2724015702560543
1667824920884540400,5.50954052734375,-0.7820961336195469,-1.4706167424410581,-1.3720292346999048
1667824920894548500,5.519548583984375,-0.7423989140033721,-1.547351022553444,-1.3067235265746713
1667824920904556300,5.529556396484375,-0.694589699602127,-1.5719430274963377,-1.1873106729477643
1667824920914563300,5.539563232421875,-0.9637216977924108,-1.6795158057257533,-1.1088359789088367
1667824920924571400,5.5495712890625,-1.4053262318849562,-1.8092942782834172,-1.0256830639258026
1667824920934578400,5.559578369140625,-1.7316922754257917,-1.7714041080892085,-0.6931395007938146
1667824920944586200,5.569586181640625,-2.077853737282753,-1.6911285021081566,-0.4119683975026011
1667824920954593500,5.579593505859375,-2.3233073382437226,-1.6556322413131594,-0.21737813781648874
1667824920964601300,5.589601318359375,-2.468462243631482,-1.4531705175995826,0.1321048696786165
1667824920974609400,5.599609375,-2.456047583216429,-1.1107339214846492,0.4845370823681354
1667824920984616200,5.6096162109375,-2.275366606417298,-0.7223235097020864,0.605405103239417
1667824920994624300,5.619624267578125,-1.9350912799894808,-0.3636567865371704,0.5288111083805561
1667824921004631300,5.62963134765625,-1.4038362855881452,-0.10418079770356416,0.3626785891547799
1667824921014639400,5.639639404296875,-0.8029565508186817,0.01987199068367481,0.25432854294255375
1667824921024646400,5.649646484375,-0.3076069825351238,-0.03901186770051718,0.10109934443160891
1667824921034654500,5.659654541015625,0.04908464116454124,-0.31891309718638655,-0.19537790293246507
1667824921044662300,5.669662353515625,0.4091828584372997,-0.6388990843012928,-0.4424026987329125
1667824921054669300,5.67966943359375,0.8228402319401502,-0.8730103302538395,-0.46859015617370603
1667824921064677000,5.689677001953125,1.100961592271924,-0.9553732639029622,-0.3059872723788023
1667824921074684400,5.699684326171875,1.1223843195289374,-0.8479401864051819,0.023666414530575275
1667824921084692200,5.709692138671875,0.9058014237433671,-0.6652481620445847,0.4316828595370054
1667824921094699300,5.71969921875,0.40774318102300167,-0.4831231239169836,0.8531251878276467
1667824921104707300,5.729707275390625,-0.3196919726043939,-0.2735883930772543,1.295154523203522
1667824921114715400,5.73971533203125,-1.2082009007632732,-0.02690261997282505,1.7234025859862565
1667824921124722200,5.74972216796875,-1.9338509245395659,0.31342706699073314,2.0810396738424894
1667824921134730200,5.759730224609375,-2.177578432360291,0.5702607246220112,2.2766943478897215
1667824921144737300,5.7697373046875,-1.9971943926811218,0.6286901172369718,2.119787922170758
1667824921154745300,5.779745361328125,-1.3075719600975513,0.5318219806343317,1.7861521798878908
1667824921164752100,5.789752197265625,-0.29072599036097524,0.28765783496201036,1.3765183628126978
1667824921174760400,5.799760498046875,0.8146995955824852,-0.04033931691199541,0.9416973513804375
1667824921184768500,5.8097685546875,1.8652496820002793,-0.3718058984622359,0.6281770531482994
1667824921194775300,5.819775390625,2.7012439945459366,-0.5805339890941977,0.42550066377073525
1667824921204784600,5.82978466796875,3.2260178102344272,-0.6553630201071501,0.32765520656853914
1667824921214791400,5.83979150390625,3.455157989776134,-0.7471738733202219,0.2173112100601196
1667824921224799700,5.8497998046875,3.3982430933773515,-0.8994050007045269,0.10801891456171869
1667824921234806500,5.859806640625,3.044506812351942,-1.0620569843381642,0.0874031197734177
1667824921244814600,5.869814697265625,2.5209055475741624,-1.1651955795124171,0.09029869508445262
1667824921254822400,5.879822509765625,1.9031898288160563,-1.2384846876069904,0.10278642073571681
1667824921264829700,5.88982958984375,1.2154372817575931,-1.2212529822990297,0.19517025153115392
1667824921274837500,5.89983740234375,0.6485048247754573,-1.0788076281309127,0.326512174013257
1667824921284844500,5.909844482421875,0.2386567804276943,-0.8585463360935449,0.4127130783900618
1667824921294852600,5.9198525390625,0.014881342789530754,-0.6968541374027729,0.40986178061217066
1667824921304860700,5.929860595703125,-0.18383622595965862,-0.658041299405694,0.31232129770591854
1667824921314867500,5.939867431640625,-0.25130875672996045,-0.6445978804647922,0.2202639223858714
1667824921324875500,5.94987548828125,-0.1424707808703184,-0.6483481729090214,0.08557181269302963
1667824921334882600,5.959882568359375,0.054039633223414416,-0.710514998486638,-0.07950944391414523
1667824921344890600,5.969890625,0.18260288477241993,-0.9119827427268028,-0.2799778018534183
1667824921354897400,5.9798974609375,0.2675269010812044,-1.0085124411553144,-0.39696810450851916
1667824921364905500,5.989905517578125,0.23943302549719808,-0.9602706805557012,-0.3984247330576181
1667824921374913500,5.99991357421875,0.23373101446330546,-0.8997469460099935,-0.39817894160300493
1667824921384920600,6.009920654296875,0.292304199463129,-0.895975026255846,-0.5169903222054243
1667824921394928400,6.019928466796875,0.41584757702350617,-0.9965344185918569,-0.7215089784488081
1667824921404935700,6.029935791015625,0.42978842409253115,-1.1454203272014856,-0.8322329141855239
1667824921414943500,6.039943603515625,0.38517829799354075,-1.2772598239421844,-0.7620667604170739
1667824921424950500,6.049950439453125,0.33460546409785746,-1.3207587739288806,-0.47655192883312697
1667824921434958300,6.059958251953125,0.18890695335268973,-1.303693072837591,-0.030915947267413136
1667824921444966700,6.069966552734375,0.02491875267922878,-1.3657777730897067,0.39848566946461794
1667824921454973400,6.079973388671875,-0.14597791220843792,-1.4338362870544195,0.7384276722848415
1667824921464981500,6.0899814453125,-0.43623862314522266,-1.4121230524182318,1.111341093597561
1667824921474988500,6.099988525390625,-0.7408411631673574,-1.2056038700073957,1.493017374819517
1667824921484996600,6.10999658203125,-0.9462678741663694,-0.8942267212837934,1.8087623633638024
1667824921495003400,6.12000341796875,-1.0336696787655353,-0.5682146057471633,2.0828338637828825
1667824921505011500,6.130011474609375,-0.9871528422623872,-0.20411329031288622,2.3372189592182635
1667824921515019800,6.140019775390625,-0.8660954362988471,0.14656944836080074,2.481592358839512
1667824921525026600,6.150026611328125,-0.5416588995158672,0.5008069569066167,2.512491354972124
1667824921535034600,6.16003466796875,-0.027709260180592537,0.7592772758290172,2.4254583836853505
1667824921545041700,6.170041748046875,0.5728501565933227,0.897362388961017,2.212099710643291
1667824921555049700,6.1800498046875,1.206643734449148,1.001198611010611,1.9247835287258028
1667824921565056500,6.190056396484375,1.8469430409371852,1.0904252929493785,1.6485015126504003
1667824921575064600,6.200064697265625,2.332324757435918,1.1181059115573764,1.3962588360711932
1667824921585072600,6.21007275390625,2.6076164472997188,1.1070979030698538,1.2026125792369247
1667824921595079400,6.220079345703125,2.6826912697672842,1.1075313260510564,1.1284732840538023
1667824921605087500,6.23008740234375,2.4952602341860532,1.150751166835427,1.1113374403357505
1667824921615094500,6.240094482421875,2.0587252584427596,1.1814303827375172,1.0968499191693961
1667824921625102600,6.2501025390625,1.5239286459118127,1.187885550226271,1.1244616372596472
1667824921635109400,6.260109375,0.9272691591858864,1.292689448264241,1.208176570039615
1667824921645117400,6.270117431640625,0.38297406594753264,1.5078122083693741,1.3645355179436505
1667824921655125500,6.28012548828125,-0.042187867388129234,1.7116133639931679,1.474644536652416
1667824921665132500,6.290132568359375,-0.2669944016396999,1.8174132873311637,1.520447379667312
1667824921675140600,6.300140625,-0.34231355425715443,1.7412994772046804,1.4532928288049995
1667824921685147600,6.310147705078125,-0.3144569945603609,1.4862129555016754,1.2683739221751689
1667824921695155700,6.32015576171875,-0.21982465418577193,1.2016554246425628,1.0188222382456065
1667824921705162500,6.33016259765625,-0.18635083912909028,1.0472855316638945,0.8419020752847194
1667824921715170600,6.340170654296875,-0.18219781110286712,1.0544242975026368,0.7670194143883884
1667824921725178400,6.350178466796875,-0.2582984694868326,1.104713930542767,0.6147871179603039
1667824921735185700,6.360185546875,-0.33586393972635264,1.1232786380201578,0.415055257602036
1667824921745193500,6.370193359375,-0.4370148682147264,1.1792407637387514,0.208048876196146
1667824921755200500,6.380200439453125,-0.4669879816740751,1.2665052056938408,0.07248144497349858
1667824921765208600,6.39020849609375,-0.4062403752446174,1.3207757250636816,-0.10199366292282938
1667824921775215600,6.400215576171875,-0.2447095045953989,1.2804033826649188,-0.3092892365336418
1667824921785223400,6.410223388671875,-0.018337620723247527,1.1211156147673726,-0.5673170723855495
1667824921795231500,6.4202314453125,0.18259236337840556,0.9537792727097868,-0.7939085903577506
1667824921805238500,6.430238525390625,0.35883506546914573,0.811609520612657,-0.9683961193442344
1667824921815246600,6.44024658203125,0.39629181268215175,0.7221046062543988,-1.0834617375470696
1667824921825253400,6.45025341796875,0.35397067430317397,0.6677835257411002,-1.1858739181429148
1667824921835261700,6.46026171875,0.3136807494908571,0.6184416949450969,-1.3422268016323446
1667824921845268500,6.4702685546875,0.26707681922614573,0.5350935496509075,-1.4773784916609525
1667824921855276500,6.480276611328125,0.18899404711425302,0.4298196960136294,-1.4820828699596225
1667824921865284400,6.490284423828125,0.048178632235527034,0.3190753020107746,-1.468397605086863
1667824921875291600,6.500291748046875,-0.11485445967018604,0.1733683156982064,-1.5015446724072097
1667824921885299500,6.510299560546875,-0.22804946169555185,-0.0020066636472940444,-1.5526932603642343
1667824921895306500,6.520306396484375,-0.2575496969461441,-0.19861352385282516,-1.6051729507945478
1667824921905314600,6.530314453125,-0.3288566913127899,-0.4561787106290459,-1.6595108363121747
1667824921915321600,6.540321533203125,-0.3521101411283016,-0.6963955799803138,-1.6856220136463642
1667824921925329400,6.550329345703125,-0.3035322804421186,-0.8264519926965236,-1.693380664949119
1667824921935337500,6.56033740234375,-0.18341244758963585,-0.8788806835919618,-1.670261216776818
1667824921945344500,6.570344482421875,-0.09008125294148922,-0.925212518917024,-1.5996644165061413
1667824921955352600,6.5803525390625,-0.17042320215702056,-1.0331997231662273,-1.5414251396358012
1667824921965359400,6.590359375,-0.363635159227252,-1.1231894984319806,-1.4829399251803754
1667824921975367400,6.600367431640625,-0.8638578865051268,-1.2673919254004955,-1.3665619092047214
1667824921985375700,6.610375732421875,-1.2289870836824177,-1.4107216611877083,-1.1089910233400762
1667824921995382500,6.620382568359375,-1.5882774917036293,-1.4664707286775112,-0.907643398348242
1667824922005390600,6.630390625,-2.0313614506989714,-1.5176757229968905,-0.7516518955171108
1667824922015397600,6.640397705078125,-2.2611960422456265,-1.4612801742970942,-0.5758927391596138
1667824922025405700,6.65040576171875,-2.3339117343664166,-1.3815207011446355,-0.466632007843256
1667824922035412500,6.66041259765625,-2.320166702130437,-1.2823361042931676,-0.42334523930251594
1667824922045420500,6.670420654296875,-2.2304133659690617,-1.1077899769872426,-0.3584041267059743
1667824922055428600,6.6804287109375,-2.088690773117542,-0.8627101777747272,-0.24846403482332824
1667824922065435600,6.690435546875,-1.9291969612538813,-0.6345873585820198,-0.15141045865118502
1667824922075443500,6.700443359375,-1.7300731497913597,-0.4121852551236748,-0.09788067464604973
1667824922085450800,6.71045068359375,-1.5412211414963006,-0.16758213351219892,-0.02742050636708736
1667824922095458600,6.72045849609375,-1.2827093215197325,0.0899123261153698,0.05392901245579123
1667824922105465600,6.730465576171875,-0.955617886313796,0.35593496011346576,0.1409396257802844
1667824922115473400,6.740473388671875,-0.5978513268589973,0.5637976660877466,0.18561667963564396
1667824922125481700,6.750481689453125,-0.22328677733838556,0.7123506894811987,0.18248305778503418
1667824922135488500,6.760488525390625,0.13526713310182092,0.7738932456806301,0.13766798369847238
1667824922145496600,6.77049658203125,0.5560831461876631,0.7829191404402256,0.07582564083486795
1667824922155503600,6.780503662109375,0.9511889639556408,0.7104439790770412,-0.0282936359398067
1667824922165511700,6.79051171875,1.269004036772251,0.5498389911010861,-0.16173961802907288
1667824922175518500,6.8005185546875,1.4154419677078722,0.4066641536146402,-0.2240796082165092
1667824922185526500,6.810526611328125,1.3532441624701022,0.3849173089697957,-0.20002244080267845
1667824922195534600,6.82053466796875,1.2095879712074995,0.45047757637798785,0.056046735262125724
1667824922205540600,6.83054052734375,0.8749076883077621,0.41975306002944707,0.3674210344415158
1667824922215548700,6.840548583984375,0.26941841391623017,0.28047347641587256,0.6821627642273902
1667824922225555700,6.8505556640625,-0.5319447302311658,-0.00805441937893629,1.0101415767271071
1667824922235563800,6.860563720703125,-1.205836509719491,-0.2748793096706271,1.3157619885548948
1667824922245570600,6.870570556640625,-1.7392852147728204,-0.4570575392901897,1.4981011078245936
1667824922255579000,6.880578857421875,-2.0877216358244417,-0.5246195019096136,1.723698354062438
1667824922265586700,6.890586669921875,-2.055432062116265,-0.5186252299308777,1.9461115634366868
1667824922275593700,6.90059375,-1.648445252418518,-0.5372545270770788,1.9632780945539474
1667824922285601500,6.9106015625,-0.9388286640763283,-0.5979203004419803,1.714817859122902
1667824922295608800,6.92060888671875,-0.11962006663680076,-0.6840460937559604,1.3494145211793482
1667824922305616600,6.93061669921875,0.7168348491579294,-0.7159186110958456,1.028865054962784
1667824922315623700,6.940623779296875,1.4095277752280235,-0.7529264454975724,0.7190124123927205
1667824922325631700,6.9506318359375,1.977344613829255,-0.8341971999958157,0.39052565037086606
1667824922335639800,6.960639892578125,2.4203625218510627,-0.9574626373976468,0.03130041654035449
1667824922345646600,6.970646484375,2.694106982272863,-0.974073872719705,-0.14410408116057513
1667824922355654700,6.980654541015625,2.7686802849590775,-0.9453697562828659,-0.21990429529324174
1667824922365661700,6.99066162109375,2.5357073953866958,-0.9250897693201899,-0.3714834615748375
1667824922375669800,7.000669677734375,2.2019705308169124,-0.8400567396789789,-0.4086951479855925
1667824922385676500,7.010676513671875,1.88964294950068,-0.7497904855594039,-0.35965953359454866
1667824922395684600,7.0206845703125,1.5566811609566211,-0.7279583007186651,-0.4000204778164625
1667824922405693000,7.03069287109375,1.3419079449415205,-0.7228542555779218,-0.4583458255350589
1667824922415699700,7.04069970703125,1.1908575517743825,-0.7444260359168052,-0.524267181340605
1667824922425707800,7.050707763671875,1.0982149239122867,-0.7628092493474483,-0.5897247190266848
1667824922435714800,7.06071484375,1.0310971979290247,-0.7990081054538488,-0.6589014233663678
1667824922445723000,7.070722900390625,0.8746417308479547,-0.8530915778189897,-0.7595420642450451
1667824922455729700,7.080729736328125,0.7350549809813499,-0.8553571846634149,-0.7983462805442512
1667824922465737700,7.09073779296875,0.6792325559943914,-0.8617173673450946,-0.8420929216817021
1667824922475745800,7.100745849609375,0.6739958243846893,-0.9519920970320701,-0.9799472947977482
1667824922485752800,7.1107529296875,0.7109060436308383,-1.0973965932667256,-1.123441281235963
1667824922495760600,7.1207607421875,0.728133657285571,-1.2396449635580182,-1.1791132649015634
1667824922505768000,7.130767822265625,0.5574994427263736,-1.357373809620738,-1.2099006904184817
1667824922515775700,7.140775634765625,0.3662397887676954,-1.4253276941671966,-1.1313258239407091
1667824922525782800,7.15078271484375,0.15916531056165695,-1.4184984326690435,-0.9605148645751178
1667824922535790600,7.16079052734375,-0.06477963842451571,-1.379237266382575,-0.773898360247165
1667824922545798700,7.170798583984375,-0.3205260853409767,-1.3773393238067626,-0.6189864693462849
1667824922555805700,7.1808056640625,-0.6779957076758146,-1.3839216248065231,-0.38983927554190156
1667824922565813800,7.190813720703125,-1.0611287635773419,-1.2738216661870478,-0.07730944965183735
1667824922575820800,7.20082080078125,-1.477386674967408,-1.064030622498691,0.2780821242999285
1667824922585828900,7.210828857421875,-1.9033663544267414,-0.8269502976074814,0.6249650322992354
1667824922595835600,7.220835693359375,-2.203898284009099,-0.570223899742961,0.9708635323710739
1667824922605843700,7.23084375,-2.310620875149965,-0.36883565047979355,1.3317334646686911
1667824922615851500,7.2408515625,-2.22284439201951,-0.250919757412374,1.6350008105643092
1667824922625858800,7.25085888671875,-1.8763982680022715,-0.14878390953987836,1.9230955756388604
1667824922635866600,7.26086669921875,-1.4350865793764591,-0.12551029371917247,2.1803284617207943
1667824922645873700,7.270873779296875,-1.0440776755332946,-0.15645809742957353,2.3702777637332675
1667824922655881700,7.2808818359375,-0.7166670913755894,-0.14639789118617771,2.5433222543045875
1667824922665888800,7.290888671875,-0.4474748874306679,0.01618161173313856,2.725023514062166
1667824922675896600,7.300896484375,-0.17066694778501987,0.2871463783085346,2.8443215091377496
1667824922685904600,7.310904541015625,0.11268822154700756,0.5413637159615755,2.864946071754396
1667824922695911700,7.32091162109375,0.4496843801736831,0.8167416228041052,2.7623466980233786
1667824922705919700,7.330919677734375,0.8428004854291677,1.104329607400298,2.588938050314784
1667824922715926500,7.340926513671875,1.2283756737858056,1.4179916521906852,2.3994763856887817
1667824922725934800,7.350934814453125,1.5988573379069566,1.6985004921808837,2.1852904680423437
1667824922735941600,7.360941650390625,1.9355232416659593,1.861326371076703,1.9404738498106597
1667824922745949700,7.37094970703125,2.2011294038176534,1.9008374204710126,1.6799501054897903
1667824922755957500,7.38095751953125,2.3654513664901256,1.8262071269005535,1.442478589323908
1667824922765964800,7.39096484375,2.397570844328403,1.714102842721343,1.1652389802627265
1667824922775972600,7.40097265625,2.354377599290013,1.6546411844491957,0.957535118111968
1667824922785979600,7.410979736328125,2.191713340696692,1.628155913105607,0.8973542056545615
1667824922795987700,7.42098779296875,1.8377520187437533,1.6492831645473838,0.9843041748329997
1667824922805994800,7.430994873046875,1.379306239965558,1.7477739339157938,1.1247343897864222
1667824922816002600,7.44100244140625,0.9234639216840267,1.8279282516047357,1.2516950284443795
1667824922826010600,7.4510107421875,0.5892804823905229,1.8172312087625264,1.3482397783115505
1667824922836017700,7.461017578125,0.2920265515655279,1.7665514073610304,1.2917830009438096
1667824922846025700,7.471025634765625,0.09337503378987312,1.7285034162566064,1.1849232663545757
1667824922856032500,7.481032470703125,0.05170622183978557,1.7319561870589852,1.0979849876139312
1667824922866040800,7.491040771484375,0.15588731180429458,1.7611963100686667,0.987920392568782
1667824922876049000,7.501048828125,0.4132569760084152,1.77257665899992,0.6934064811669289
1667824922886055700,7.5110556640625,0.7274374917149543,1.6932254743874071,0.2551781455092132
1667824922896063700,7.521063720703125,0.9967974534422158,1.5592796530172228,-0.10652261158935725
1667824922906070800,7.53107080078125,1.2806868757814167,1.497984057316184,-0.34991306947544215
1667824922916078800,7.541078857421875,1.6197902358204126,1.5151210700780153,-0.5785059173326939
1667824922926085600,7.551085693359375,1.9492180050194263,1.4296198384031653,-0.824840904238075
1667824922936093700,7.56109375,2.1014929715454578,1.215933540841937,-1.1081566183425486
1667824922946101800,7.571101806640625,2.069390444841981,0.9523907409608363,-1.2939517232850193
1667824922956108800,7.58110888671875,1.954201638650894,0.6599579466819763,-1.3873676736071705
1667824922966116600,7.59111669921875,1.7307915271937846,0.38621523982584477,-1.4840695137321949
1667824922976124000,7.6011240234375,1.4284557630598544,0.17616291485279797,-1.542368411835283
1667824922986131700,7.611131591796875,1.0334358700096606,0.0569052517876029,-1.5355793362170458
1667824922996138800,7.621138671875,0.5082528889983892,0.028695640869438648,-1.483545928249508
1667824923006146600,7.631146484375,0.040341947260499,-0.013815174862742424,-1.3232915072768925
1667824923016155000,7.64115478515625,-0.27068390380740165,-0.0738864894658327,-1.1801935344189405
1667824923026161700,7.65116162109375,-0.44025078139603135,-0.14778350032567977,-1.148436314021796
1667824923036169700,7.661169677734375,-0.4352952048152685,-0.2697109671220183,-1.1024681974425912
1667824923046176800,7.6711767578125,-0.47800914190411564,-0.452996865722537,-1.1129676718860864
1667824923056184800,7.681184814453125,-0.5811819316089153,-0.5936489067330956,-1.0874372170493005
1667824923066191600,7.691191650390625,-0.7441974878579378,-0.7201826982811093,-1.0234361617818475
1667824923076199700,7.70119970703125,-0.9921773924261331,-0.8642784500047564,-0.9876467632591723
1667824923086207700,7.711207763671875,-1.3031044592946768,-0.9369713457718492,-1.0231205199614166
1667824923096214800,7.72121484375,-1.6445985138624906,-1.0218360331088303,-1.0459349938377738
1667824923106222600,7.73122265625,-1.9775117870897054,-1.0780559329807757,-0.9747459267623722
1667824923116230000,7.74122998046875,-2.109941066417098,-1.095200252266228,-0.9064550653465092
1667824923126237700,7.75123779296875,-2.159842869183421,-1.0762740180000663,-0.8919963318832218
1667824923136244700,7.76124462890625,-2.0745681397408244,-1.0600111577242612,-0.8208329837709665
1667824923146252500,7.77125244140625,-1.8999644370287656,-1.108425060020387,-0.7829739393673837
1667824923156260600,7.781260498046875,-1.7670494200110434,-1.2414543510675429,-0.7214180852949619
1667824923166267600,7.791267578125,-1.753219632101059,-1.3857169837906955,-0.6418829224176704
1667824923176275700,7.801275634765625,-1.831377807536721,-1.4354600888639688,-0.5013429634794593
1667824923186282800,7.81128271484375,-1.8376310227125883,-1.3009393902152775,-0.25848566262200473
1667824923196290800,7.821290771484375,-1.8204115923643112,-1.080401619324088,-0.04257087535634636
1667824923206297900,7.8312978515625,-1.7775228832304477,-0.82354925699234,0.052874681097269054
1667824923216306000,7.841305908203125,-1.6663538340747355,-0.5792819432064891,0.0938596024364233
1667824923226314000,7.85131396484375,-1.3203309039056301,-0.31840310183763504,0.07409048760533332
1667824923236321000,7.861321044921875,-0.8523369600594043,-0.10591595093309879,-0.06666822865009307
1667824923246329000,7.8713291015625,-0.35006840616762636,0.08596563431620598,-0.2349364447303116
1667824923256336000,7.8813359375,0.19968495247662066,0.265328806515038,-0.4080198060072958
1667824923266344200,7.89134423828125,0.6762064861714839,0.37320085995197294,-0.6443572035767138
1667824923276351000,7.90135107421875,0.9708972885102033,0.37919834680110215,-0.9055163231916725
1667824923286359000,7.911359130859375,1.089678566235304,0.34498218894451854,-1.082778723718971
1667824923296366800,7.921366943359375,1.1027625042140483,0.2644350725457072,-1.1458163407817483
1667824923306374100,7.9313740234375,1.0045084662109613,0.11859393845945596,-1.1585395556893199
1667824923316382000,7.9413818359375,0.8993956483542919,-0.044812955194711686,-1.0857179189760238
1667824923326389000,7.951388916015625,0.9487170208841562,-0.11078180340379476,-0.7554786872636526
1667824923336397000,7.96139697265625,0.9330342985838651,-0.1311947690963745,-0.23023257788829504
1667824923346404000,7.971404052734375,0.4886351653367281,-0.31256577398627994,0.1743356994256377
1667824923356412000,7.981411865234375,-0.28597148931026456,-0.5345025980204343,0.5954137244485318
1667824923366420000,7.991419921875,-1.0996937642931937,-0.5159527958512306,1.1634520968459545
1667824923376427000,8.001427001953125,-2.078280438262224,-0.21546295184493064,1.7804614209003746
1667824923386435000,8.01143505859375,-2.9885592996805905,0.2131640272527933,2.2390178204461932
1667824923396441900,8.02144189453125,-3.3950808299541473,0.6165419988036155,2.505711485573649
1667824923406450000,8.031449951171876,-3.243081173238158,0.779335728995502,2.421400632727146
1667824923416457000,8.04145703125,-2.471974051144719,0.6415162810623646,1.9325994631737469
1667824923426465000,8.051465087890625,-1.2609282823443413,0.2936313564136624,1.1901499880269168
1667824923436472800,8.061472900390624,-0.09394903428554534,0.015441314759850501,0.4221393706440925
1667824923446480100,8.071480224609376,0.9100251789182424,-0.13185790918022394,-0.16487608942389487
1667824923456488000,8.081488037109375,1.7035077989488838,-0.24059184014350174,-0.556740587183088
1667824923466495000,8.091494873046875,2.2367770557820794,-0.31394144625365733,-0.8759382003992795
1667824923476502800,8.101502685546874,2.512254623606801,-0.34369273365586994,-1.093497832262516
1667824923486510000,8.111510009765626,2.5439713658630847,-0.31091245382130145,-1.2009842473827301
1667824923496518000,8.121517822265625,2.2955916483223437,-0.3194967422932386,-1.2144979550808668
1667824923506526000,8.13152587890625,1.9001888934344051,-0.36822716319262977,-1.1808889693371951
1667824923516533000,8.141532958984374,1.3920488171607255,-0.4778603810831904,-1.1235416728705168
1667824923526541000,8.151541015625,0.9504314235866069,-0.6941559843599796,-1.0102025861993431
1667824923536547800,8.1615478515625,0.6470441045731306,-0.9679036596521735,-0.9078734077118337
1667824923546556000,8.171555908203125,0.4665869996577501,-1.2386617977395653,-0.8542150288909673
1667824923556564000,8.18156396484375,0.37367081555128095,-1.4024913007199764,-0.8832111140117048
1667824923566571000,8.191571044921876,0.33602585228979587,-1.5241735605835913,-0.9344206383757293
1667824923576578800,8.201578857421875,0.29668226841688156,-1.7077090500310061,-1.048418919607997
1667824923586586000,8.211586181640625,0.1831225247323513,-1.9215274495393038,-1.1995010230876504
1667824923596594000,8.221593994140624,-0.02321954754590988,-2.056445038551092,-1.2173529061205683
1667824923606601000,8.23160107421875,-0.2883101613909006,-2.058401433315873,-1.0001181222975253
1667824923616608800,8.24160888671875,-0.535168952974677,-1.9479437472999095,-0.7455775440394878
1667824923626616000,8.251615966796875,-0.7950783647894859,-1.8285855464696883,-0.6014848610557615
1667824923636624000,8.261623779296874,-0.9771247847229242,-1.790804974129796,-0.4445654297247529
1667824923646632000,8.2716318359375,-1.1936831305891276,-1.7996821080684662,-0.2783811803117394
1667824923656639000,8.281638916015625,-1.3693757975816725,-1.7697157166108488,-0.11291282408311962
1667824923666647000,8.29164697265625,-1.4759025738894938,-1.6773907763957976,0.13488251769840717
1667824923676653800,8.30165380859375,-1.59042093347311,-1.5160358468353747,0.4286192341826856
1667824923686662000,8.311661865234376,-1.703177544081211,-1.340042151069641,0.7002059320487082
1667824923696670000,8.321669921875,-1.7453952220857143,-1.2276309928983449,0.8868579460814595
1667824923706677000,8.331677001953125,-1.7314467762321233,-1.1503633365616202,1.092851497182995
1667824923716685000,8.34168505859375,-1.6233517276942728,-1.0116302809149027,1.407854435188323
1667824923726691800,8.35169189453125,-1.5128087014824152,-0.7785726356685161,1.7553148508146403
1667824923736700200,8.3617001953125,-1.4813006335407495,-0.5490653763800859,2.0924887040957807
1667824923746707000,8.37170703125,-1.3888935680001973,-0.35165099918395276,2.403809008065611
1667824923756715000,8.381715087890624,-1.2078782446801661,-0.1464274095416069,2.5696739623963833
1667824923766722000,8.39172216796875,-0.910650617340207,0.10859423023164272,2.641518132379651
1667824923776730000,8.401730224609375,-0.5612585029989481,0.44293549043536184,2.6775843020170926
1667824923786738000,8.411738037109375,-0.243127788361907,0.8781196360915898,2.6703613650262352
1667824923796745000,8.421744873046874,0.07098959898054599,1.3478259368136525,2.6066838426247236
1667824923806753000,8.4317529296875,0.3649772214859724,1.7641653890073299,2.5212916242823002
1667824923816760000,8.441760009765625,0.6478858160942792,2.0464310095369815,2.380128418879211
1667824923826768000,8.451767822265625,0.9230360516607761,2.208683180198073,2.167701619859785
1667824923836775200,8.461775146484374,1.134815346556902,2.2854706518024206,1.9570297016836702
1667824923846783000,8.471782958984376,1.2513017913430928,2.314271214351058,1.7536949945278464
1667824923856791000,8.481791015625,1.2083756728082895,2.369962121912837,1.5774655903100967
1667824923866797800,8.4917978515625,1.055211063966155,2.4710963915273547,1.5432783662870526
1667824923876806100,8.50180615234375,0.8576917650908231,2.50676391723603,1.560737742871046
1667824923886813000,8.51181298828125,0.6649965253710747,2.4651249159023165,1.4962877747923136
1667824923896821000,8.521821044921875,0.5536988813996314,2.460629065787792,1.336596540660411
1667824923906828000,8.531828125,0.49644846943616866,2.4705355427742,1.1940208381108939
1667824923916836000,8.541836181640624,0.4519155002266168,2.4693729287356136,1.0781787556428462
1667824923926844000,8.551843994140626,0.41850890518724915,2.426930209803581,0.9274741802386939
1667824923936851000,8.561850830078125,0.49045712006688114,2.3463445149600504,0.7561326941929757
1667824923946859000,8.57185888671875,0.6287269421160221,2.3110253642976284,0.5836833930358291
1667824923956866000,8.581865966796874,0.8315992924571037,2.27748900539875,0.38658305022493
1667824923966873900,8.591873779296876,1.0883289051920175,2.229476961901784,0.16332513365484774
1667824923976881200,8.601881103515625,1.3860486999630928,2.137636298072338,-0.03914718451797962
1667824923986889000,8.611888916015625,1.6086586009532213,2.007727477133274,-0.2805520946100354
1667824923996897000,8.62189697265625,1.6855916185081004,1.8979644953832029,-0.4546887643322348
1667824924006903800,8.63190380859375,1.6923019298017024,1.8777970288842916,-0.48069589677006
1667824924016912000,8.641911865234375,1.6981126619070768,1.8517630084395407,-0.46600876137837766
1667824924026919000,8.6519189453125,1.723541702196002,1.7250681811109185,-0.5071420782122761
1667824924036927000,8.661927001953124,1.799253653523326,1.5230881034344435,-0.5399352905936539
1667824924046934000,8.67193408203125,1.8057284024953841,1.2618787149369717,-0.6305293153628706
1667824924056942000,8.681942138671875,1.7477426619946956,1.0206497459337114,-0.7559357103161514
1667824924066950000,8.691949951171875,1.6920277890354394,0.8771993063762783,-0.8339856030717492
1667824924076957000,8.70195703125,1.5528887829363345,0.707960053306818,-0.9150913032013922
1667824924086964700,8.71196484375,1.3829945730894804,0.48389206246286626,-1.027566758780554
1667824924096972000,8.721971923828125,1.2397615756750107,0.29423838239610195,-1.1684627646148205
1667824924106979800,8.731979736328125,1.059560491347313,0.12685001789033412,-1.2733581403285263
1667824924116987000,8.74198681640625,0.8234212466984987,-0.05975450373888015,-1.361752755357325
1667824924126995000,8.751994873046876,0.5210299529850483,-0.2673468683391809,-1.4307486963026226
1667824924137003000,8.7620029296875,0.18958499874472617,-0.48562341630011796,-1.4555134274639188
1667824924147009800,8.772009765625,-0.025253099200129508,-0.6346116162404417,-1.4432564418286085
1667824924157017900,8.782017822265624,-0.07040215448141098,-0.7544856576383113,-1.4760764691516757
1667824924167025000,8.79202490234375,-0.02790039883852005,-0.9489230648502707,-1.5958958577528595
1667824924177033000,8.802032958984375,0.05251052395999431,-1.2168588389933108,-1.7826257593274115
1667824924187039700,8.812039794921875,0.11280044974982738,-1.504694368609786,-1.9463165844894945
1667824924197048000,8.822048095703124,-0.0654120911091566,-1.8045996907263993,-1.968676154205203
1667824924207056600,8.832056640625,-0.49706747811734675,-2.0735218455582856,-1.8659490624412893
1667824924217063400,8.8420634765625,-1.092061661979556,-2.279068968066573,-1.648249145324528
1667824924227071500,8.852071533203125,-1.8142799577414987,-2.423459903344512,-1.402868901860714
1667824924237078500,8.86207861328125,-2.471353288897872,-2.445395548559725,-1.1086854645222424
1667824924247086600,8.872086669921876,-3.094514413580298,-2.3721976258799433,-0.8610584650449454
1667824924257093400,8.88209326171875,-3.6164041982650756,-2.239664009395242,-0.6177258017607032
1667824924267101400,8.892101318359375,-4.022316072207689,-2.0311358252495526,-0.35964842767864463
1667824924277109500,8.902109619140624,-4.2871950891286135,-1.679749322220683,-0.10921674604415893
1667824924287116500,8.912116455078126,-4.281042996239662,-1.2284955007731915,0.16060045793130992
1667824924297124400,8.922124267578125,-4.049145626944303,-0.7103352580055594,0.28840236971899863
1667824924307131600,8.932131591796875,-3.6650627229720354,-0.2589087103396654,0.2059304227374494
1667824924317139500,8.942139404296874,-3.135468939781189,0.07177110474705696,0.09049480217844247
1667824924327146500,8.952146484375,-2.427461540201306,0.4381751441657543,0.07520604763180017
1667824924337154300,8.962154296875,-1.580809055519104,0.7806637627288698,0.055395724007487296
1667824924347162400,8.972162353515625,-0.7024047572672367,0.9788543849945068,-0.05942512565404176
1667824924357169400,8.98216943359375,0.0627805735617876,1.0663444523990153,-0.2221022437289357
1667824924367177500,8.992177490234376,0.6105763683974742,1.0317439713999628,-0.41018027197681367
1667824924377184500,9.0021845703125,0.9126070121049881,0.9059598291754722,-0.5381301408678293
1667824924387192600,9.012192626953125,1.170781562951207,0.8296525423035025,-0.47888132162876423
1667824924397199400,9.022199462890624,1.2880267171502113,0.7936229052841662,-0.3146951872304082
1667824924407207400,9.03220751953125,1.2348662048488854,0.718499275238812,-0.1163670561902225
1667824924417215200,9.04221533203125,1.0126993714511394,0.5568938780486583,0.18600465603992342
1667824924427222500,9.052222412109375,0.5976262859314679,0.27327625838816166,0.5362124706782401
1667824924437230300,9.062230224609374,0.09423135835826396,0.038868075315654275,0.9136953918635845
1667824924447237400,9.0722373046875,-0.4610264429211616,-0.015061960053443908,1.2710003251560031
1667824924457245400,9.082245361328125,-1.130708495759964,0.035027766500413414,1.6052303800702095
1667824924467252500,9.09225244140625,-1.7272738744616507,0.1546554319217801,1.962329707787931
1667824924477260300,9.10226025390625,-2.096860051047802,0.34272359636276956,2.2088374939769504
1667824924487267600,9.112267578125,-2.0663567762345076,0.5164905559897423,2.294485148385167
1667824924497275400,9.122275390625,-1.5504197624742984,0.5498030430048704,2.1150262607268986
1667824924507283500,9.132283447265625,-0.7745178073197603,0.40949908477962016,1.6101013471074401
1667824924517290200,9.142290283203126,0.1073749175697565,0.25406039352566,1.1419622957020998
1667824924527298600,9.152298583984376,1.0038549707382918,0.10380056621432304,0.8045999341115355
1667824924537305300,9.162305419921875,1.7581120803177355,-0.111243867957592,0.47375469933003184
1667824924547313400,9.1723134765625,2.3021382934868333,-0.3292439370647073,0.16074176609814167
1667824924557320400,9.182320556640626,2.7317034302175043,-0.32973288962543007,0.024914953286945818
1667824924567328500,9.19232861328125,2.9562597891002893,-0.24095804310739039,-0.08612550105303525
1667824924577336300,9.20233642578125,3.134082453858852,-0.17952742284983395,-0.2504112233683467
1667824924587343400,9.21234326171875,3.2021587957412003,-0.18634148677885531,-0.47180751078501343
1667824924597351400,9.222351318359374,3.0990134785652157,-0.2581716282367706,-0.656436348427087
1667824924607358500,9.2323583984375,2.9234149195969104,-0.265901345705986,-0.7152509409673512
1667824924617366300,9.2423662109375,2.5636037025719878,-0.21063421651422976,-0.7491996800594032
1667824924627373600,9.25237353515625,2.1342525008529423,-0.126797995442152,-0.754338942644
1667824924637381400,9.26238134765625,1.706782875096798,-0.10164660305082797,-0.7496316417358815
1667824924647389400,9.272389404296876,1.340340841755271,-0.16593027465194463,-0.7616184321276843
1667824924657396200,9.282396240234375,1.0336112265765667,-0.2890358453169465,-0.7681585014209151
1667824924667404300,9.292404296875,0.7974655521869659,-0.37374388078749177,-0.6974979882642627
1667824924677411300,9.302411376953126,0.6046475628703832,-0.4769570025026798,-0.5597131732530891
1667824924687419400,9.31241943359375,0.3389309260815382,-0.676933631402254,-0.42823052712604404
1667824924697426400,9.322426513671875,0.14833236638009548,-0.8960901770681142,-0.30810674875080585
1667824924707434500,9.3324345703125,0.06607727701961993,-1.1168827995032071,-0.25868235423788427
1667824924717442600,9.342442626953124,0.07297638888359069,-1.2385869789376853,-0.17804098368436097
1667824924727449300,9.352449462890625,0.1253477966338396,-1.3045774544566868,-0.10223770081177354
1667824924737457400,9.36245751953125,0.12396715593039989,-1.3695868099838495,-0.08108210005834698
1667824924747464400,9.37246435546875,0.045805473363399504,-1.3754501490592956,-0.017611206144839523
1667824924757472500,9.382472412109376,-0.132950672852993,-1.337688865941763,0.16842150694578886
1667824924767479300,9.392479248046875,-0.28026071044802664,-1.2984195163488388,0.3272878345608711
1667824924777487600,9.402487548828125,-0.4451981746703386,-1.2877636822998524,0.4626389926843345
1667824924787495400,9.412495361328125,-0.6244038182199001,-1.2646771134838461,0.6551736350148916
1667824924797502500,9.42250244140625,-0.7216817046672105,-1.2687585375785826,0.8559528124690056
1667824924807510300,9.43251025390625,-0.7728244474053383,-1.2582961802750825,0.9768708099618554
1667824924817517600,9.442517578125,-0.7688485295116901,-1.2578022592782974,1.077969716002047
1667824924827525400,9.452525390625,-0.7345441088497638,-1.255376493436098,1.165697683815658
1667824924837532400,9.462532470703126,-0.6746767923861742,-1.1453142364785074,1.2996123793952166
1667824924847540500,9.47254052734375,-0.5948848782688378,-0.9489005607575177,1.4417543667025863
1667824924857548500,9.482548583984375,-0.5534580583810806,-0.7548734879121184,1.5048581808693706
1667824924867555300,9.492555419921874,-0.5330050529390573,-0.6396472723200917,1.49247566915825
1667824924877563400,9.5025634765625,-0.5006733936548233,-0.5458493369430303,1.4927841505855322
1667824924887570400,9.5125703125,-0.48813539912104603,-0.37785774584710596,1.5341194927975534
1667824924897578500,9.52257861328125,-0.5104553674787282,-0.13601707468628882,1.6084944964326917
1667824924907585300,9.532585205078124,-0.5069663563191891,0.13791823213249443,1.7027267315737902
1667824924917593600,9.542593505859376,-0.4357745127648115,0.41452188137769697,1.7898636016264557
1667824924927601400,9.552601318359375,-0.33260932184457775,0.6202046129643917,1.7258588930971919
1667824924937608400,9.5626083984375,-0.11011340262293814,0.7898387105703354,1.6832463705562055
1667824924947616300,9.5726162109375,0.2851040588259697,0.9536123917102813,1.6648077736765146
1667824924957623600,9.58262353515625,0.6437491546809673,1.0957254451841116,1.5333922014363108
1667824924967631400,9.59263134765625,0.915835326501727,1.2247931391239166,1.4058281900577245
1667824924977638400,9.602638427734375,1.1490560533553362,1.2129603702500462,1.2766335087373852
1667824924987646500,9.612646484375,1.2671177846342325,1.0862100133419037,1.099219717040658
1667824924997654500,9.622654541015624,1.267199033176899,1.0435068899080158,1.0270997988559305
1667824925007661300,9.632661376953125,1.1769710652410983,1.0593854270413516,1.0508120983548461
1667824925017669400,9.64266943359375,0.9201999514520168,1.0170242489129304,1.0230348875045776
1667824925027676400,9.652676513671874,0.5199310518324375,0.9696692080199718,0.996128614269942
1667824925037684500,9.6626845703125,0.08876140251457691,1.023809963530302,1.0852109193019568
1667824925047691300,9.672691162109375,-0.36571488811075686,1.1674831059277058,1.2351403456151484
1667824925057699300,9.68269921875,-0.7732102318525313,1.3479472251057625,1.3695271887511014
1667824925067707400,9.692707275390624,-1.006773488533497,1.4784844070762395,1.3420337632782757
1667824925077714400,9.70271435546875,-0.9908663098275661,1.4779939932107924,1.1380502368249
1667824925087722200,9.71272216796875,-0.7364724465638399,1.429754570698738,0.8924670181348919
1667824925097729500,9.7227294921875,-0.3585615092247724,1.3666443267911672,0.6313209041319787
1667824925107737300,9.7327373046875,0.0029728783309459685,1.3277566699922083,0.36373467407897114
1667824925117744400,9.742744384765626,0.33900165323019027,1.3229954469397662,0.11533449827209115
1667824925127752200,9.752752197265625,0.650579292961955,1.3218746262162924,-0.10528525181412696
1667824925137760500,9.762760498046875,0.9106067781984806,1.3005980294317006,-0.3240675573401153
1667824925147767300,9.772767333984374,1.1509861446350813,1.3167796411648391,-0.5307239562645554
1667824925157775400,9.782775390625,1.3707909250766037,1.3606135221943259,-0.7108079900838434
1667824925167782400,9.792782470703125,1.542287309423089,1.3420067291408777,-0.8862510662294923
1667824925177790500,9.80279052734375,1.6811849079817534,1.2378595414459705,-1.0645024777941405
1667824925187797200,9.81279736328125,1.8524913227140902,1.11782855592072,-1.2152084414377808
1667824925197805300,9.822805419921876,1.9318372466295957,0.959409387551248,-1.311802437274158
1667824925207813000,9.832813232421875,1.8831611862659454,0.7553884516969323,-1.3945429720640181
1667824925217820000,9.84281982421875,1.799680354502797,0.6061322484701871,-1.5247342632062733
1667824925227828000,9.852827880859374,1.6564099476873875,0.5307432454869151,-1.6831068159550426
1667824925237835000,9.8628349609375,1.3993448193877935,0.47481005360186096,-1.7108588923640549
1667824925247843000,9.872843017578125,0.9932488210499286,0.3816559690862894,-1.5877525910466908
1667824925257849900,9.882849853515625,0.5240688822895289,0.2717401348620653,-1.4406608723774552
1667824925267858000,9.89285791015625,0.17644553118646145,0.11106032808423041,-1.2679212099716066
1667824925277866200,9.9028662109375,-0.06677578067779541,-0.1568798299729824,-1.114036762422323
1667824925287873000,9.912873046875,-0.28630057513415813,-0.41685090884715315,-1.0065265280351041
1667824925297881000,9.922881103515625,-0.424727049049735,-0.6096121995404362,-0.8846988683514296
1667824925307888000,9.93288818359375,-0.4904074357062578,-0.7811550533771514,-0.7818396746404469
1667824925317896200,9.942896240234376,-0.4675760106950998,-0.9320616541594267,-0.7123867837078869
1667824925327903000,9.952903076171875,-0.46725277009010313,-1.01819972243309,-0.7533120838142932
1667824925337911000,9.9629111328125,-0.5424222851037979,-0.9869231251597403,-0.8255496370293199
1667824925347918000,9.97291796875,-0.6233434955120086,-0.8664917421400546,-0.8613546715125441
1667824925357926100,9.982926025390626,-0.7648702735304832,-0.8412778059065341,-0.9175405229844152
1667824925367934000,9.992933837890625,-0.8567711431145667,-0.9192071410223841,-0.9200598123289644
1667824925377941200,10.002941162109375,-0.9282628463983535,-1.00814769949615,-0.9059487232595682
1667824925387949000,10.012948974609374,-0.9858522810578345,-1.1095739377945661,-0.8364657294496893
1667824925397956000,10.0229560546875,-0.9921528425067663,-1.2459291583940386,-0.7628843604102731
1667824925407964000,10.0329638671875,-1.0076853426814079,-1.4056824979767202,-0.6993551604382693
1667824925417972000,10.042971923828125,-1.111877538561821,-1.5405828435927629,-0.5710841698341071
1667824925427979000,10.05297900390625,-1.2466413983166218,-1.561413157914579,-0.42104646084085107
1667824925437987000,10.062987060546876,-1.320095926105976,-1.361012166123092,-0.18867343685775995
1667824925447994000,10.072994140625,-1.387174489122629,-1.0326076024919748,0.0008183306455612182
1667824925458002200,10.083002197265625,-1.3410668179422616,-0.6799602857470513,0.11466069066375494
1667824925468009000,10.093009033203124,-1.1925970889180897,-0.3800958801627159,0.10342661833539604
1667824925478017000,10.10301708984375,-0.9147130444735289,-0.14758885453641413,-0.04535743733495474
1667824925488024800,10.11302490234375,-0.47507834914922714,0.07296148357540369,-0.16126140605807304
1667824925498032000,10.1230322265625,0.07265548636615275,0.3019353666394949,-0.20056231983304024
1667824925508040000,10.1330400390625,0.5485685327738523,0.4599339715093374,-0.3336873263396323
1667824925518047000,10.143046875,0.9924579629331827,0.5791022027254105,-0.4775625671803951
1667824925528055000,10.153054931640625,1.3429934020906686,0.6585001490890979,-0.5931425646461546
1667824925538062000,10.16306201171875,1.504216814225912,0.6803384714096784,-0.6779049606524408
1667824925548070000,10.17306982421875,1.5774661748319863,0.6357961498498916,-0.6423747975878417
1667824925558077200,10.1830771484375,1.5155518627107143,0.5834791026353836,-0.5597562817424535
1667824925568085000,10.1930849609375,1.412657889947295,0.5368234421834349,-0.36369083493724463
1667824925578093000,10.203093017578125,1.31087567781806,0.6107882575824857,-0.07032711648382246
1667824925588099800,10.213099853515626,1.1361328588962554,0.6501935085147619,0.15617723466157912
1667824925598108200,10.223108154296876,0.9410095152467489,0.5174462492793798,0.16713965044170617
1667824925608115000,10.233114990234375,0.8545598968058824,0.28817893622666596,0.10683649984411894
1667824925618123000,10.243123046875,0.723944973424077,0.1392863056153059,0.16727452886775135
1667824925628131000,10.253131103515624,0.3753945706039667,0.10588380222916602,0.3753885792545974
1667824925638138000,10.26313818359375,-0.07021978365182877,0.12142799284160137,0.5608417388916015
1667824925648146200,10.273146240234375,-0.6365548592627048,0.08222031030803918,0.476416758146137
1667824925658153000,10.283153076171875,-1.133645718255639,0.05743365957587957,0.32820071162208914
1667824925668161300,10.293161376953124,-1.3231494684576988,0.186474465508759,0.2453407882362604
1667824925678168000,10.30316796875,-1.295066114267707,0.37900662362128495,0.06778817259073257
1667824925688176000,10.313176025390625,-1.2151964587390423,0.44575200916081664,-0.18699439772963522
1667824925698183200,10.32318310546875,-1.0954945590376852,0.3572846211567521,-0.3885222015939653
1667824925708191200,10.333191162109374,-0.8407587504684925,0.2263005722016096,-0.5748413304105401
1667824925718199000,10.343198974609376,-0.46633273263573644,0.10330050773769617,-0.7956666860714554
1667824925728206000,10.3532060546875,-0.14370938275456427,-0.0683493136048317,-1.024184642061591
1667824925738214000,10.3632138671875,0.09019991088509559,-0.194842773142457,-1.1419598114840686
1667824925748221200,10.37322119140625,0.2694213365256786,-0.25865093618631363,-1.1053948985442519
1667824925758229000,10.38322900390625,0.3661743223160505,-0.3296595321282744,-0.9958296313233673
1667824925768236000,10.393236083984375,0.24540859277546404,-0.4968932905942201,-0.8495394382953644
1667824925778244000,10.403244140625,0.0469862075805664,-0.5961287408500909,-0.6530282935492694
1667824925788252200,10.413252197265624,-0.06524959402382373,-0.5944079084068536,-0.46304260504916306
1667824925798259000,10.423259033203125,-0.22748832068145275,-0.6354103654026985,-0.43835912243053315
1667824925808267000,10.43326708984375,-0.3757686646133661,-0.7357604989022016,-0.44249505319148297
1667824925818274000,10.443274169921875,-0.45103871739208695,-0.8597805540636181,-0.41490664291158313
1667824925828282000,10.4532822265625,-0.4882587332397699,-0.9285282193362713,-0.33485242459625003
1667824925838289000,10.463288818359375,-0.4833323827534914,-0.9687851186618208,-0.24897242273688314
1667824925848297200,10.473297119140625,-0.34246962160170075,-1.0712155655667186,-0.14461875268444419
1667824925858305000,10.483304931640625,-0.1659153693437576,-1.2463339398026465,0.018939970530569554
1667824925868312000,10.49331201171875,0.08951894288361072,-1.4383826983124017,-0.011147416958212851
1667824925878319900,10.50331982421875,0.42684535637795923,-1.607586587807536,-0.013650193559378385
1667824925888327200,10.5133271484375,0.4289560649216175,-1.808576193141937,-0.05316577299833297
1667824925898335000,10.5233349609375,0.21575813539922237,-1.9947458304852246,0.1491965819939971
1667824925908342000,10.533342041015626,-0.1396434484899044,-2.100241802440584,0.5331000377461313
1667824925918350000,10.54335009765625,-0.5113590383201837,-2.0790818177729844,1.0003162752181292
1667824925928358100,10.553358154296875,-0.8238549619406461,-1.9271131407171487,1.4041253316625952
1667824925938365000,10.563364990234374,-1.0484060601264238,-1.7247019781470299,1.8043977384135126
1667824925948373000,10.573373046875,-1.2640630732387304,-1.4757956063836812,2.171708079022169
1667824925958380000,10.583380126953125,-1.5154361273765562,-1.2542936666354536,2.4357325249403714
1667824925968388000,10.59338818359375,-1.5613918228656052,-0.9076397450864314,2.6316397124439477
1667824925978395000,10.603394775390624,-1.3678221383988856,-0.3725190151676535,2.670526492460072
1667824925988403200,10.6134033203125,-0.8972200578808784,0.06035539224147796,2.507252285274863
1667824925998411000,10.623410888671875,-0.28905601132214065,0.2678939808279276,2.1493287816926836
1667824926008418000,10.63341796875,0.2748351782679558,0.382016619092226,1.769193884693831
1667824926018425900,10.64342578125,0.6821610106617212,0.5392611907243728,1.452520821519196
1667824926028433200,10.65343310546875,0.8756552918046713,0.6739362031519412,1.2360621366351843
1667824926038441000,10.66344091796875,0.9540694878280163,0.8024860106974839,1.1046817818388341
1667824926048448000,10.673447998046875,0.9714023154228925,0.9048083210527896,1.0493184987962245
1667824926058456000,10.6834560546875,0.8471452366352081,0.837820358929038,1.0203995705649256
1667824926068464000,10.693464111328124,0.5791507180422544,0.6498889726102351,1.0175953267991542
1667824926078471000,10.703470947265625,0.22316811939477918,0.42511867871582504,1.037305404919386
1667824926088479000,10.71347900390625,-0.022398878812789916,0.36493630495369433,1.1383441052049397
1667824926098486000,10.723486083984374,-0.141167881578207,0.6672200466394425,1.3690034571379421
1667824926108494000,10.733494140625,-0.24723814629018306,0.9750292737483978,1.5603402679860592
1667824926118500900,10.7435009765625,-0.4833674540668726,1.0321791479468345,1.5041802816078067
1667824926128509000,10.753509033203125,-0.7559259195744991,0.8208557801246643,1.3051006015479565
1667824926138517200,10.763517333984375,-0.8560252931833267,0.6212181739211082,1.1009423030495642
1667824926148524000,10.77352392578125,-0.8230956680059432,0.9858519887968897,1.1854486784681677
1667824926158532000,10.783531982421875,-0.9050473905056714,1.990746823976934,1.3725687484040856
1667824926168539100,10.7935390625,-0.9001578648984432,2.374233223360777,1.2091200614348052
1667824926178547200,10.803547119140624,-0.9506143789380789,1.490557414446771,0.9373197208181023
1667824926188555000,10.813554931640626,-0.8907131602048873,0.9682073187738657,0.16633739414811133
1667824926198562000,10.82356201171875,-0.4244283583641052,1.1047604000329971,-0.4585355028882622
1667824926208570400,10.8335703125,0.07656944493949412,1.1133782985135912,-0.4365422822669148
1667824926218577200,10.8435771484375,0.7833727294266224,1.4958704261630773,-0.09709434657394886
1667824926228585200,10.853585205078126,1.2929548212021589,1.887108170326054,0.025647066953778264
1667824926238592300,10.86359228515625,1.395649472001195,1.8793524416327476,-0.3223582692041993
1667824926248600300,10.873600341796875,1.5697224288374185,1.8329200685426592,-0.5245448292382061
1667824926258608000,10.883608154296875,1.7392255935400724,1.6619792722523212,-0.8648192788831889
1667824926268615200,10.893615234375,1.8430840274214744,1.3263731066793203,-1.122071600317955
1667824926278623200,10.903623291015625,1.2797452110171317,1.2018453942567109,-0.9197638981223106
1667824926288630300,10.91363037109375,1.4059078311651945,1.322649409981072,-0.8899659950993954
1667824926298638000,10.92363818359375,1.1517249803036451,1.2594149551719427,-1.3993135474666951
1667824926308645400,10.933645263671876,0.5778016415208578,1.1077151581853628,-1.7279861143842339
1667824926318653200,10.943653076171875,0.7346458156585693,1.1663365662410854,-1.454623200625926
1667824926328661200,10.9536611328125,1.222302491351962,1.4276628591164946,-0.9020375411652028
1667824926338668000,10.96366796875,1.668656265798211,1.6631871867373584,0.3579037759684026
1667824926348676000,10.973676025390626,1.685894400846958,1.4869284102946518,0.9652781334541738
1667824926358683100,10.98368310546875,1.4862743303000927,0.7421946236029267,0.6492744939737022
1667824926368691200,10.993691162109375,1.1591846486598252,-0.37083354629874227,0.061062079206109045
1667824926378698000,11.003697998046874,0.9819985282391309,-0.9804945534169673,-0.31124270868897436
1667824926388706300,11.013706298828126,0.7958008338451386,-1.4114824164271353,-0.46785292794033884
1667824926398714000,11.023714111328125,0.4961304895281791,-1.962206373669207,-0.42530557959005233
1667824926408721200,11.03372119140625,-0.028957214415073394,-2.416998890636861,-0.4419401227224618
1667824926418729000,11.04372900390625,-0.36362697592079635,-2.5673008035242555,-0.30000030692368745
1667824926428736300,11.053736328125,-0.35534079361259935,-2.494646778462827,-0.06095649993978441
1667824926438744000,11.063744140625,-0.08396247780025005,-2.6326997428908943,-0.07039411730542779
1667824926448752000,11.073752197265625,0.1792746171325445,-3.1121412556856867,-0.27146818605288864
1667824926458759200,11.08375927734375,0.1836544396519661,-3.5229175207942722,-0.35330534226223825
1667824926468767200,11.093767333984376,-0.16591420029997825,-3.7365930047005413,-0.2980374824181199
1667824926478774000,11.10377392578125,-0.7081903549313545,-3.8636967050909994,-0.22005217933133242
1667824926488782000,11.113781982421875,-1.3934487470865249,-3.85829601509124,-0.13684610938895492
1667824926498789000,11.1237890625,-2.0329431669324634,-3.6095480487599967,0.02625683288257569
1667824926508797200,11.133797119140626,-2.564227971950173,-3.1665459228292105,0.40029984274711455
1667824926518805200,11.14380517578125,-3.0482132656544447,-2.4757769505590197,0.8802585478164255
1667824926528812300,11.153812255859375,-3.4709576164543625,-1.7770321771040558,1.357813662342727
1667824926538820400,11.1638203125,-3.4992952376663684,-1.1794567445769906,1.7128338456988335
1667824926548827100,11.1738271484375,-3.2526609024882314,-0.5508797323256731,1.6692659221291541
1667824926558835200,11.183835205078125,-2.8368483967781066,-0.07247808397263288,1.4462284433767199
1667824926568842200,11.19384228515625,-2.4342606988221407,0.3045081397369504,1.3686663341380656
1667824926578850300,11.203850341796874,-2.0046511384278536,0.6696075262978672,1.1878968022726475
1667824926588858000,11.213858154296876,-1.5848264744669198,0.9050979516491293,0.8606322024568915
1667824926598865200,11.223865234375,-1.1945815407335758,1.0304203215807675,0.6845430834926665
1667824926608873200,11.233873291015625,-0.8855746282726525,1.0072603952676058,0.7376730545252561
1667824926618880300,11.24388037109375,-0.653169893977046,0.8007832984328269,0.9944590736225247
1667824926628888000,11.25388818359375,-0.4657973105847835,0.5094947057530284,1.2232405028544366
1667824926638895400,11.263895263671875,-0.17873919508159158,0.3238973153397441,1.3800595425508915
1667824926648903200,11.273903076171875,0.130240829372406,0.38149288747906684,1.4153401147685944
1667824926658911200,11.2839111328125,0.3602215513914823,0.5744397638723254,1.4123825801372527
1667824926668918000,11.29391796875,0.38676001422703266,0.6528124588415026,1.3941535343550144
1667824926678926300,11.30392626953125,0.3191875302135944,0.5995084464162588,1.3579063090622425
1667824926688933000,11.31393310546875,0.15656711076200008,0.5443687429964542,1.345482588557899
1667824926698941200,11.323941162109374,-0.046750060737133024,0.5320841387018561,1.4246769751735031
1667824926708948200,11.3339482421875,-0.18355039475560186,0.5844637297585606,1.6495315863505005
1667824926718956300,11.343956298828125,-0.23916823708117008,0.6114037591323256,1.7739561306595801
1667824926728964000,11.353964111328125,-0.2787818700671196,0.5327566311359405,1.7828233277261256
1667824926738971100,11.36397119140625,-0.2609299870342016,0.4239356064110994,1.7649845964357256
1667824926748979200,11.373979248046876,-0.23765140277743338,0.4036708170175552,1.7037797477580605
1667824926758986200,11.383986328125,-0.18450901065468786,0.46807811499834057,1.7308695608660578
1667824926768994000,11.393994140625,0.02026712748110294,0.5328630141198635,1.7056578165896237
1667824926779002000,11.404002197265624,0.31847207542061806,0.6044383040338754,1.6112351734429597
1667824926789009200,11.414009033203126,0.6525520543396472,0.6884194865345955,1.5102058255076407
1667824926799017200,11.424017333984375,1.0021037431567907,0.7578332145005464,1.3262854283958672
1667824926809024000,11.43402392578125,1.2197013689428566,0.8518541449785232,1.1187962319090963
1667824926819032300,11.4440322265625,1.3690613248050212,0.9651607906848192,1.0308861855268479
1667824926829039000,11.4540390625,1.4575895030856132,1.0392933638662099,0.892142316225171
1667824926839047200,11.464047119140625,1.5008581514477728,1.0154583147704601,0.7127855737671256
1667824926849055000,11.474054931640625,1.5556266834676264,0.948400210019946,0.5819762968569994
1667824926859062300,11.484062255859374,1.6277555156111716,0.8902589866966009,0.5773617887988686
1667824926869070000,11.494070068359376,1.712211329886317,0.7493155615240336,0.6511965480774641
1667824926879077000,11.5040771484375,1.8063725456178188,0.5452583853125572,0.6604328707173466
1667824926889085000,11.5140849609375,1.8991770860433577,0.38871523994803425,0.6085431090041995
1667824926899092200,11.52409228515625,1.9454028306454418,0.2596510531395674,0.5006786543518305
1667824926909100000,11.53410009765625,1.9210668462902307,0.13682663750350474,0.409680286565423
1667824926919108000,11.544108154296875,1.888410192835331,0.06991817035675048,0.4377943281546235
1667824926929115100,11.554115234375,1.8122627727001905,-0.025806056907773017,0.4090612778842449
1667824926939123200,11.564123291015624,1.6703753446757792,-0.15496727434992788,0.33978198995292186
1667824926949130000,11.5741298828125,1.4710609790772198,-0.28860359137952324,0.3810571629429236
1667824926959138000,11.584137939453125,1.2261124050289391,-0.36827743207514285,0.45578591191917656
1667824926969145000,11.59414501953125,0.9741180041223764,-0.35039106225073335,0.5918158826196566
1667824926979153200,11.604153076171874,0.8573907363176345,-0.08728723830878735,0.7790724018841981
1667824926989161200,11.6141611328125,0.7645172223091125,0.20903379558026788,0.9673904494330287
1667824926999168300,11.624168212890625,0.5565595315277576,0.30344869381189343,1.129470186136663
1667824927009176300,11.63417626953125,0.2913473371297121,0.278529356610775,1.2912880570337175
1667824927019183000,11.64418310546875,0.032732056778669354,0.10542553706765175,1.3419324948608875
1667824927029191200,11.654191162109376,-0.1769359450519085,-0.20783143405318258,1.2987462640851735
1667824927039198200,11.6641982421875,-0.280407425442338,-0.48388767854869363,1.2199828162327409
1667824927049206300,11.674206298828125,-0.30612171241343017,-0.7097890222996472,1.1371756459474562
1667824927059214000,11.684214111328124,-0.28877368724942204,-0.9693909756004809,0.9549868949338793
1667824927069221400,11.694221435546876,-0.36810207550823687,-1.3176350889503956,0.6738944098368287
1667824927079229200,11.704229248046875,-0.39504502749145026,-1.6257494364857672,0.49858109755069013
1667824927089236200,11.714236328125,-0.3852835119336843,-1.787593026345968,0.3892927475750446
1667824927099244000,11.724244140625,-0.42556349987387654,-1.641509315675497,0.42187721257656813
1667824927109252000,11.734252197265626,-0.6498930642634629,-1.2197761877447366,0.702057259003818
1667824927119259100,11.744259033203125,-1.0496166049599647,-0.6272048471152782,1.1098872415274381
1667824927129267200,11.75426708984375,-1.5122504830777643,-0.0745709645986557,1.3815896747276186
1667824927139274200,11.764274169921874,-1.888779026147723,0.32149113098084925,1.519587986359
1667824927149282300,11.7742822265625,-2.149105786591768,0.6066811145246028,1.5984823671147226
1667824927159289000,11.7842890625,-2.3362848932385445,0.8206599652916192,1.7063400997653602
1667824927169297200,11.794297119140625,-2.4505799654603004,0.8890975417017937,1.698837469050288
1667824927179305000,11.804304931640624,-2.516883452451229,0.8281313240855932,1.6435218245416878
1667824927189312300,11.814312255859376,-2.4280840560138226,0.8001450005292892,1.6039093605995178
1667824927199320000,11.824320068359375,-2.1353069783419367,0.7775532294929027,1.400921274924278
1667824927209326300,11.834326416015625,-1.6641729829043148,0.7249591189026832,1.0196125849056987
1667824927219334400,11.84433447265625,-1.2754922297477722,0.5130757791101932,0.7401973123058676
1667824927229341200,11.854341064453125,-1.0297428607106207,0.2066366713106632,0.584836070202291
1667824927239349200,11.864349365234375,-0.7773819645792246,0.008504793494939803,0.4524269568800926
1667824927249357300,11.874357421875,-0.4720411734104156,-0.07657996633350848,0.37679566957354543
1667824927259364400,11.8843642578125,-0.199635852637887,-0.13339841662049293,0.23790946919173
1667824927269372200,11.8943720703125,0.03880582373440265,-0.11568155814409255,0.13043737485781312
1667824927279379500,11.90437939453125,0.14840776970386504,0.008693009543418884,0.15873714827746152
1667824927289387300,11.91438720703125,0.1582861896395683,0.23116963954269884,0.2924484302394092
1667824927299394300,11.924394287109376,-0.11367723258435726,0.4501379691600799,0.4169739507049322
1667824927309402000,11.934402099609375,-0.6929910322338342,0.6186947929233312,0.6590560294061899
1667824927319410400,11.944410400390625,-1.3232248717814683,0.8503519237220287,0.8776134401351213
1667824927329417200,11.954417236328124,-1.7782710712492464,1.0636626659691333,0.9914192675352096
1667824927339425300,11.96442529296875,-2.0000258167147633,1.1322685846835374,1.1067550809815525
1667824927349432300,11.974432373046875,-1.9351345346093176,1.0432266116619109,1.2328680167689918
1667824927359440400,11.9844404296875,-1.609776206806302,0.8727367740094661,1.3121499355375765
1667824927369448200,11.9944482421875,-1.114521915590763,0.6464560755521058,1.2847948956221342
1667824927379455200,12.004455322265626,-0.6464338637202978,0.3931622824847698,1.33461661888957
1667824927389463300,12.01446337890625,-0.32060616483986376,0.15645020638406276,1.431614957743138
1667824927399470300,12.02447021484375,0.06375847868323326,0.17265958290696143,1.523423472868651
1667824927409478100,12.03447802734375,0.3863187002003193,0.28455636181533334,1.4782807011976837
1667824927419485400,12.0444853515625,0.5389888035237789,0.2697328866928816,1.363879976644367
1667824927429493200,12.0544931640625,0.7745230680167674,0.42846857366561886,1.3284259475558995
1667824927439501300,12.064501220703125,1.4522253457039593,0.6377461148738861,0.9846987271085381
1667824927449508000,12.074508056640624,1.0955606100112198,0.8590233059555291,1.0846157298877834
1667824927459516200,12.08451611328125,0.6880658507913351,1.1642612212717531,1.4093614787504076
1667824927469523200,12.094523193359375,0.3308224384278059,1.2923475029587745,1.5263342457488178
1667824927479531300,12.10453125,0.14508184015154837,1.277443363815546,1.3441922564864157
1667824927489538300,12.114538330078124,-0.00005377601385116577,1.210250819030404,1.1867989240333436
1667824927499546400,12.12454638671875,-0.17278583963513372,1.2043512395977973,1.0488812764227389
1667824927509554400,12.134554443359375,-0.2690250306844711,1.266598144674301,0.9574725742697715
