time,seconds_elapsed,z,y,x
1667266064866084000,0.088083984375,0.22303560376167297,0.19951798021793365,-0.37528929114341736
1667266064868481800,0.090481689453125,0.23891763389110565,0.21051323413848877,-0.4186594486236572
1667266064870879700,0.092879638671875,0.25174543261528015,0.21784339845180511,-0.4638621509075165
1667266064873277400,0.09527734375,0.26640576124191284,0.22578442096710205,-0.5060105919837952
1667266064875675400,0.09767529296875,0.28045526146888733,0.22944949567317963,-0.5506024360656738
1667266064878073000,0.100072998046875,0.2957264184951782,0.2337254285812378,-0.5958051681518555
1667266064880471000,0.102470947265625,0.3085542321205139,0.232503741979599,-0.6416186690330505
1667266064882868700,0.10486865234375,0.31893861293792725,0.23616881668567657,-0.6880430579185486
1667266064885266700,0.1072666015625,0.32810133695602417,0.23677967488765717,-0.7308024168014526
1667266064887664400,0.109664306640625,0.3354314863681793,0.23677967488765717,-0.7753942608833313
1667266064890062300,0.112062255859375,0.3397074341773987,0.23555797338485718,-0.8175426721572876
1667266064892460000,0.1144599609375,0.34215080738067627,0.2318928837776184,-0.8541935086250305
1667266064894857700,0.116857666015625,0.34215080738067627,0.22395187616348267,-0.8920660614967346
1667266064897255700,0.119255615234375,0.3409291207790375,0.2196759432554245,-0.9268843531608582
1667266064899653400,0.1216533203125,0.34215080738067627,0.20868068933486938,-0.9562050104141235
1667266064902051300,0.12405126953125,0.34398335218429565,0.19890713691711426,-0.9849148392677307
1667266064904449000,0.126448974609375,0.348259299993515,0.18913358449935913,-1.009348750114441
1667266064906847000,0.128846923828125,0.3494809865951538,0.17752748727798462,-1.0331717729568481
1667266064909244700,0.13124462890625,0.3494809865951538,0.1653105467557907,-1.0521080493927002
1667266064911642600,0.133642578125,0.3494809865951538,0.153704434633255,-1.0698226690292358
1667266064914040300,0.136040283203125,0.3476484417915344,0.14270919561386108,-1.0863155126571655
1667266064916438300,0.138438232421875,0.34337252378463745,0.13476817309856415,-1.102197527885437
1667266064918836000,0.1408359375,0.3390965759754181,0.126216322183609,-1.1138036251068115
1667266064921233700,0.143233642578125,0.33054471015930176,0.12255123257637024,-1.1247988939285278
1667266064923631600,0.145631591796875,0.31954947113990784,0.11949699372053146,-1.13396155834198
1667266064926029300,0.148029296875,0.3091650605201721,0.12010784447193146,-1.1400700807571411
1667266064928427300,0.15042724609375,0.29511559009552,0.126216322183609,-1.1474002599716187
1667266064930825000,0.152824951171875,0.28045526146888733,0.13171394169330597,-1.1510653495788574
1667266064933223000,0.155222900390625,0.26335152983665466,0.13721156120300293,-1.1535086631774902
1667266064935620600,0.15762060546875,0.2450261116027832,0.14454172551631927,-1.1510653495788574
1667266064938018300,0.160018310546875,0.22853323817253113,0.153704434633255,-1.148621916770935
1667266064940416300,0.162416259765625,0.2077644169330597,0.16286714375019073,-1.1449568271636963
1667266064942814200,0.164814208984375,0.18516308069229126,0.17325155436992645,-1.139459252357483
1667266064945212000,0.1672119140625,0.16195088624954224,0.18852274119853973,-1.129685640335083
1667266064947609600,0.169609619140625,0.13690614700317383,0.20868068933486938,-1.1199121475219727
1667266064950007600,0.172007568359375,0.11002886295318604,0.22700610756874084,-1.106473445892334
1667266064952405200,0.1744052734375,0.08131904155015945,0.25449424982070923,-1.091813087463379
1667266064954803200,0.17680322265625,0.0489441379904747,0.2862583100795746,-1.0765419006347656
1667266064957201000,0.179200927734375,0.019623467698693275,0.3222982883453369,-1.0582165718078613
1667266064959598800,0.181598876953125,-0.014583977870643139,0.3607816696166992,-1.038669466972351
1667266064961996500,0.18399658203125,-0.050013117492198944,0.4053735136985779,-1.018511414527893
1667266064964394200,0.186394287109375,-0.08849649876356125,0.4542413055896759,-0.995910108089447
1667266064966792200,0.188792236328125,-0.12881241738796234,0.5018873810768127,-0.9745304584503174
1667266064969190000,0.19118994140625,-0.16729579865932465,0.5507551431655884,-0.9500965476036072
1667266064971587800,0.193587890625,-0.20883341133594513,0.6008446216583252,-0.9250518083572388
1667266064973985500,0.195985595703125,-0.24731677770614624,0.6491015553474426,-0.898174524307251
1667266064976383500,0.198383544921875,-0.28763270378112793,0.6967476606369019,-0.8712972402572632
1667266064978781200,0.20078125,-0.3292466700077057,0.7450045943260193,-0.8450308442115784
1667266064981179100,0.20317919921875,-0.367730051279068,0.7932615280151367,-0.8175426721572876
1667266064983576800,0.205576904296875,-0.4074351191520691,0.8451835513114929,-0.7900545597076416
1667266064985974800,0.207974853515625,-0.4459185004234314,0.8946621417999268,-0.7656207084655762
1667266064988372500,0.21037255859375,-0.4813476502895355,0.9471950531005859,-0.7393542528152466
1667266064990770200,0.212770263671875,-0.5137225389480591,0.9985061883926392,-0.7167528867721558
1667266064993168100,0.215168212890625,-0.5454866290092468,1.0540932416915894,-0.6935406923294067
1667266064995565800,0.21756591796875,-0.5711421966552734,1.1109020709991455,-0.6709393858909607
1667266064997963800,0.2199638671875,-0.5961869359016418,1.1683217287063599,-0.6483380198478699
1667266065000361500,0.222361572265625,-0.6157340407371521,1.2257413864135742,-0.6269583702087402
1667266065002759400,0.224759521484375,-0.6310052275657654,1.2837718725204468,-0.6037461757659912
1667266065005157000,0.2271572265625,-0.6383354067802429,1.339358925819397,-0.583588182926178
1667266065007555000,0.22955517578125,-0.6407787799835205,1.3967785835266113,-0.5615977048873901
1667266065009952800,0.231952880859375,-0.6371136903762817,1.4529765844345093,-0.5432722568511963
1667266065012350700,0.234350830078125,-0.6255075931549072,1.5097854137420654,-0.5231143236160278
1667266065014748400,0.23674853515625,-0.6077930331230164,1.5690375566482544,-0.5041780471801758
1667266065017146000,0.23914599609375,-0.5833591222763062,1.6252354383468628,-0.4876851737499237
1667266065019544000,0.2415439453125,-0.554649293422699,1.6814334392547607,-0.473024845123291
1667266065021941800,0.243941650390625,-0.5210527181625366,1.7419073581695557,-0.45714282989501953
1667266065024339700,0.246339599609375,-0.48073679208755493,1.7999378442764282,-0.44309332966804504
1667266065026737400,0.2487373046875,-0.43736663460731506,1.853081464767456,-0.42904382944107056
1667266065029135400,0.25113525390625,-0.38849884271621704,1.9037818908691406,-0.4125509560108185
1667266065031533000,0.253532958984375,-0.33474430441856384,1.9502062797546387,-0.40033403038978577
1667266065033930800,0.2559306640625,-0.276637464761734,1.992965579032898,-0.39056047797203064
1667266065036328700,0.25832861328125,-0.21677441895008087,2.032059669494629,-0.3813977539539337
1667266065038726400,0.260726318359375,-0.15813308954238892,2.066267251968384,-0.3722350597381592
1667266065041124400,0.263124267578125,-0.0952158197760582,2.090701103210449,-0.36429402232170105
1667266065043522000,0.26552197265625,-0.03290939703583717,2.1114699840545654,-0.3551313281059265
1667266065045920000,0.267919921875,0.031229566782712936,2.122465133666992,-0.35024455189704895
1667266065048317700,0.270317626953125,0.09597937762737274,2.1267411708831787,-0.3453577756881714
1667266065050715600,0.272715576171875,0.15706409513950348,2.127351999282837,-0.3404709994792938
1667266065053113300,0.27511328125,0.2205922156572342,2.121243476867676,-0.33680590987205505
1667266065055511300,0.27751123046875,0.27984440326690674,2.107804775238037,-0.33558422327041626
1667266065057909000,0.279908935546875,0.3372640311717987,2.0888686180114746,-0.33558422327041626
1667266065060306700,0.282306640625,0.39468368887901306,2.066878080368042,-0.33619505167007446
1667266065062704600,0.28470458984375,0.44843825697898865,2.040611505508423,-0.33986014127731323
1667266065065102300,0.287102294921875,0.5046361684799194,2.012512683868408,-0.3447469174861908
1667266065067500300,0.289500244140625,0.5577799081802368,1.9807485342025757,-0.34902286529541016
1667266065069898000,0.29189794921875,0.6078693866729736,1.947152018547058,-0.3569638729095459
1667266065072296000,0.2942958984375,0.660402238368988,1.9141662120819092,-0.366737425327301
1667266065074693600,0.296693603515625,0.7129350900650024,1.8830130100250244,-0.37590011954307556
1667266065077091600,0.299091552734375,0.7618029117584229,1.853081464767456,-0.3862845301628113
1667266065079489300,0.3014892578125,0.8137248754501343,1.8152090311050415,-0.3997231721878052
1667266065081887200,0.30388720703125,0.8625926971435547,1.7742822170257568,-0.4088858962059021
1667266065084285000,0.306284912109375,0.9077953696250916,1.732744574546814,-0.4204919934272766
1667266065086682600,0.3086826171875,0.9536089301109314,1.6857093572616577,-0.4320980906486511
1667266065089080600,0.31108056640625,0.9988116025924683,1.6350090503692627,-0.44492587447166443
1667266065091478300,0.313478271484375,1.0415709018707275,1.580643653869629,-0.45714282989501953
1667266065093876200,0.315876220703125,1.081886887550354,1.5268890857696533,-0.46813806891441345
1667266065096274000,0.31827392578125,1.1173160076141357,1.4731345176696777,-0.48218756914138794
1667266065098671900,0.320671875,1.149690866470337,1.4212125539779663,-0.49623703956604004
1667266065101069600,0.323069580078125,1.1796224117279053,1.3760098218917847,-0.5145624876022339
1667266065103467300,0.32546728515625,1.2089431285858154,1.3350830078125,-0.532887876033783
1667266065105865200,0.327865234375,1.2352094650268555,1.3014864921569824,-0.5554892420768738
1667266065108263000,0.330262939453125,1.2596434354782104,1.2782742977142334,-0.5811448097229004
1667266065110660900,0.332660888671875,1.2871315479278564,1.2709441184997559,-0.6098546385765076
1667266065113058600,0.33505859375,1.317673921585083,1.271554946899414,-0.6434512138366699
1667266065115456500,0.33745654296875,1.3506596088409424,1.2874369621276855,-0.6819345951080322
1667266065117854200,0.339854248046875,1.3879213333129883,1.3124816417694092,-0.7173637747764587
1667266065120252200,0.342252197265625,1.4270155429840088,1.3460782766342163,-0.755847156047821
1667266065122649900,0.34464990234375,1.4667205810546875,1.3894484043121338,-0.7931088209152222
1667266065125047800,0.3470478515625,1.5094798803329468,1.4389270544052124,-0.8309813141822815
1667266065127445500,0.349445556640625,1.5485742092132568,1.496957540512085,-0.865799605846405
1667266065129843200,0.35184326171875,1.5919443368911743,1.558042287826538,-0.8957311511039734
1667266065132241200,0.3542412109375,1.6310385465621948,1.617294430732727,-0.92138671875
1667266065134638800,0.356638916015625,1.6664676666259766,1.6698273420333862,-0.945209801197052
1667266065137036800,0.359036865234375,1.700675129890442,1.7205276489257812,-0.9610918164253235
1667266065139434500,0.3614345703125,1.7336609363555908,1.7693954706192017,-0.9714761972427368
1667266065141832400,0.36383251953125,1.761759877204895,1.8109331130981445,-0.9757521152496338
1667266065144230100,0.366230224609375,1.784972071647644,1.8463622331619263,-0.9739195704460144
1667266065146628000,0.368628173828125,1.802075743675232,1.8787370920181274,-0.9635351896286011
1667266065149025800,0.37102587890625,1.8161252737045288,1.905003547668457,-0.9464314579963684
1667266065151423500,0.373423583984375,1.8234554529190063,1.9208855628967285,-0.9207758903503418
1667266065153821400,0.375821533203125,1.8234554529190063,1.9306591749191284,-0.8884009718894958
1667266065156219100,0.37821923828125,1.8161252737045288,1.9312700033187866,-0.8462525010108948
1667266065158617000,0.3806171875,1.8045191764831543,1.9245506525039673,-0.7992172837257385
1667266065161014800,0.383014892578125,1.7874153852462769,1.9117228984832764,-0.7460735440254211
1667266065163412700,0.385412841796875,1.7635923624038696,1.894619107246399,-0.6862105131149292
1667266065165810400,0.387810546875,1.7379368543624878,1.87140691280365,-0.6220715641975403
1667266065168208400,0.39020849609375,1.7061727046966553,1.8469730615615845,-0.5542675256729126
1667266065170606000,0.392606201171875,1.6750195026397705,1.816430687904358,-0.47852247953414917
1667266065173003800,0.395003662109375,1.6420338153839111,1.7822232246398926,-0.40338826179504395
1667266065175401700,0.397401611328125,1.6114914417266846,1.7461832761764526,-0.3215347230434418
1667266065177799400,0.39979931640625,1.5821707248687744,1.7150300741195679,-0.2390703409910202
1667266065180197400,0.402197265625,1.5540717840194702,1.6893744468688965,-0.1486649513244629
1667266065182595000,0.404594970703125,1.5284161567687988,1.654556155204773,-0.057648710906505585
1667266065184993000,0.406992919921875,1.4997063875198364,1.608742594718933,0.03703261539340019
1667266065187390700,0.409390625,1.4581687450408936,1.5537663698196411,0.13049224019050598
1667266065189788700,0.41178857421875,1.3964731693267822,1.4853514432907104,0.2190650999546051
1667266065192186400,0.414186279296875,1.316452145576477,1.4114389419555664,0.30336201190948486
1667266065194584300,0.416584228515625,1.2211600542068481,1.3491325378417969,0.38216131925582886
1667266065196982000,0.41898193359375,1.1002122163772583,1.294767141342163,0.4530195891857147
1667266065199379700,0.421379638671875,0.9468895792961121,1.2416234016418457,0.5067741274833679
1667266065201777700,0.423777587890625,0.7563052773475647,1.1866471767425537,0.5452575087547302
1667266065204175400,0.42617529296875,0.5382328033447266,1.1060153245925903,0.5617504119873047
1667266065206573300,0.4285732421875,0.30305659770965576,0.9856784343719482,0.5623612403869629
1667266065208971000,0.430970947265625,0.07704310864210129,0.8500702977180481,0.5501443147659302
1667266065211369000,0.433368896484375,-0.1214822456240654,0.725457489490509,0.5293754935264587
1667266065213766700,0.4357666015625,-0.278469979763031,0.6112290620803833,0.5183802843093872
1667266065216164600,0.43816455078125,-0.39949411153793335,0.5269321203231812,0.5208236575126648
1667266065218562300,0.440562255859375,-0.4862344264984131,0.4658474028110504,0.540370762348175
1667266065220960000,0.4429599609375,-0.5418215394020081,0.4133145213127136,0.5751890540122986
1667266065223358000,0.44535791015625,-0.5717530250549316,0.35833826661109924,0.6240568161010742
1667266065225755600,0.447755615234375,-0.5931326746940613,0.3082487881183624,0.6802547574043274
1667266065228153600,0.450153564453125,-0.6114581227302551,0.26243525743484497,0.7456917762756348
1667266065230551300,0.45255126953125,-0.624285876750946,0.21601086854934692,0.8147175312042236
1667266065232949200,0.45494921875,-0.6328377723693848,0.1677539348602295,0.8825215697288513
1667266065235347000,0.457346923828125,-0.6322268843650818,0.10422581434249878,0.9417737722396851
1667266065237745000,0.459744873046875,-0.6273401379585266,0.018707197159528732,0.9955283403396606
1667266065240142600,0.462142578125,-0.6181774139404297,-0.09063446521759033,1.03828763961792
1667266065242540300,0.464540283203125,-0.5967977643013,-0.22868594527244568,1.0663865804672241
1667266065244938200,0.466938232421875,-0.5644228458404541,-0.396668940782547,1.0792144536972046
1667266065247336000,0.4693359375,-0.517998456954956,-0.5977140665054321,1.074938416481018
1667266065249734000,0.47173388671875,-0.45324867963790894,-0.8206732869148254,1.056002140045166
1667266065252131600,0.474131591796875,-0.37567105889320374,-1.0619579553604126,1.0266815423965454
1667266065254529500,0.476529541015625,-0.28641101717948914,-1.3056859970092773,0.9875873327255249
1667266065256927200,0.47892724609375,-0.19478392601013184,-1.549414038658142,0.9411629438400269
1667266065259325200,0.4813251953125,-0.0946049690246582,-1.786422848701477,0.8904625773429871
1667266065261723000,0.483722900390625,0.01046075951308012,-2.021599054336548,0.8336538076400757
1667266065264120800,0.486120849609375,0.12530004978179932,-2.2494449615478516,0.7731798887252808
1667266065266518500,0.4885185546875,0.24013933539390564,-2.4595766067504883,0.7095754742622375
1667266065268916200,0.490916259765625,0.3531460762023926,-2.6489391326904297,0.6497124433517456
1667266065271314200,0.493314208984375,0.4582118093967438,-2.8053159713745117,0.5898494124412537
1667266065273711900,0.4957119140625,0.5559473633766174,-2.925042152404785,0.5409815907478333
1667266065276109800,0.49810986328125,0.641465961933136,-3.0075063705444336,0.4933355152606964
1667266065278507500,0.500507568359375,0.7166001796722412,-3.0624828338623047,0.4579063653945923
1667266065280905500,0.502905517578125,0.7819608449935913,-3.0905816555023193,0.42492061853408813
1667266065283303200,0.50530322265625,0.8326611518859863,-3.0973010063171387,0.39437827467918396
1667266065285700900,0.507700927734375,0.873587965965271,-3.0936360359191895,0.3626142144203186
1667266065288098800,0.510098876953125,0.9096279144287109,-3.0856950283050537,0.3271850645542145
1667266065290496500,0.51249658203125,0.9346726536750793,-3.074699640274048,0.28931254148483276
1667266065292894500,0.51489453125,0.956052303314209,-3.071645498275757,0.2477749139070511
1667266065295292200,0.517292236328125,0.9743777513504028,-3.0685911178588867,0.20318306982517242
1667266065297690000,0.519690185546875,0.9951465129852295,-3.0594284534454346,0.16347800195217133
1667266065300087800,0.522087890625,1.0140827894210815,-3.046600818634033,0.1286597102880478
1667266065302485800,0.52448583984375,1.035462498664856,-3.019723415374756,0.10117157548666
1667266065304883500,0.526883544921875,1.0568420886993408,-2.979407548904419,0.07673768699169159
1667266065307281400,0.529281494140625,1.0745567083358765,-2.9238204956054688,0.06635328382253647
1667266065309679000,0.53167919921875,1.0910495519638062,-2.8627357482910156,0.060244809836149216
1667266065312076800,0.534076904296875,1.0971580743789673,-2.788823127746582,0.06146650388836861
1667266065314474800,0.536474853515625,1.1020448207855225,-2.7124671936035156,0.06574243307113647
1667266065316872400,0.53887255859375,1.0934929847717285,-2.6324462890625,0.060244809836149216
1667266065319270400,0.5412705078125,1.0794434547424316,-2.554257869720459,0.051082100719213486
1667266065321668000,0.543668212890625,1.0592855215072632,-2.4840104579925537,0.0364217683672905
1667266065324066000,0.546066162109375,1.0336298942565918,-2.4198713302612305,0.01626380905508995
1667266065326463700,0.548463623046875,1.0030875205993652,-2.372225284576416,-0.014889402315020561
1667266065328861700,0.55086181640625,0.9688801169395447,-2.3306877613067627,-0.05215108394622803
1667266065331259400,0.55325927734375,0.9273424744606018,-2.299534559249878,-0.10101886838674545
1667266065333657000,0.555656982421875,0.8809180855751038,-2.285485029220581,-0.1474432498216629
1667266065336055000,0.558054931640625,0.8332720398902893,-2.290982723236084,-0.20180866122245789
1667266065338452700,0.56045263671875,0.7819608449935913,-2.314805746078491,-0.2537306845188141
1667266065340850700,0.5628505859375,0.7300388216972351,-2.3612301349639893,-0.3038201630115509
1667266065343248400,0.565248291015625,0.6744517087936401,-2.4229257106781006,-0.3465794622898102
1667266065345646300,0.567646240234375,0.6188646554946899,-2.4925622940063477,-0.37956520915031433
1667266065348044000,0.5700439453125,0.559001624584198,-2.568307399749756,-0.40033403038978577
1667266065350442000,0.57244189453125,0.5003602504730225,-2.6397764682769775,-0.40522080659866333
1667266065352839700,0.574839599609375,0.43866467475891113,-2.708191394805908,-0.3978906273841858
1667266065355237400,0.5772373046875,0.3751365840435028,-2.7753844261169434,-0.37590011954307556
1667266065357635300,0.57963525390625,0.31588438153266907,-2.826695680618286,-0.341081827878952
1667266065360033000,0.582032958984375,0.25479966402053833,-2.8480753898620605,-0.2885489761829376
1667266065362431000,0.584430908203125,0.193104088306427,-2.8480753898620605,-0.2244100123643875
1667266065364828700,0.58682861328125,0.13324105739593506,-2.8279173374176025,-0.14988665282726288
1667266065367226600,0.5892265625,0.08070819079875946,-2.759502410888672,-0.07658497244119644
1667266065369624300,0.591624267578125,0.053830914199352264,-2.5646421909332275,-0.03871244564652443
1667266065372022300,0.594022216796875,0.061771929264068604,-2.2237894535064697,-0.05459447205066681
1667266065374420000,0.596419921875,0.0886492058634758,-1.8969861268997192,-0.07658497244119644
1667266065376818000,0.59881787109375,0.09842276573181152,-1.656312346458435,-0.07536327838897705
1667266065379215600,0.601215576171875,0.10025530308485031,-1.443737506866455,-0.06131379306316376
1667266065381613300,0.60361328125,0.11186140775680542,-1.2024527788162231,-0.06253548711538315
1667266065384011300,0.60601123046875,0.14423631131649017,-0.9361234307289124,-0.08452598750591278
1667266065386409000,0.608408935546875,0.1924932450056076,-0.689341127872467,-0.12728530168533325
1667266065388807000,0.610806884765625,0.24991288781166077,-0.47859883308410645,-0.1853157877922058
1667266065391204600,0.61320458984375,0.3256579339504242,-0.28549474477767944,-0.25861746072769165
1667266065393602600,0.6156025390625,0.40934401750564575,-0.11995512992143631,-0.3447469174861908
1667266065396000300,0.618000244140625,0.5028036236763,0.007101099472492933,-0.4382065534591675
1667266065398398000,0.62039794921875,0.6029825806617737,0.09017632901668549,-0.5359421372413635
1667266065400796000,0.6227958984375,0.7074374556541443,0.13476817309856415,-0.6336776614189148
1667266065403193600,0.625193603515625,0.8167791366577148,0.13904410600662231,-0.7277481555938721
1667266065405591600,0.627591552734375,0.9297859072685242,0.10483665764331818,-0.8169318437576294
1667266065407989200,0.6299892578125,1.0470685958862305,0.049860406666994095,-0.898174524307251
1667266065410387200,0.63238720703125,1.1716814041137695,0.019318044185638428,-0.9702545404434204
1667266065412785000,0.634784912109375,1.3017919063568115,0.048638712614774704,-1.038669466972351
1667266065415182800,0.637182861328125,1.4270155429840088,0.10728005319833755,-1.0966999530792236
1667266065417580500,0.63958056640625,1.5333030223846436,0.07857023179531097,-1.1266313791275024
1667266065419978500,0.641978515625,1.6102697849273682,-0.082082599401474,-1.1217446327209473
1667266065422376200,0.644376220703125,1.6628025770187378,-0.32458895444869995,-1.0814287662506104
1667266065424774000,0.64677392578125,1.6872364282608032,-0.592216432094574,-1.0087379217147827
1667266065427171800,0.649171875,1.6915124654769897,-0.846328854560852,-0.9103915095329285
1667266065429569500,0.651569580078125,1.6670784950256348,-1.0381349325180054,-0.8028823733329773
1667266065431967500,0.653967529296875,1.618210792541504,-1.1535850763320923,-0.689875602722168
1667266065434365200,0.656365234375,1.5614019632339478,-1.2555965185165405,-0.5744255185127258
1667266065436763100,0.65876318359375,1.4960412979125977,-1.359440565109253,-0.45531028509140015
1667266065439160800,0.661160888671875,1.4245721101760864,-1.4736690521240234,-0.32764318585395813
1667266065441558800,0.663558837890625,1.3488271236419678,-1.5940059423446655,-0.19081340730190277
1667266065443956500,0.66595654296875,1.2688060998916626,-1.7106777429580688,-0.0423775278031826
1667266065446354200,0.668354248046875,1.183287501335144,-1.8206303119659424,0.10300412029027939
1667266065448752000,0.670752197265625,1.0977689027786255,-1.923863410949707,0.25143998861312866
1667266065451149800,0.67314990234375,1.016526222229004,-2.027707576751709,0.4004867374897003
1667266065453547800,0.6755478515625,0.9407811164855957,-2.1449902057647705,0.5440358519554138
1667266065455945500,0.677945556640625,0.8699228763580322,-2.2818198204040527,0.6820873022079468
1667266065458343400,0.680343505859375,0.8100598454475403,-2.43636417388916,0.8141067028045654
1667266065460741000,0.6827412109375,0.7642462849617004,-2.6074016094207764,0.9393303990364075
1667266065463139000,0.68513916015625,0.7263737320899963,-2.7784388065338135,1.0541696548461914
1667266065465536800,0.687536865234375,0.7031615376472473,-2.9122142791748047,1.1433533430099487
1667266065467934500,0.6899345703125,0.7025507092475891,-2.991624355316162,1.2019946575164795
1667266065470332400,0.69233251953125,0.7104917168617249,-3.008117437362671,1.236812949180603
1667266065472730000,0.694730224609375,0.7147676348686218,-2.950086832046509,1.2545275688171387
1667266065475128000,0.697128173828125,0.7056049108505249,-2.8163113594055176,1.2551383972167969
1667266065477525800,0.69952587890625,0.6848361492156982,-2.6190075874328613,1.2404780387878418
1667266065479923700,0.701923828125,0.6628456115722656,-2.3826098442077637,1.2142115831375122
1667266065482321400,0.7043212890625,0.6445202231407166,-2.126053810119629,1.177560806274414
1667266065484719400,0.70671923828125,0.6402443051338196,-1.8670547008514404,1.1286929845809937
1667266065487117000,0.709116943359375,0.6494069695472717,-1.618439793586731,1.0743275880813599
1667266065489515000,0.711514892578125,0.6781167984008789,-1.3808202743530273,1.0120211839675903
1667266065491912700,0.71391259765625,0.72026526927948,-1.1401463747024536,0.9466605186462402
1667266065494310400,0.716310302734375,0.7752415537834167,-0.8896990418434143,0.8684720993041992
1667266065496708400,0.718708251953125,0.841213047504425,-0.6245913505554199,0.7853968739509583
1667266065499106000,0.72110595703125,0.9151255488395691,-0.35207709670066833,0.6961368322372437
1667266065501504000,0.72350390625,0.9963682293891907,-0.07780666649341583,0.600233793258667
1667266065503901700,0.725901611328125,1.081886887550354,0.19096612930297852,0.5043307542800903
1667266065506299600,0.728299560546875,1.1704597473144531,0.44874367117881775,0.40842774510383606
1667266065508697300,0.730697265625,1.2639193534851074,0.683309018611908,0.31435728073120117
1667266065511095000,0.733094970703125,1.35798978805542,0.8952730298042297,0.22395187616348267
1667266065513493000,0.735492919921875,1.4496169090270996,1.0828031301498413,0.13721156120300293
1667266065515890700,0.737890625,1.5424656867980957,1.2458993196487427,0.05963396281003952
1667266065518288600,0.74028857421875,1.6340928077697754,1.372344732284546,-0.012446013279259205
1667266065520686300,0.742686279296875,1.7183897495269775,1.4700802564620972,-0.07963921129703522
1667266065523084300,0.745084228515625,1.7996324300765991,1.5415494441986084,-0.14072394371032715
1667266065525482000,0.74748193359375,1.872934103012085,1.585530400276184,-0.19631104171276093
1667266065527880000,0.7498798828125,1.9352405071258545,1.6026341915130615,-0.24578966200351715
1667266065530277600,0.752277587890625,1.992049217224121,1.5959148406982422,-0.2922140657901764
1667266065532675600,0.754675537109375,2.0403060913085938,1.5641508102416992,-0.3270323574542999
1667266065535073300,0.7570732421875,2.0806221961975098,1.5061203241348267,-0.3563530147075653
1667266065537471000,0.759470947265625,2.1093318462371826,1.4175474643707275,-0.3813977539539337
1667266065539869000,0.761868896484375,2.127046585083008,1.3063732385635376,-0.3936147093772888
1667266065542266600,0.7642666015625,2.1374309062957764,1.178706169128418,-0.40155571699142456
1667266065544664600,0.76666455078125,2.136820077896118,1.0321028232574463,-0.40338826179504395
1667266065547062300,0.769062255859375,2.1264357566833496,0.8787801265716553,-0.3985014855861664
1667266065549460200,0.771460205078125,2.109942674636841,0.7279008626937866,-0.39178216457366943
1667266065551858000,0.77385791015625,2.0916173458099365,0.5843517780303955,-0.3844519853591919
1667266065554256000,0.776255859375,2.067183494567871,0.4426352083683014,-0.37590011954307556
1667266065556653600,0.778653564453125,2.0366411209106445,0.30214032530784607,-0.3697916567325592
1667266065559051500,0.781051513671875,1.9951034784317017,0.17264071106910706,-0.36307233572006226
1667266065561449200,0.78344921875,1.9395164251327515,0.05596888065338135,-0.3575747013092041
1667266065563847000,0.785846923828125,1.8741557598114014,-0.04665346071124077,-0.3551313281059265
1667266065566244900,0.788244873046875,1.7941347360610962,-0.14011308550834656,-0.3539096415042877
1667266065568642600,0.790642578125,1.696399211883545,-0.21707984805107117,-0.3581855595111847
1667266065571040500,0.79304052734375,1.5821707248687744,-0.2787754237651825,-0.36490488052368164
1667266065573438200,0.795438232421875,1.4453409910202026,-0.32275640964508057,-0.37712183594703674
1667266065575836000,0.7978359375,1.2938508987426758,-0.3545204699039459,-0.38933876156806946
1667266065578233900,0.80023388671875,1.1252570152282715,-0.3697916567325592,-0.40460994839668274
1667266065580631600,0.802631591796875,0.9493330121040344,-0.371013343334198,-0.4211028218269348
1667266065583029500,0.805029541015625,0.7697439193725586,-0.366737425327301,-0.4363740086555481
1667266065585427200,0.80742724609375,0.5950415730476379,-0.3673482835292816,-0.45714282989501953
1667266065587825200,0.8098251953125,0.4453839957714081,-0.40460994839668274,-0.48340925574302673
1667266065590222800,0.812222900390625,0.3335989713668823,-0.4608842432498932,-0.5157841444015503
1667266065592620800,0.814620849609375,0.2602972984313965,-0.5189147591590881,-0.5396072268486023
1667266065595018500,0.8170185546875,0.22853323817253113,-0.5848862528800964,-0.5683169960975647
1667266065597416400,0.81941650390625,0.23525254428386688,-0.6850652098655701,-0.60252445936203
1667266065599814100,0.821814208984375,0.26396235823631287,-0.7748597264289856,-0.6330668330192566
1667266065602211800,0.8242119140625,0.30611082911491394,-0.8316685557365417,-0.6575007438659668
1667266065604609800,0.82660986328125,0.3507026731967926,-0.8738170266151428,-0.6868214011192322
1667266065607007500,0.829007568359375,0.39468368887901306,-0.9000834226608276,-0.7222505211830139
1667266065609405400,0.831405517578125,0.43316707015037537,-0.878703773021698,-0.7582905292510986
1667266065611803100,0.83380322265625,0.46004435420036316,-0.8212841153144836,-0.791887104511261
1667266065614201000,0.836201171875,0.47592636942863464,-0.7363763451576233,-0.8303704857826233
1667266065616598800,0.838598876953125,0.4826456904411316,-0.6398624777793884,-0.8688538670539856
1667266065618996700,0.840996826171875,0.482034832239151,-0.5201364159584045,-0.8993962407112122
1667266065621394400,0.84339453125,0.4826456904411316,-0.39056047797203064,-0.9201650619506836
1667266065623792400,0.84579248046875,0.48508909344673157,-0.2659476399421692,-0.9415447115898132
1667266065626190000,0.848190185546875,0.48936501145362854,-0.15782766044139862,-0.9580375552177429
1667266065628588000,0.850588134765625,0.49913856387138367,-0.08452598750591278,-0.9763630032539368
1667266065630985700,0.85298583984375,0.5174639821052551,-0.056427016854286194,-0.9995751976966858
1667266065633383400,0.855383544921875,0.5345677137374878,-0.05031854286789894,-1.019733190536499
1667266065635781400,0.857781494140625,0.5486171841621399,-0.05459447205066681,-1.0337826013565063
1667266065638179000,0.860178955078125,0.5657209157943726,-0.082082599401474,-1.0435562133789062
1667266065640577000,0.862576904296875,0.5852680206298828,-0.13095037639141083,-1.0490537881851196
1667266065642974700,0.864974609375,0.6066476702690125,-0.1877591758966446,-1.0447778701782227
1667266065645372700,0.86737255859375,0.6268056631088257,-0.2512872815132141,-1.0301175117492676
1667266065647770400,0.869770263671875,0.6445202231407166,-0.3050418496131897,-1.0075161457061768
1667266065650168000,0.87216796875,0.6640673279762268,-0.34719032049179077,-0.9806389212608337
1667266065652566000,0.87456591796875,0.6842252612113953,-0.37651097774505615,-0.9525399208068848
1667266065654963700,0.876963623046875,0.7037724256515503,-0.3930038511753082,-0.9207758903503418
1667266065657361700,0.879361572265625,0.7239303588867188,-0.40094485878944397,-0.8847358822822571
1667266065659759400,0.88175927734375,0.7410340905189514,-0.3985014855861664,-0.847474217414856
1667266065662157300,0.8841572265625,0.7581378221511841,-0.38933876156806946,-0.8126559257507324
1667266065664555000,0.886554931640625,0.7697439193725586,-0.3728458881378174,-0.7802810072898865
1667266065666953000,0.888952880859375,0.775852382183075,-0.35146623849868774,-0.7417976260185242
1667266065669350700,0.8913505859375,0.7764632105827332,-0.32519981265068054,-0.7051467895507812
1667266065671748400,0.893748291015625,0.770965576171875,-0.29954421520233154,-0.6709393858909607
1667266065674146300,0.896146240234375,0.762413740158081,-0.27205610275268555,-0.6428403854370117
1667266065676544000,0.8985439453125,0.747753381729126,-0.2500655949115753,-0.6214607357978821
1667266065678942000,0.90094189453125,0.7337039113044739,-0.2378486543893814,-0.6092438101768494
1667266065681339600,0.903339599609375,0.7214869856834412,-0.23601610958576202,-0.6092438101768494
1667266065683737600,0.905737548828125,0.7141568064689636,-0.24640052020549774,-0.6251258254051208
1667266065686135300,0.90813525390625,0.7074374556541443,-0.25922831892967224,-0.653835654258728
1667266065688533200,0.910533203125,0.7043832540512085,-0.26900187134742737,-0.6984274983406067
1667266065690931000,0.912930908203125,0.7043832540512085,-0.2781645655632019,-0.7509603500366211
1667266065693329000,0.915328857421875,0.7025507092475891,-0.27388864755630493,-0.8163210153579712
1667266065695726600,0.9177265625,0.7013289928436279,-0.2549523711204529,-0.8908443450927734
1667266065698124300,0.920124267578125,0.7001073360443115,-0.2140256017446518,-0.9659785628318787
1667266065700522200,0.922522216796875,0.692777156829834,-0.15233004093170166,-1.0447778701782227
1667266065702920000,0.924919921875,0.6817818880081177,-0.06192464008927345,-1.1278531551361084
1667266065705318000,0.92731787109375,0.6713975071907043,0.04130854457616806,-1.2170368432998657
1667266065707715600,0.929715576171875,0.6555154919624329,0.15981291234493256,-1.3111072778701782
1667266065710113500,0.932113525390625,0.637190043926239,0.29175591468811035,-1.4039560556411743
1667266065712511200,0.93451123046875,0.6176429390907288,0.41148197650909424,-1.5053566694259644
1667266065714909200,0.9369091796875,0.5852680206298828,0.5409815907478333,-1.6043139696121216
1667266065717307000,0.939306884765625,0.5449520945549011,0.6814764738082886,-1.7002170085906982
1667266065719704800,0.941704833984375,0.49058669805526733,0.8115869164466858,-1.7912331819534302
1667266065722102500,0.9441025390625,0.4429406225681305,0.9368106126785278,-1.8718650341033936
1667266065724500500,0.94650048828125,0.39407283067703247,1.0559258460998535,-1.9415780305862427
1667266065726898200,0.948898193359375,0.35558944940567017,1.1677109003067017,-1.9837265014648438
1667266065729296000,0.9512958984375,0.3366532027721405,1.2678898572921753,-1.9861698150634766
1667266065731693800,0.95369384765625,0.33176642656326294,1.3503541946411133,-1.9262304306030273
1667266065734091500,0.956091552734375,0.3476484417915344,1.3937243223190308,-1.7955092191696167
1667266065736489500,0.958489501953125,0.36841726303100586,1.3515759706497192,-1.592707872390747
1667266065738887200,0.96088720703125,0.38613182306289673,1.1958098411560059,-1.3318760395050049
1667266065741285000,0.96328515625,0.3879643678665161,0.919096052646637,-1.038669466972351
1667266065743682800,0.965682861328125,0.3751365840435028,0.5379273891448975,-0.7399650812149048
1667266065746080800,0.968080810546875,0.3537569046020508,0.10972344130277634,-0.4638621509075165
1667266065748478500,0.970478515625,0.32993388175964355,-0.3172588050365448,-0.23479440808296204
1667266065750876200,0.972876220703125,0.30733251571655273,-0.689341127872467,-0.0680331140756607
1667266065753274000,0.975274169921875,0.28106608986854553,-0.9733850955963135,0.032756682485342026
1667266065755671800,0.977671875,0.24930204451084137,-1.1548067331314087,0.07857023179531097
1667266065758069800,0.98006982421875,0.21326205134391785,-1.231162667274475,0.08040276914834976
1667266065760467500,0.982467529296875,0.17538951337337494,-1.2195565700531006,0.04375193640589714
1667266065762865400,0.984865478515625,0.13873867690563202,-1.1267077922821045,-0.026495499536395073
1667266065765263000,0.98726318359375,0.11063970625400543,-0.9776610136032104,-0.11995512992143631
1667266065767660800,0.989660888671875,0.09048175066709518,-0.7797465324401855,-0.24334627389907837
1667266065770058800,0.992058837890625,0.08131904155015945,-0.540905237197876,-0.38933876156806946
1667266065772456400,0.99445654296875,0.07215633243322372,-0.28732728958129883,-0.5408288836479187
1667266065774854400,0.9968544921875,0.05993938818573952,-0.048486001789569855,-0.6801020503044128
1667266065777252000,0.999252197265625,0.040392275899648666,0.15065020322799683,-0.7955521941184998
1667266065779650000,1.001650146484375,0.020845163613557816,0.31680065393447876,-0.8877901434898376
1667266065782047700,1.0040478515625,0.00007635590736754239,0.4291965663433075,-0.9598701000213623
1667266065784445700,1.00644580078125,-0.015805672854185104,0.4841728210449219,-1.0209548473358154
1667266065786843400,1.008843505859375,-0.029855160042643547,0.4817294180393219,-1.0655466318130493
1667266065789241300,1.011241455078125,-0.044515494257211685,0.4316399395465851,-1.0912022590637207
1667266065791639000,1.01363916015625,-0.0561215914785862,0.34551048278808594,-1.089369773864746
1667266065794036700,1.01603662109375,-0.0683385357260704,0.2575484812259674,-1.0582165718078613
1667266065796434700,1.0184345703125,-0.08299887180328369,0.19096612930297852,-1.0075161457061768
1667266065798832400,1.020832275390625,-0.09216158092021942,0.12071868777275085,-0.944598913192749
1667266065801230300,1.023230224609375,-0.09949174523353577,0.04680617153644562,-0.8780165910720825
1667266065803628000,1.0256279296875,-0.10437852889299393,-0.03199312463402748,-0.8163210153579712
1667266065806026000,1.02802587890625,-0.10315682739019394,-0.11629004776477814,-0.768674910068512
1667266065808423700,1.030423583984375,-0.09888090193271637,-0.19264595210552216,-0.7344674468040466
1667266065810821600,1.032821533203125,-0.08605311065912247,-0.26167169213294983,-0.7161420583724976
1667266065813219300,1.03521923828125,-0.06589514762163162,-0.32764318585395813,-0.7094227075576782
1667266065815617300,1.0376171875,-0.04634803533554077,-0.37651097774505615,-0.7167528867721558
1667266065818015000,1.040014892578125,-0.026190076023340225,-0.4064424932003021,-0.732024073600769
1667266065820413000,1.042412841796875,-0.010308047756552696,-0.4211028218269348,-0.7552362680435181
1667266065822810600,1.044810546875,0.0067956759594380856,-0.41682690382003784,-0.7735617160797119
1667266065825208300,1.047208251953125,0.05077667906880379,-0.3978906273841858,-0.7955521941184998
1667266065827606300,1.049606201171875,0.11308310180902481,-0.3587964177131653,-0.8053257465362549
1667266065830004000,1.05200390625,0.14851224422454834,-0.30015507340431213,-0.8059365749359131
1667266065832402000,1.05440185546875,0.14545799791812897,-0.25678491592407227,-0.8034932017326355
1667266065834799600,1.056799560546875,0.10819631814956665,-0.2506764531135559,-0.8028823733329773
1667266065837197600,1.059197509765625,0.05016583204269409,-0.2793862521648407,-0.7973847389221191
1667266065839595300,1.06159521484375,-0.026190076023340225,-0.32642149925231934,-0.7827243804931641
1667266065841993200,1.0639931640625,-0.11964970827102661,-0.38811707496643066,-0.7589013576507568
1667266065844391000,1.066390869140625,-0.22166119515895844,-0.4694361090660095,-0.7240830659866333
1667266065846788900,1.068788818359375,-0.32313820719718933,-0.5781669020652771,-0.6752153038978577
1667266065849186600,1.0711865234375,-0.41110020875930786,-0.7015580534934998,-0.6159631013870239
1667266065851584300,1.073584228515625,-0.47768256068229675,-0.8304468393325806,-0.5469373464584351
1667266065853982200,1.075982177734375,-0.5234960913658142,-0.9403993487358093,-0.4779116213321686
1667266065856380000,1.0783798828125,-0.5522059202194214,-1.0253071784973145,-0.4082750380039215
1667266065858777900,1.08077783203125,-0.569309651851654,-1.077839970588684,-0.3453577756881714
1667266065861175600,1.083175537109375,-0.5858024954795837,-1.0973870754241943,-0.2940466105937958
1667266065863573200,1.0855732421875,-0.5992411375045776,-1.0845593214035034,-0.25983914732933044
1667266065865971200,1.08797119140625,-0.605960488319397,-1.0350806713104248,-0.2390703409910202
1667266065868369200,1.090369140625,-0.6022953987121582,-0.9465078115463257,-0.22318831086158752
1667266065870766800,1.092766845703125,-0.5851916670799255,-0.8322793841362,-0.21463645994663239
1667266065873164800,1.095164794921875,-0.5619794726371765,-0.697892963886261,-0.2134147584438324
1667266065875562500,1.0975625,-0.5351021885871887,-0.5628957748413086,-0.22196662425994873
1667266065877960200,1.099960205078125,-0.5076140761375427,-0.43148723244667053,-0.24456797540187836
1667266065880358100,1.102358154296875,-0.47951510548591614,-0.3050418496131897,-0.2769428789615631
1667266065882755800,1.104755859375,-0.45202696323394775,-0.1871483325958252,-0.31359371542930603
1667266065885153800,1.10715380859375,-0.4300364851951599,-0.0680331140756607,-0.3563530147075653
1667266065887551500,1.109551513671875,-0.41232189536094666,0.03886515647172928,-0.3978906273841858
1667266065889949200,1.11194921875,-0.39643988013267517,0.13110309839248657,-0.43881741166114807
1667266065892347100,1.11434716796875,-0.3781144618988037,0.19951798021793365,-0.4724139869213104
1667266065894744800,1.116744873046875,-0.3561239540576935,0.24960745871067047,-0.49318280816078186
1667266065897142800,1.119142822265625,-0.32252734899520874,0.2880908250808716,-0.500512957572937
1667266065899540500,1.12154052734375,-0.278469979763031,0.30641624331474304,-0.49257194995880127
1667266065901938400,1.1239384765625,-0.23082390427589417,0.3119138777256012,-0.4736357033252716
1667266065904336100,1.126336181640625,-0.18439951539039612,0.30397287011146545,-0.445536732673645
1667266065906734000,1.128734130859375,-0.1477486789226532,0.27953898906707764,-0.4094967246055603
1667266065909131800,1.1311318359375,-0.12636902928352356,0.22700610756874084,-0.3673482835292816
1667266065911529700,1.13352978515625,-0.13003410398960114,0.14942851662635803,-0.3197021782398224
1667266065913927400,1.135927490234375,-0.1465269923210144,0.07246175408363342,-0.2641150951385498
1667266065916325400,1.138325439453125,-0.15691138803958893,-0.015500249341130257,-0.20913882553577423
1667266065918723000,1.14072314453125,-0.1593547761440277,-0.1211768239736557,-0.16943375766277313
1667266065921120800,1.143120849609375,-0.15080291032791138,-0.2402920424938202,-0.14133478701114655
1667266065923518700,1.145518798828125,-0.13186664879322052,-0.36429402232170105,-0.12789614498615265
1667266065925916400,1.14791650390625,-0.1086544543504715,-0.45355409383773804,-0.1211768239736557
1667266065928314400,1.150314453125,-0.09338327497243881,-0.5219689607620239,-0.12300936877727509
1667266065930712000,1.152712158203125,-0.0811663269996643,-0.5971031785011292,-0.14011308550834656
1667266065933110000,1.155110107421875,-0.07444700598716736,-0.6612421870231628,-0.1602710485458374
1667266065935507700,1.1575078125,-0.08727480471134186,-0.6765133142471313,-0.1724879890680313
1667266065937905700,1.15990576171875,-0.11048699915409088,-0.6789567470550537,-0.18165069818496704
1667266065940303400,1.162303466796875,-0.1471378356218338,-0.6453601121902466,-0.18348324298858643
1667266065942701300,1.164701416015625,-0.19234053790569305,-0.5763344168663025,-0.18226155638694763
1667266065945099000,1.16709912109375,-0.2375432252883911,-0.5360184907913208,-0.19142426550388336
1667266065947496700,1.16949658203125,-0.2686964273452759,-0.5415160655975342,-0.21524730324745178
1667266065949894700,1.171894775390625,-0.29801711440086365,-0.5519005060195923,-0.23601610958576202
1667266065952292400,1.174292236328125,-0.3280249834060669,-0.5372401475906372,-0.2525089979171753
1667266065954690300,1.176690185546875,-0.3549022674560547,-0.536629319190979,-0.2757211923599243
1667266065957088000,1.179087890625,-0.3799470067024231,-0.5433486104011536,-0.29893338680267334
1667266065959486000,1.18148583984375,-0.42453885078430176,-0.47920966148376465,-0.31176117062568665
1667266065961883600,1.183883544921875,-0.4703523814678192,-0.41438350081443787,-0.3331408202648163
1667266065964281600,1.186281494140625,-0.5015056133270264,-0.4131618142127991,-0.3807868957519531
1667266065966679300,1.18867919921875,-0.5173876285552979,-0.45233240723609924,-0.4492017924785614
1667266065969077200,1.1910771484375,-0.5332696437835693,-0.4682144224643707,-0.5115082263946533
1667266065971475000,1.193474853515625,-0.5558710098266602,-0.42721131443977356,-0.5634302496910095
1667266065973872600,1.19587255859375,-0.569309651851654,-0.3673482835292816,-0.6171848177909851
1667266065976270600,1.1982705078125,-0.5662553906440735,-0.2885489761829376,-0.6923190355300903
1667266065978668300,1.200668212890625,-0.5369347333908081,-0.24945475161075592,-0.8028823733329773
1667266065981066200,1.203066162109375,-0.49051034450531006,-0.2512872815132141,-0.925662636756897
1667266065983464000,1.2054638671875,-0.4489727318286896,-0.2140256017446518,-1.0441670417785645
1667266065985862000,1.20786181640625,-0.416597843170166,-0.15721681714057922,-1.158395528793335
1667266065988259600,1.210259521484375,-0.38544461131095886,-0.08941277116537094,-1.268347978591919
1667266065990657500,1.212657470703125,-0.3665083646774292,-0.03321481868624687,-1.3746354579925537
1667266065993055200,1.21505517578125,-0.365286648273468,-0.002672456670552492,-1.4717601537704468
1667266065995453200,1.217453125,-0.3775036036968231,0.0028251686599105597,-1.5530028343200684
1667266065997851000,1.219850830078125,-0.3903313875198364,-0.011835165321826935,-1.6061464548110962
1667266066000248600,1.22224853515625,-0.3939964771270752,-0.03565821051597595,-1.6263045072555542
1667266066002646500,1.224646484375,-0.39827242493629456,-0.06986565887928009,-1.620195984840393
1667266066005044200,1.227044189453125,-0.4043808877468109,-0.11873343586921692,-1.5988163948059082
1667266066007442200,1.229442138671875,-0.39949411153793335,-0.17798562347888947,-1.5701065063476562
1667266066009839900,1.23183984375,-0.395218163728714,-0.24334627389907837,-1.535899043083191
1667266066012237800,1.23423779296875,-0.390942245721817,-0.31053948402404785,-1.5035241842269897
1667266066014635500,1.236635498046875,-0.37322768568992615,-0.3600181043148041,-1.4797011613845825
1667266066017033500,1.239033447265625,-0.3561239540576935,-0.37651097774505615,-1.4650408029556274
1667266066019431200,1.24143115234375,-0.34573954343795776,-0.3844519853591919,-1.4815336465835571
1667266066021829000,1.2438291015625,-0.3384093940258026,-0.41438350081443787,-1.5346773862838745
1667266066024226800,1.246226806640625,-0.33230090141296387,-0.4480564594268799,-1.6122549772262573
1667266066026624500,1.24862451171875,-0.3255815804004669,-0.5012001991271973,-1.7087688446044922
1667266066029022500,1.2510224609375,-0.3249707520008087,-0.5268557667732239,-1.8077261447906494
1667266066031420200,1.253420166015625,-0.32374903559684753,-0.4963133931159973,-1.8993531465530396
1667266066033818000,1.255818115234375,-0.32130566239356995,-0.47554460167884827,-2.0008301734924316
1667266066036215800,1.2582158203125,-0.3151971995830536,-0.4706578254699707,-2.1126153469085693
1667266066038613800,1.26061376953125,-0.30603447556495667,-0.4700469672679901,-2.2292871475219727
1667266066041011500,1.263011474609375,-0.29679539799690247,-0.46393850445747375,-2.349013090133667
1667266066043409400,1.265409423828125,-0.2900761067867279,-0.4456130862236023,-2.4601874351501465
1667266066045807000,1.26780712890625,-0.28580015897750854,-0.4088858962059021,-2.5676965713500977
1667266066048205000,1.270205078125,-0.28274592757225037,-0.36490488052368164,-2.6770381927490234
1667266066050602800,1.272602783203125,-0.28274592757225037,-0.3172588050365448,-2.7894339561462402
1667266066053000400,1.27500048828125,-0.28396761417388916,-0.26045000553131104,-2.8999974727630615
1667266066055398400,1.2773984375,-0.28580015897750854,-0.188370019197464,-3.0093390941619873
1667266066057796000,1.279796142578125,-0.2894652485847473,-0.10590564459562302,-3.1150155067443848
1667266066060194000,1.282194091796875,-0.2906869351863861,-0.006948387715965509,-3.2158052921295166
1667266066062591700,1.284591796875,-0.2925194799900055,0.08467870205640793,-3.2958264350891113
1667266066064989700,1.28698974609375,-0.28702184557914734,0.1659213900566101,-3.3514134883880615
1667266066067387400,1.289387451171875,-0.27113983035087585,0.2202867865562439,-3.393561840057373
1667266066069785300,1.291785400390625,-0.250981867313385,0.2715979516506195,-3.413109064102173
1667266066072183000,1.29418310546875,-0.22410458326339722,0.3357369303703308,-3.4118874073028564
1667266066074581000,1.2965810546875,-0.19478392601013184,0.4127036929130554,-3.3782906532287598
1667266066076978700,1.298978759765625,-0.1599656194448471,0.4921138286590576,-3.323925256729126
1667266066079376400,1.30137646484375,-0.11842801421880722,0.5397599339485168,-3.2506237030029297
1667266066081774300,1.3037744140625,-0.07689040154218674,0.5452575087547302,-3.1724352836608887
1667266066084172000,1.306172119140625,-0.03962871432304382,0.5134934782981873,-3.084473133087158
1667266066086570000,1.308570068359375,-0.009697199799120426,0.48661619424819946,-2.9806292057037354
1667266066088967700,1.3109677734375,0.008017370477318764,0.5269321203231812,-2.8541839122772217
1667266066091365600,1.31336572265625,0.013514995574951172,0.6710920929908752,-2.6947526931762695
1667266066093763300,1.315763427734375,0.0025197449140250683,0.80853271484375,-2.5212719440460205
1667266066096161300,1.318161376953125,-0.010918894782662392,0.8030350804328918,-2.3386287689208984
1667266066098559000,1.32055908203125,-0.020692450925707817,0.6778113842010498,-2.146822690963745
1667266066100957000,1.32295703125,-0.024968381971120834,0.5196019411087036,-1.938523769378662
1667266066103354600,1.325354736328125,-0.01885990984737873,0.36994436383247375,-1.7136555910110474
1667266066105752300,1.32775244140625,-0.010308047756552696,0.23861220479011536,-1.4803119897842407
1667266066108150300,1.330150390625,-0.006642963737249374,0.12316207587718964,-1.2506333589553833
1667266066110548000,1.3325478515625,-0.011529741808772087,0.018096350133419037,-1.0356152057647705
1667266066112946000,1.33494580078125,-0.03474193811416626,-0.082082599401474,-0.8493067622184753
1667266066115343600,1.337343505859375,-0.07261446863412857,-0.18042901158332825,-0.6880430579185486
1667266066117741600,1.339741455078125,-0.11903885751962662,-0.28305134177207947,-0.5487698912620544
1667266066120139300,1.34213916015625,-0.16363070905208588,-0.3813977539539337,-0.42843300104141235
1667266066122537200,1.344537109375,-0.2002815455198288,-0.4566083252429962,-0.3160370886325836
1667266066124935000,1.346934814453125,-0.226547971367836,-0.5024218559265137,-0.20730629563331604
1667266066127332900,1.349332763671875,-0.24365170300006866,-0.5042544007301331,-0.09368869662284851
1667266066129730600,1.35173046875,-0.255257785320282,-0.4627167880535126,0.026037365198135376
1667266066132128300,1.354128173828125,-0.26930728554725647,-0.38994961977005005,0.14393088221549988
1667266066134526200,1.356526123046875,-0.2894652485847473,-0.2940466105937958,0.2581593096256256
1667266066136924000,1.358923828125,-0.312142938375473,-0.19142426550388336,0.364446759223938
1667266066139321900,1.36132177734375,-0.3432961702346802,-0.08819106966257095,0.46157145500183105
1667266066141719600,1.363719482421875,-0.3817795515060425,0.018096350133419037,0.548922598361969
1667266066144117500,1.366117431640625,-0.4159869849681854,0.12438376992940903,0.6258893609046936
1667266066146515200,1.36851513671875,-0.45019441843032837,0.23983390629291534,0.6949151158332825
1667266066148913200,1.3709130859375,-0.4825693368911743,0.3784962296485901,0.760962963104248
1667266066151310800,1.373310791015625,-0.5076140761375427,0.5330405831336975,0.8238802552223206
1667266066153708500,1.37570849609375,-0.527161180973053,0.6967476606369019,0.8819107413291931
1667266066156106500,1.3781064453125,-0.5363239049911499,0.8763367533683777,0.9368869662284851
1667266066158504200,1.380504150390625,-0.5393781065940857,1.0669211149215698,0.9808679819107056
1667266066160902100,1.382902099609375,-0.5320479869842529,1.2617813348770142,1.0230164527893066
1667266066163299800,1.3852998046875,-0.5173876285552979,1.448089838027954,1.057223916053772
1667266066165697800,1.38769775390625,-0.497229665517807,1.6276788711547852,1.0810469388961792
1667266066168095500,1.390095458984375,-0.4721849262714386,1.7926076650619507,1.0944855213165283
1667266066170493400,1.392493408203125,-0.4428642690181732,1.9483736753463745,1.0969289541244507
1667266066172891100,1.39489111328125,-0.41354358196258545,2.090701103210449,1.0957072973251343
1667266066175289000,1.3972890625,-0.37567105889320374,2.217757225036621,1.0926530361175537
1667266066177686800,1.399686767578125,-0.337798535823822,2.3277862071990967,1.0920422077178955
1667266066180084500,1.40208447265625,-0.29984965920448303,2.4230782985687256,1.0975397825241089
1667266066182482400,1.404482421875,-0.2674747407436371,2.496380090713501,1.1140327453613281
1667266066184880000,1.406880126953125,-0.2405974566936493,2.5464694499969482,1.1372449398040771
1667266066187278000,1.409278076171875,-0.21738526225090027,2.5812878608703613,1.168398141860962
1667266066189675800,1.41167578125,-0.19722731411457062,2.5928938388824463,1.2062705755233765
1667266066192073700,1.41407373046875,-0.18134528398513794,2.5825095176696777,1.2490298748016357
1667266066194471400,1.416471435546875,-0.16851748526096344,2.5476911067962646,1.2948434352874756
1667266066196869400,1.418869384765625,-0.15385715663433075,2.4914932250976562,1.3418787717819214
1667266066199267000,1.42126708984375,-0.13736428320407867,2.4200241565704346,1.3925790786743164
1667266066201665000,1.4236650390625,-0.1220930963754654,2.331451177597046,1.4420576095581055
1667266066204062700,1.426062744140625,-0.10193513333797455,2.2269201278686523,1.4933688640594482
1667266066206460400,1.42846044921875,-0.08360971510410309,2.107193946838379,1.5446799993515015
1667266066208858400,1.4308583984375,-0.06345175951719284,1.9721966981887817,1.5996562242507935
1667266066211256000,1.433256103515625,-0.045737188309431076,1.8292584419250488,1.654632568359375
1667266066213654000,1.435654052734375,-0.02435753494501114,1.6808226108551025,1.7114412784576416
1667266066216051700,1.4380517578125,-0.0011453386396169662,1.5268890857696533,1.7713043689727783
1667266066218449700,1.44044970703125,0.01901262067258358,1.3699012994766235,1.8305565118789673
1667266066220847400,1.442847412109375,0.03978142887353897,1.2129136323928833,1.8922520875930786
1667266066223245300,1.445245361328125,0.05810684710741043,1.0583692789077759,1.9515042304992676
1667266066225643000,1.44764306640625,0.07276718318462372,0.9081007838249207,2.010145664215088
1667266066228040700,1.450040771484375,0.0892600566148758,0.7712710499763489,2.0632894039154053
1667266066230438700,1.452438720703125,0.1020878478884697,0.650934100151062,2.117654800415039
1667266066232836400,1.45483642578125,0.11247225105762482,0.544646680355072,2.1683549880981445
1667266066235234300,1.457234375,0.11980241537094116,0.45118704438209534,2.215390205383301
1667266066237632000,1.459632080078125,0.12530004978179932,0.366279274225235,2.256317138671875
1667266066240030000,1.462030029296875,0.12530004978179932,0.28931254148483276,2.296633005142212
1667266066242427600,1.464427734375,0.12285665422677994,0.21723255515098572,2.3308403491973877
1667266066244825600,1.46682568359375,0.11247225105762482,0.15920206904411316,2.363215446472168
1667266066247223300,1.469223388671875,0.1008661538362503,0.10361496359109879,2.3907034397125244
1667266066249621200,1.471621337890625,0.09292513877153397,0.05841226875782013,2.41513729095459
1667266066252019000,1.47401904296875,0.08498412370681763,0.019318044185638428,2.432852029800415
1667266066254416600,1.476416748046875,0.07704310864210129,-0.011835165321826935,2.449955701828003
1667266066256814600,1.478814697265625,0.0745997205376625,-0.03382566571235657,2.458507537841797
1667266066259212300,1.48121240234375,0.0752105712890625,-0.04543176665902138,2.4658377170562744
1667266066261610200,1.4836103515625,0.0745997205376625,-0.05031854286789894,2.467670202255249
1667266066264008000,1.486008056640625,0.07398887723684311,-0.049707695841789246,2.4627833366394043
1667266066266406000,1.488406005859375,0.07765395939350128,-0.04909684881567955,2.4548423290252686
1667266066268803600,1.490803466796875,0.07398887723684311,-0.0423775278031826,2.447512149810791
1667266066271201500,1.493201416015625,0.06971294432878494,-0.03077143058180809,2.4395711421966553
1667266066273599200,1.49559912109375,0.06116108223795891,-0.014889402315020561,2.430408477783203
1667266066275997200,1.4979970703125,0.045889899134635925,0.011987877078354359,2.41819167137146
1667266066278395000,1.500394775390625,0.026342788711190224,0.04680617153644562,2.4059746265411377
1667266066280792600,1.50279248046875,0.006184828467667103,0.09323056042194366,2.3913142681121826
1667266066283190500,1.5051904296875,-0.01763821393251419,0.14270919561386108,2.3705453872680664
1667266066285588200,1.507588134765625,-0.036574479192495346,0.20318306982517242,2.3448898792266846
1667266066287986200,1.509986083984375,-0.05795413255691528,0.27648472785949707,2.311293363571167
1667266066290384000,1.5123837890625,-0.07627955079078674,0.35955995321273804,2.2721991539001465
1667266066292781800,1.51478173828125,-0.08788564801216125,0.4414134919643402,2.2294397354125977
1667266066295179500,1.517179443359375,-0.0952158197760582,0.5220453143119812,2.180572032928467
1667266066297577500,1.519577392578125,-0.09827005118131638,0.5971795320510864,2.129260778427124
1667266066299975200,1.52197509765625,-0.10010259598493576,0.6625401973724365,2.0822255611419678
1667266066302373000,1.524373046875,-0.10315682739019394,0.7205706834793091,2.0327470302581787
1667266066304770800,1.526770751953125,-0.10498937219381332,0.7645516991615295,1.991820216178894
1667266066307168500,1.52916845703125,-0.10498937219381332,0.7969266176223755,1.9545584917068481
1667266066309566500,1.53156640625,-0.10560022294521332,0.8213604688644409,1.9276812076568604
1667266066311964200,1.533964111328125,-0.10315682739019394,0.8341882824897766,1.903247356414795
1667266066314362000,1.536362060546875,-0.10071343928575516,0.8390750885009766,1.890419602394104
1667266066316759800,1.538759765625,-0.09643751382827759,0.8445726633071899,1.8898086547851562
1667266066319157800,1.54115771484375,-0.09155073016881943,0.8464052081108093,1.8971388339996338
1667266066321555500,1.543555419921875,-0.08422056585550308,0.8280798196792603,1.9148534536361694
1667266066323953400,1.545953369140625,-0.07505785673856735,0.8030350804328918,1.9337897300720215
1667266066326351000,1.54835107421875,-0.06406260281801224,0.7731035351753235,1.955780267715454
1667266066328749000,1.5507490234375,-0.053678203374147415,0.7388961315155029,1.981435775756836
1667266066331146800,1.553146728515625,-0.03779617324471474,0.701634407043457,2.0034263134002686
1667266066333544400,1.55554443359375,-0.015805672854185104,0.6662052869796753,2.027249336242676
1667266066335942400,1.5579423828125,0.00862821750342846,0.6289436221122742,2.04557466506958
1667266066338340000,1.560340087890625,0.03489464893937111,0.5898494124412537,2.0584025382995605
1667266066340738000,1.562738037109375,0.06849125027656555,0.5531985759735107,2.071841239929199
1667266066343135700,1.5651357421875,0.10514208674430847,0.5147151947021484,2.0840580463409424
1667266066345533700,1.56753369140625,0.14362546801567078,0.4774535000324249,2.0932209491729736
1667266066347931400,1.569931396484375,0.1814979910850525,0.4438568949699402,2.1048269271850586
1667266066350329300,1.572329345703125,0.22486814856529236,0.41209283471107483,2.120098114013672
1667266066352727000,1.57472705078125,0.26701661944389343,0.38277217745780945,2.134758472442627
1667266066355125000,1.577125,0.30733251571655273,0.35528403520584106,2.152472972869873
1667266066357522700,1.579522705078125,0.3507026731967926,0.3271850645542145,2.172020196914673
1667266066359920400,1.58192041015625,0.3885752260684967,0.30458372831344604,2.1933999061584473
1667266066362318300,1.584318359375,0.4276694357395172,0.27953898906707764,2.215390205383301
1667266066364716000,1.586716064453125,0.4685961902141571,0.25449424982070923,2.2349374294281006
1667266066367114000,1.589114013671875,0.5021927952766418,0.22761696577072144,2.2581496238708496
1667266066369511700,1.59151171875,0.5370110869407654,0.19646374881267548,2.2783076763153076
1667266066371909600,1.59390966796875,0.5657209157943726,0.16408884525299072,2.2990763187408447
1667266066374307300,1.596307373046875,0.5925981998443604,0.1274380087852478,2.3186235427856445
1667266066376705300,1.598705322265625,0.6200863122940063,0.09384141117334366,2.340614080429077
1667266066379103000,1.60110302734375,0.6402443051338196,0.06635328382253647,2.363826274871826
1667266066381501000,1.6035009765625,0.6597914099693298,0.040697697550058365,2.3845949172973633
1667266066383898600,1.605898681640625,0.6799493432044983,0.016874656081199646,2.4029204845428467
1667266066386296300,1.60829638671875,0.6958313584327698,-0.005726693198084831,2.418802499771118
1667266066388694300,1.6106943359375,0.7141568064689636,-0.02710634656250477,2.4322409629821777
1667266066391092000,1.613092041015625,0.7263737320899963,-0.04787515476346016,2.4395711421966553
1667266066393490000,1.615489990234375,0.7379798293113708,-0.07169819623231888,2.4426255226135254
1667266066395887600,1.6178876953125,0.7501968145370483,-0.09246700257062912,2.4432363510131836
1667266066398285600,1.62028564453125,0.7550835609436035,-0.11018157750368118,2.438349485397339
1667266066400683300,1.622683349609375,0.7611920237541199,-0.12300936877727509,2.4334628582000732
1667266066403081200,1.625081298828125,0.7611920237541199,-0.13217207789421082,2.4194133281707764
1667266066405479000,1.62747900390625,0.7611920237541199,-0.1358371526002884,2.4059746265411377
1667266066407876900,1.629876953125,0.7587486505508423,-0.13705885410308838,2.3882601261138916
1667266066410274600,1.632274658203125,0.7532510161399841,-0.135226309299469,2.3674912452697754
1667266066412672500,1.634672607421875,0.7453100085258484,-0.1333937644958496,2.3387813568115234
1667266066415070200,1.6370703125,0.7410340905189514,-0.1340046226978302,2.3137366771698
1667266066417468000,1.639468017578125,0.7306496500968933,-0.12972868978977203,2.281972646713257
1667266066419865900,1.641865966796875,0.7208760976791382,-0.12789614498615265,2.2471542358398438
1667266066422263600,1.644263671875,0.7080483436584473,-0.12239851802587509,2.2123360633850098
1667266066424661500,1.64666162109375,0.6933879852294922,-0.11567919701337814,2.1762959957122803
1667266066427059200,1.64905908203125,0.6817818880081177,-0.1077381819486618,2.138423442840576
1667266066429457200,1.65145703125,0.6683432459831238,-0.10162971168756485,2.0987184047698975
1667266066431854800,1.653854736328125,0.6549046039581299,-0.09674293547868729,2.062067747116089
1667266066434252800,1.656252685546875,0.6426876783370972,-0.09185615926980972,2.0229732990264893
1667266066436650500,1.658650390625,0.6298598647117615,-0.08513683825731277,1.9863225221633911
1667266066439048400,1.66104833984375,0.6188646554946899,-0.082082599401474,1.9484500885009766
1667266066441446100,1.663446044921875,0.61397784948349,-0.07902836054563522,1.9117991924285889
1667266066443843800,1.66584375,0.6121453046798706,-0.07658497244119644,1.8763700723648071
1667266066446241800,1.66824169921875,0.6109235882759094,-0.0680331140756607,1.8397191762924194
1667266066448639500,1.670639404296875,0.609701931476593,-0.0558161698281765,1.804900884628296
1667266066451037400,1.673037353515625,0.6145886778831482,-0.04115583375096321,1.774969458580017
1667266066453435100,1.67543505859375,0.6151995658874512,-0.018554486334323883,1.749924659729004
1667266066455833000,1.6778330078125,0.6151995658874512,0.005268557462841272,1.73159921169281
1667266066458230800,1.680230712890625,0.6164212226867676,0.028480753302574158,1.7206040620803833
1667266066460628700,1.682628662109375,0.6151995658874512,0.05169294774532318,1.7163281440734863
1667266066463026400,1.6850263671875,0.6170321106910706,0.0761268362402916,1.7199931144714355
1667266066465424400,1.68742431640625,0.6164212226867676,0.09933903813362122,1.73159921169281
1667266066467822000,1.689822021484375,0.61397784948349,0.11888615041971207,1.7511464357376099
1667266066470219800,1.6922197265625,0.6145886778831482,0.13782241940498352,1.7755802869796753
1667266066472617700,1.69461767578125,0.609701931476593,0.16042375564575195,1.804900884628296
1667266066475015400,1.697015380859375,0.6078693866729736,0.17386239767074585,1.8360542058944702
1667266066477413400,1.699413330078125,0.605426013469696,0.18424680829048157,1.8684290647506714
1667266066479811000,1.70181103515625,0.6017609238624573,0.18607935309410095,1.9001930952072144
1667266066482209000,1.704208984375,0.5913764834403992,0.17080816626548767,1.926459550857544
1667266066484606700,1.706606689453125,0.5748836398124695,0.153704434633255,1.9533368349075317
1667266066487004700,1.709004638671875,0.558390736579895,0.13843326270580292,1.9808249473571777
1667266066489402400,1.71140234375,0.539454460144043,0.12010784447193146,2.007702112197876
1667266066491800300,1.71380029296875,0.5241833329200745,0.10972344130277634,2.0327470302581787
1667266066494198000,1.716197998046875,0.5125772356987,0.10361496359109879,2.056570053100586
1667266066496595700,1.718595703125,0.5021927952766418,0.08590039610862732,2.077338933944702
1667266066498993700,1.72099365234375,0.48814332485198975,0.06879667192697525,2.0962750911712646
1667266066501391400,1.723391357421875,0.47348299622535706,0.05413633957505226,2.1139895915985107
1667266066503789300,1.725789306640625,0.454546719789505,0.040697697550058365,2.1243741512298584
1667266066506187000,1.72818701171875,0.43316707015037537,0.02664821222424507,2.1341476440429688
1667266066508585000,1.7305849609375,0.40812233090400696,0.019318044185638428,2.14025616645813
1667266066510982700,1.732982666015625,0.38613182306289673,0.011377030052244663,2.1396453380584717
1667266066513380600,1.735380615234375,0.3623087704181671,0.0064902519807219505,2.135369300842285
1667266066515778300,1.7377783203125,0.3390965759754181,0.007711946498602629,2.1249849796295166
1667266066518176300,1.74017626953125,0.3128301501274109,0.010155336000025272,2.106048583984375
1667266066520574000,1.742573974609375,0.2865637242794037,0.022372281178832054,2.079782247543335
1667266066522971600,1.7449716796875,0.2615189850330353,0.03825430944561958,2.0461854934692383
1667266066525369600,1.74736962890625,0.2309766262769699,0.05719057470560074,2.004647970199585
1667266066527767300,1.749767333984375,0.20226679742336273,0.07918107509613037,1.9521151781082153
1667266066530165200,1.752165283203125,0.17416782677173615,0.10666920244693756,1.8959171772003174
1667266066532563000,1.75456298828125,0.1417929232120514,0.13598987460136414,1.8366650342941284
1667266066534961000,1.7569609375,0.10941801220178604,0.17202985286712646,1.7706935405731201
1667266066537358600,1.759358642578125,0.07276718318462372,0.21723255515098572,1.7004460096359253
1667266066539756500,1.761756591796875,0.03489464893937111,0.2691545784473419,1.6265335083007812
1667266066542154200,1.764154296875,0.0019088976550847292,0.33023929595947266,1.5459016561508179
1667266066544552200,1.76655224609375,-0.031076854094862938,0.39682164788246155,1.4671024084091187
1667266066546950000,1.768949951171875,-0.061619218438863754,0.4713450074195862,1.3821946382522583
1667266066549347600,1.77134765625,-0.08849649876356125,0.5434249639511108,1.293010950088501
1667266066551745500,1.77374560546875,-0.11354123055934906,0.6118398904800415,1.200773000717163
1667266066554143200,1.776143310546875,-0.1336991935968399,0.6717029213905334,1.1048699617385864
1667266066556541200,1.778541259765625,-0.15263545513153076,0.7236249446868896,1.0059127807617188
1667266066558939000,1.78093896484375,-0.1721825748682022,0.7724927067756653,0.9026795625686646
1667266066561336800,1.7833369140625,-0.1874537467956543,0.8158628940582275,0.8000571727752686
1667266066563734500,1.785734619140625,-0.20272493362426758,0.8525137305259705,0.6961368322372437
1667266066566132500,1.788132568359375,-0.21555273234844208,0.8751150369644165,0.5977904200553894
1667266066568530200,1.7905302734375,-0.227769672870636,0.8879428505897522,0.5012765526771545
1667266066570928000,1.79292822265625,-0.2387649267911911,0.8922187685966492,0.41087114810943604
1667266066573325800,1.795325927734375,-0.2515927255153656,0.887332022190094,0.33085015416145325
1667266066575723500,1.7977236328125,-0.26930728554725647,0.8720608353614807,0.25327253341674805
1667266066578121500,1.80012158203125,-0.2888543903827667,0.8476269245147705,0.18363595008850098
1667266066580519200,1.802519287109375,-0.30908870697021484,0.8176954388618469,0.126216322183609
1667266066582917000,1.804917236328125,-0.33291175961494446,0.780433714389801,0.0749051421880722
1667266066585314800,1.807314697265625,-0.3561239540576935,0.734620213508606,0.030313294380903244
1667266066587712800,1.809712646484375,-0.3781144618988037,0.6814764738082886,-0.008170082233846188
1667266066590110500,1.8121103515625,-0.39827242493629456,0.6228351593017578,-0.03687990456819534
1667266066592508400,1.81450830078125,-0.418430358171463,0.5641937851905823,-0.06436803191900253
1667266066594906000,1.816906005859375,-0.44042086601257324,0.5055524706840515,-0.09063446521759033
1667266066597304000,1.819303955078125,-0.4611896872520447,0.44691112637519836,-0.11506835371255875
1667266066599701800,1.82170166015625,-0.47890424728393555,0.38460469245910645,-0.13828055560588837
1667266066602099500,1.824099365234375,-0.4966188073158264,0.31985488533973694,-0.1614927500486374
1667266066604497400,1.826497314453125,-0.5100574493408203,0.255715936422348,-0.18409408628940582
1667266066606895000,1.82889501953125,-0.5222744345664978,0.18913358449935913,-0.20486289262771606
1667266066609293000,1.83129296875,-0.5326588153839111,0.13110309839248657,-0.22318831086158752
1667266066611690800,1.833690673828125,-0.5412106513977051,0.08162446320056915,-0.23601610958576202
1667266066614088700,1.836088623046875,-0.5485408306121826,0.040697697550058365,-0.24578966200351715
1667266066616486400,1.838486328125,-0.554649293422699,0.008933641016483307,-0.24945475161075592
1667266066618884400,1.84088427734375,-0.5601469278335571,-0.010613471269607544,-0.24884390830993652
1667266066621282000,1.843281982421875,-0.5656445622444153,-0.02160872146487236,-0.24884390830993652
1667266066623680000,1.845679931640625,-0.5644228458404541,-0.019776180386543274,-0.24395711719989777
1667266066626077700,1.84807763671875,-0.5638120174407959,-0.017332790419459343,-0.2409028857946396
1667266066628475400,1.850475341796875,-0.5674771070480347,-0.025884652510285378,-0.2390703409910202
1667266066630873300,1.852873291015625,-0.5680879354476929,-0.02283041551709175,-0.23540526628494263
1667266066633271000,1.85527099609375,-0.577861487865448,-0.016721943393349648,-0.23418356478214264
1667266066635669000,1.8576689453125,-0.5870242118835449,-0.00022906772210262716,-0.22807510197162628
1667266066638066700,1.860066650390625,-0.5925218462944031,0.018707197159528732,-0.22135578095912933
1667266066640464600,1.862464599609375,-0.5980194807052612,0.041919391602277756,-0.20730629563331604
1667266066642862300,1.8648623046875,-0.5998520255088806,0.07124006003141403,-0.19203510880470276
1667266066645260300,1.86726025390625,-0.5961869359016418,0.09994988143444061,-0.17798562347888947
1667266066647658000,1.869657958984375,-0.5894675850868225,0.1274380087852478,-0.16271443665027618
1667266066650056000,1.872055908203125,-0.5870242118835449,0.15187190473079681,-0.14438901841640472
1667266066652453600,1.87445361328125,-0.5821374654769897,0.17630578577518463,-0.12911784648895264
1667266066654851300,1.876851318359375,-0.5796940326690674,0.20379391312599182,-0.11140327155590057
1667266066657249300,1.879249267578125,-0.5748072862625122,0.2337254285812378,-0.09735377877950668
1667266066659647000,1.88164697265625,-0.5699204802513123,0.26671117544174194,-0.08452598750591278
1667266066662045000,1.884044921875,-0.5656445622444153,0.3003077805042267,-0.07230904698371887
1667266066664442600,1.886442626953125,-0.5650337338447571,0.3375694751739502,-0.06375718116760254
1667266066666840600,1.888840576171875,-0.5619794726371765,0.3791070878505707,-0.05703786388039589
1667266066669238300,1.89123828125,-0.5625903010368347,0.42064470052719116,-0.05337277799844742
1667266066671636200,1.89363623046875,-0.5607577562332153,0.46034976840019226,-0.05337277799844742
1667266066674034000,1.896033935546875,-0.5607577562332153,0.5031090974807739,-0.05337277799844742
1667266066676432000,1.898431884765625,-0.5619794726371765,0.544646680355072,-0.06070294603705406
1667266066678829600,1.90082958984375,-0.5601469278335571,0.5916818976402283,-0.06742226332426071
1667266066681227300,1.903227294921875,-0.5589252710342407,0.6362738013267517,-0.07475243508815765
1667266066683625200,1.905625244140625,-0.5558710098266602,0.6820873022079468,-0.08391514420509338
1667266066686023000,1.90802294921875,-0.5515950918197632,0.7327876687049866,-0.09613208472728729
1667266066688420900,1.9104208984375,-0.5467082858085632,0.776157796382904,-0.1083490327000618
1667266066690818600,1.912818603515625,-0.5424323678016663,0.8164737224578857,-0.11873343586921692
1667266066693216500,1.915216552734375,-0.5351021885871887,0.8506811857223511,-0.12728530168533325
1667266066695614200,1.9176142578125,-0.5302154421806335,0.8757259249687195,-0.1340046226978302
1667266066698012000,1.920011962890625,-0.5241069197654724,0.891607940196991,-0.14194563031196594
1667266066700409900,1.922409912109375,-0.5106683373451233,0.8909971117973328,-0.14499986171722412
1667266066702807600,1.9248076171875,-0.499673068523407,0.8745042085647583,-0.15049749612808228
1667266066705205500,1.92720556640625,-0.4831801950931549,0.840907633304596,-0.15477342903614044
1667266066707603200,1.929603271484375,-0.46607646346092224,0.7944832444190979,-0.1614927500486374
1667266066710001200,1.932001220703125,-0.4459185004234314,0.7370635867118835,-0.16882291436195374
1667266066712398800,1.93439892578125,-0.42759308218955994,0.6576534509658813,-0.1743205338716507
1667266066714796800,1.936796875,-0.41476529836654663,0.5611395835876465,-0.17859646677970886
1667266066717194500,1.939194580078125,-0.4056025743484497,0.4542413055896759,-0.1847049444913864
1667266066719592400,1.941592529296875,-0.4049917459487915,0.34673216938972473,-0.1865374743938446
1667266066721990100,1.943990234375,-0.40254834294319153,0.24227729439735413,-0.1859266310930252
1667266066724387800,1.946387939453125,-0.40071579813957214,0.12499462068080902,-0.18348324298858643
1667266066726785800,1.948785888671875,-0.4068242609500885,0.005268557462841272,-0.17859646677970886
1667266066729183500,1.95118359375,-0.416597843170166,-0.09368869662284851,-0.1743205338716507
1667266066731581400,1.95358154296875,-0.4294256269931793,-0.16454698145389557,-0.17126630246639252
1667266066733979100,1.955979248046875,-0.4477510452270508,-0.23296187818050385,-0.17187714576721191
1667266066736377000,1.958377197265625,-0.47768256068229675,-0.2806079685688019,-0.17737478017807007
1667266066738774800,1.96077490234375,-0.5100574493408203,-0.3013767600059509,-0.19020256400108337
1667266066741172700,1.9631728515625,-0.5430431962013245,-0.2928248941898346,-0.20547375082969666
1667266066743570400,1.9655703125,-0.573585569858551,-0.27327778935432434,-0.22807510197162628
1667266066745968400,1.967968505859375,-0.6084038615226746,-0.25800660252571106,-0.25922831892967224
1667266066748366000,1.970365966796875,-0.6420004963874817,-0.23235101997852325,-0.29587915539741516
1667266066750763800,1.972763671875,-0.675597071647644,-0.188370019197464,-0.33802759647369385
1667266066753161700,1.97516162109375,-0.707361102104187,-0.13156123459339142,-0.38689538836479187
1667266066755559400,1.977559326171875,-0.7409577369689941,-0.07902836054563522,-0.44187164306640625
1667266066757957400,1.979957275390625,-0.7739434838294983,-0.02160872146487236,-0.50112384557724
1667266066760355000,1.98235498046875,-0.8069292306900024,0.039476003497838974,-0.5677061676979065
1667266066762753000,1.9847529296875,-0.8362498879432678,0.10178242623806,-0.6342885494232178
1667266066765150700,1.987150634765625,-0.8625163435935974,0.1671430766582489,-0.7014816999435425
1667266066767548700,1.989548583984375,-0.8863393664360046,0.23433628678321838,-0.7729508280754089
1667266066769946400,1.9919462890625,-0.9058864712715149,0.30397287011146545,-0.8462525010108948
1667266066772344300,1.99434423828125,-0.9242119193077087,0.3754419982433319,-0.9152782559394836
1667266066774742000,1.996741943359375,-0.9376505613327026,0.4444677233695984,-0.9849148392677307
1667266066777139700,1.9991396484375,-0.948034942150116,0.5110501050949097,-1.0496646165847778
1667266066779537700,2.00153759765625,-0.9541434049606323,0.5764107704162598,-1.110749363899231
1667266066781935400,2.003935302734375,-0.9523108601570129,0.6387171745300293,-1.1638931035995483
1667266066784333300,2.006333251953125,-0.9468132257461548,0.6998018622398376,-1.2139825820922852
1667266066786731000,2.00873095703125,-0.9333745837211609,0.7437828779220581,-1.2549093961715698
1667266066789129000,2.01112890625,-0.9150491952896118,0.7749360799789429,-1.287284255027771
1667266066791526700,2.013526611328125,-0.8887827396392822,0.7987591624259949,-1.3086638450622559
1667266066793924600,2.015924560546875,-0.8551861643791199,0.8054784536361694,-1.3202699422836304
1667266066796322300,2.018322265625,-0.8173136115074158,0.80364590883255,-1.324545979499817
1667266066798720300,2.02072021484375,-0.7776085734367371,0.8103652596473694,-1.3202699422836304
1667266066801118000,2.023117919921875,-0.735460102558136,0.827468991279602,-1.3068313598632812
1667266066803515600,2.025515625,-0.6939224600791931,0.8519028425216675,-1.2921710014343262
1667266066805913600,2.02791357421875,-0.6542174220085144,0.8769475817680359,-1.2714022397994995
1667266066808311300,2.030311279296875,-0.624896764755249,0.9013814926147461,-1.2530767917633057
1667266066810709200,2.032709228515625,-0.6084038615226746,0.9563577175140381,-1.2439141273498535
1667266066813107000,2.03510693359375,-0.5986303091049194,1.0033929347991943,-1.236583948135376
1667266066815505000,2.0375048828125,-0.5931326746940613,1.0333244800567627,-1.228032112121582
1667266066817902600,2.039902587890625,-0.5931326746940613,1.0540932416915894,-1.2194801568984985
1667266066820300500,2.042300537109375,-0.5937435626983643,1.082192301750183,-1.207874059677124
1667266066822698200,2.0446982421875,-0.5974085927009583,1.1145671606063843,-1.194435477256775
1667266066825096200,2.04709619140625,-0.6029062271118164,1.155493974685669,-1.1785534620285034
1667266066827494000,2.049493896484375,-0.6126797795295715,1.2141352891921997,-1.1651147603988647
1667266066829891600,2.0518916015625,-0.6340594291687012,1.3143142461776733,-1.1522870063781738
1667266066832289500,2.05428955078125,-0.6505523324012756,1.4193799495697021,-1.138237476348877
1667266066834687200,2.056687255859375,-0.6707102656364441,1.5207805633544922,-1.1266313791275024
1667266066837085200,2.059085205078125,-0.6920899152755737,1.6148511171340942,-1.1180795431137085
1667266066839483000,2.06148291015625,-0.7165238261222839,1.7064781188964844,-1.106473445892334
1667266066841880800,2.063880859375,-0.739736020565033,1.7999378442764282,-1.0808178186416626
1667266066844278500,2.066278564453125,-0.7623373866081238,1.8970625400543213,-1.0496646165847778
1667266066846676500,2.068676513671875,-0.7806627750396729,2.023507833480835,-1.003851056098938
1667266066849074200,2.07107421875,-0.7953231334686279,2.176830530166626,-0.9500965476036072
1667266066851472100,2.07347216796875,-0.809983491897583,2.3534417152404785,-0.8908443450927734
1667266066853869800,2.075869873046875,-0.8228112459182739,2.562962293624878,-0.8279271125793457
1667266066856267500,2.078267578125,-0.837471604347229,2.809133768081665,-0.759512186050415
1667266066858665500,2.08066552734375,-0.8502993583679199,3.0827934741973877,-0.6868214011192322
1667266066861063200,2.083063232421875,-0.8655705451965332,3.3717241287231445,-0.6122980117797852
1667266066863461000,2.085461181640625,-0.8783983588218689,3.667984962463379,-0.5383855104446411
1667266066865858800,2.08785888671875,-0.8912261724472046,3.9611916542053223,-0.46813806891441345
1667266066868256800,2.0902568359375,-0.9071081876754761,4.2397379875183105,-0.40522080659866333
1667266066870654500,2.092654541015625,-0.9236010313034058,4.471859931945801,-0.3594072461128235
