time,seconds_elapsed,z,y,x
1667825347969987300,0.0059873046875,-0.9107666015625,-0.23822021484375,0.0863494873046875
1667825347979995400,0.015995361328125,-0.8997039794921875,-0.2567138671875,0.0976409912109375
1667825347990002400,0.02600244140625,-0.8846893310546875,-0.28607177734375,0.1067657470703125
1667825348000010500,0.036010498046875,-0.86859130859375,-0.31085205078125,0.1086883544921875
1667825348010017300,0.046017333984375,-0.8536529541015625,-0.329620361328125,0.111175537109375
1667825348020025600,0.056025634765625,-0.833740234375,-0.3446197509765625,0.1161956787109375
1667825348030032400,0.066032470703125,-0.8209686279296875,-0.3583831787109375,0.1027069091796875
1667825348040040400,0.07604052734375,-0.816986083984375,-0.382232666015625,0.08001708984375
1667825348050047500,0.086047607421875,-0.798736572265625,-0.40625,0.103515625
1667825348060055600,0.0960556640625,-0.781219482421875,-0.4188690185546875,0.08929443359375
1667825348070062300,0.106062255859375,-0.7837371826171875,-0.42230224609375,0.0567474365234375
1667825348080070400,0.1160703125,-0.786773681640625,-0.4200439453125,0.0357818603515625
1667825348090077400,0.126077392578125,-0.803558349609375,-0.4197998046875,0.0217437744140625
1667825348100085500,0.13608544921875,-0.8082275390625,-0.4233856201171875,0.00543212890625
1667825348110093300,0.14609326171875,-0.7819976806640625,-0.4151763916015625,-0.012359619140625
1667825348120100600,0.1561005859375,-0.724395751953125,-0.3890533447265625,-0.017425537109375
1667825348130108400,0.1661083984375,-0.681182861328125,-0.3929290771484375,-0.0360260009765625
1667825348140115500,0.176115478515625,-0.681365966796875,-0.4134521484375,-0.05224609375
1667825348150123300,0.186123291015625,-0.7379302978515625,-0.45062255859375,-0.0477752685546875
1667825348160130600,0.196130615234375,-0.805816650390625,-0.5012664794921875,-0.046783447265625
1667825348170138400,0.206138427734375,-0.805908203125,-0.52667236328125,-0.053558349609375
1667825348180145400,0.2161455078125,-0.771881103515625,-0.5062103271484375,-0.0721588134765625
1667825348190153500,0.226153564453125,-0.7794342041015625,-0.4537811279296875,-0.1167144775390625
1667825348200160500,0.236160400390625,-0.838287353515625,-0.400115966796875,-0.1792449951171875
1667825348210168300,0.246168212890625,-0.8755340576171875,-0.3553924560546875,-0.2317047119140625
1667825348220175600,0.256175537109375,-0.8915252685546875,-0.3416290283203125,-0.2236175537109375
1667825348230183400,0.266183349609375,-0.9194488525390625,-0.3740234375,-0.1461944580078125
1667825348240190500,0.2761904296875,-0.9394073486328125,-0.4363250732421875,-0.027435302734375
1667825348250198300,0.2861982421875,-0.92462158203125,-0.513153076171875,0.0911102294921875
1667825348260205600,0.29620556640625,-0.8859405517578125,-0.572174072265625,0.1418304443359375
1667825348270213400,0.30621337890625,-0.849578857421875,-0.5991973876953125,0.1412811279296875
1667825348280220400,0.316220458984375,-0.7976531982421875,-0.612335205078125,0.118377685546875
1667825348290228500,0.326228515625,-0.75164794921875,-0.6055450439453125,0.0710296630859375
1667825348300235500,0.336235595703125,-0.74908447265625,-0.5967864990234375,0.051361083984375
1667825348310243300,0.346243408203125,-0.7451629638671875,-0.587677001953125,0.0525054931640625
1667825348320250600,0.356250732421875,-0.711181640625,-0.5689239501953125,0.045166015625
1667825348330258400,0.366258544921875,-0.6750640869140625,-0.5374298095703125,0.0279998779296875
1667825348340265500,0.376265380859375,-0.665435791015625,-0.494964599609375,0.0106048583984375
1667825348350273300,0.386273193359375,-0.670806884765625,-0.4444580078125,-0.017242431640625
1667825348360281300,0.39628125,-0.6736907958984375,-0.37518310546875,-0.07330322265625
1667825348370288400,0.406288330078125,-0.677703857421875,-0.28314208984375,-0.156402587890625
1667825348380296400,0.41629638671875,-0.6822967529296875,-0.1758575439453125,-0.224212646484375
1667825348390303500,0.426303466796875,-0.7009429931640625,-0.0800628662109375,-0.261962890625
1667825348400311600,0.4363115234375,-0.747283935546875,-0.016815185546875,-0.3001556396484375
1667825348410318300,0.446318359375,-0.8272705078125,-0.004608154296875,-0.34210205078125
1667825348420326400,0.456326416015625,-0.9303741455078125,-0.042816162109375,-0.3933563232421875
1667825348430333400,0.46633349609375,-1.003662109375,-0.0809326171875,-0.4661865234375
1667825348440341500,0.476341552734375,-1.0275726318359375,-0.038055419921875,-0.5297088623046875
1667825348450348300,0.486348388671875,-0.9359893798828125,0.0925445556640625,-0.5752410888671875
1667825348460356400,0.4963564453125,-0.8982696533203125,0.3023529052734375,-0.578125
1667825348470363400,0.50636328125,-1.009124755859375,0.4854888916015625,-0.534912109375
1667825348480371500,0.516371337890625,-1.0845489501953125,0.5775909423828125,-0.5294189453125
1667825348490378500,0.52637841796875,-1.0890350341796875,0.599029541015625,-0.5329132080078125
1667825348500386600,0.536386474609375,-1.10284423828125,0.599578857421875,-0.528533935546875
1667825348510393300,0.546393310546875,-1.113983154296875,0.607666015625,-0.50494384765625
1667825348520401400,0.5564013671875,-1.098876953125,0.624969482421875,-0.462554931640625
1667825348530408400,0.566408447265625,-1.06610107421875,0.6394195556640625,-0.410919189453125
1667825348540416500,0.57641650390625,-1.00823974609375,0.63818359375,-0.3477630615234375
1667825348550423300,0.58642333984375,-0.9420318603515625,0.617706298828125,-0.2846527099609375
1667825348560431400,0.596431396484375,-0.892547607421875,0.5824127197265625,-0.23876953125
1667825348570438400,0.6064384765625,-0.873046875,0.5352935791015625,-0.2168731689453125
1667825348580446500,0.616446533203125,-0.88079833984375,0.4852752685546875,-0.2138824462890625
1667825348590453500,0.62645361328125,-0.884033203125,0.4337921142578125,-0.2097015380859375
1667825348600461800,0.6364619140625,-0.87188720703125,0.38787841796875,-0.207916259765625
1667825348610469600,0.6464697265625,-0.8584442138671875,0.3542327880859375,-0.2060546875
1667825348620476700,0.6564765625,-0.8514251708984375,0.33380126953125,-0.2191009521484375
1667825348630484500,0.666484375,-0.852508544921875,0.325469970703125,-0.255645751953125
1667825348640491800,0.67649169921875,-0.857635498046875,0.325653076171875,-0.297393798828125
1667825348650499600,0.68649951171875,-0.8589935302734375,0.32525634765625,-0.3471221923828125
1667825348660506600,0.696506591796875,-0.8597412109375,0.3281097412109375,-0.3984832763671875
1667825348670514700,0.7065146484375,-0.8616790771484375,0.3425445556640625,-0.4443206787109375
1667825348680521700,0.716521728515625,-0.863128662109375,0.3702392578125,-0.479400634765625
1667825348690529500,0.726529541015625,-0.8644866943359375,0.39654541015625,-0.49029541015625
1667825348700536800,0.736536865234375,-0.8670501708984375,0.408538818359375,-0.4814453125
1667825348710544600,0.746544677734375,-0.86279296875,0.4078521728515625,-0.468292236328125
1667825348720551700,0.7565517578125,-0.8526763916015625,0.405609130859375,-0.4549560546875
1667825348730559500,0.7665595703125,-0.841278076171875,0.4071502685546875,-0.4457550048828125
1667825348740566800,0.77656689453125,-0.8281097412109375,0.4139862060546875,-0.434722900390625
1667825348750574600,0.78657470703125,-0.810455322265625,0.4241943359375,-0.417999267578125
1667825348760581600,0.79658154296875,-0.799224853515625,0.433349609375,-0.4090728759765625
1667825348770589700,0.806589599609375,-0.8009185791015625,0.44317626953125,-0.4186859130859375
1667825348780596700,0.8165966796875,-0.7996978759765625,0.4593353271484375,-0.43804931640625
1667825348790604500,0.8266044921875,-0.7957916259765625,0.4773101806640625,-0.4591064453125
1667825348800611800,0.83661181640625,-0.7855377197265625,0.491851806640625,-0.4710845947265625
1667825348810619600,0.84661962890625,-0.785125732421875,0.4990997314453125,-0.4799957275390625
1667825348820626700,0.856626708984375,-0.79351806640625,0.4957733154296875,-0.48443603515625
1667825348830634500,0.866634521484375,-0.799072265625,0.4817352294921875,-0.486602783203125
1667825348840642800,0.876642822265625,-0.7959442138671875,0.4674224853515625,-0.483367919921875
1667825348850649600,0.886649658203125,-0.7847747802734375,0.4571533203125,-0.4726409912109375
1667825348860657700,0.89665771484375,-0.769500732421875,0.4486236572265625,-0.464874267578125
1667825348870664700,0.906664794921875,-0.7550506591796875,0.4421844482421875,-0.4574432373046875
1667825348880672800,0.9166728515625,-0.741729736328125,0.4376220703125,-0.43865966796875
1667825348890679600,0.926679443359375,-0.7301025390625,0.4256744384765625,-0.4155731201171875
1667825348900687600,0.9366875,-0.724212646484375,0.4099578857421875,-0.3915252685546875
1667825348910694700,0.946694580078125,-0.721527099609375,0.3952178955078125,-0.3772735595703125
1667825348920702700,0.95670263671875,-0.7168121337890625,0.3841552734375,-0.3694305419921875
1667825348930709500,0.96670947265625,-0.71380615234375,0.3779449462890625,-0.35968017578125
1667825348940717800,0.9767177734375,-0.7062530517578125,0.3712158203125,-0.3529815673828125
1667825348950724600,0.986724609375,-0.7018890380859375,0.360992431640625,-0.345916748046875
1667825348960732700,0.996732666015625,-0.702911376953125,0.3482208251953125,-0.3351898193359375
1667825348970739700,1.00673974609375,-0.7073974609375,0.3382568359375,-0.331207275390625
1667825348980747800,1.016747802734375,-0.712615966796875,0.343109130859375,-0.3396453857421875
1667825348990754600,1.026754638671875,-0.7199859619140625,0.36328125,-0.35882568359375
1667825349000762600,1.0367626953125,-0.7279205322265625,0.38775634765625,-0.378997802734375
1667825349010769700,1.046769775390625,-0.738037109375,0.4043426513671875,-0.395477294921875
1667825349020777700,1.05677783203125,-0.74896240234375,0.41473388671875,-0.4115142822265625
1667825349030784500,1.066784423828125,-0.7572021484375,0.425628662109375,-0.4250640869140625
1667825349040792600,1.07679248046875,-0.763214111328125,0.4355316162109375,-0.4362335205078125
1667825349050799600,1.086799560546875,-0.766815185546875,0.441436767578125,-0.438568115234375
1667825349060807700,1.0968076171875,-0.7709503173828125,0.4403533935546875,-0.436981201171875
1667825349070815700,1.106815673828125,-0.7735748291015625,0.4344635009765625,-0.429107666015625
1667825349080822800,1.11682275390625,-0.7758636474609375,0.4265594482421875,-0.418670654296875
1667825349090830800,1.126830810546875,-0.7736053466796875,0.4257659912109375,-0.4140777587890625
1667825349100837600,1.136837646484375,-0.770782470703125,0.4350128173828125,-0.4132843017578125
1667825349110845700,1.146845703125,-0.762603759765625,0.4406890869140625,-0.407684326171875
1667825349120852700,1.156852783203125,-0.757659912109375,0.4315338134765625,-0.4042816162109375
1667825349130860800,1.16686083984375,-0.7577056884765625,0.4173736572265625,-0.40582275390625
1667825349140867600,1.17686767578125,-0.7571258544921875,0.406829833984375,-0.4041290283203125
1667825349150876000,1.1868759765625,-0.7559051513671875,0.3983612060546875,-0.397186279296875
1667825349160882700,1.196882568359375,-0.75048828125,0.386932373046875,-0.3936920166015625
1667825349170890500,1.206890380859375,-0.74163818359375,0.3748626708984375,-0.388824462890625
1667825349180897800,1.216897705078125,-0.73565673828125,0.3604736328125,-0.3777923583984375
1667825349190905600,1.226905517578125,-0.7358245849609375,0.3421630859375,-0.367828369140625
1667825349200912600,1.23691259765625,-0.7357025146484375,0.3312225341796875,-0.3580780029296875
1667825349210920400,1.24692041015625,-0.7306976318359375,0.3238525390625,-0.3422698974609375
1667825349220927700,1.256927734375,-0.72967529296875,0.311004638671875,-0.326812744140625
1667825349230935600,1.266935546875,-0.7347412109375,0.298095703125,-0.310394287109375
1667825349240942600,1.276942626953125,-0.7405242919921875,0.2911529541015625,-0.2984466552734375
1667825349250950700,1.28695068359375,-0.7450714111328125,0.295623779296875,-0.28973388671875
1667825349260957700,1.296957763671875,-0.746307373046875,0.3058929443359375,-0.282958984375
1667825349270965500,1.306965576171875,-0.747100830078125,0.3132171630859375,-0.2783203125
1667825349280973600,1.3169736328125,-0.7533111572265625,0.3111114501953125,-0.2682037353515625
1667825349290980600,1.326980712890625,-0.7611236572265625,0.3049774169921875,-0.2517242431640625
1667825349300988700,1.33698876953125,-0.7665863037109375,0.30389404296875,-0.2342376708984375
1667825349310995500,1.346995361328125,-0.7710418701171875,0.313720703125,-0.2198638916015625
1667825349321003800,1.357003662109375,-0.7733612060546875,0.32623291015625,-0.20635986328125
1667825349331010600,1.367010498046875,-0.7765350341796875,0.3395538330078125,-0.19537353515625
1667825349341018600,1.3770185546875,-0.7844085693359375,0.3610992431640625,-0.1936798095703125
1667825349351025700,1.387025634765625,-0.7978973388671875,0.3903656005859375,-0.1912841796875
1667825349361033700,1.39703369140625,-0.80621337890625,0.416656494140625,-0.18170166015625
1667825349371040500,1.40704052734375,-0.814910888671875,0.4340667724609375,-0.1821136474609375
1667825349381048600,1.417048583984375,-0.82513427734375,0.4475860595703125,-0.1880340576171875
1667825349391055600,1.4270556640625,-0.836669921875,0.459075927734375,-0.1857757568359375
1667825349401063700,1.437063720703125,-0.8452301025390625,0.46453857421875,-0.187408447265625
1667825349411070500,1.447070556640625,-0.8560638427734375,0.4736328125,-0.2025146484375
1667825349421078800,1.457078857421875,-0.86907958984375,0.48687744140625,-0.215911865234375
1667825349431085600,1.46708544921875,-0.8837127685546875,0.494232177734375,-0.2251739501953125
1667825349441093600,1.47709375,-0.899993896484375,0.4992218017578125,-0.2422332763671875
1667825349451100700,1.4871005859375,-0.9200897216796875,0.5078582763671875,-0.263519287109375
1667825349461108700,1.497108642578125,-0.9412384033203125,0.5228424072265625,-0.290283203125
1667825349471115500,1.507115478515625,-0.9566802978515625,0.53704833984375,-0.3250732421875
1667825349481123600,1.51712353515625,-0.9690704345703125,0.5505218505859375,-0.362518310546875
1667825349491130600,1.527130615234375,-0.975616455078125,0.5637359619140625,-0.401824951171875
1667825349501138700,1.537138671875,-0.969940185546875,0.5734405517578125,-0.4344482421875
1667825349511146800,1.547146728515625,-0.9594879150390625,0.5720367431640625,-0.45111083984375
1667825349521153800,1.55715380859375,-0.947540283203125,0.5628662109375,-0.4571533203125
1667825349531161900,1.567161865234375,-0.9326934814453125,0.5502166748046875,-0.4548492431640625
1667825349541168600,1.577168701171875,-0.917083740234375,0.5324859619140625,-0.4397430419921875
1667825349551176700,1.5871767578125,-0.9091033935546875,0.5147857666015625,-0.4242401123046875
1667825349561183700,1.597183837890625,-0.897491455078125,0.5030364990234375,-0.4227447509765625
1667825349571191800,1.60719189453125,-0.8890228271484375,0.50714111328125,-0.453369140625
1667825349581198600,1.617198486328125,-0.886627197265625,0.5340576171875,-0.511138916015625
1667825349591207000,1.62720703125,-0.877685546875,0.5671844482421875,-0.577789306640625
1667825349601213200,1.637213134765625,-0.870208740234375,0.5880889892578125,-0.6345367431640625
1667825349611221200,1.64722119140625,-0.8670501708984375,0.5912933349609375,-0.662078857421875
1667825349621228300,1.657228271484375,-0.8618316650390625,0.557159423828125,-0.6597442626953125
1667825349631236400,1.667236328125,-0.8526458740234375,0.4877471923828125,-0.6392059326171875
1667825349641243100,1.6772431640625,-0.8429107666015625,0.4002685546875,-0.6110076904296875
1667825349651251200,1.687251220703125,-0.8281097412109375,0.315032958984375,-0.58056640625
1667825349661258200,1.69725830078125,-0.8113861083984375,0.250396728515625,-0.5584564208984375
1667825349671266300,1.707266357421875,-0.7936248779296875,0.210418701171875,-0.549652099609375
1667825349681273300,1.7172734375,-0.7703094482421875,0.1879425048828125,-0.5496368408203125
1667825349691281400,1.727281494140625,-0.7576446533203125,0.1739654541015625,-0.5461273193359375
1667825349701288200,1.7372880859375,-0.7549896240234375,0.1616058349609375,-0.5428314208984375
1667825349711296300,1.747296142578125,-0.7568359375,0.147064208984375,-0.5425567626953125
1667825349721304000,1.757303955078125,-0.7635955810546875,0.140380859375,-0.540924072265625
1667825349731311400,1.767311279296875,-0.7703857421875,0.1464385986328125,-0.5381622314453125
1667825349741319200,1.777319091796875,-0.7705535888671875,0.1670379638671875,-0.5343017578125
1667825349751326200,1.787326171875,-0.7704620361328125,0.1893463134765625,-0.5227813720703125
1667825349761334300,1.797334228515625,-0.769775390625,0.2012786865234375,-0.5152435302734375
1667825349771341300,1.80734130859375,-0.7716827392578125,0.2115631103515625,-0.51519775390625
1667825349781349000,1.81734912109375,-0.7815093994140625,0.2272186279296875,-0.515045166015625
1667825349791356400,1.8273564453125,-0.7966461181640625,0.2399139404296875,-0.5121917724609375
1667825349801364200,1.8373642578125,-0.803863525390625,0.2391510009765625,-0.509246826171875
1667825349811371300,1.847371337890625,-0.81219482421875,0.2371978759765625,-0.5081634521484375
1667825349821379000,1.857379150390625,-0.8178558349609375,0.24853515625,-0.497161865234375
1667825349831386400,1.867386474609375,-0.8133544921875,0.2632598876953125,-0.4707489013671875
1667825349841394200,1.877394287109375,-0.812744140625,0.273773193359375,-0.4530181884765625
1667825349851401200,1.887401123046875,-0.814453125,0.2867889404296875,-0.44671630859375
1667825349861409300,1.8974091796875,-0.80731201171875,0.2978515625,-0.4350433349609375
1667825349871416300,1.907416259765625,-0.80181884765625,0.2977294921875,-0.4295196533203125
1667825349881424100,1.917424072265625,-0.79925537109375,0.2882232666015625,-0.4293365478515625
1667825349891431400,1.927431396484375,-0.793609619140625,0.2758941650390625,-0.42694091796875
1667825349901439200,1.937439208984375,-0.7896728515625,0.268463134765625,-0.4329986572265625
1667825349911446300,1.9474462890625,-0.784423828125,0.2709503173828125,-0.4422454833984375
1667825349921454000,1.9574541015625,-0.7781829833984375,0.2721405029296875,-0.437835693359375
1667825349931462400,1.96746240234375,-0.768035888671875,0.264556884765625,-0.4320068359375
1667825349941469200,1.97746923828125,-0.763397216796875,0.2581634521484375,-0.4334564208984375
1667825349951477200,1.987477294921875,-0.7578277587890625,0.2584381103515625,-0.4350128173828125
1667825349961484300,1.997484375,-0.746246337890625,0.259033203125,-0.4203643798828125
1667825349971492400,2.007492431640625,-0.7342376708984375,0.2496337890625,-0.4042510986328125
1667825349981499100,2.0174990234375,-0.7386932373046875,0.2369384765625,-0.392333984375
1667825349991507200,2.027507080078125,-0.7462615966796875,0.2292022705078125,-0.3879241943359375
1667825350001514200,2.03751416015625,-0.7471466064453125,0.238250732421875,-0.394500732421875
1667825350011522300,2.047522216796875,-0.757904052734375,0.2739410400390625,-0.427642822265625
1667825350021529000,2.057529052734375,-0.7737274169921875,0.3337249755859375,-0.4707489013671875
1667825350031537400,2.067537353515625,-0.780181884765625,0.3930511474609375,-0.5112457275390625
1667825350041544200,2.077544189453125,-0.7871551513671875,0.433685302734375,-0.541259765625
1667825350051552300,2.08755224609375,-0.7942657470703125,0.439910888671875,-0.5488433837890625
1667825350061559300,2.097559326171875,-0.7989654541015625,0.4108734130859375,-0.5378570556640625
1667825350071567400,2.1075673828125,-0.7997283935546875,0.37200927734375,-0.512939453125
1667825350081574100,2.11757421875,-0.793243408203125,0.3537750244140625,-0.4975738525390625
1667825350091582200,2.127582275390625,-0.7815399169921875,0.3587188720703125,-0.493072509765625
1667825350101589200,2.13758935546875,-0.7554931640625,0.3666229248046875,-0.4787139892578125
1667825350111597300,2.147597412109375,-0.738800048828125,0.350738525390625,-0.4419403076171875
1667825350121605000,2.157605224609375,-0.73394775390625,0.308074951171875,-0.401824951171875
1667825350131612400,2.1676123046875,-0.7520599365234375,0.2751007080078125,-0.398590087890625
1667825350141620200,2.1776201171875,-0.7782135009765625,0.301483154296875,-0.439971923828125
1667825350151627300,2.187627197265625,-0.7866363525390625,0.3741607666015625,-0.5001220703125
1667825350161635000,2.197635009765625,-0.7888031005859375,0.4513092041015625,-0.5567169189453125
1667825350171642400,2.207642333984375,-0.79974365234375,0.5116119384765625,-0.594940185546875
1667825350181650200,2.217650146484375,-0.8112335205078125,0.5481719970703125,-0.6219482421875
1667825350191657200,2.2276572265625,-0.8228607177734375,0.5681304931640625,-0.6358489990234375
1667825350201665300,2.237665283203125,-0.825927734375,0.5717620849609375,-0.6270294189453125
1667825350211672300,2.24767236328125,-0.8235015869140625,0.553192138671875,-0.5977020263671875
1667825350221680000,2.25768017578125,-0.8298492431640625,0.5320892333984375,-0.567596435546875
1667825350231687400,2.2676875,-0.834930419921875,0.5192413330078125,-0.5410919189453125
1667825350241695200,2.2776953125,-0.8261871337890625,0.517730712890625,-0.5214691162109375
1667825350251702300,2.287702392578125,-0.8181304931640625,0.5333099365234375,-0.5100555419921875
1667825350261710000,2.2977099609375,-0.8100738525390625,0.5468597412109375,-0.4969024658203125
1667825350271717400,2.30771728515625,-0.800933837890625,0.544525146484375,-0.4858856201171875
1667825350281725200,2.31772509765625,-0.7979278564453125,0.522735595703125,-0.4694366455078125
1667825350291733200,2.327733154296875,-0.7884368896484375,0.4872589111328125,-0.44134521484375
1667825350301740300,2.337740234375,-0.77545166015625,0.4491119384765625,-0.4089813232421875
1667825350311748400,2.347748291015625,-0.760711669921875,0.4178619384765625,-0.39056396484375
1667825350321755100,2.357755126953125,-0.7476959228515625,0.3984527587890625,-0.3895721435546875
1667825350331763200,2.36776318359375,-0.738800048828125,0.385772705078125,-0.39385986328125
1667825350341770200,2.377770263671875,-0.7355194091796875,0.37542724609375,-0.4010772705078125
1667825350351778300,2.3877783203125,-0.7361602783203125,0.364776611328125,-0.40240478515625
1667825350361785000,2.39778515625,-0.737762451171875,0.3462677001953125,-0.4027252197265625
1667825350371793200,2.407793212890625,-0.742584228515625,0.324737548828125,-0.40850830078125
1667825350381800200,2.41780029296875,-0.7501678466796875,0.3136138916015625,-0.413970947265625
1667825350391808300,2.427808349609375,-0.7486114501953125,0.3103485107421875,-0.4147796630859375
1667825350401815300,2.437815185546875,-0.744903564453125,0.3144989013671875,-0.417694091796875
1667825350411823400,2.4478232421875,-0.7457275390625,0.3166351318359375,-0.4158935546875
1667825350421830100,2.457830078125,-0.754119873046875,0.3085784912109375,-0.4055023193359375
1667825350431838200,2.467838134765625,-0.7669830322265625,0.3008270263671875,-0.40167236328125
1667825350441845200,2.47784521484375,-0.7718505859375,0.3039398193359375,-0.4023590087890625
1667825350451853300,2.487853271484375,-0.7718963623046875,0.3116607666015625,-0.4009246826171875
1667825350461860000,2.497860107421875,-0.777862548828125,0.3159637451171875,-0.3929595947265625
1667825350471868200,2.5078681640625,-0.786376953125,0.3172760009765625,-0.3813629150390625
1667825350481876500,2.51787646484375,-0.7951202392578125,0.3211212158203125,-0.3750457763671875
1667825350491883300,2.52788330078125,-0.80267333984375,0.33544921875,-0.3726959228515625
1667825350501891300,2.537891357421875,-0.8040771484375,0.3554534912109375,-0.372772216796875
1667825350511898400,2.5478984375,-0.8111419677734375,0.37396240234375,-0.3793792724609375
1667825350521906400,2.557906494140625,-0.8222808837890625,0.387908935546875,-0.38787841796875
1667825350531913200,2.567913330078125,-0.828887939453125,0.3952178955078125,-0.393341064453125
1667825350541921300,2.57792138671875,-0.8348388671875,0.4008636474609375,-0.4001007080078125
1667825350551928300,2.58792822265625,-0.84063720703125,0.410614013671875,-0.403045654296875
1667825350561936400,2.597936279296875,-0.8425140380859375,0.42462158203125,-0.403411865234375
1667825350571943200,2.607943115234375,-0.8437042236328125,0.4403228759765625,-0.40673828125
1667825350581951500,2.617951416015625,-0.8394775390625,0.4540252685546875,-0.40203857421875
1667825350591958300,2.627958251953125,-0.8334503173828125,0.458831787109375,-0.3927001953125
1667825350601965800,2.6379658203125,-0.830596923828125,0.456634521484375,-0.37921142578125
1667825350611972900,2.647972900390625,-0.8278961181640625,0.4512939453125,-0.3651275634765625
1667825350621981000,2.65798095703125,-0.8255615234375,0.455657958984375,-0.3576202392578125
1667825350631989000,2.667989013671875,-0.8216400146484375,0.4698638916015625,-0.35577392578125
1667825350641996000,2.67799609375,-0.8183135986328125,0.478424072265625,-0.3531646728515625
1667825350652004000,2.688004150390625,-0.82647705078125,0.4794464111328125,-0.348907470703125
1667825350662011000,2.698010986328125,-0.837188720703125,0.47796630859375,-0.3484954833984375
1667825350672019000,2.70801904296875,-0.848785400390625,0.479339599609375,-0.3603363037109375
1667825350682026000,2.71802587890625,-0.863800048828125,0.48736572265625,-0.384429931640625
1667825350692034000,2.728033935546875,-0.8785247802734375,0.505828857421875,-0.41204833984375
1667825350702040800,2.738040771484375,-0.892303466796875,0.523284912109375,-0.4411163330078125
1667825350712049000,2.748048828125,-0.9009552001953125,0.525543212890625,-0.4601593017578125
1667825350722056000,2.758055908203125,-0.90594482421875,0.51251220703125,-0.4634857177734375
1667825350732064000,2.76806396484375,-0.90838623046875,0.49053955078125,-0.450531005859375
1667825350742071000,2.778071044921875,-0.90570068359375,0.4654693603515625,-0.4326934814453125
1667825350752079000,2.7880791015625,-0.9027862548828125,0.453521728515625,-0.4205780029296875
1667825350762086000,2.7980859375,-0.8948974609375,0.463287353515625,-0.4279632568359375
1667825350772094000,2.808093994140625,-0.881591796875,0.4968109130859375,-0.45330810546875
1667825350782101000,2.81810107421875,-0.8661956787109375,0.5363311767578125,-0.487701416015625
1667825350792109000,2.828109130859375,-0.85772705078125,0.5606689453125,-0.5255126953125
1667825350802115800,2.83811572265625,-0.8541717529296875,0.55999755859375,-0.55523681640625
1667825350812124000,2.8481240234375,-0.8532867431640625,0.5343780517578125,-0.5551910400390625
1667825350822132000,2.858132080078125,-0.845367431640625,0.48193359375,-0.536285400390625
1667825350832139000,2.868138916015625,-0.8325042724609375,0.41650390625,-0.5227813720703125
1667825350842146800,2.878146728515625,-0.8109130859375,0.3591461181640625,-0.51025390625
1667825350852153900,2.88815380859375,-0.7819976806640625,0.311798095703125,-0.503021240234375
1667825350862162000,2.898161865234375,-0.754974365234375,0.2755279541015625,-0.5007476806640625
1667825350872168700,2.908168701171875,-0.7366485595703125,0.2578887939453125,-0.506591796875
1667825350882176800,2.9181767578125,-0.7247161865234375,0.25860595703125,-0.5178375244140625
1667825350892183800,2.928183837890625,-0.7124176025390625,0.264129638671875,-0.54046630859375
1667825350902191900,2.93819189453125,-0.70849609375,0.2744140625,-0.5623931884765625
1667825350912198700,2.94819873046875,-0.708953857421875,0.285888671875,-0.572723388671875
1667825350922207000,2.95820703125,-0.7120513916015625,0.288330078125,-0.582244873046875
1667825350932213800,2.9682138671875,-0.712677001953125,0.27490234375,-0.581451416015625
1667825350942221800,2.978221923828125,-0.71221923828125,0.247344970703125,-0.5718994140625
1667825350952228900,2.988228759765625,-0.712310791015625,0.2249603271484375,-0.556427001953125
1667825350962237000,2.99823681640625,-0.7069091796875,0.2232818603515625,-0.545867919921875
1667825350972245000,3.008244873046875,-0.69854736328125,0.2407379150390625,-0.5380401611328125
1667825350982251800,3.018251708984375,-0.696014404296875,0.2548675537109375,-0.529296875
1667825350992260000,3.028260009765625,-0.6992645263671875,0.2567901611328125,-0.51788330078125
1667825351002267000,3.038266845703125,-0.706512451171875,0.260009765625,-0.4984588623046875
1667825351012275000,3.04827490234375,-0.715087890625,0.26318359375,-0.4768524169921875
1667825351022282000,3.058281982421875,-0.7239532470703125,0.269927978515625,-0.4635467529296875
1667825351032290000,3.0682900390625,-0.7269134521484375,0.280914306640625,-0.450897216796875
1667825351042296800,3.078296875,-0.7256622314453125,0.2893218994140625,-0.4439849853515625
1667825351052305000,3.088304931640625,-0.723907470703125,0.291351318359375,-0.4392852783203125
1667825351062312000,3.09831201171875,-0.7199554443359375,0.28460693359375,-0.42822265625
1667825351072320000,3.108320068359375,-0.714874267578125,0.2745819091796875,-0.4203948974609375
1667825351082326800,3.118326904296875,-0.7093658447265625,0.2686920166015625,-0.4093475341796875
1667825351092335000,3.128335205078125,-0.7103118896484375,0.2602996826171875,-0.3863677978515625
1667825351102342000,3.138341796875,-0.7093658447265625,0.25054931640625,-0.37286376953125
1667825351112350000,3.148349853515625,-0.711334228515625,0.24853515625,-0.3687286376953125
1667825351122357000,3.15835693359375,-0.7063751220703125,0.2581939697265625,-0.368927001953125
1667825351132365000,3.168364990234375,-0.6980438232421875,0.2763824462890625,-0.37646484375
1667825351142372900,3.178372802734375,-0.6838226318359375,0.2811737060546875,-0.3782196044921875
1667825351152380000,3.1883798828125,-0.660675048828125,0.253143310546875,-0.36236572265625
1667825351162388000,3.198387939453125,-0.628265380859375,0.1951141357421875,-0.322113037109375
1667825351172395000,3.20839501953125,-0.58953857421875,0.1275177001953125,-0.2734832763671875
1667825351182402800,3.21840283203125,-0.5424041748046875,0.0699005126953125,-0.2391510009765625
1667825351192410000,3.22841015625,-0.476348876953125,0.0300140380859375,-0.2261810302734375
1667825351202418000,3.23841796875,-0.4011688232421875,0.0191192626953125,-0.2429962158203125
1667825351212425000,3.248425048828125,-0.3305816650390625,0.03338623046875,-0.271270751953125
1667825351222432800,3.258432861328125,-0.2489471435546875,0.049346923828125,-0.304901123046875
1667825351232440000,3.268440185546875,-0.1550140380859375,0.0771942138671875,-0.3333892822265625
1667825351242448000,3.27844775390625,-0.0718231201171875,0.149749755859375,-0.366912841796875
1667825351252455000,3.288454833984375,-0.0479278564453125,0.2710723876953125,-0.4746246337890625
1667825351262463000,3.298462890625,-0.111358642578125,0.429412841796875,-0.6468048095703125
1667825351272470000,3.308469970703125,-0.200653076171875,0.5492095947265625,-0.7392120361328125
1667825351282477800,3.318477783203125,-0.2575836181640625,0.561981201171875,-0.7653961181640625
1667825351292486000,3.32848583984375,-0.2942962646484375,0.508453369140625,-0.7806396484375
1667825351302493000,3.338492919921875,-0.3030548095703125,0.4467315673828125,-0.7800750732421875
1667825351312501000,3.3485009765625,-0.2864837646484375,0.395782470703125,-0.8118896484375
1667825351322507800,3.3585078125,-0.286224365234375,0.3878326416015625,-0.89044189453125
1667825351332515800,3.368515869140625,-0.323272705078125,0.439971923828125,-0.9834442138671875
1667825351342523000,3.37852294921875,-0.3828277587890625,0.52801513671875,-1.08453369140625
1667825351352531000,3.388531005859375,-0.4307098388671875,0.610687255859375,-1.1872406005859375
1667825351362538000,3.3985380859375,-0.48809814453125,0.655670166015625,-1.2469329833984375
1667825351372546000,3.408546142578125,-0.5123138427734375,0.6597137451171875,-1.2684478759765625
1667825351382552800,3.418552734375,-0.5073089599609375,0.6408538818359375,-1.268829345703125
1667825351392561000,3.428560791015625,-0.505462646484375,0.623504638671875,-1.258392333984375
1667825351402568000,3.43856787109375,-0.5132904052734375,0.6268463134765625,-1.2689971923828125
1667825351412576000,3.448575927734375,-0.5429840087890625,0.672332763671875,-1.350494384765625
1667825351422582800,3.458582763671875,-0.6015167236328125,0.7633514404296875,-1.4163818359375
1667825351432590800,3.4685908203125,-0.636993408203125,0.82293701171875,-1.4376983642578125
1667825351442599000,3.478598876953125,-0.6628875732421875,0.8267059326171875,-1.443328857421875
1667825351452606000,3.48860595703125,-0.679718017578125,0.8001708984375,-1.42132568359375
1667825351462613800,3.49861376953125,-0.688262939453125,0.757598876953125,-1.372222900390625
1667825351472621000,3.50862109375,-0.6842498779296875,0.7151947021484375,-1.3068084716796875
1667825351482628900,3.51862890625,-0.681671142578125,0.65924072265625,-1.1904296875
1667825351492636000,3.528635986328125,-0.669464111328125,0.5877532958984375,-1.0876617431640625
1667825351502643700,3.538643798828125,-0.6378631591796875,0.5210418701171875,-0.99237060546875
1667825351512651000,3.548651123046875,-0.5852203369140625,0.4706268310546875,-0.9117431640625
1667825351522658800,3.558658935546875,-0.5355072021484375,0.4456024169921875,-0.8649444580078125
1667825351532665900,3.568665771484375,-0.50982666015625,0.4412841796875,-0.8248291015625
1667825351542674000,3.578673828125,-0.52593994140625,0.4386444091796875,-0.7883148193359375
1667825351552681000,3.588680908203125,-0.5541839599609375,0.4254608154296875,-0.754119873046875
1667825351562688800,3.598688720703125,-0.5728607177734375,0.4062652587890625,-0.7103118896484375
1667825351572696000,3.608696044921875,-0.58721923828125,0.3857879638671875,-0.684173583984375
1667825351582703900,3.618703857421875,-0.59423828125,0.375823974609375,-0.67559814453125
1667825351592711000,3.6287109375,-0.5891265869140625,0.376129150390625,-0.6696624755859375
1667825351602719500,3.638719482421875,-0.5859222412109375,0.37432861328125,-0.6627960205078125
1667825351612727600,3.6487275390625,-0.592742919921875,0.3749542236328125,-0.6606597900390625
1667825351622734600,3.658734619140625,-0.594818115234375,0.3790435791015625,-0.663330078125
1667825351632742700,3.66874267578125,-0.5980072021484375,0.3801727294921875,-0.66387939453125
1667825351642749400,3.67874951171875,-0.60076904296875,0.3794097900390625,-0.662353515625
1667825351652757800,3.6887578125,-0.594146728515625,0.3785400390625,-0.6485595703125
1667825351662764500,3.6987646484375,-0.5772552490234375,0.369232177734375,-0.632537841796875
1667825351672772600,3.708772705078125,-0.55841064453125,0.3582763671875,-0.6153717041015625
1667825351682779600,3.718779541015625,-0.537322998046875,0.3553924560546875,-0.5938873291015625
1667825351692787700,3.72878759765625,-0.5108184814453125,0.352294921875,-0.572509765625
1667825351702794500,3.73879443359375,-0.4895477294921875,0.3475494384765625,-0.552459716796875
1667825351712802600,3.748802490234375,-0.47235107421875,0.3385467529296875,-0.532928466796875
1667825351722809600,3.7588095703125,-0.4480133056640625,0.3233642578125,-0.516693115234375
1667825351732817700,3.768817626953125,-0.4375152587890625,0.3133697509765625,-0.5075225830078125
1667825351742825700,3.77882568359375,-0.44366455078125,0.313385009765625,-0.519073486328125
1667825351752832800,3.788832763671875,-0.470123291015625,0.3363189697265625,-0.5506744384765625
1667825351762840800,3.7988408203125,-0.5171051025390625,0.381927490234375,-0.5867156982421875
1667825351772847600,3.80884765625,-0.55987548828125,0.428009033203125,-0.6174774169921875
1667825351782855700,3.818855712890625,-0.5931396484375,0.463134765625,-0.6396636962890625
1667825351792862700,3.82886279296875,-0.628326416015625,0.485382080078125,-0.6610565185546875
1667825351802870800,3.838870849609375,-0.6640472412109375,0.507049560546875,-0.685394287109375
1667825351812877600,3.848877685546875,-0.699310302734375,0.550445556640625,-0.72576904296875
1667825351822885600,3.8588857421875,-0.726898193359375,0.6285552978515625,-0.7716217041015625
1667825351832892700,3.868892578125,-0.7442169189453125,0.7112579345703125,-0.7864227294921875
1667825351842900700,3.878900634765625,-0.750244140625,0.7573089599609375,-0.777313232421875
1667825351852907800,3.88890771484375,-0.7220001220703125,0.7565155029296875,-0.779541015625
1667825351862915800,3.898915771484375,-0.7069854736328125,0.7320098876953125,-0.7909088134765625
1667825351872922600,3.908922607421875,-0.681365966796875,0.6911468505859375,-0.6849822998046875
1667825351882930700,3.9189306640625,-0.6604766845703125,0.7043609619140625,-0.6740875244140625
1667825351892938500,3.9289384765625,-0.656951904296875,0.7263031005859375,-0.6929779052734375
1667825351902945800,3.93894580078125,-0.6374053955078125,0.735931396484375,-0.696533203125
1667825351912953600,3.94895361328125,-0.6439361572265625,0.7493438720703125,-0.6936798095703125
1667825351922960600,3.958960693359375,-0.6517791748046875,0.768768310546875,-0.701690673828125
1667825351932968700,3.96896875,-0.6491546630859375,0.7850799560546875,-0.718017578125
1667825351942975700,3.978975830078125,-0.65667724609375,0.782196044921875,-0.7388153076171875
1667825351952983600,3.988983642578125,-0.664276123046875,0.7670745849609375,-0.7445526123046875
1667825351962990800,3.998990966796875,-0.6737518310546875,0.748138427734375,-0.741912841796875
1667825351972998700,4.00899853515625,-0.6785125732421875,0.714569091796875,-0.7344970703125
1667825351983006700,4.0190068359375,-0.675079345703125,0.6652679443359375,-0.7261505126953125
1667825351993013500,4.029013427734375,-0.6552276611328125,0.6190338134765625,-0.7173309326171875
1667825352003021800,4.039021728515625,-0.6240081787109375,0.587249755859375,-0.719970703125
1667825352013028600,4.049028564453125,-0.59222412109375,0.5704345703125,-0.729034423828125
1667825352023036700,4.05903662109375,-0.5667572021484375,0.5649566650390625,-0.7325897216796875
1667825352033043700,4.069043701171875,-0.5634002685546875,0.5521697998046875,-0.719879150390625
1667825352043051800,4.0790517578125,-0.574493408203125,0.5214996337890625,-0.7011566162109375
1667825352053058600,4.08905859375,-0.586181640625,0.49285888671875,-0.686065673828125
1667825352063066600,4.099066650390625,-0.6002960205078125,0.480926513671875,-0.667694091796875
1667825352073073700,4.10907373046875,-0.60894775390625,0.480072021484375,-0.642181396484375
1667825352083081700,4.119081787109375,-0.6117401123046875,0.475830078125,-0.6211090087890625
1667825352093088500,4.129088623046875,-0.6181793212890625,0.473358154296875,-0.6015472412109375
1667825352103096800,4.139096923828125,-0.6205291748046875,0.4677734375,-0.5713348388671875
1667825352113103600,4.149103515625,-0.62127685546875,0.431671142578125,-0.534912109375
1667825352123111700,4.159111572265625,-0.6320953369140625,0.3865509033203125,-0.4978485107421875
1667825352133118700,4.16911865234375,-0.6345367431640625,0.35357666015625,-0.4703826904296875
1667825352143126800,4.179126708984375,-0.6281585693359375,0.339202880859375,-0.4723358154296875
1667825352153134600,4.189134521484375,-0.62432861328125,0.3475341796875,-0.47515869140625
1667825352163141600,4.1991416015625,-0.622833251953125,0.352569580078125,-0.4715728759765625
1667825352173149700,4.209149658203125,-0.6286468505859375,0.34820556640625,-0.4683837890625
1667825352183156700,4.21915673828125,-0.6442413330078125,0.3441009521484375,-0.4774169921875
1667825352193164500,4.22916455078125,-0.6541748046875,0.348876953125,-0.4909515380859375
1667825352203171800,4.239171875,-0.6552734375,0.3598480224609375,-0.5057525634765625
1667825352213179600,4.2491796875,-0.662811279296875,0.3676300048828125,-0.518310546875
1667825352223186700,4.259186767578125,-0.6678924560546875,0.36505126953125,-0.51837158203125
1667825352233194500,4.269194580078125,-0.6636199951171875,0.35546875,-0.515869140625
1667825352243201800,4.279201904296875,-0.6604461669921875,0.3512725830078125,-0.5128936767578125
1667825352253209600,4.289209716796875,-0.6572113037109375,0.356903076171875,-0.512664794921875
1667825352263216600,4.299216552734375,-0.6472625732421875,0.3709716796875,-0.5136260986328125
1667825352273224700,4.309224609375,-0.63702392578125,0.39019775390625,-0.52105712890625
1667825352283232800,4.319232666015625,-0.62969970703125,0.3981475830078125,-0.5267791748046875
1667825352293239600,4.329239501953125,-0.6260986328125,0.396331787109375,-0.5291595458984375
1667825352303247600,4.33924755859375,-0.6221923828125,0.3897857666015625,-0.5302734375
1667825352313254700,4.349254638671875,-0.6162567138671875,0.383941650390625,-0.5339202880859375
1667825352323262700,4.3592626953125,-0.6045684814453125,0.3796844482421875,-0.5402069091796875
1667825352333269500,4.36926953125,-0.5986175537109375,0.3922882080078125,-0.556671142578125
1667825352343277600,4.379277587890625,-0.59368896484375,0.4207611083984375,-0.5728912353515625
1667825352353284600,4.38928466796875,-0.5822601318359375,0.442047119140625,-0.58807373046875
1667825352363292700,4.399292724609375,-0.5783843994140625,0.4533233642578125,-0.6012115478515625
1667825352373299700,4.4092998046875,-0.5849761962890625,0.4633026123046875,-0.6101531982421875
1667825352383307800,4.419307861328125,-0.5869140625,0.48187255859375,-0.616302490234375
1667825352393314600,4.429314453125,-0.5847625732421875,0.49737548828125,-0.616363525390625
1667825352403322600,4.439322509765625,-0.569549560546875,0.4918365478515625,-0.6089324951171875
1667825352413329700,4.44932958984375,-0.55364990234375,0.47259521484375,-0.5982666015625
1667825352423337700,4.459337646484375,-0.5364227294921875,0.4637603759765625,-0.6027984619140625
1667825352433344500,4.469344482421875,-0.5239715576171875,0.4752960205078125,-0.607330322265625
1667825352443352600,4.4793525390625,-0.5155181884765625,0.4871368408203125,-0.6069183349609375
1667825352453360600,4.489360595703125,-0.51605224609375,0.4853668212890625,-0.614044189453125
1667825352463367700,4.49936767578125,-0.527252197265625,0.48974609375,-0.6260223388671875
1667825352473375500,4.50937548828125,-0.53778076171875,0.51092529296875,-0.64166259765625
1667825352483382800,4.5193828125,-0.552398681640625,0.5490875244140625,-0.6581573486328125
1667825352493390600,4.529390625,-0.562042236328125,0.5885772705078125,-0.6674346923828125
1667825352503397600,4.539397705078125,-0.574737548828125,0.6283416748046875,-0.6721649169921875
1667825352513405400,4.549405517578125,-0.5885467529296875,0.6579437255859375,-0.66912841796875
1667825352523412700,4.559412841796875,-0.5981292724609375,0.6589202880859375,-0.6574859619140625
1667825352533420500,4.569420654296875,-0.608428955078125,0.6312103271484375,-0.638092041015625
1667825352543427600,4.579427490234375,-0.626068115234375,0.5995941162109375,-0.6190643310546875
1667825352553435600,4.589435546875,-0.6386871337890625,0.5823516845703125,-0.5943603515625
1667825352563442700,4.599442626953125,-0.6417236328125,0.5748748779296875,-0.5798797607421875
1667825352573450500,4.609450439453125,-0.646392822265625,0.5674896240234375,-0.5638580322265625
1667825352583458600,4.61945849609375,-0.6513824462890625,0.55364990234375,-0.5389404296875
1667825352593465600,4.629465576171875,-0.659332275390625,0.532989501953125,-0.507965087890625
1667825352603473700,4.6394736328125,-0.6681365966796875,0.499053955078125,-0.4836273193359375
1667825352613480400,4.64948046875,-0.67730712890625,0.470184326171875,-0.46551513671875
1667825352623488800,4.65948876953125,-0.6933746337890625,0.460296630859375,-0.454620361328125
1667825352633495600,4.66949560546875,-0.7004241943359375,0.46240234375,-0.4474029541015625
1667825352643503600,4.679503662109375,-0.70513916015625,0.4663543701171875,-0.450775146484375
1667825352653510700,4.6895107421875,-0.7110137939453125,0.461761474609375,-0.4470062255859375
1667825352663518700,4.699518798828125,-0.7158050537109375,0.43902587890625,-0.4339599609375
1667825352673525500,4.709525390625,-0.73162841796875,0.406402587890625,-0.4207611083984375
1667825352683533600,4.719533447265625,-0.7432708740234375,0.3818206787109375,-0.4121856689453125
1667825352693540600,4.72954052734375,-0.7515106201171875,0.37640380859375,-0.41064453125
1667825352703548700,4.739548583984375,-0.7676849365234375,0.3889007568359375,-0.415496826171875
1667825352713555500,4.749555419921875,-0.7799072265625,0.4058074951171875,-0.4209747314453125
1667825352723563800,4.759563720703125,-0.7866668701171875,0.4144744873046875,-0.4268951416015625
1667825352733570600,4.769570556640625,-0.789764404296875,0.421051025390625,-0.436798095703125
1667825352743578600,4.77957861328125,-0.7940216064453125,0.4337615966796875,-0.439178466796875
1667825352753586400,4.78958642578125,-0.7884063720703125,0.4364776611328125,-0.424163818359375
1667825352763593700,4.79959375,-0.7791748046875,0.4250335693359375,-0.404632568359375
1667825352773601500,4.8096015625,-0.7686309814453125,0.4154815673828125,-0.3871002197265625
1667825352783608600,4.819608642578125,-0.74896240234375,0.4066009521484375,-0.3637237548828125
1667825352793616600,4.82961669921875,-0.7266082763671875,0.39129638671875,-0.34088134765625
1667825352803623700,4.839623779296875,-0.7146148681640625,0.37469482421875,-0.33135986328125
1667825352813631500,4.849631591796875,-0.7098236083984375,0.363616943359375,-0.3306732177734375
1667825352823638800,4.859638671875,-0.7114410400390625,0.3603363037109375,-0.3312530517578125
1667825352833646600,4.869646484375,-0.718505859375,0.3571624755859375,-0.33905029296875
1667825352843653600,4.879653564453125,-0.7341156005859375,0.35272216796875,-0.345123291015625
1667825352853661400,4.889661376953125,-0.748687744140625,0.348358154296875,-0.3484344482421875
1667825352863668700,4.899668701171875,-0.768096923828125,0.34619140625,-0.364288330078125
1667825352873676500,4.909676513671875,-0.7978668212890625,0.363525390625,-0.3940582275390625
1667825352883683600,4.91968359375,-0.8308563232421875,0.4147491455078125,-0.43609619140625
1667825352893691600,4.929691650390625,-0.8579254150390625,0.48760986328125,-0.47467041015625
1667825352903698700,4.93969873046875,-0.875457763671875,0.5495147705078125,-0.5004119873046875
1667825352913706500,4.94970654296875,-0.88677978515625,0.5790557861328125,-0.5016632080078125
1667825352923714600,4.959714599609375,-0.895538330078125,0.5620880126953125,-0.485809326171875
1667825352933721600,4.9697216796875,-0.9012908935546875,0.53369140625,-0.4724884033203125
1667825352943729700,4.979729736328125,-0.894683837890625,0.5209808349609375,-0.4617919921875
1667825352953736400,4.989736328125,-0.890411376953125,0.5424346923828125,-0.462860107421875
1667825352963744800,4.999744873046875,-0.8878326416015625,0.5918121337890625,-0.4958648681640625
1667825352973751600,5.00975146484375,-0.8849029541015625,0.6500244140625,-0.5595245361328125
1667825352983759600,5.019759521484375,-0.8850860595703125,0.695770263671875,-0.6162567138671875
1667825352993766700,5.0297666015625,-0.881866455078125,0.7082061767578125,-0.655853271484375
1667825353003774700,5.039774658203125,-0.8864288330078125,0.6991119384765625,-0.6924591064453125
1667825353013781500,5.049781494140625,-0.88531494140625,0.6772918701171875,-0.7158966064453125
1667825353023789600,5.05978955078125,-0.8679351806640625,0.6530303955078125,-0.7313232421875
1667825353033796600,5.069796630859375,-0.8318634033203125,0.62591552734375,-0.7410430908203125
1667825353043804700,5.0798046875,-0.78424072265625,0.5915679931640625,-0.748199462890625
1667825353053811500,5.0898115234375,-0.731781005859375,0.5525665283203125,-0.743804931640625
1667825353063819500,5.099819580078125,-0.6880950927734375,0.5121307373046875,-0.72723388671875
1667825353073827800,5.109827880859375,-0.664794921875,0.47808837890625,-0.72650146484375
1667825353083834600,5.119834716796875,-0.652862548828125,0.4596405029296875,-0.738311767578125
1667825353093842700,5.1298427734375,-0.6465606689453125,0.4522247314453125,-0.7494964599609375
1667825353103849700,5.139849609375,-0.6504058837890625,0.4437408447265625,-0.7653656005859375
1667825353113857800,5.14985791015625,-0.6572418212890625,0.4322967529296875,-0.75201416015625
1667825353123864600,5.159864501953125,-0.6697540283203125,0.4075469970703125,-0.721649169921875
1667825353133872600,5.16987255859375,-0.681365966796875,0.3751220703125,-0.6866607666015625
1667825353143879700,5.179879638671875,-0.6815338134765625,0.337646484375,-0.654052734375
1667825353153887700,5.1898876953125,-0.67706298828125,0.2960205078125,-0.6182708740234375
1667825353163894500,5.19989453125,-0.6743011474609375,0.2551116943359375,-0.58587646484375
1667825353173902800,5.20990283203125,-0.6786651611328125,0.2337646484375,-0.5556640625
1667825353183909600,5.21990966796875,-0.67962646484375,0.228851318359375,-0.53851318359375
1667825353193917700,5.229917724609375,-0.6761322021484375,0.2361602783203125,-0.530426025390625
1667825353203924700,5.2399248046875,-0.68048095703125,0.251739501953125,-0.5228729248046875
1667825353213932800,5.249932861328125,-0.685577392578125,0.26116943359375,-0.516845703125
1667825353223940600,5.259940673828125,-0.691192626953125,0.2618560791015625,-0.5096435546875
1667825353233947600,5.26994775390625,-0.69293212890625,0.2505950927734375,-0.50457763671875
1667825353243955700,5.279955810546875,-0.692779541015625,0.239898681640625,-0.50115966796875
1667825353253962800,5.289962646484375,-0.685943603515625,0.2352752685546875,-0.495086669921875
1667825353263970600,5.299970458984375,-0.6732330322265625,0.234100341796875,-0.4828643798828125
1667825353273977900,5.309977783203125,-0.661956787109375,0.234954833984375,-0.482666015625
1667825353283985700,5.319985595703125,-0.64935302734375,0.2472991943359375,-0.4872894287109375
1667825353293992700,5.32999267578125,-0.6338348388671875,0.2689666748046875,-0.49407958984375
1667825353304000500,5.34000048828125,-0.6232757568359375,0.2979888916015625,-0.5101776123046875
1667825353314007800,5.3500078125,-0.623748779296875,0.3280487060546875,-0.528533935546875
1667825353324015600,5.360015625,-0.627899169921875,0.3481292724609375,-0.5418548583984375
1667825353334022700,5.370022705078125,-0.6452178955078125,0.363555908203125,-0.5589447021484375
1667825353344030700,5.38003076171875,-0.65740966796875,0.3887786865234375,-0.5835418701171875
1667825353354037800,5.390037841796875,-0.6575927734375,0.425933837890625,-0.61712646484375
1667825353364045600,5.400045654296875,-0.654388427734375,0.465728759765625,-0.6483001708984375
1667825353374053600,5.4100537109375,-0.6423797607421875,0.4910888671875,-0.67083740234375
1667825353384060700,5.420060791015625,-0.6191864013671875,0.50567626953125,-0.68670654296875
1667825353394068700,5.43006884765625,-0.587921142578125,0.51495361328125,-0.6939697265625
1667825353404075500,5.440075439453125,-0.561065673828125,0.5220794677734375,-0.692962646484375
1667825353414083800,5.450083740234375,-0.547454833984375,0.5345306396484375,-0.69769287109375
1667825353424090600,5.460090576171875,-0.5479583740234375,0.5705108642578125,-0.717071533203125
1667825353434098700,5.4700986328125,-0.5524444580078125,0.6121826171875,-0.7292938232421875
1667825353444105700,5.480105712890625,-0.541961669921875,0.63104248046875,-0.719024658203125
1667825353454113800,5.49011376953125,-0.51751708984375,0.615966796875,-0.70526123046875
1667825353464120600,5.50012060546875,-0.485626220703125,0.5703277587890625,-0.6932220458984375
1667825353474128600,5.510128662109375,-0.467041015625,0.5201568603515625,-0.6825103759765625
1667825353484135700,5.5201357421875,-0.4641571044921875,0.4986419677734375,-0.6764373779296875
1667825353494143700,5.530143798828125,-0.468719482421875,0.52093505859375,-0.694244384765625
1667825353504150500,5.540150634765625,-0.477874755859375,0.5736846923828125,-0.7310333251953125
1667825353514158800,5.550158935546875,-0.4785003662109375,0.616363525390625,-0.7520294189453125
1667825353524165600,5.56016552734375,-0.4877471923828125,0.6313018798828125,-0.7545623779296875
1667825353534173700,5.570173583984375,-0.5082550048828125,0.631622314453125,-0.74761962890625
1667825353544181500,5.580181396484375,-0.5241241455078125,0.625732421875,-0.72601318359375
1667825353554188800,5.590188720703125,-0.539337158203125,0.61566162109375,-0.6969757080078125
1667825353564196600,5.600196533203125,-0.549102783203125,0.598968505859375,-0.6697998046875
1667825353574203600,5.61020361328125,-0.5613555908203125,0.5837249755859375,-0.6494140625
1667825353584211700,5.620211669921875,-0.578277587890625,0.56365966796875,-0.6181640625
1667825353594218800,5.63021875,-0.5896453857421875,0.541839599609375,-0.5832977294921875
1667825353604225500,5.6402255859375,-0.600250244140625,0.5216522216796875,-0.54510498046875
1667825353614232600,5.650232666015625,-0.6102752685546875,0.49359130859375,-0.5113677978515625
1667825353624240600,5.66024072265625,-0.6190032958984375,0.4643096923828125,-0.4841766357421875
1667825353634247400,5.670247314453125,-0.627685546875,0.4423370361328125,-0.4608001708984375
1667825353644255700,5.680255859375,-0.639404296875,0.4358978271484375,-0.438751220703125
1667825353654262500,5.690262451171875,-0.6512451171875,0.4337615966796875,-0.4155426025390625
1667825353664270600,5.7002705078125,-0.6674652099609375,0.4248504638671875,-0.3898468017578125
1667825353674278700,5.710278564453125,-0.6793975830078125,0.4111175537109375,-0.371551513671875
1667825353684285700,5.72028564453125,-0.6906585693359375,0.397369384765625,-0.3510894775390625
1667825353694293800,5.730293701171875,-0.7025604248046875,0.3875885009765625,-0.33856201171875
1667825353704300500,5.740300537109375,-0.7104949951171875,0.383941650390625,-0.3396453857421875
1667825353714308900,5.750308837890625,-0.7304534912109375,0.3867340087890625,-0.342254638671875
1667825353724315600,5.760315673828125,-0.750213623046875,0.3923797607421875,-0.3439178466796875
1667825353734323700,5.77032373046875,-0.7678375244140625,0.399169921875,-0.356414794921875
1667825353744330800,5.780330810546875,-0.7924346923828125,0.4101104736328125,-0.37689208984375
1667825353754338800,5.7903388671875,-0.8159332275390625,0.4230499267578125,-0.386474609375
1667825353764345600,5.800345703125,-0.8331146240234375,0.434844970703125,-0.3785247802734375
1667825353774353700,5.810353759765625,-0.83795166015625,0.4317169189453125,-0.3797149658203125
1667825353784360700,5.820360595703125,-0.84112548828125,0.4224700927734375,-0.3735504150390625
1667825353794368800,5.83036865234375,-0.8454437255859375,0.4151458740234375,-0.3593292236328125
1667825353804375600,5.84037548828125,-0.8345184326171875,0.404693603515625,-0.349578857421875
1667825353814383900,5.8503837890625,-0.8193359375,0.3953857421875,-0.34503173828125
1667825353824391700,5.8603916015625,-0.8175506591796875,0.4047088623046875,-0.3528594970703125
1667825353834398700,5.870398681640625,-0.8257904052734375,0.4340057373046875,-0.376251220703125
1667825353844406500,5.880406494140625,-0.8454437255859375,0.463653564453125,-0.4045562744140625
1667825353854413800,5.890413818359375,-0.8762054443359375,0.48272705078125,-0.4323577880859375
1667825353864421600,5.900421630859375,-0.905181884765625,0.4903411865234375,-0.45782470703125
1667825353874428700,5.9104287109375,-0.9326171875,0.4992828369140625,-0.4822235107421875
1667825353884436500,5.9204365234375,-0.954559326171875,0.5260772705078125,-0.5017547607421875
1667825353894443800,5.93044384765625,-0.959259033203125,0.568695068359375,-0.51953125
1667825353904451600,5.94045166015625,-0.9571685791015625,0.61199951171875,-0.5446319580078125
1667825353914458600,5.950458740234375,-0.9492645263671875,0.6468505859375,-0.5539093017578125
1667825353924466700,5.960466796875,-0.9332427978515625,0.66131591796875,-0.546875
1667825353934473700,5.9704736328125,-0.9068145751953125,0.6614837646484375,-0.53228759765625
1667825353944481500,5.9804814453125,-0.87921142578125,0.65765380859375,-0.5127716064453125
1667825353954488800,5.99048876953125,-0.8530120849609375,0.6433258056640625,-0.4947052001953125
1667825353964496600,6.00049658203125,-0.823822021484375,0.6207122802734375,-0.48382568359375
1667825353974503700,6.010503662109375,-0.8067779541015625,0.62127685546875,-0.5040435791015625
1667825353984511500,6.020511474609375,-0.79376220703125,0.6582489013671875,-0.553985595703125
1667825353994518800,6.030518798828125,-0.7874603271484375,0.7041473388671875,-0.6087188720703125
1667825354004526600,6.040526611328125,-0.790313720703125,0.7304840087890625,-0.6509552001953125
1667825354014534700,6.05053466796875,-0.8015594482421875,0.723175048828125,-0.6751708984375
1667825354024541700,6.060541748046875,-0.798858642578125,0.69769287109375,-0.688812255859375
1667825354034549800,6.0705498046875,-0.78656005859375,0.6723175048828125,-0.6869049072265625
1667825354044556500,6.080556640625,-0.7595977783203125,0.6473541259765625,-0.6749114990234375
1667825354054564600,6.090564697265625,-0.725067138671875,0.61236572265625,-0.655548095703125
1667825354064571600,6.100571533203125,-0.6913909912109375,0.568511962890625,-0.6289825439453125
1667825354074579700,6.110579833984375,-0.6605987548828125,0.5225067138671875,-0.5950775146484375
1667825354084586500,6.12058642578125,-0.633575439453125,0.4846649169921875,-0.5700225830078125
1667825354094594800,6.1305947265625,-0.6136322021484375,0.458709716796875,-0.56585693359375
1667825354104601600,6.1406015625,-0.598968505859375,0.43450927734375,-0.5665435791015625
1667825354114609700,6.150609619140625,-0.593505859375,0.4065399169921875,-0.563507080078125
1667825354124616700,6.16061669921875,-0.6049041748046875,0.381744384765625,-0.568145751953125
1667825354134624800,6.170624755859375,-0.6226043701171875,0.360748291015625,-0.572265625
1667825354144631600,6.180631591796875,-0.6344146728515625,0.3410186767578125,-0.57672119140625
1667825354154639600,6.1906396484375,-0.6461181640625,0.329437255859375,-0.58056640625
1667825354164647700,6.200647705078125,-0.6481170654296875,0.325927734375,-0.5792236328125
1667825354174654700,6.21065478515625,-0.6499176025390625,0.3297271728515625,-0.5771636962890625
1667825354184662500,6.22066259765625,-0.6546630859375,0.3330078125,-0.5709075927734375
1667825354194669800,6.230669921875,-0.663421630859375,0.333282470703125,-0.561279296875
1667825354204677600,6.240677734375,-0.67388916015625,0.3332366943359375,-0.557220458984375
1667825354214684700,6.2506845703125,-0.678466796875,0.32623291015625,-0.5536956787109375
1667825354224692500,6.2606923828125,-0.68145751953125,0.3301849365234375,-0.549530029296875
1667825354234699800,6.27069970703125,-0.68414306640625,0.34527587890625,-0.5452423095703125
1667825354244707600,6.28070751953125,-0.68035888671875,0.3601837158203125,-0.5494537353515625
1667825354254714600,6.290714599609375,-0.6846923828125,0.37261962890625,-0.5554656982421875
1667825354264722700,6.30072265625,-0.6882781982421875,0.381988525390625,-0.5566864013671875
1667825354274729700,6.310729736328125,-0.6885833740234375,0.3841552734375,-0.552490234375
1667825354284737500,6.320737548828125,-0.686676025390625,0.380126953125,-0.5495147705078125
1667825354294744800,6.330744873046875,-0.6807708740234375,0.3758544921875,-0.5475921630859375
1667825354304752600,6.340752685546875,-0.6687469482421875,0.368255615234375,-0.5404510498046875
1667825354314760700,6.3507607421875,-0.646514892578125,0.3558349609375,-0.53326416015625
1667825354324767500,6.360767578125,-0.6274871826171875,0.3453369140625,-0.5305023193359375
1667825354334775800,6.37077587890625,-0.609405517578125,0.33990478515625,-0.5306243896484375
1667825354344782600,6.380782470703125,-0.5879058837890625,0.33123779296875,-0.5238494873046875
1667825354354790700,6.390790771484375,-0.566986083984375,0.3138275146484375,-0.5184783935546875
1667825354364797700,6.400797607421875,-0.5539093017578125,0.294464111328125,-0.525115966796875
1667825354374805800,6.4108056640625,-0.5414886474609375,0.2835540771484375,-0.5361175537109375
1667825354384812500,6.4208125,-0.5337982177734375,0.286529541015625,-0.557891845703125
1667825354394820600,6.430820556640625,-0.5346832275390625,0.3054656982421875,-0.5934295654296875
1667825354404827600,6.44082763671875,-0.546905517578125,0.33831787109375,-0.6329193115234375
1667825354414835700,6.450835693359375,-0.5652618408203125,0.3730316162109375,-0.6595458984375
1667825354424842500,6.460842529296875,-0.5789794921875,0.39813232421875,-0.6816253662109375
1667825354434850800,6.470850830078125,-0.5879058837890625,0.4149322509765625,-0.69921875
1667825354444857600,6.480857666015625,-0.5745849609375,0.4252471923828125,-0.69744873046875
1667825354454865700,6.49086572265625,-0.55865478515625,0.4203948974609375,-0.686676025390625
1667825354464873500,6.50087353515625,-0.54864501953125,0.4089813232421875,-0.6730499267578125
1667825354474880800,6.510880859375,-0.535003662109375,0.400909423828125,-0.6514892578125
1667825354484888600,6.520888671875,-0.5133209228515625,0.4077606201171875,-0.6436309814453125
1667825354494895600,6.5308955078125,-0.504913330078125,0.4315338134765625,-0.64434814453125
1667825354504903700,6.540903564453125,-0.5103607177734375,0.4601287841796875,-0.6538848876953125
1667825354514910700,6.55091064453125,-0.518402099609375,0.4834747314453125,-0.6685791015625
1667825354524918500,6.56091845703125,-0.5419464111328125,0.5192108154296875,-0.6922607421875
1667825354534925800,6.57092578125,-0.5718231201171875,0.5673828125,-0.71295166015625
1667825354544933600,6.58093359375,-0.5960845947265625,0.60699462890625,-0.7299957275390625
1667825354554940700,6.590940673828125,-0.6168365478515625,0.63427734375,-0.7422332763671875
1667825354564948500,6.600948486328125,-0.630462646484375,0.644378662109375,-0.735809326171875
1667825354574955800,6.610955810546875,-0.6474761962890625,0.6338653564453125,-0.7189483642578125
1667825354584963600,6.620963623046875,-0.6669464111328125,0.607818603515625,-0.6982879638671875
1667825354594970600,6.630970703125,-0.6861724853515625,0.587615966796875,-0.6820831298828125
1667825354604979700,6.640979736328125,-0.695281982421875,0.575225830078125,-0.6708526611328125
1667825354614986800,6.65098681640625,-0.693084716796875,0.5680694580078125,-0.6500244140625
1667825354624994800,6.660994873046875,-0.6945648193359375,0.5608062744140625,-0.6319427490234375
1667825354635003000,6.6710029296875,-0.7017669677734375,0.5471649169921875,-0.6115875244140625
1667825354645009700,6.681009765625,-0.703369140625,0.524200439453125,-0.5857086181640625
1667825354655017700,6.691017822265625,-0.7024383544921875,0.4974822998046875,-0.56036376953125
1667825354665024800,6.701024658203125,-0.697052001953125,0.4787139892578125,-0.5374908447265625
1667825354675032800,6.71103271484375,-0.6891021728515625,0.46441650390625,-0.5131683349609375
1667825354685039900,6.721039794921875,-0.677703857421875,0.4459991455078125,-0.493927001953125
1667825354695048000,6.7310478515625,-0.6720428466796875,0.4299468994140625,-0.4797210693359375
1667825354705054700,6.7410546875,-0.675750732421875,0.4188385009765625,-0.4709625244140625
1667825354715062800,6.751062744140625,-0.6744842529296875,0.40399169921875,-0.4585418701171875
1667825354725069800,6.76106982421875,-0.6793365478515625,0.3899078369140625,-0.4537353515625
1667825354735078000,6.771077880859375,-0.6877899169921875,0.37762451171875,-0.447418212890625
1667825354745084700,6.781084716796875,-0.690582275390625,0.363067626953125,-0.4408111572265625
1667825354755092700,6.7910927734375,-0.694122314453125,0.3529052734375,-0.44232177734375
1667825354765099800,6.801099853515625,-0.69769287109375,0.3553924560546875,-0.4503173828125
1667825354775107800,6.81110791015625,-0.7013092041015625,0.3644866943359375,-0.4549407958984375
1667825354785115600,6.82111572265625,-0.702056884765625,0.372314453125,-0.4608001708984375
1667825354795123000,6.831123046875,-0.70635986328125,0.37872314453125,-0.4638214111328125
1667825354805130800,6.841130859375,-0.7070770263671875,0.3762359619140625,-0.4540557861328125
1667825354815137800,6.8511376953125,-0.706298828125,0.36279296875,-0.4423828125
1667825354825145600,6.8611455078125,-0.7057647705078125,0.3526153564453125,-0.4363250732421875
1667825354835153000,6.87115283203125,-0.6995086669921875,0.3510589599609375,-0.43060302734375
1667825354845160700,6.88116064453125,-0.699737548828125,0.3527679443359375,-0.4295654296875
1667825354855167700,6.891167724609375,-0.71148681640625,0.3612823486328125,-0.43365478515625
1667825354865175800,6.90117578125,-0.7239532470703125,0.37347412109375,-0.4445343017578125
1667825354875182800,6.911182861328125,-0.7425994873046875,0.3928680419921875,-0.4658966064453125
1667825354885190700,6.921190673828125,-0.7624664306640625,0.4212188720703125,-0.494293212890625
1667825354895198000,6.931197998046875,-0.783538818359375,0.4498138427734375,-0.5193634033203125
1667825354905205800,6.941205810546875,-0.81402587890625,0.4778289794921875,-0.5457916259765625
1667825354915212800,6.951212890625,-0.8408355712890625,0.5203094482421875,-0.57073974609375
1667825354925220600,6.961220703125,-0.855743408203125,0.576507568359375,-0.5954437255859375
1667825354935228000,6.971227783203125,-0.8553314208984375,0.6174774169921875,-0.6046600341796875
1667825354945235700,6.981235595703125,-0.8524932861328125,0.6222076416015625,-0.6007537841796875
1667825354955243800,6.991243896484375,-0.8455352783203125,0.606964111328125,-0.5861968994140625
1667825354965250800,7.001250732421875,-0.8326416015625,0.59149169921875,-0.566131591796875
1667825354975259000,7.0112587890625,-0.81536865234375,0.5744781494140625,-0.5384979248046875
1667825354985265700,7.021265625,-0.78277587890625,0.55059814453125,-0.519927978515625
1667825354995273700,7.031273681640625,-0.7616729736328125,0.5306549072265625,-0.509521484375
1667825355005280800,7.04128076171875,-0.7506561279296875,0.526763916015625,-0.5099945068359375
1667825355015288800,7.051288818359375,-0.7503814697265625,0.548919677734375,-0.54107666015625
1667825355025295600,7.061295654296875,-0.7480010986328125,0.5876922607421875,-0.598114013671875
1667825355035304000,7.071303955078125,-0.7437286376953125,0.61138916015625,-0.6467437744140625
1667825355045310700,7.081310791015625,-0.7546539306640625,0.6015625,-0.67626953125
1667825355055318800,7.09131884765625,-0.7602996826171875,0.5709686279296875,-0.70989990234375
1667825355065325800,7.101325927734375,-0.7479400634765625,0.5435943603515625,-0.7413787841796875
1667825355075334000,7.111333984375,-0.731201171875,0.5190277099609375,-0.7684173583984375
1667825355085340700,7.121340576171875,-0.7110595703125,0.48834228515625,-0.784698486328125
1667825355095348700,7.1313486328125,-0.68475341796875,0.448028564453125,-0.7870635986328125
1667825355105356800,7.141356689453125,-0.659881591796875,0.407684326171875,-0.78857421875
1667825355115363800,7.15136376953125,-0.6439666748046875,0.3786773681640625,-0.78887939453125
1667825355125371600,7.16137158203125,-0.6382904052734375,0.35467529296875,-0.7861328125
1667825355135379000,7.17137890625,-0.637847900390625,0.3248291015625,-0.7859954833984375
1667825355145386800,7.18138671875,-0.63623046875,0.3010711669921875,-0.7711181640625
1667825355155393800,7.191393798828125,-0.6360015869140625,0.28466796875,-0.756072998046875
1667825355165401600,7.201401611328125,-0.6423797607421875,0.2796630859375,-0.7252044677734375
1667825355175409000,7.211408935546875,-0.6494140625,0.2776947021484375,-0.6903228759765625
1667825355185416700,7.221416748046875,-0.658721923828125,0.2764434814453125,-0.6678466796875
1667825355195423700,7.231423828125,-0.6694183349609375,0.280120849609375,-0.649993896484375
1667825355205431800,7.241431884765625,-0.6749420166015625,0.2845916748046875,-0.6307525634765625
1667825355215438800,7.25143896484375,-0.6815185546875,0.2828216552734375,-0.618408203125
1667825355225446700,7.26144677734375,-0.688323974609375,0.2804107666015625,-0.6161041259765625
1667825355235454000,7.271453857421875,-0.696502685546875,0.2848663330078125,-0.603546142578125
1667825355245461800,7.281461669921875,-0.7068939208984375,0.2940216064453125,-0.5945281982421875
1667825355255469800,7.2914697265625,-0.713409423828125,0.30780029296875,-0.5953216552734375
1667825355265476600,7.3014765625,-0.716033935546875,0.32806396484375,-0.59869384765625
1667825355275485000,7.31148486328125,-0.7151641845703125,0.348968505859375,-0.5996246337890625
1667825355285491700,7.32149169921875,-0.71649169921875,0.3577880859375,-0.60516357421875
1667825355295499800,7.331499755859375,-0.7156219482421875,0.3627471923828125,-0.6067352294921875
1667825355305506800,7.3415068359375,-0.7083740234375,0.3708648681640625,-0.6080780029296875
1667825355315515000,7.351514892578125,-0.695159912109375,0.3824615478515625,-0.6126708984375
1667825355325521700,7.361521728515625,-0.6808319091796875,0.3939361572265625,-0.615997314453125
1667825355335529700,7.37152978515625,-0.6690826416015625,0.3990020751953125,-0.6194915771484375
1667825355345536800,7.381536865234375,-0.6550750732421875,0.4001007080078125,-0.6184234619140625
1667825355355544800,7.391544921875,-0.639007568359375,0.3968963623046875,-0.605987548828125
1667825355365551600,7.401551513671875,-0.6230010986328125,0.3844757080078125,-0.592193603515625
1667825355375559700,7.4115595703125,-0.606109619140625,0.3694610595703125,-0.5841827392578125
1667825355385566700,7.421566650390625,-0.587890625,0.359466552734375,-0.576385498046875
1667825355395574800,7.43157470703125,-0.5712127685546875,0.358123779296875,-0.575836181640625
1667825355405581800,7.441581787109375,-0.5538482666015625,0.36865234375,-0.5812835693359375
1667825355415590000,7.45158984375,-0.5419769287109375,0.38067626953125,-0.584869384765625
1667825355425597700,7.46159765625,-0.5312347412109375,0.3913116455078125,-0.591339111328125
1667825355435604700,7.471604736328125,-0.5251617431640625,0.4055328369140625,-0.597442626953125
1667825355445612500,7.481612548828125,-0.520782470703125,0.4249114990234375,-0.6093902587890625
1667825355455619800,7.491619873046875,-0.5108184814453125,0.4488677978515625,-0.619659423828125
1667825355465627600,7.501627685546875,-0.50384521484375,0.4709930419921875,-0.6182861328125
1667825355475634700,7.511634765625,-0.490966796875,0.4810791015625,-0.6098785400390625
1667825355485642800,7.521642822265625,-0.4730072021484375,0.4792633056640625,-0.6003265380859375
1667825355495649800,7.53164990234375,-0.4581451416015625,0.4789581298828125,-0.5916595458984375
1667825355505657600,7.54165771484375,-0.443145751953125,0.4912261962890625,-0.58001708984375
1667825355515665000,7.551664794921875,-0.4310455322265625,0.513763427734375,-0.5804290771484375
1667825355525672700,7.561672607421875,-0.4125823974609375,0.5401611328125,-0.5989532470703125
1667825355535679700,7.5716796875,-0.40509033203125,0.5547027587890625,-0.6174774169921875
1667825355545687600,7.5816875,-0.4148712158203125,0.552276611328125,-0.623931884765625
1667825355555694800,7.59169482421875,-0.4324951171875,0.55126953125,-0.63671875
1667825355565702700,7.60170263671875,-0.4517364501953125,0.5639495849609375,-0.662322998046875
1667825355575710700,7.611710693359375,-0.4723052978515625,0.5933074951171875,-0.7016448974609375
1667825355585717800,7.6217177734375,-0.5079498291015625,0.6324615478515625,-0.7439422607421875
1667825355595725800,7.631725830078125,-0.55291748046875,0.67376708984375,-0.783203125
1667825355605732000,7.641732177734375,-0.5896453857421875,0.7014312744140625,-0.8079376220703125
1667825355615740400,7.651740478515625,-0.6234130859375,0.6979522705078125,-0.8194427490234375
1667825355625747200,7.661747314453125,-0.6565704345703125,0.661376953125,-0.821929931640625
1667825355635755300,7.67175537109375,-0.6858062744140625,0.6181488037109375,-0.8238067626953125
1667825355645762300,7.68176220703125,-0.705047607421875,0.5931549072265625,-0.807281494140625
1667825355655770400,7.691770263671875,-0.7060699462890625,0.5811767578125,-0.7872161865234375
1667825355665777200,7.701777099609375,-0.7031402587890625,0.5638427734375,-0.757568359375
1667825355675785200,7.71178515625,-0.703338623046875,0.5323944091796875,-0.7094573974609375
1667825355685792300,7.721792236328125,-0.70025634765625,0.4880218505859375,-0.65771484375
1667825355695800300,7.73180029296875,-0.7005157470703125,0.4448394775390625,-0.6122589111328125
1667825355705807000,7.74180712890625,-0.6952972412109375,0.418182373046875,-0.5867156982421875
1667825355715815400,7.7518154296875,-0.69024658203125,0.4122772216796875,-0.56640625
1667825355725822200,7.761822265625,-0.6872711181640625,0.4091949462890625,-0.551300048828125
1667825355735830300,7.771830322265625,-0.6851654052734375,0.395782470703125,-0.5330352783203125
1667825355745838000,7.781838134765625,-0.6944580078125,0.3748626708984375,-0.5250396728515625
1667825355755845400,7.791845458984375,-0.706634521484375,0.351837158203125,-0.516448974609375
1667825355765853200,7.801853271484375,-0.7091217041015625,0.32843017578125,-0.5126190185546875
1667825355775860200,7.811860107421875,-0.7120513916015625,0.3108367919921875,-0.5080108642578125
1667825355785868300,7.821868408203125,-0.717376708984375,0.300689697265625,-0.499664306640625
1667825355795875300,7.831875244140625,-0.71539306640625,0.2939300537109375,-0.4906768798828125
1667825355805883100,7.841883056640625,-0.7068634033203125,0.2844390869140625,-0.477081298828125
1667825355815890400,7.851890380859375,-0.6944732666015625,0.2722015380859375,-0.4650726318359375
1667825355825898200,7.861898193359375,-0.681182861328125,0.2659454345703125,-0.4535369873046875
1667825355835905300,7.8719052734375,-0.680572509765625,0.2605133056640625,-0.4376983642578125
1667825355845913000,7.8819130859375,-0.6739959716796875,0.2517242431640625,-0.4349365234375
1667825355855920400,7.89192041015625,-0.6728668212890625,0.248046875,-0.4300079345703125
1667825355865928200,7.90192822265625,-0.6817169189453125,0.241943359375,-0.431121826171875
1667825355875935200,7.911935302734375,-0.69158935546875,0.2310028076171875,-0.4328765869140625
1667825355885943300,7.921943359375,-0.71832275390625,0.2300872802734375,-0.4430084228515625
1667825355895950300,7.931950439453125,-0.75543212890625,0.2341156005859375,-0.4689483642578125
1667825355905958100,7.941958251953125,-0.8033447265625,0.26422119140625,-0.49456787109375
1667825355915966200,7.95196630859375,-0.853118896484375,0.33380126953125,-0.5302276611328125
1667825355925973200,7.96197314453125,-0.8811492919921875,0.41693115234375,-0.5719451904296875
1667825355935981300,7.971981201171875,-0.9141082763671875,0.481292724609375,-0.6001434326171875
1667825355945988000,7.981988037109375,-0.9571380615234375,0.531280517578125,-0.6227569580078125
1667825355955996200,7.99199609375,-0.9807586669921875,0.58026123046875,-0.6533203125
1667825355966003200,8.002003173828125,-0.99017333984375,0.6364898681640625,-0.6863861083984375
1667825355976011300,8.01201123046875,-0.9903411865234375,0.6920623779296875,-0.700927734375
1667825355986018300,8.022018310546875,-0.9710235595703125,0.7227630615234375,-0.6986846923828125
1667825355996026400,8.0320263671875,-0.949676513671875,0.7198028564453125,-0.6956024169921875
1667825356006033200,8.042033203125,-0.9299468994140625,0.70489501953125,-0.679168701171875
1667825356016041200,8.052041259765625,-0.9044952392578125,0.6903228759765625,-0.6593017578125
1667825356026048300,8.06204833984375,-0.875335693359375,0.672515869140625,-0.6510009765625
1667825356036056300,8.072056396484374,-0.8387603759765625,0.6692047119140625,-0.654937744140625
1667825356046063000,8.08206298828125,-0.8069610595703125,0.6850433349609375,-0.6769256591796875
1667825356056071200,8.0920712890625,-0.78863525390625,0.711517333984375,-0.7068023681640625
1667825356066079500,8.10207958984375,-0.7649993896484375,0.7174224853515625,-0.724151611328125
1667825356076086300,8.112086181640626,-0.733978271484375,0.69537353515625,-0.7265625
1667825356086094300,8.12209423828125,-0.709503173828125,0.66827392578125,-0.7176055908203125
1667825356096101400,8.132101318359375,-0.6735687255859375,0.63958740234375,-0.70233154296875
1667825356106109400,8.142109375,-0.636444091796875,0.6110076904296875,-0.6959381103515625
1667825356116116200,8.1521162109375,-0.6011962890625,0.59161376953125,-0.6972503662109375
1667825356126124300,8.162124267578125,-0.564453125,0.579010009765625,-0.702880859375
1667825356136131300,8.17213134765625,-0.5358123779296875,0.5662689208984375,-0.7181396484375
1667825356146139400,8.182139404296874,-0.5146484375,0.54583740234375,-0.7271575927734375
1667825356156146200,8.192146240234376,-0.5034027099609375,0.51995849609375,-0.7299652099609375
1667825356166154500,8.202154541015625,-0.5000762939453125,0.4852447509765625,-0.7289276123046875
1667825356176161300,8.212161376953125,-0.5027008056640625,0.4442901611328125,-0.7190704345703125
1667825356186169300,8.22216943359375,-0.5058441162109375,0.4015045166015625,-0.7100677490234375
1667825356196177200,8.23217724609375,-0.5056610107421875,0.3654327392578125,-0.69207763671875
1667825356206184400,8.242184326171875,-0.5025482177734375,0.3369293212890625,-0.6747894287109375
1667825356216192300,8.252192138671875,-0.4991455078125,0.31964111328125,-0.655975341796875
1667825356226199300,8.26219921875,-0.495697021484375,0.3079071044921875,-0.635589599609375
1667825356236207400,8.272207275390626,-0.4952392578125,0.293853759765625,-0.6204833984375
1667825356246214400,8.28221435546875,-0.500946044921875,0.275054931640625,-0.6043548583984375
1667825356256222200,8.29222216796875,-0.51031494140625,0.2513275146484375,-0.588714599609375
1667825356266229200,8.302229248046874,-0.5257568359375,0.232696533203125,-0.585174560546875
1667825356276237300,8.3122373046875,-0.53900146484375,0.230621337890625,-0.5866851806640625
1667825356286244000,8.322244140625,-0.5522308349609375,0.24005126953125,-0.590606689453125
1667825356296252200,8.332252197265625,-0.5686492919921875,0.2573394775390625,-0.5970916748046875
1667825356306259200,8.34225927734375,-0.58233642578125,0.278076171875,-0.6076202392578125
1667825356316267300,8.352267333984376,-0.593505859375,0.2994537353515625,-0.61431884765625
1667825356326274000,8.362274169921875,-0.6041259765625,0.3123931884765625,-0.6180419921875
1667825356336282400,8.372282470703125,-0.61651611328125,0.3214569091796875,-0.6220550537109375
1667825356346290400,8.38229052734375,-0.62677001953125,0.3311614990234375,-0.6206817626953125
1667825356356297200,8.392297119140625,-0.63214111328125,0.340667724609375,-0.6165618896484375
1667825356366305300,8.40230517578125,-0.636444091796875,0.3500518798828125,-0.6219635009765625
1667825356376312300,8.412312255859375,-0.6415252685546875,0.3642120361328125,-0.6241455078125
1667825356386320400,8.4223203125,-0.6407012939453125,0.379425048828125,-0.6226348876953125
1667825356396327200,8.4323271484375,-0.6375885009765625,0.3903045654296875,-0.6232452392578125
1667825356406335200,8.442335205078125,-0.6302642822265625,0.3917694091796875,-0.618682861328125
1667825356416342300,8.45234228515625,-0.6235504150390625,0.38323974609375,-0.610992431640625
1667825356426350300,8.462350341796874,-0.616241455078125,0.3676910400390625,-0.6012115478515625
1667825356436357400,8.472357421875,-0.6053466796875,0.3506317138671875,-0.591339111328125
1667825356446365400,8.482365478515625,-0.5883026123046875,0.33416748046875,-0.5802154541015625
1667825356456372200,8.492372314453124,-0.5680389404296875,0.3203125,-0.5778656005859375
1667825356466380300,8.50238037109375,-0.549560546875,0.314544677734375,-0.5883636474609375
1667825356476387300,8.51238720703125,-0.5365447998046875,0.3212127685546875,-0.6031951904296875
1667825356486395400,8.5223955078125,-0.52685546875,0.331756591796875,-0.6183624267578125
1667825356496403200,8.5324033203125,-0.524078369140625,0.33892822265625,-0.6380615234375
1667825356506410200,8.54241015625,-0.5318756103515625,0.348602294921875,-0.66131591796875
1667825356516418300,8.552418212890625,-0.5547637939453125,0.36163330078125,-0.680084228515625
1667825356526425300,8.56242529296875,-0.5665740966796875,0.3710174560546875,-0.6912841796875
1667825356536433200,8.57243310546875,-0.56915283203125,0.3753204345703125,-0.7003631591796875
1667825356546440400,8.5824404296875,-0.55645751953125,0.379913330078125,-0.707763671875
1667825356556448300,8.5924482421875,-0.536163330078125,0.3869781494140625,-0.701019287109375
1667825356566455300,8.602455322265625,-0.512298583984375,0.379913330078125,-0.6745452880859375
1667825356576463000,8.612463134765624,-0.4866943359375,0.3591766357421875,-0.6529083251953125
1667825356586470400,8.622470458984376,-0.4625701904296875,0.3504638671875,-0.64349365234375
1667825356596478200,8.632478271484375,-0.451141357421875,0.36810302734375,-0.642547607421875
1667825356606488800,8.64248876953125,-0.4606170654296875,0.3991241455078125,-0.66082763671875
1667825356616497000,8.652496826171875,-0.475372314453125,0.426666259765625,-0.691558837890625
1667825356626503700,8.662503662109375,-0.490020751953125,0.45294189453125,-0.716156005859375
1667825356636511700,8.67251171875,-0.5173187255859375,0.4827880859375,-0.73345947265625
1667825356646518800,8.682518798828125,-0.5515899658203125,0.511016845703125,-0.7484893798828125
1667825356656526800,8.69252685546875,-0.5715179443359375,0.5306396484375,-0.7604827880859375
1667825356666533600,8.70253369140625,-0.582672119140625,0.54339599609375,-0.770477294921875
1667825356676541700,8.712541748046876,-0.5981597900390625,0.5538787841796875,-0.7694549560546875
1667825356686549800,8.7225498046875,-0.611053466796875,0.55706787109375,-0.752593994140625
1667825356696556800,8.732556884765625,-0.6212005615234375,0.548431396484375,-0.7333831787109375
1667825356706564600,8.742564697265625,-0.6336517333984375,0.5367584228515625,-0.7168426513671875
1667825356716572000,8.752572021484376,-0.6461181640625,0.5384368896484375,-0.698822021484375
1667825356726579700,8.762579833984375,-0.66937255859375,0.55084228515625,-0.6847686767578125
1667825356736586800,8.772586669921875,-0.6991119384765625,0.566192626953125,-0.678680419921875
1667825356746594600,8.782594482421874,-0.72125244140625,0.577972412109375,-0.6782989501953125
1667825356756601900,8.792601806640626,-0.739044189453125,0.5813140869140625,-0.6718292236328125
1667825356766609700,8.802609619140625,-0.752655029296875,0.5692291259765625,-0.6534881591796875
1667825356776616700,8.81261669921875,-0.760772705078125,0.5385894775390625,-0.6306304931640625
1667825356786624800,8.822624755859374,-0.76177978515625,0.5005035400390625,-0.600677490234375
1667825356796631800,8.8326318359375,-0.7577972412109375,0.4666748046875,-0.5681304931640625
1667825356806639600,8.8426396484375,-0.7576141357421875,0.453704833984375,-0.5426483154296875
1667825356816647000,8.85264697265625,-0.7597503662109375,0.45843505859375,-0.5314178466796875
1667825356826654700,8.86265478515625,-0.764892578125,0.4658050537109375,-0.5189971923828125
1667825356836662800,8.872662841796876,-0.769683837890625,0.460205078125,-0.502899169921875
1667825356846669600,8.882669677734375,-0.7767181396484375,0.43768310546875,-0.4911956787109375
1667825356856678000,8.892677978515625,-0.78240966796875,0.4103546142578125,-0.4863433837890625
1667825356866684700,8.9026845703125,-0.78753662109375,0.387725830078125,-0.4842681884765625
1667825356876692700,8.912692626953126,-0.7897796630859375,0.3798065185546875,-0.4842071533203125
1667825356886699800,8.92269970703125,-0.7866058349609375,0.3834075927734375,-0.48822021484375
1667825356896707800,8.932707763671875,-0.779266357421875,0.3876800537109375,-0.4935455322265625
1667825356906714600,8.942714599609374,-0.7691650390625,0.3865203857421875,-0.4986419677734375
1667825356916722700,8.95272265625,-0.7594757080078125,0.3810882568359375,-0.4846343994140625
1667825356926729700,8.962729736328125,-0.74530029296875,0.36328125,-0.4611358642578125
1667825356936737800,8.97273779296875,-0.72320556640625,0.33740234375,-0.4393768310546875
1667825356946744600,8.98274462890625,-0.6964111328125,0.317474365234375,-0.4228668212890625
1667825356956753000,8.9927529296875,-0.6723480224609375,0.305084228515625,-0.4079132080078125
1667825356966759700,9.002759765625,-0.65484619140625,0.2939300537109375,-0.390045166015625
1667825356976767700,9.012767822265625,-0.64349365234375,0.2798004150390625,-0.380767822265625
1667825356986775800,9.02277587890625,-0.645172119140625,0.271087646484375,-0.3836212158203125
1667825356996782800,9.032782958984376,-0.6536407470703125,0.2719268798828125,-0.3993988037109375
1667825357006791000,9.042791015625,-0.668670654296875,0.2818145751953125,-0.4174346923828125
1667825357016797700,9.052797607421875,-0.6840972900390625,0.288421630859375,-0.43701171875
1667825357026805800,9.0628056640625,-0.7040863037109375,0.285888671875,-0.4583282470703125
1667825357036812800,9.072812744140625,-0.7347869873046875,0.2900238037109375,-0.4812469482421875
1667825357046820900,9.08282080078125,-0.778961181640625,0.327789306640625,-0.51068115234375
1667825357056828000,9.092827880859375,-0.8206329345703125,0.39703369140625,-0.5513153076171875
1667825357066836000,9.1028359375,-0.8490447998046875,0.477386474609375,-0.591156005859375
1667825357076842800,9.1128427734375,-0.86328125,0.5522613525390625,-0.6196441650390625
1667825357086850800,9.122850830078125,-0.8707427978515625,0.595306396484375,-0.62286376953125
1667825357096857900,9.13285791015625,-0.8793487548828125,0.5918426513671875,-0.6014251708984375
1667825357106866000,9.142865966796874,-0.883941650390625,0.5775146484375,-0.5816802978515625
1667825357116872700,9.152872802734375,-0.8742523193359375,0.5796051025390625,-0.560638427734375
1667825357126880800,9.162880859375,-0.86309814453125,0.599822998046875,-0.5580596923828125
1667825357136888800,9.172888916015625,-0.8505706787109375,0.62890625,-0.5965118408203125
1667825357146896000,9.182895751953126,-0.841339111328125,0.6817474365234375,-0.6470489501953125
1667825357156903700,9.192903564453125,-0.82830810546875,0.7308502197265625,-0.687225341796875
1667825357166911000,9.202910888671875,-0.81268310546875,0.7332000732421875,-0.7089080810546875
1667825357176918800,9.212918701171875,-0.8014678955078125,0.700164794921875,-0.71527099609375
1667825357186925800,9.22292578125,-0.7879486083984375,0.66131591796875,-0.7155303955078125
1667825357196933600,9.23293359375,-0.75677490234375,0.6346435546875,-0.7221527099609375
1667825357206941000,9.24294091796875,-0.7109222412109375,0.61614990234375,-0.716888427734375
1667825357216948700,9.25294873046875,-0.6590423583984375,0.5906829833984375,-0.718231201171875
1667825357226955800,9.262955810546876,-0.61419677734375,0.5603179931640625,-0.7341156005859375
1667825357236963800,9.2729638671875,-0.58404541015625,0.5320892333984375,-0.7550811767578125
1667825357246970600,9.282970703125,-0.5676116943359375,0.5108184814453125,-0.79168701171875
1667825357256978700,9.292978759765624,-0.556365966796875,0.4925537109375,-0.8294830322265625
1667825357266986800,9.30298681640625,-0.5513763427734375,0.4734039306640625,-0.850250244140625
1667825357276993800,9.312993896484375,-0.5498199462890625,0.4434051513671875,-0.858154296875
1667825357287001900,9.323001953125,-0.5487823486328125,0.4045867919921875,-0.8671112060546875
1667825357297008600,9.333008544921874,-0.54351806640625,0.362762451171875,-0.8616790771484375
1667825357307017000,9.343016845703126,-0.5374298095703125,0.3264617919921875,-0.8260650634765625
1667825357317023700,9.353023681640625,-0.5380096435546875,0.2913665771484375,-0.796295166015625
1667825357327031800,9.36303173828125,-0.5491790771484375,0.2609100341796875,-0.775299072265625
1667825357337038800,9.373038818359374,-0.56329345703125,0.2451629638671875,-0.746612548828125
1667825357347047000,9.383046875,-0.578887939453125,0.2452545166015625,-0.718109130859375
1667825357357053700,9.3930537109375,-0.5905609130859375,0.244720458984375,-0.6910400390625
1667825357367061800,9.403061767578125,-0.59698486328125,0.241119384765625,-0.662689208984375
1667825357377068800,9.41306884765625,-0.61346435546875,0.2403106689453125,-0.6421356201171875
1667825357387076900,9.423076904296876,-0.630035400390625,0.243865966796875,-0.627105712890625
1667825357397083600,9.433083740234375,-0.638702392578125,0.2524566650390625,-0.6138153076171875
1667825357407092000,9.443092041015625,-0.6456756591796875,0.262664794921875,-0.607452392578125
1667825357417099800,9.453099853515624,-0.6453704833984375,0.272430419921875,-0.6069488525390625
1667825357427106800,9.46310693359375,-0.6457061767578125,0.27862548828125,-0.5937347412109375
1667825357437114600,9.473114501953125,-0.643341064453125,0.2706146240234375,-0.57806396484375
1667825357447122000,9.483121826171875,-0.6371612548828125,0.2510986328125,-0.565032958984375
1667825357457129700,9.493129638671874,-0.623046875,0.230224609375,-0.552703857421875
1667825357467136800,9.50313671875,-0.6050872802734375,0.20684814453125,-0.5363311767578125
1667825357477144800,9.513144775390625,-0.583343505859375,0.1774444580078125,-0.536163330078125
1667825357487151900,9.52315185546875,-0.56561279296875,0.171112060546875,-0.53271484375
1667825357497159700,9.53315966796875,-0.55438232421875,0.1862335205078125,-0.54150390625
1667825357507167000,9.5431669921875,-0.546234130859375,0.1955413818359375,-0.5542755126953125
1667825357517174800,9.5531748046875,-0.5415496826171875,0.201904296875,-0.57000732421875
1667825357527181800,9.563181884765624,-0.553131103515625,0.205657958984375,-0.5922088623046875
1667825357537189600,9.573189697265626,-0.562530517578125,0.2143402099609375,-0.6137237548828125
1667825357547197000,9.583197021484375,-0.566497802734375,0.2325897216796875,-0.631561279296875
1667825357557204700,9.593204833984375,-0.57220458984375,0.2587127685546875,-0.650970458984375
1667825357567212800,9.603212890625,-0.5738983154296875,0.2935028076171875,-0.66900634765625
1667825357577219800,9.6132197265625,-0.5732421875,0.33251953125,-0.687591552734375
1667825357587228000,9.623227783203125,-0.5662078857421875,0.37005615234375,-0.69854736328125
1667825357597234700,9.633234619140625,-0.5523681640625,0.4042510986328125,-0.6945648193359375
1667825357607239200,9.6432392578125,-0.5449371337890625,0.433685302734375,-0.6915740966796875
1667825357617246500,9.65324658203125,-0.535980224609375,0.4651031494140625,-0.69677734375
1667825357627254300,9.663254150390625,-0.52667236328125,0.5022735595703125,-0.702239990234375
1667825357637261300,9.67326123046875,-0.53125,0.53497314453125,-0.70880126953125
1667825357647269400,9.683269287109376,-0.55010986328125,0.5688323974609375,-0.732940673828125
1667825357657276200,9.693276123046875,-0.5851898193359375,0.6160430908203125,-0.7669219970703125
1667825357667284200,9.7032841796875,-0.616485595703125,0.66339111328125,-0.7993927001953125
1667825357677291300,9.713291259765626,-0.6402130126953125,0.69921875,-0.8291168212890625
1667825357687299300,9.72329931640625,-0.65875244140625,0.7252044677734375,-0.8512115478515625
1667825357697306000,9.73330615234375,-0.67047119140625,0.7353668212890625,-0.8665008544921875
1667825357707314200,9.743314208984375,-0.6822967529296875,0.7275390625,-0.8639068603515625
1667825357717322200,9.753322265625,-0.6983795166015625,0.7050628662109375,-0.8456573486328125
1667825357727329300,9.763329345703125,-0.706024169921875,0.6784820556640625,-0.818695068359375
1667825357737337300,9.77333740234375,-0.704833984375,0.6516876220703125,-0.7895355224609375
1667825357747344100,9.78334423828125,-0.7084808349609375,0.6307830810546875,-0.7532196044921875
1667825357757352400,9.7933525390625,-0.715362548828125,0.60992431640625,-0.70611572265625
1667825357767359200,9.803359130859375,-0.7130126953125,0.58099365234375,-0.6663665771484375
1667825357777367300,9.8133671875,-0.6994781494140625,0.549835205078125,-0.6327362060546875
1667825357787374300,9.823374267578124,-0.6873321533203125,0.521453857421875,-0.5979766845703125
1667825357797382400,9.83338232421875,-0.6757965087890625,0.4949798583984375,-0.5536651611328125
1667825357807389200,9.84338916015625,-0.6683197021484375,0.4619140625,-0.5118865966796875
1667825357817397200,9.853397216796875,-0.658355712890625,0.4246978759765625,-0.4784393310546875
1667825357827404300,9.863404296875,-0.6496429443359375,0.394317626953125,-0.4504852294921875
1667825357837412400,9.873412353515626,-0.6466827392578125,0.371429443359375,-0.4267425537109375
1667825357847420200,9.883420166015625,-0.6405487060546875,0.3492431640625,-0.4048614501953125
1667825357857427500,9.893427490234375,-0.6276702880859375,0.3274993896484375,-0.3902740478515625
1667825357867435300,9.903435302734374,-0.61474609375,0.3095550537109375,-0.380035400390625
1667825357877442300,9.9134423828125,-0.602081298828125,0.2957305908203125,-0.36962890625
1667825357887450000,9.9234501953125,-0.593780517578125,0.286468505859375,-0.36578369140625
1667825357897457400,9.93345751953125,-0.586944580078125,0.2811431884765625,-0.3631134033203125
1667825357907465200,9.94346533203125,-0.581207275390625,0.27490234375,-0.3549652099609375
1667825357917472300,9.95347216796875,-0.5796661376953125,0.2668914794921875,-0.3526153564453125
1667825357927480300,9.963480224609375,-0.5725860595703125,0.2606658935546875,-0.34991455078125
1667825357937487400,9.9734873046875,-0.5742340087890625,0.2541656494140625,-0.345794677734375
1667825357947495200,9.9834951171875,-0.5707550048828125,0.2454376220703125,-0.3394012451171875
1667825357957502500,9.99350244140625,-0.57025146484375,0.2348785400390625,-0.3306732177734375
1667825357967510300,10.00351025390625,-0.580291748046875,0.227081298828125,-0.328826904296875
1667825357977518300,10.013518310546875,-0.5997161865234375,0.2309112548828125,-0.3382568359375
1667825357987525000,10.023525146484374,-0.6348419189453125,0.250946044921875,-0.3619842529296875
1667825357997533400,10.033533447265626,-0.6884765625,0.2955169677734375,-0.404296875
1667825358007540200,10.043540283203125,-0.75250244140625,0.3654022216796875,-0.4700927734375
1667825358017548300,10.05354833984375,-0.8045196533203125,0.4488525390625,-0.5364532470703125
1667825358027555300,10.063555419921874,-0.84295654296875,0.527923583984375,-0.5960693359375
1667825358037563400,10.0735634765625,-0.869232177734375,0.577301025390625,-0.633270263671875
1667825358047570200,10.083570068359375,-0.8922882080078125,0.58221435546875,-0.613037109375
1667825358057578200,10.093578125,-0.8995208740234375,0.5531158447265625,-0.57464599609375
1667825358067585300,10.103585205078126,-0.8882598876953125,0.5414886474609375,-0.574493408203125
1667825358077593300,10.11359326171875,-0.8722076416015625,0.56207275390625,-0.5680694580078125
1667825358087600000,10.12360009765625,-0.8619232177734375,0.5842132568359375,-0.5540313720703125
1667825358097608400,10.1336083984375,-0.865478515625,0.599945068359375,-0.566864013671875
1667825358107615200,10.143615234375,-0.8751678466796875,0.6229400634765625,-0.6031341552734375
1667825358117623300,10.153623291015625,-0.87451171875,0.6577301025390625,-0.64703369140625
1667825358127631000,10.163631103515625,-0.8772735595703125,0.6721649169921875,-0.67388916015625
1667825358137638400,10.173638427734375,-0.8827362060546875,0.652435302734375,-0.722137451171875
1667825358147646200,10.183646240234374,-0.8785858154296875,0.6259613037109375,-0.78070068359375
1667825358157653200,10.1936533203125,-0.8566131591796875,0.611419677734375,-0.847198486328125
1667825358167661300,10.203661376953125,-0.826812744140625,0.6195526123046875,-0.8941192626953125
1667825358177668400,10.21366845703125,-0.8049774169921875,0.633514404296875,-0.91650390625
1667825358187676200,10.22367626953125,-0.7957611083984375,0.6399993896484375,-0.9343109130859375
1667825358197683500,10.233683349609375,-0.7854766845703125,0.646820068359375,-0.944854736328125
1667825358207691300,10.243691162109375,-0.7842864990234375,0.655517578125,-0.940155029296875
1667825358217698300,10.2536982421875,-0.800872802734375,0.666748046875,-0.917724609375
1667825358227706000,10.2637060546875,-0.8147735595703125,0.684234619140625,-0.8607940673828125
1667825358237713400,10.27371337890625,-0.807464599609375,0.6915283203125,-0.7985382080078125
1667825358247721200,10.28372119140625,-0.7951812744140625,0.678131103515625,-0.7353057861328125
1667825358257728300,10.293728271484374,-0.774627685546875,0.644805908203125,-0.6800994873046875
1667825358267736300,10.303736328125,-0.7431793212890625,0.6009368896484375,-0.626739501953125
1667825358277744400,10.313744384765625,-0.7141265869140625,0.5629425048828125,-0.578277587890625
1667825358287751200,10.323751220703125,-0.6786956787109375,0.5318603515625,-0.561126708984375
1667825358297759200,10.33375927734375,-0.645172119140625,0.50274658203125,-0.553253173828125
1667825358307766300,10.343766357421876,-0.634857177734375,0.4731292724609375,-0.5470733642578125
1667825358317774300,10.3537744140625,-0.628448486328125,0.4441375732421875,-0.5296783447265625
1667825358327781000,10.363781005859375,-0.6224212646484375,0.417022705078125,-0.5341339111328125
1667825358337789200,10.3737890625,-0.6103515625,0.3891143798828125,-0.5581512451171875
1667825358347796200,10.383796142578126,-0.5946197509765625,0.37109375,-0.5601654052734375
1667825358357804300,10.39380419921875,-0.575469970703125,0.3656005859375,-0.5499420166015625
1667825358367811300,10.403811279296875,-0.5547943115234375,0.332061767578125,-0.57452392578125
1667825358377819400,10.4138193359375,-0.534820556640625,0.28948974609375,-0.59613037109375
1667825358387827200,10.4238271484375,-0.5187835693359375,0.2730560302734375,-0.5802459716796875
1667825358397834200,10.433834228515625,-0.5090789794921875,0.2667388916015625,-0.56512451171875
1667825358407842000,10.443842041015625,-0.4924163818359375,0.2492218017578125,-0.5660552978515625
1667825358417849300,10.453849365234374,-0.4695281982421875,0.2318115234375,-0.5697021484375
1667825358427857200,10.463857177734376,-0.4587860107421875,0.2295074462890625,-0.566864013671875
1667825358437864200,10.4738642578125,-0.4654693603515625,0.2393951416015625,-0.56707763671875
1667825358447872300,10.483872314453125,-0.4751129150390625,0.25421142578125,-0.5753326416015625
1667825358457879300,10.49387939453125,-0.484344482421875,0.2759246826171875,-0.5892333984375
1667825358467887000,10.50388720703125,-0.502777099609375,0.3023223876953125,-0.6090240478515625
1667825358477894400,10.513894287109375,-0.528167724609375,0.3328857421875,-0.630401611328125
1667825358487902200,10.523902099609375,-0.5450286865234375,0.3542633056640625,-0.6526336669921875
1667825358497909200,10.5339091796875,-0.5455169677734375,0.37060546875,-0.668182373046875
1667825358507917000,10.5439169921875,-0.543701171875,0.3883056640625,-0.6815185546875
1667825358517924400,10.55392431640625,-0.540130615234375,0.4145965576171875,-0.6854705810546875
1667825358527932200,10.56393212890625,-0.5344696044921875,0.44061279296875,-0.6806640625
1667825358537940200,10.573940185546874,-0.5253143310546875,0.458770751953125,-0.681182861328125
1667825358547947300,10.583947265625,-0.5134735107421875,0.483245849609375,-0.694854736328125
1667825358557955300,10.593955322265625,-0.5086517333984375,0.5099945068359375,-0.701324462890625
1667825358567962000,10.603962158203124,-0.5137786865234375,0.5210723876953125,-0.70062255859375
1667825358577970200,10.61397021484375,-0.5330963134765625,0.52850341796875,-0.69903564453125
1667825358587977200,10.623977294921875,-0.5713043212890625,0.5580291748046875,-0.7156219482421875
1667825358597985300,10.6339853515625,-0.619140625,0.59906005859375,-0.7399444580078125
1667825358607992000,10.643991943359374,-0.66827392578125,0.6350555419921875,-0.771636962890625
1667825358618000100,10.654000244140626,-0.7071075439453125,0.6757354736328125,-0.7973175048828125
1667825358628007200,10.664007080078125,-0.735626220703125,0.7142333984375,-0.8035430908203125
1667825358638015000,10.674014892578125,-0.7650909423828125,0.7269287109375,-0.7963409423828125
1667825358648022300,10.684022216796874,-0.7948455810546875,0.7051849365234375,-0.7789764404296875
1667825358658030000,10.694030029296876,-0.8145751953125,0.668701171875,-0.7631683349609375
1667825358668038100,10.7040380859375,-0.8268890380859375,0.6407012939453125,-0.7431640625
1667825358678045000,10.714044921875,-0.8337249755859375,0.6192474365234375,-0.7190704345703125
1667825358688053200,10.72405322265625,-0.835693359375,0.5988922119140625,-0.678375244140625
1667825358698060000,10.73406005859375,-0.8305511474609375,0.5589752197265625,-0.6328277587890625
1667825358708068000,10.744068115234375,-0.8137359619140625,0.4985504150390625,-0.5916748046875
1667825358718075100,10.7540751953125,-0.7895965576171875,0.44244384765625,-0.5487213134765625
1667825358728083200,10.764083251953124,-0.7620849609375,0.3914642333984375,-0.5036163330078125
1667825358738090000,10.774090087890626,-0.73162841796875,0.3459625244140625,-0.4541168212890625
1667825358748098000,10.78409814453125,-0.70074462890625,0.3047943115234375,-0.4106597900390625
1667825358758105000,10.79410498046875,-0.678192138671875,0.270294189453125,-0.37493896484375
1667825358768113200,10.804113037109374,-0.6573028564453125,0.2422637939453125,-0.340576171875
1667825358778120000,10.814119873046875,-0.6406097412109375,0.218017578125,-0.3178558349609375
1667825358788128300,10.824128173828125,-0.631591796875,0.191741943359375,-0.3036346435546875
1667825358798135000,10.834135009765625,-0.628387451171875,0.16552734375,-0.2893524169921875
1667825358808143000,10.84414306640625,-0.62396240234375,0.1385498046875,-0.2772979736328125
1667825358818151200,10.854151123046876,-0.6236572265625,0.112396240234375,-0.275115966796875
1667825358828158200,10.864158203125,-0.632904052734375,0.0960845947265625,-0.2852630615234375
1667825358838166300,10.874166259765625,-0.646759033203125,0.089813232421875,-0.2912445068359375
1667825358848173000,10.884173095703124,-0.6581268310546875,0.0816802978515625,-0.2899627685546875
1667825358858181000,10.89418115234375,-0.6763153076171875,0.077362060546875,-0.3050994873046875
1667825358868188200,10.904188232421875,-0.699127197265625,0.094512939453125,-0.332550048828125
1667825358878196200,10.9141962890625,-0.7269134521484375,0.1313323974609375,-0.3527069091796875
1667825358888203300,10.924203369140624,-0.7543182373046875,0.1696929931640625,-0.367645263671875
1667825358898211300,10.93421142578125,-0.7918243408203125,0.19488525390625,-0.390869140625
1667825358908218000,10.944218017578125,-0.8310546875,0.217987060546875,-0.42620849609375
1667825358918226200,10.95422607421875,-0.8811798095703125,0.2637481689453125,-0.482757568359375
1667825358928234000,10.96423388671875,-0.947235107421875,0.3426513671875,-0.5488128662109375
1667825358938241300,10.9742412109375,-1.0076446533203125,0.4337005615234375,-0.61572265625
1667825358948249000,10.9842490234375,-1.06201171875,0.51300048828125,-0.6782684326171875
1667825358958256000,10.994256103515625,-1.10784912109375,0.5699310302734375,-0.7251129150390625
1667825358968264200,11.00426416015625,-1.131622314453125,0.6129913330078125,-0.7603912353515625
1667825358978271200,11.014271240234375,-1.13421630859375,0.65472412109375,-0.7811279296875
1667825358988279000,11.024279052734375,-1.1158599853515625,0.68402099609375,-0.7800140380859375
1667825358998286300,11.034286376953125,-1.0779266357421875,0.67822265625,-0.7576751708984375
1667825359008294100,11.044294189453124,-1.0396270751953125,0.6616058349609375,-0.7225341796875
1667825359018301200,11.05430126953125,-1.0081634521484375,0.6498870849609375,-0.697021484375
1667825359028309000,11.06430908203125,-0.9754486083984375,0.651580810546875,-0.70599365234375
1667825359038316300,11.07431640625,-0.9495849609375,0.6740264892578125,-0.7317657470703125
1667825359048324000,11.084323974609376,-0.93255615234375,0.698486328125,-0.758148193359375
1667825359058331100,11.0943310546875,-0.9286346435546875,0.705810546875,-0.7862701416015625
1667825359068339200,11.104339111328125,-0.9427337646484375,0.6932525634765625,-0.822265625
1667825359078347300,11.11434716796875,-0.9610748291015625,0.676177978515625,-0.87286376953125
1667825359088354000,11.12435400390625,-0.9477386474609375,0.67340087890625,-0.93426513671875
1667825359098362000,11.134362060546875,-0.9176025390625,0.6797943115234375,-0.97674560546875
1667825359108369200,11.144369140625,-0.89288330078125,0.6685943603515625,-0.999053955078125
1667825359118377200,11.154377197265624,-0.8668365478515625,0.6237640380859375,-1.002288818359375
1667825359128384000,11.164384033203126,-0.84405517578125,0.55755615234375,-0.995391845703125
1667825359138392300,11.174392333984375,-0.818695068359375,0.4821319580078125,-0.972198486328125
1667825359148399000,11.184399169921875,-0.7897796630859375,0.4092864990234375,-0.932342529296875
1667825359158407200,11.1944072265625,-0.7623443603515625,0.342315673828125,-0.8858642578125
1667825359168414200,11.204414306640626,-0.7342376708984375,0.27728271484375,-0.8486480712890625
1667825359178422300,11.21442236328125,-0.702911376953125,0.217041015625,-0.8199462890625
1667825359188430000,11.22443017578125,-0.681640625,0.169830322265625,-0.79840087890625
1667825359198437000,11.23443701171875,-0.6647491455078125,0.1398468017578125,-0.7792816162109375
1667825359208445200,11.244445068359376,-0.6440277099609375,0.121490478515625,-0.75439453125
1667825359218452200,11.2544521484375,-0.6353302001953125,0.1181182861328125,-0.7307281494140625
1667825359228460000,11.2644599609375,-0.64007568359375,0.1154327392578125,-0.7097930908203125
1667825359238467300,11.27446728515625,-0.654876708984375,0.1053924560546875,-0.6856689453125
1667825359248475100,11.28447509765625,-0.6754302978515625,0.0881805419921875,-0.65869140625
1667825359258482200,11.294482177734375,-0.6979217529296875,0.0693817138671875,-0.649261474609375
1667825359268490000,11.304489990234375,-0.7154083251953125,0.0560760498046875,-0.6460723876953125
1667825359278497300,11.314497314453124,-0.7384490966796875,0.048828125,-0.643310546875
1667825359288505000,11.324505126953126,-0.7752838134765625,0.0417938232421875,-0.653045654296875
1667825359298512100,11.33451220703125,-0.8064727783203125,0.043975830078125,-0.6646881103515625
1667825359308520200,11.344520263671875,-0.83868408203125,0.065216064453125,-0.682159423828125
1667825359318528300,11.3545283203125,-0.8792266845703125,0.0973968505859375,-0.7042083740234375
1667825359328535000,11.36453515625,-0.9129180908203125,0.13037109375,-0.7304840087890625
1667825359338543000,11.374543212890625,-0.9492645263671875,0.1649322509765625,-0.748565673828125
1667825359348550100,11.384550048828125,-0.9989776611328125,0.2017059326171875,-0.75372314453125
1667825359358558200,11.39455810546875,-1.0367584228515625,0.2271575927734375,-0.7510986328125
1667825359368565000,11.40456494140625,-1.037445068359375,0.23175048828125,-0.7347564697265625
1667825359378573000,11.414572998046875,-1.0201263427734375,0.21978759765625,-0.712158203125
1667825359388580000,11.424580078125,-1.0087738037109375,0.2403106689453125,-0.7020721435546875
1667825359398588200,11.434588134765624,-1.0143280029296875,0.22296142578125,-0.702392578125
1667825359408595200,11.44459521484375,-1.053466796875,0.142974853515625,-0.6963653564453125
1667825359418603300,11.454603271484375,-1.105438232421875,0.0963592529296875,-0.6469879150390625
1667825359428610000,11.464610107421874,-1.1031341552734375,0.1201324462890625,-0.5868377685546875
1667825359438618000,11.4746181640625,-1.09466552734375,0.197113037109375,-0.5477294921875
1667825359448626000,11.4846259765625,-1.0801544189453125,0.274017333984375,-0.51898193359375
1667825359458633200,11.49463330078125,-1.0336151123046875,0.29107666015625,-0.51470947265625
1667825359468641000,11.50464111328125,-0.963897705078125,0.2320098876953125,-0.5009307861328125
1667825359478648000,11.51464794921875,-0.9652862548828125,0.1773681640625,-0.4498443603515625
1667825359488656100,11.52465625,-1.0125885009765625,0.17523193359375,-0.39019775390625
1667825359498663200,11.5346630859375,-0.9597015380859375,0.193511962890625,-0.3558349609375
1667825359508671000,11.5446708984375,-0.8131866455078125,0.19195556640625,-0.3374176025390625
1667825359518678300,11.55467822265625,-0.7093505859375,0.1824493408203125,-0.307342529296875
1667825359528686000,11.56468603515625,-0.6824493408203125,0.187042236328125,-0.2524566650390625
1667825359538693000,11.574693115234375,-0.6299896240234375,0.1678924560546875,-0.122100830078125
1667825359548701000,11.584700927734374,-0.7685699462890625,0.0437469482421875,-0.0108795166015625
1667825359558708200,11.594708251953126,-0.8924560546875,-0.1047515869140625,0.0268402099609375
1667825359568716000,11.604716064453125,-0.9609527587890625,-0.152557373046875,-0.0131988525390625
1667825359578724000,11.61472412109375,-0.9498291015625,-0.1561126708984375,-0.0403900146484375
1667825359588731100,11.624731201171874,-0.864349365234375,-0.195556640625,-0.0051727294921875
1667825359598739200,11.6347392578125,-0.8457489013671875,-0.1751708984375,0.0511016845703125
1667825359608746200,11.644746337890625,-0.89080810546875,-0.0877685546875,0.04022216796875
1667825359618754300,11.65475439453125,-0.84130859375,-0.0326690673828125,0.004150390625
1667825359628761300,11.66476123046875,-0.774566650390625,-0.0291900634765625,-0.009124755859375
1667825359638769400,11.674769287109376,-0.8077545166015625,-0.0745697021484375,0.00531005859375
1667825359648776200,11.684776123046875,-0.905517578125,-0.119140625,0.000518798828125
1667825359658784500,11.694784423828125,-0.9506378173828125,-0.11102294921875,-0.000030517578125
1667825359668791300,11.704791259765624,-0.9525299072265625,-0.08599853515625,0.0165557861328125
1667825359678799400,11.71479931640625,-0.9293365478515625,-0.0923919677734375,0.0247344970703125
1667825359688807200,11.72480712890625,-0.920318603515625,-0.1124420166015625,-0.00494384765625
1667825359698814500,11.734814453125,-0.916717529296875,-0.1278839111328125,-0.037933349609375
1667825359708822300,11.744822265625,-0.9011993408203125,-0.1327362060546875,-0.0423431396484375
1667825359718829300,11.754829345703126,-0.8403167724609375,-0.1375274658203125,-0.0357666015625
1667825359728837400,11.76483740234375,-0.765289306640625,-0.15155029296875,-0.032470703125
1667825359738844400,11.774844482421875,-0.6726837158203125,-0.17913818359375,-0.06011962890625
1667825359748852200,11.784852294921874,-0.550872802734375,-0.24578857421875,-0.1500091552734375
1667825359758859500,11.794859619140626,-0.7300262451171875,-0.2667236328125,-0.1434783935546875
1667825359768867300,11.804867431640625,-0.9833221435546875,-0.27392578125,-0.095458984375
1667825359778874400,11.814874267578125,-0.957916259765625,-0.282196044921875,-0.0748291015625
1667825359788882200,11.824882080078124,-0.8009490966796875,-0.2640533447265625,-0.0712432861328125
1667825359798890200,11.83489013671875,-0.7407989501953125,-0.2166595458984375,-0.076416015625
1667825359808897300,11.844897216796875,-0.8017578125,-0.1755218505859375,-0.0855712890625
1667825359818905300,11.8549052734375,-0.9025726318359375,-0.17388916015625,-0.105194091796875
1667825359828912400,11.864912353515624,-0.9410400390625,-0.215728759765625,-0.121490478515625
1667825359838920400,11.87492041015625,-0.9334869384765625,-0.2710418701171875,-0.1238861083984375
1667825359848927200,11.88492724609375,-0.9250640869140625,-0.3014984130859375,-0.10711669921875
1667825359858935300,11.894935302734375,-0.9319305419921875,-0.3022918701171875,-0.0773773193359375
1667825359868942300,11.9049423828125,-0.938690185546875,-0.2957611083984375,-0.059814453125
1667825359878950400,11.914950439453126,-0.934661865234375,-0.297393798828125,-0.05633544921875
1667825359888957200,11.924957275390625,-0.9359893798828125,-0.312103271484375,-0.0632781982421875
1667825359898965200,11.93496533203125,-0.941680908203125,-0.3266143798828125,-0.069061279296875
1667825359908972300,11.94497216796875,-0.9423065185546875,-0.335357666015625,-0.065704345703125
1667825359918980400,11.95498046875,-0.9291534423828125,-0.3371124267578125,-0.064300537109375
1667825359928988200,11.96498828125,-0.9180145263671875,-0.333892822265625,-0.05572509765625
1667825359938995500,11.974995361328125,-0.9007568359375,-0.3292236328125,-0.032928466796875
1667825359949003300,11.985003173828124,-0.8731689453125,-0.339141845703125,-0.006622314453125
1667825359959010300,11.99501025390625,-0.8595428466796875,-0.3655242919921875,0.0162811279296875
1667825359969018000,12.00501806640625,-0.8851165771484375,-0.398651123046875,0.0295867919921875
1667825359979025400,12.015025390625,-0.8999176025390625,-0.4274139404296875,0.0350341796875
1667825359989033200,12.025033203125,-0.9106292724609375,-0.4464111328125,0.0505828857421875
1667825359999040300,12.035040283203125,-0.9406890869140625,-0.4579010009765625,0.0593109130859375
1667825360009048300,12.04504833984375,-0.98175048828125,-0.46124267578125,0.0557861328125
1667825360019055400,12.055055419921874,-1.0066070556640625,-0.4627685546875,0.04620361328125
1667825360029063200,12.065063232421876,-1.0087890625,-0.463043212890625,0.01226806640625
1667825360039070500,12.075070556640625,-0.9868621826171875,-0.442474365234375,-0.0343017578125
1667825360049078300,12.085078369140625,-0.9723663330078125,-0.4005584716796875,-0.0641326904296875
1667825360059086300,12.09508642578125,-0.9560699462890625,-0.364532470703125,-0.0885467529296875
1667825360069093000,12.105093017578126,-0.936767578125,-0.33526611328125,-0.114410400390625
1667825360079101400,12.115101318359375,-0.912811279296875,-0.3128814697265625,-0.129852294921875
1667825360089108200,12.125108154296875,-0.8991241455078125,-0.3082275390625,-0.143218994140625
1667825360099116300,12.1351162109375,-0.894744873046875,-0.3077239990234375,-0.1533050537109375
1667825360109123300,12.145123291015626,-0.91009521484375,-0.3099212646484375,-0.1562652587890625
1667825360119131400,12.15513134765625,-0.9255218505859375,-0.3238067626953125,-0.1480712890625
1667825360129138200,12.16513818359375,-0.921722412109375,-0.3385772705078125,-0.146759033203125
1667825360139146200,12.175146240234374,-0.899200439453125,-0.3422393798828125,-0.1540985107421875
1667825360149153300,12.1851533203125,-0.880401611328125,-0.342926025390625,-0.1651611328125
1667825360159161300,12.195161376953125,-0.85125732421875,-0.3471527099609375,-0.1579132080078125
1667825360169168100,12.205168212890625,-0.7575836181640625,-0.34466552734375,-0.111785888671875
1667825360179176400,12.215176513671874,-0.841888427734375,-0.367523193359375,-0.0676116943359375
1667825360189184500,12.2251845703125,-0.854736328125,-0.4070587158203125,-0.05499267578125
1667825360199191300,12.23519140625,-0.8553924560546875,-0.4168243408203125,-0.05419921875
1667825360209199400,12.245199462890625,-0.8386077880859375,-0.4102630615234375,-0.057952880859375
1667825360219206400,12.255206298828124,-0.8308258056640625,-0.3922119140625,-0.07537841796875
1667825360229214500,12.26521435546875,-0.8333740234375,-0.3771820068359375,-0.0849456787109375
1667825360239221200,12.27522119140625,-0.8218231201171875,-0.3522796630859375,-0.082000732421875
