time,seconds_elapsed,z,y,x
1667825347982497500,0.01849755859375,0.10668751982748508,1.4443123806223273,1.768928073364496
1667825347992504300,0.02850439453125,0.20990414867401122,1.2302391295701265,1.848033320391923
1667825348002512400,0.038512451171875,0.35581074921190736,1.0137585251152514,1.8718293526515364
1667825348012519400,0.04851953125,0.4808259528905153,0.8497495739147066,1.8606255293309688
1667825348022527500,0.058527587890625,0.63837272233963,0.7207400399029255,1.9158304069414733
1667825348032534300,0.0685341796875,0.812474905270338,0.6176394386515021,1.8945698845088481
1667825348042542300,0.078542236328125,0.8312737137645483,0.4473901317566633,1.616311453793943
1667825348052549400,0.08854931640625,0.94885905970335,0.21030688425600527,1.7667812705941497
1667825348062557400,0.098557373046875,1.146122337990999,0.0639072395041585,1.8268726050719617
1667825348072564500,0.108564453125,1.1727134077966213,0.019414310044050215,1.5232425633437932
1667825348082572500,0.118572509765625,1.1258569640755653,0.054962301026284695,1.2881605726629495
1667825348092579300,0.128579345703125,1.0085983658730984,0.09836743524968623,1.1568298291619867
1667825348102587400,0.13858740234375,0.8501578624546527,0.0892304813310504,1.0523191419169307
1667825348112595200,0.14859521484375,0.9914718745052814,0.11281886218935251,0.9016187312312424
1667825348122602500,0.1586025390625,1.451207693094015,0.3373284593209624,0.822116155449301
1667825348132610300,0.1686103515625,2.0033716200113294,0.4384028154417872,0.6996286436174064
1667825348142617300,0.178617431640625,2.180747710046172,0.2395356090888381,0.4577228713311255
1667825348152625400,0.18862548828125,1.858207946795225,-0.06919745486676693,0.4053941336788237
1667825348162632400,0.198632568359375,1.1387345658272505,-0.5990481354281306,0.43357890241667624
1667825348172640300,0.20864013671875,0.8821504990428686,-1.0146887917026877,0.38559564662277696
1667825348182647600,0.2186474609375,1.1958978840291499,-1.0135995351612568,0.24365597695447502
1667825348192655400,0.2286552734375,1.3527367974698543,-0.6060106679171323,-0.09778167125098407
1667825348202662400,0.238662353515625,0.8970938011527061,-0.060681555455923075,-0.6978187446512282
1667825348212670200,0.248670166015625,0.4096171582013368,0.40390725612193346,-1.301710666848719
1667825348222677500,0.258677490234375,0.22175299189984798,0.6802113378986716,-1.4993991848111152
1667825348232685300,0.268685302734375,0.018881810602545738,0.49491468399763106,-0.9456523726165295
1667825348242692400,0.2786923828125,-0.26156243971884247,-0.05778349592685699,0.12564721797183157
1667825348252700400,0.288700439453125,-0.1962637458562851,-0.8506284025758505,1.4632821617692708
1667825348262707500,0.29870751953125,0.11304770250916481,-1.5972630544528363,2.3164035502046345
1667825348272715300,0.30871533203125,0.5534224025458098,-2.054870628841221,2.5260332658514377
1667825348282722600,0.31872265625,0.9702513918220996,-2.3394600161433217,2.484100250007212
1667825348292730400,0.32873046875,1.5915835475116966,-2.481973467111587,2.1631547702103853
1667825348302737400,0.3387373046875,1.7776713517904281,-2.5425614990651604,1.9372351601503788
1667825348312745200,0.3487451171875,1.8113772220373152,-2.6598879018068313,2.0465242407783863
1667825348322752500,0.35875244140625,2.0839292578041553,-2.738063905160129,2.1676377608433364
1667825348332760300,0.36876025390625,2.5259078859061,-2.730618557590246,2.1817134863384067
1667825348342767400,0.378767333984375,2.7618875560790297,-2.627226279915869,2.1946859267666934
1667825348352775400,0.388775390625,2.760373059862852,-2.481962653456628,2.1970969334311783
1667825348362783500,0.398783447265625,2.730286549156904,-2.2222151542052626,2.005448134024441
1667825348372790300,0.408790283203125,2.6801222960621116,-1.778584228851646,1.546955593495071
1667825348382798300,0.41879833984375,2.587488436028361,-1.1638122353952378,1.0920292210146785
1667825348392805400,0.428805419921875,2.3911983866870403,-0.5895146564725786,1.0045733481407164
1667825348402813400,0.4388134765625,1.9035171610742807,-0.28103098243447017,1.0301569944694637
1667825348412820200,0.4488203125,1.070796755632758,-0.4387838871812448,1.0219316024377942
1667825348422828500,0.45882861328125,-0.12580372370779513,-1.1248711679086087,0.9337570599004625
1667825348432835300,0.46883544921875,-1.2336352017492056,-2.067894068804383,0.6306263459965586
1667825348442843400,0.478843505859375,-1.896224081456661,-2.411896306800842,0.03513911792039871
1667825348452850400,0.488850341796875,-1.5355594624727964,-1.8702327311098574,-0.33295594332516193
1667825348462858500,0.4988583984375,-0.7060176870673894,-0.3937225467160344,-0.7366589090466499
1667825348472865300,0.508865234375,-1.4199264196455479,1.2985244380280374,-0.5163429642125964
1667825348482873300,0.518873291015625,-2.471830258759856,2.232311016283929,-0.48976504614949223
1667825348492880400,0.52888037109375,-2.6995611560255286,2.361818855206668,-0.7212675709083676
1667825348502888400,0.538888427734375,-2.778194547757506,2.1170289788514376,-0.883444045984745
1667825348512895200,0.548895263671875,-3.0090818632274865,1.9128025835528968,-0.8779284974336624
1667825348522903600,0.558903564453125,-2.991473141300678,1.8481959636077283,-0.6188038062557578
1667825348532910300,0.568910400390625,-2.806820338261127,1.8554089637264608,-0.21101970870047806
1667825348542918400,0.57891845703125,-2.364357726034522,1.809002017338574,0.3409355439022183
1667825348552925400,0.588925537109375,-1.7388602673590183,1.6386729232057928,0.9840431858092545
1667825348562933500,0.59893359375,-1.1655559372574091,1.361896255481243,1.5195108294695614
1667825348572940300,0.608940185546875,-0.8286047868162393,1.007847255244851,1.8636746877685189
1667825348582948400,0.6189482421875,-0.7901549369126558,0.6262889013141393,1.9710709403872488
1667825348592955400,0.628955322265625,-0.8261468722701072,0.2562652100935578,2.0524887021407485
1667825348602963700,0.638963623046875,-0.7099778228700161,-0.08861644108593464,2.1346397466048597
1667825348612971800,0.6489716796875,-0.5253396328777075,-0.3252303175091743,2.2090482141181824
1667825348622978600,0.658978515625,-0.39997430058717726,-0.4424094207346439,2.227954574640095
1667825348632987000,0.66898681640625,-0.3601403028488159,-0.4507721754103899,1.9982734200894832
1667825348642993700,0.67899365234375,-0.4036410064011812,-0.378713778154552,1.6686401914462445
1667825348653001700,0.689001708984375,-0.440602079051733,-0.3212736888378858,1.2701783412486314
1667825348663008800,0.6990087890625,-0.4599947617858648,-0.2950041060715914,0.8114300723925233
1667825348673016800,0.709016845703125,-0.5138321504354476,-0.22439123144894838,0.3769716106623411
1667825348683023600,0.719023681640625,-0.5583703803420067,-0.0337888723552227,-0.0017713935866951942
1667825348693031700,0.72903173828125,-0.6017249534219503,0.175508250336349,-0.2113002792075276
1667825348703038700,0.739038818359375,-0.6549333965182303,0.262100492118299,-0.1980629042327404
1667825348713046800,0.749046875,-0.6645780076980591,0.20336071837991476,-0.11607084972262381
1667825348723053600,0.759053466796875,-0.5908925937622785,0.08075812880098819,-0.04165478342473507
1667825348733062000,0.769061767578125,-0.47912557871341704,-0.0027361469656229016,-0.005581307263672351
1667825348743068700,0.779068603515625,-0.3666121292114258,-0.024252105464041232,0.017521628165245055
1667825348753076700,0.78907666015625,-0.19111936870515345,0.02422200258672237,0.10308949533551931
1667825348763083800,0.799083740234375,-0.027802783682942388,0.08992343203127384,0.18446137212067842
1667825348773091800,0.809091796875,0.009303250396251678,0.16776918051689862,0.1298877781510353
1667825348783098600,0.8190986328125,0.011381225714087485,0.3077998747587204,-0.06088000063747167
1667825348793106700,0.829106689453125,0.03634147944748401,0.505302807021141,-0.2633209738239646
1667825348803113700,0.83911376953125,0.13484510829746724,0.6891241276726127,-0.3977718221068382
1667825348813121800,0.849121826171875,0.18944237540364264,0.8257222171172499,-0.46545653432309625
1667825348823128600,0.859128662109375,0.1239320846170187,0.8653709214165807,-0.5031038356721401
1667825348833137000,0.869136962890625,0.05389525631666183,0.784910314257443,-0.5074518017485737
1667825348843144700,0.879144775390625,0.05515957716405391,0.6527364709958434,-0.4937228438645601
1667825348853151700,0.88915185546875,0.1429074187219143,0.5487310298591852,-0.41243104657828805
1667825348863159600,0.89915966796875,0.29924831951260566,0.4639376541927457,-0.33311960945427416
1667825348873166800,0.909166748046875,0.4520791663557291,0.3863885505661368,-0.29832360588312146
1667825348883174700,0.919174560546875,0.6047025079280137,0.33393910914361474,-0.19114537992924452
1667825348893181700,0.929181640625,0.7384294258505105,0.24060440736413,-0.008721358855068683
1667825348903189800,0.939189697265625,0.8355068212896585,0.08158961118906737,0.1982303697541356
1667825348913196800,0.94919677734375,0.8775111488044262,-0.0771586430042982,0.35245267095565797
1667825348923204600,0.95920458984375,0.9200245948851108,-0.21386457673758266,0.41849604570567606
1667825348933212000,0.9692119140625,0.9586784429281949,-0.30176059459447857,0.49198769063502545
1667825348943219700,0.9792197265625,1.0109726937890051,-0.36878859646767376,0.5647159499764443
1667825348953226800,0.989226806640625,1.0742501109570264,-0.4704579958721995,0.6206602477774024
1667825348963234600,0.999234619140625,1.0681798511326313,-0.5998731880754232,0.7224874680921435
1667825348973241900,1.009241943359375,1.0314444039314985,-0.7368138073474169,0.8010551011115312
1667825348983249700,1.019249755859375,0.9623118309944868,-0.7664671873331069,0.7761033229455352
1667825348993256700,1.029256591796875,0.8851181166768074,-0.641265521171689,0.6324079687163233
1667825349003264800,1.0392646484375,0.7783511018723249,-0.42747897810637947,0.4485708659738302
1667825349013271600,1.049271484375,0.6580518207997084,-0.26575375392884015,0.29758243212699886
1667825349023279600,1.059279541015625,0.5111901114940643,-0.20055881270170212,0.169310857000947
1667825349033286700,1.06928662109375,0.37486616281569,-0.1476601662069559,0.05213730673342943
1667825349043294700,1.079294677734375,0.2612526431173086,-0.10564034886211156,-0.04997808287292719
1667825349053301500,1.089301513671875,0.18570903409421444,-0.08006868523210287,-0.09491583349108695
1667825349063309600,1.0993095703125,0.1095054998576641,-0.12498685436695814,-0.0824088186174631
1667825349073318000,1.10931787109375,0.05313303977251053,-0.2111824980467558,-0.03899900821894407
1667825349083324700,1.11932470703125,0.013521744874119758,-0.3312842107206583,0.052479544299840926
1667825349093332700,1.129332763671875,0.005544190123677253,-0.3961737392604351,0.11268792928606271
1667825349103339800,1.13933984375,0.045828854238986964,-0.34748598845899104,0.09834639246165752
1667825349113347800,1.149347900390625,0.10609189202189445,-0.2520850017994642,0.12089315531253814
1667825349123354600,1.159354736328125,0.20887363658249378,-0.27220541428625583,0.15724983232915402
1667825349133362700,1.16936279296875,0.23478841456174848,-0.3736918583393097,0.14145780443549155
1667825349143369700,1.17936962890625,0.2728904739409685,-0.4539838309332728,0.123955757753551
1667825349153377800,1.189377685546875,0.3118821756362915,-0.48966070899218317,0.16867197457551955
1667825349163384600,1.199384521484375,0.38089959776103494,-0.5368368861868977,0.214011291731894
1667825349173393000,1.209392822265625,0.506718519037962,-0.5918173073917627,0.23379443508833644
1667825349183399700,1.219399658203125,0.6191261700779199,-0.6527370555177331,0.3115121732801199
1667825349193407700,1.22940771484375,0.6836971341878175,-0.7575827468708157,0.4117667374506592
1667825349203414800,1.239414794921875,0.7084142268151045,-0.8284834985241294,0.4928963299125433
1667825349213422800,1.2494228515625,0.7855804686039686,-0.8284346909463405,0.6260062849804758
1667825349223429600,1.2594296875,0.856513368961215,-0.8628209446728229,0.7879922059208154
1667825349233437700,1.269437744140625,0.8449889353841543,-0.9309227132573723,0.9518003738522529
1667825349243444700,1.27944482421875,0.8130781318604946,-0.9713619834125041,1.111127304716408
1667825349253452800,1.289452880859375,0.7732733602166175,-0.9136021606221795,1.2229857974410057
1667825349263459600,1.29945947265625,0.7491185776472091,-0.7821472792848945,1.3356991534292697
1667825349273468000,1.309468017578125,0.75217562713027,-0.6492249557435512,1.4132441654026509
1667825349283475700,1.319475830078125,0.7007172425717115,-0.6133741824224591,1.5205182529464363
1667825349293482800,1.329482666015625,0.6229740776777267,-0.6505825078323483,1.6915823833554982
1667825349303490600,1.339490478515625,0.5437526569247245,-0.6774328130960464,1.9006328378096222
1667825349313497900,1.349497802734375,0.4905640875726938,-0.6088955757036805,2.077112855787575
1667825349323505700,1.359505615234375,0.44260523556768894,-0.4774474163681268,2.241293364162743
1667825349333512700,1.3695126953125,0.4086316542953253,-0.35471710875630375,2.399053776362538
1667825349343520800,1.379520751953125,0.33554712886214255,-0.1696072095990181,2.485688688242435
1667825349353527800,1.38952783203125,0.1936708067536354,0.09884323606789111,2.52806214133054
1667825349363535600,1.39953564453125,0.06324468394219875,0.38566023629158735,2.659662860879302
1667825349373543000,1.40954296875,-0.04186988748013973,0.5873851701632141,2.7533172961324452
1667825349383550700,1.41955078125,-0.1688788953244686,0.7268313425153493,2.7556866556122896
1667825349393557800,1.429557861328125,-0.3194108175754547,0.8532818396940827,2.801345706242323
1667825349403565600,1.439565673828125,-0.4424304635226726,0.9320420726761222,2.8852354110673066
1667825349413572900,1.44957275390625,-0.5726701238512992,0.9920552273511886,2.8389795635879036
1667825349423580700,1.45958056640625,-0.7297627197921276,1.1239169359236956,2.74093390763849
1667825349433587700,1.469587646484375,-0.9050140727579593,1.2185945767447353,2.7070105952486396
1667825349443595500,1.479595458984375,-1.098055933958292,1.2608917497262357,2.630178407719731
1667825349453602800,1.489602783203125,-1.320084820190072,1.3001792194977402,2.4729817668825387
1667825349463610600,1.499610595703125,-1.5718167707681654,1.4021853035107255,2.289412667426467
1667825349473618000,1.509617919921875,-1.7977566929638384,1.5006971156671642,1.997311297059059
1667825349483625700,1.519625732421875,-1.9620669651985168,1.573837462940812,1.661134638121724
1667825349493632800,1.5296328125,-2.1054080991625783,1.636421637147665,1.2872820362627506
1667825349503640600,1.539640625,-2.12151927600801,1.6742855038568376,0.9146446554124354
1667825349513648600,1.549648681640625,-2.0486054309666155,1.632018433752656,0.6611193916767836
1667825349523655700,1.55965576171875,-1.9472610257327556,1.4808499671638011,0.5282803625047207
1667825349533663700,1.569663818359375,-1.807474369379878,1.3108850301682948,0.4437894769161939
1667825349543670500,1.57967041015625,-1.6259283001840115,1.0970090552538632,0.4756041265890002
1667825349553678800,1.589678955078125,-1.4947878916233777,0.8805568001106381,0.575195842936635
1667825349563685600,1.599685546875,-1.3779717764914035,0.7128577622205019,0.5925561430603266
1667825349573693700,1.609693603515625,-1.2382143462330102,0.6700546855434775,0.37915450765937564
1667825349583700700,1.61970068359375,-1.194036181810498,0.8514157535612583,-0.14596943664103745
1667825349593708800,1.629708740234375,-1.1256681635051966,1.1814783135324716,-0.7953297092020511
1667825349603715000,1.639715087890625,-1.0376152015209197,1.4285054474204777,-1.4163146588891744
1667825349613723400,1.649723388671875,-1.0079419477909803,1.5349305169194936,-1.792330284000933
1667825349623730200,1.659730224609375,-0.9905518370509147,1.332179454870522,-1.8657734136134385
1667825349633738200,1.66973828125,-0.9192384129434823,0.7434723884537816,-1.7109136912912128
1667825349643745300,1.679745361328125,-0.8365776653915643,-0.09252864609360695,-1.4719628963530063
1667825349653753300,1.68975341796875,-0.7012362980097532,-0.9832730782195925,-1.2062699327006936
1667825349663760100,1.699760009765625,-0.5156120195895433,-1.7195172689855098,-0.9930781406581402
1667825349673768200,1.709768310546875,-0.32159985205233094,-2.2000918774634597,-0.911851809823513
1667825349683775200,1.719775146484375,-0.06596972499191761,-2.468984513939917,-0.959497065834701
1667825349693783300,1.729783203125,0.15559972703456879,-2.6044164822146296,-0.9958224709302186
1667825349703790000,1.7397900390625,0.2559761640191078,-2.6944536037534474,-1.0006377622574567
1667825349713798400,1.74979833984375,0.28674539629220963,-2.794369437488913,-1.0212538493067025
1667825349723806500,1.759806396484375,0.2742325361996889,-2.8603099363863467,-1.0301575789913535
1667825349733813200,1.769813232421875,0.21524317161440848,-2.8113685030847786,-0.9998904510214924
1667825349743821300,1.7798212890625,0.20442133334875107,-2.6146877008602023,-0.957163946712017
1667825349753828400,1.789828369140625,0.21671382868885994,-2.3398487231999634,-0.8395967209517955
1667825349763836400,1.79983642578125,0.2189244904756546,-2.140496948200464,-0.6967655823364853
1667825349773843200,1.80984326171875,0.21473989826738832,-2.0186144895896314,-0.6340209568709134
1667825349783851300,1.819851318359375,0.13704232608079908,-1.851790480968356,-0.6002963819235563
1667825349793858300,1.8298583984375,-0.009402619117498397,-1.6827455814272165,-0.5429939475119113
1667825349803866400,1.839866455078125,-0.1301274321258068,-1.626184613032639,-0.4877542908489704
1667825349813873400,1.849873291015625,-0.19247955114245413,-1.6574635483935474,-0.4529933585911989
1667825349823881500,1.859881591796875,-0.28072598987221714,-1.5849311038851737,-0.39981969454735516
1667825349833888300,1.86988818359375,-0.2571183197915554,-1.4171964101597665,-0.17513211050033567
1667825349843896300,1.879896240234375,-0.20844518203735352,-1.2854957373678684,0.05253975005447864
1667825349853903400,1.8899033203125,-0.21883564314842222,-1.1395157793328166,0.1280818977728486
1667825349863911400,1.899911376953125,-0.15345862335264682,-0.9799550397127866,0.2036073866173625
1667825349873918200,1.909918212890625,-0.05132920522093773,-0.9019003246515989,0.28498218601197
1667825349883926300,1.91992626953125,-0.001253214931488037,-0.9341790847048163,0.2661240485459566
1667825349893933300,1.929933349609375,0.07935293817818165,-1.012910676114261,0.2659250188425183
1667825349903941000,1.939941162109375,0.15304653542041777,-1.0841998425632715,0.21588789925873278
1667825349913948400,1.949948486328125,0.23410160134136676,-1.0641998415857552,0.08232406294345855
1667825349923956200,1.959956298828125,0.3208125010669231,-1.0048223544657229,0.02887508908957243
1667825349933964300,1.96996435546875,0.448448116376996,-1.030124845765531,0.05405015461742878
1667825349943971000,1.97997119140625,0.5562427206635475,-1.0883619306787848,0.016255553752183915
1667825349953979100,1.989979248046875,0.6304635566502809,-1.0922264971524476,-0.07855594258159398
1667825349963986200,1.999986083984375,0.7615607105910778,-1.0454188610091806,-0.04173720101118088
1667825349973994200,2.009994140625,0.933235958635807,-1.0697270805746317,0.07975508923828602
1667825349984001300,2.020001220703125,0.9923825596094131,-1.1583657334923743,0.1717176258817315
1667825349994009300,2.03000927734375,0.9321715442746877,-1.2231383576542139,0.21860680282860992
1667825350004016000,2.04001611328125,0.9323270270973444,-1.1690651144221424,0.1958925744563341
1667825350014024200,2.050024169921875,0.886685219863057,-0.8901689703255892,-0.013776888678967952
1667825350024031200,2.06003125,0.7208125206172465,-0.34373306566625833,-0.3972083430051803
1667825350034039300,2.070039306640625,0.6075269176989794,0.28349837719500065,-0.7563134575873612
1667825350044046000,2.080046142578125,0.52466334105134,0.7631298596039414,-1.0589213166609406
1667825350054054100,2.09005419921875,0.4209533757299185,0.9546513793691992,-1.1667378405183553
1667825350064061200,2.100061279296875,0.34610067158043384,0.7653299999967217,-1.1024474469155072
1667825350074069200,2.1100693359375,0.29580665462613104,0.35452187844514843,-0.8793626218900084
1667825350084076300,2.120076171875,0.34930326701402664,0.053152621255815026,-0.6889490633666515
1667825350094084400,2.13008447265625,0.4323287562251091,0.028217794224619865,-0.6572068944081664
1667825350104091100,2.140091064453125,0.6829886936575174,0.12340338456779718,-0.6187050220564008
1667825350114099200,2.15009912109375,0.9276444222390651,0.09786708451211452,-0.3996826241642236
1667825350124107300,2.160107177734375,1.0646002390801905,-0.20914339343458413,-0.014201543831825255
1667825350134114300,2.1701142578125,1.0083633880734444,-0.586490267150104,0.1503185717612505
1667825350144122400,2.180122314453125,0.7658873416185379,-0.5315706362217665,-0.11125000543743371
1667825350154129200,2.190129150390625,0.6105944885760546,0.10628186163604258,-0.6355924439713359
1667825350164137500,2.200137451171875,0.5849935988515615,0.9105819360181688,-1.17639911057204
1667825350174144300,2.210144287109375,0.471102431255579,1.59569916613698,-1.5516095567807555
1667825350184152300,2.22015234375,0.32653263227939605,2.0389017830759286,-1.77483291349411
1667825350194159400,2.230159423828125,0.16400748989582062,2.2760598493784663,-1.905847942109406
1667825350204167400,2.24016748046875,0.06013795009851455,2.357861934274435,-1.862438131710887
1667825350214174200,2.25017431640625,0.05827507883608341,2.2308406514704227,-1.6023849275112152
1667825350224182300,2.260182373046875,0.028251696494221684,1.9796710109502076,-1.2905156113564968
1667825350234189300,2.270189208984375,-0.06494798072874546,1.8064476566806436,-1.0274211397647857
1667825350244197400,2.280197265625,-0.008717559462785721,1.7252043747112153,-0.8201745198622346
1667825350254204200,2.2902041015625,0.08590133690834045,1.8114011874347924,-0.7090045939236879
1667825350264212500,2.30021240234375,0.1563654507100582,1.969183226944506,-0.5972030920833349
1667825350274219300,2.31021923828125,0.2539613170653581,2.0073013606756924,-0.47905017538964745
1667825350284227300,2.320227294921875,0.286755917686224,1.8565230624482034,-0.3412552773758769
1667825350294235100,2.330235107421875,0.33563772975504397,1.5470321658626198,-0.08112871567904949
1667825350304242400,2.340242431640625,0.4410188431590795,1.1658102042794227,0.26343407880961894
1667825350314250200,2.350250244140625,0.5625988116919994,0.8221975501224398,0.5450818597018718
1667825350324257300,2.36025732421875,0.6929530383110046,0.5842623619675636,0.6257146085575223
1667825350334265300,2.370265380859375,0.7792220394879579,0.43613487050980326,0.6088897304847836
1667825350344272400,2.3802724609375,0.8238193061053752,0.3133861504584551,0.5583084210216999
1667825350354280200,2.3902802734375,0.8185743911892175,0.19555413628220558,0.5111921573206782
1667825350364287500,2.40028759765625,0.7890618809789419,0.023441373603045938,0.5244450221255421
1667825350374295300,2.41029541015625,0.7546072381913661,-0.2319280566945672,0.4768403903856873
1667825350384302300,2.42030224609375,0.657487172654271,-0.41616351110488176,0.41444560127109287
1667825350394310100,2.43031005859375,0.6232423732250929,-0.519172926941514,0.38545097745507956
1667825350404317400,2.4403173828125,0.644594373333454,-0.540355707962811,0.3650342123702168
1667825350414325200,2.4503251953125,0.6539911472320556,-0.5383662877112627,0.3403022144347429
1667825350424332300,2.460332275390625,0.5771978304088116,-0.6188000068634748,0.4127423044845462
1667825350434340400,2.47034033203125,0.4474608589053154,-0.7549100205302238,0.48222851316481824
1667825350444347400,2.480347412109375,0.340068990200758,-0.7949176212698221,0.47925388126820323
1667825350454355200,2.490355224609375,0.32735330101251603,-0.7521995925277472,0.4835533320277929
1667825350464362500,2.500362548828125,0.2717231837272644,-0.7127659922838211,0.5483768095940351
1667825350474370300,2.510370361328125,0.17404489978551863,-0.7049711006239057,0.6823579945385456
1667825350484378400,2.52037841796875,0.07340542795062065,-0.6941209130465984,0.8051061300680041
1667825350494385200,2.53038525390625,-0.03977379198372364,-0.5904413428634405,0.8768255046278238
1667825350504393200,2.540393310546875,-0.0977852514475584,-0.3988838750019669,0.9396510863751173
1667825350514400300,2.550400146484375,-0.16723931142389772,-0.20019991626143455,0.9556903670281172
1667825350524408300,2.560408203125,-0.3043161242961883,-0.03524403959959745,0.9306427272722124
1667825350534415400,2.570415283203125,-0.4258358870744705,0.05499854138344526,0.9265671483963728
1667825350544423400,2.58042333984375,-0.517401241093874,0.10712678802758455,0.9254641555905342
1667825350554430200,2.59043017578125,-0.6181663851350545,0.17184475939273833,0.9232204683169722
1667825350564438300,2.600438232421875,-0.6805851396471262,0.28863223295211793,0.9661918872982262
1667825350574445300,2.6104453125,-0.7285913379251957,0.41495998053401706,0.9746434893012046
1667825350584453400,2.620453369140625,-0.7383534380048513,0.5587064804285764,1.0092600446522235
1667825350594460200,2.630460205078125,-0.6928238589733838,0.6204524502456188,1.1122674146622418
1667825350604468000,2.640468017578125,-0.6702765116006135,0.6190881761550903,1.2323445774167776
1667825350614475000,2.65047509765625,-0.6492366461813449,0.5579401722311973,1.3908844495564698
1667825350624482800,2.66048291015625,-0.6333826589673757,0.5537269384503364,1.501317001131177
1667825350634491000,2.670490966796875,-0.6061006842881441,0.6754761260703206,1.5362731637001037
1667825350644498000,2.680497802734375,-0.5660463217973709,0.7935702983140945,1.5667314303278923
1667825350654506000,2.690506103515625,-0.6125573130816221,0.8256047282174229,1.623571507924795
1667825350664512800,2.7005126953125,-0.7378624396175145,0.8153478303581476,1.6721347555637358
1667825350674521000,2.71052099609375,-0.8633879309058189,0.8082122793897986,1.6458710180163383
1667825350684527900,2.72052783203125,-1.0396265413433312,0.8392889701768755,1.479029765999317
1667825350694536000,2.730535888671875,-1.2210825941681862,0.9650611297026276,1.2549538841098546
1667825350704543000,2.74054296875,-1.4057827434808015,1.1264818179756402,0.9973843134194612
1667825350714551000,2.750551025390625,-1.5551275017738342,1.1721557739138602,0.7893927203685045
1667825350724557800,2.760557861328125,-1.6473767464041709,1.0395195738375187,0.7016957322150469
1667825350734566000,2.77056591796875,-1.7178601494282484,0.7964230573967098,0.7858423344105482
1667825350744573000,2.780572998046875,-1.736083788383007,0.4955211254581809,0.9505728778839111
1667825350754581000,2.7905810546875,-1.73231069958508,0.2639250771969557,1.0973258661180734
1667825350764587800,2.800587890625,-1.7102677946031093,0.23229075252711773,1.1237737280607223
1667825350774596000,2.81059619140625,-1.6284370681345461,0.44779608220905065,0.9382529100149869
1667825350784603000,2.820602783203125,-1.5218962633013724,0.8157853449925779,0.6684095486849546
1667825350794611000,2.83061083984375,-1.4541870011657476,1.103923072426021,0.340716055932641
1667825350804618000,2.840617919921875,-1.4608622411459684,1.1719032604575157,0.05175006098151207
1667825350814626000,2.8506259765625,-1.4998726475417614,0.99148385720402,-0.025590368330478667
1667825350824633900,2.8606337890625,-1.5011802230089901,0.5589166160479188,0.17356208470463752
1667825350834641000,2.870640869140625,-1.4190204107165336,-0.08084142317026853,0.3611795827686786
1667825350844649000,2.88064892578125,-1.2616250324368476,-0.6938973334237932,0.4935755443483591
1667825350854656000,2.890656005859375,-0.9927782809287309,-1.1882324639678001,0.5843523783385753
1667825350864663800,2.900663818359375,-0.6856295635551214,-1.5890192499816416,0.6065209555268287
1667825350874671000,2.910671142578125,-0.4432026169389486,-1.820495471255481,0.5460901599615812
1667825350884679000,2.920678955078125,-0.2761608739137649,-1.852312751276791,0.4313829998075962
1667825350894686000,2.93068603515625,-0.12018997547924518,-1.7881033139556646,0.22697744854986665
1667825350904693800,2.94069384765625,-0.018396657434105873,-1.689443617761135,-0.038518823486566545
1667825350914701000,2.950701171875,0.009682605102658271,-1.5486083291381596,-0.18214461961090564
1667825350924708900,2.960708984375,-0.007382511466741562,-1.469902456691861,-0.2838572736352682
1667825350934716000,2.9707158203125,-0.014914076015353201,-1.522484584583342,-0.32456162446737286
1667825350944724000,2.980723876953125,0.0018342296898365019,-1.7377184038475155,-0.25082886425852774
1667825350954731000,2.99073095703125,0.002356207737326622,-1.9862764005646107,-0.11652326966524124
1667825350964738800,3.00073876953125,0.05021276841163635,-2.066014538668096,0.01719604947268963
1667825350974747000,3.010746826171875,0.14601006091237068,-1.918190121810138,0.08898761248588562
1667825350984754000,3.02075390625,0.2238210303455591,-1.7097820569127797,0.16670798102617262
1667825350994762000,3.030761962890625,0.2270277174323797,-1.6407582050472498,0.25969080062806604
1667825351004768800,3.040768798828125,0.18403496340215206,-1.5899293505638836,0.408917485499382
1667825351014776800,3.05077685546875,0.11093582492172717,-1.5448846324399113,0.6353454834729433
1667825351024784000,3.060783935546875,0.018622282883524893,-1.479335763208568,0.8118816155523061
1667825351034792000,3.0707919921875,-0.04513327319025993,-1.3705828352838754,0.9460311428010463
1667825351044799000,3.080799072265625,-0.04533025706708431,-1.2592901597484945,1.0679542256832122
1667825351054807000,3.09080712890625,-0.03949555956423283,-1.2011115270242094,1.1206897905707358
1667825351064813800,3.100813720703125,-0.0015624270111322402,-1.220611177264154,1.2145295192629098
1667825351074822000,3.11082177734375,0.04420680599510669,-1.3111071484863757,1.314751057946682
1667825351084829000,3.120828857421875,0.12726678199768066,-1.3656605764508247,1.364483349364996
1667825351094837000,3.1308369140625,0.16280337480306625,-1.4251061603710053,1.5459885020285844
1667825351104843800,3.14084375,0.19993278975784778,-1.5065855891838669,1.694441864439845
1667825351114851800,3.150851806640625,0.2143015068501234,-1.5512722876504064,1.7256325369954109
1667825351124859000,3.16085888671875,0.2667003871291876,-1.4864853427022695,1.7107500251621006
1667825351134867000,3.170866943359375,0.36105683317184445,-1.3157847849085926,1.6336340522557495
1667825351144874800,3.180874755859375,0.5011246445536613,-1.1790367655992506,1.5479899049788712
1667825351154882000,3.190882080078125,0.7171183422744274,-1.3112810437485576,1.6056676024436949
1667825351164889900,3.200889892578125,1.0370786104261875,-1.7686051250204442,1.8753478821665048
1667825351174897000,3.21089697265625,1.4385335049599408,-2.3913000934958455,2.328455807048082
1667825351184904700,3.22090478515625,1.9160580782175063,-2.9439594027146696,2.6820003648936748
1667825351194912000,3.230912109375,2.5489322031408546,-3.324767230539024,2.8781372694998977
1667825351204919800,3.240919921875,3.3607267249315975,-3.419383788822591,2.800933618310094
1667825351214926800,3.2509267578125,4.127531181395054,-3.1769714552536605,2.5512919180095195
1667825351224935000,3.260934814453125,4.939014737540483,-2.7921029538616535,2.289775655519962
1667825351234942000,3.27094189453125,5.864612748643755,-2.3333672522261737,2.0778262647539374
1667825351244949800,3.28094970703125,6.768710875600576,-1.5012679012924433,1.9727292289882896
1667825351254957000,3.29095703125,7.233208209502696,-0.14191943059787154,1.5029367112874983
1667825351264964900,3.30096484375,6.79015055399239,1.6482888928130268,0.18074468968510626
1667825351274972000,3.310971923828125,5.697978417375683,3.38717780174464,-0.776954094555974
1667825351284979700,3.320979736328125,4.730298337346315,4.1551358121573925,-0.7944628632396459
1667825351294988000,3.330988037109375,3.9553462302625175,3.9483009879261255,-0.5936112050712108
1667825351304994800,3.340994873046875,3.3403368478536604,3.395635248966515,-0.2548538819909096
1667825351315003000,3.3510029296875,3.0217934607625008,2.8197996468216178,-0.03642331251204014
1667825351325010000,3.361010009765625,2.677404269275069,2.4369768259130415,-0.3682312548458576
1667825351335018000,3.37101806640625,2.0401567515730856,2.597821029472351,-1.0070908839195967
1667825351345024800,3.381024658203125,1.0750897766515612,3.1780957831084726,-1.756867633214593
1667825351355032800,3.39103271484375,0.2247054119646549,3.826882347434759,-2.6717729853898287
1667825351365039900,3.401039794921875,-0.6006923955038189,4.17576709677577,-3.3627842419832943
1667825351375048000,3.4110478515625,-1.2350617274209856,4.081892881292105,-3.6566432696729896
1667825351385054700,3.4210546875,-1.3826383069977164,3.6841032312676307,-3.7470647143542766
1667825351395063000,3.43106298828125,-1.4150427392572165,3.236387520818412,-3.717887719708681
1667825351405069800,3.44106982421875,-1.4832497217819094,2.9444997932016848,-3.7402778306931257
1667825351415078000,3.451077880859375,-1.6702540563836692,2.9924291268512606,-4.372769678300619
1667825351425085000,3.4610849609375,-2.1843650237604972,3.570897123326361,-5.286451041638851
1667825351435093000,3.471093017578125,-2.6538299169421196,4.167535859525204,-5.686480287283659
1667825351445100800,3.481100830078125,-2.9538518511757252,4.182721445958316,-5.864733744674921
1667825351455107800,3.49110791015625,-3.180119982412457,3.834405144155025,-5.875047048896551
1667825351465116000,3.501115966796875,-3.380105086879432,3.297334449212253,-5.474479458591341
1667825351475123000,3.511123046875,-3.396379053071141,2.7142279792815445,-5.053931156530976
1667825351485130800,3.521130859375,-3.3982372481584546,2.1202537861168382,-4.094152058884501
1667825351495138000,3.531137939453125,-3.339052361001074,1.3522072206377982,-3.0562182929337025
1667825351505145900,3.541145751953125,-3.0766321354091164,0.5822358245760202,-2.177015537780523
1667825351515153000,3.55115283203125,-2.563032624685764,-0.038758477461338044,-1.3562106110602616
1667825351525160700,3.56116064453125,-1.9306682028502224,-0.43649113660156724,-0.8596160111516714
1667825351535168000,3.57116796875,-1.4320032264083622,-0.580635988163948,-0.5602876121401786
1667825351545175800,3.58117578125,-1.3002630983889103,-0.6392693789184093,-0.27492051846385
1667825351555182800,3.591182861328125,-1.4416156888842582,-0.7894564332544803,-0.06822656400799751
1667825351565191000,3.60119091796875,-1.542052331623435,-1.0302987410277127,0.23365035044252871
1667825351575198000,3.611197998046875,-1.5768468738898633,-1.3177327041059732,0.46044133650958535
1667825351585205800,3.621205810546875,-1.5998416727691889,-1.5518571018010376,0.47581250864267344
1667825351595213000,3.631213134765625,-1.5046850162595509,-1.6627192769646644,0.4133884934335947
1667825351605221600,3.6412216796875,-1.3887111971706152,-1.7415695263177156,0.3923819457620382
1667825351615229700,3.651229736328125,-1.355029292321205,-1.8319103069782257,0.32959143532812596
1667825351625236700,3.66123681640625,-1.3504817120194434,-1.8374024746537208,0.23792729710936544
1667825351635244500,3.67124462890625,-1.2979922308474778,-1.8512801933586596,0.15269991393983362
1667825351645251800,3.681251953125,-1.2743699477195738,-1.8614362611919641,0.09643091422915458
1667825351655259600,3.691259765625,-1.1711837140113115,-1.8633885643035173,0.1373386786788702
1667825351665266700,3.7012666015625,-0.9570271685898304,-1.8871908801734447,0.259543501111865
1667825351675274500,3.7112744140625,-0.6912623087450862,-1.9708552518099545,0.393521763446927
1667825351685281800,3.72128173828125,-0.40770810970962046,-1.9699924975007772,0.5651245307773352
1667825351695289600,3.73128955078125,-0.07889584206044674,-1.9256383919894695,0.7775146510481834
1667825351705296600,3.741296630859375,0.24360475822389124,-1.88816936981678,0.9690501993387937
1667825351715304700,3.7513046875,0.49302550925016403,-1.8688988521575927,1.1743091525554656
1667825351725311700,3.761311767578125,0.7793670009166002,-1.9068571191519497,1.3656500550568103
1667825351735319600,3.771319580078125,1.0254092154204846,-1.939188193914294,1.5116741444945334
1667825351745327600,3.78132763671875,1.0681699142605066,-1.8961100996881721,1.5187784235417843
1667825351755334700,3.791334716796875,0.9235556916207075,-1.6876763158276675,1.3034294534653423
1667825351765342700,3.8013427734375,0.5102934549152851,-1.239805707077682,1.0045382768273352
1667825351775349500,3.811349609375,0.01183247661292553,-0.7352671624273062,0.7267091774404049
1667825351785357800,3.82135791015625,-0.39789223361611364,-0.32924978228360413,0.5493173053145408
1667825351795364600,3.831364501953125,-0.8285942654222249,-0.08642945243567228,0.39824119318425655
1667825351805372700,3.84137255859375,-1.2848340585887432,0.06606587884277106,0.2413637012988329
1667825351815379700,3.851379638671875,-1.7541104434609411,0.3298044935569167,-0.04441197317838669
1667825351825387800,3.8613876953125,-2.1912489380553364,0.9161410314500331,-0.46158583036959167
1667825351835394600,3.87139453125,-2.506789928460121,1.7000690566718577,-0.7227753451228142
1667825351845402600,3.881402587890625,-2.719232655701041,2.2695114506483076,-0.6457762765944004
1667825351855409700,3.89140966796875,-2.667721371911466,2.36544318318367,-0.5693558847367763
1667825351865417700,3.901417724609375,-2.3806714397147295,2.22607095285058,-0.8066215030670165
1667825351875424500,3.911424560546875,-2.2927958801239727,1.755317481163144,-0.06029810909628868
1667825351885432800,3.921432861328125,-1.9293734868645667,1.712705835404992,0.4739847086936235
1667825351895440600,3.931440673828125,-1.8829986891806125,1.9623580570995807,0.2573077048838138
1667825351905447700,3.94144775390625,-1.6361410666406153,2.0858757156968117,0.12147300102710723
1667825351915455500,3.95145556640625,-1.5387702412128448,2.1813550282895564,0.10263093791306019
1667825351925462800,3.961462890625,-1.6059630782589316,2.322285009458661,0.009391513201594353
1667825351935470600,3.971470703125,-1.5569301672816276,2.460492872187495,-0.18795535171627997
1667825351945477600,3.9814775390625,-1.56682904548347,2.4426585248112676,-0.46142333328425883
1667825351955485700,3.991485595703125,-1.6434455444350837,2.2313579533427954,-0.6618769320458173
1667825351965492700,4.00149267578125,-1.7221517091423273,1.9633026444733142,-0.735955729213357
1667825351975500500,4.01150048828125,-1.7760794064238667,1.5973481023877858,-0.7835662061721086
1667825351985507800,4.0215078125,-1.7616706495821475,1.0501216318726538,-0.8114654359668493
1667825351995515600,4.031515625,-1.5802853239059447,0.46611587501466273,-0.8461369363754987
1667825352005522700,4.041522705078125,-1.2320645914316177,0.01277004972398281,-0.9597305823296308
1667825352015530500,4.051530517578125,-0.8095955504417419,-0.27061726831197735,-1.1873416526079177
1667825352025538600,4.06153857421875,-0.4019301108300686,-0.40509763495028017,-1.4215736023306846
1667825352035545600,4.071545654296875,-0.13546762410998345,-0.509586767950654,-1.5202140093028544
1667825352045553700,4.0815537109375,-0.08074760740697383,-0.7753115880459547,-1.4963403817623853
1667825352055560700,4.091560791015625,-0.06072597911953926,-1.0983856043040752,-1.485318637010455
1667825352065568800,4.10156884765625,-0.0781833098769188,-1.2818214327692985,-1.4534242000997066
1667825352075575600,4.111575439453125,-0.09551906008124351,-1.2932277929246425,-1.3141314647436142
1667825352085583600,4.12158349609375,-0.0448164623260498,-1.2952619291007519,-1.1503835025668143
1667825352095590700,4.131590576171875,-0.03342763782739639,-1.2960714919179677,-0.9905968452364206
1667825352105598700,4.1415986328125,-0.03586100245416164,-1.2596937721133232,-0.7479770063966512
1667825352115605500,4.15160546875,0.018402502653002736,-1.431095463913679,-0.37584874411225316
1667825352125613600,4.161613525390625,-0.02455459554195404,-1.81614282900393,0.011261398726701736
1667825352135620600,4.17162060546875,-0.07158055061101913,-2.1213597015321253,0.3985732016175985
1667825352145628700,4.181628662109375,0.010941665253043175,-2.2722440904825922,0.518820460242033
1667825352155635700,4.1916357421875,0.08651859202384948,-2.181829075542092,0.5052583833575248
1667825352165643800,4.201643798828125,0.14593290402293205,-2.0249387241750956,0.5567138453066349
1667825352175651600,4.211651611328125,0.1598825189203024,-1.9774702860355375,0.6301338863044977
1667825352185658600,4.22165869140625,0.07668868740499019,-1.968563926002383,0.6022200434625148
1667825352195666400,4.23166650390625,-0.02242693586349487,-1.9032038573414085,0.4743693240970373
1667825352205673700,4.241673828125,0.005198737686872482,-1.7651275120377539,0.32686054905951023
1667825352215681500,4.251681640625,0.009497311663627625,-1.6259095954835414,0.14636428117752073
1667825352225688600,4.2616884765625,-0.0000865092396736145,-1.5785861187726258,0.06333528483510018
1667825352235696600,4.271696533203125,0.07702595653533935,-1.630136273267865,0.026566519886255264
1667825352245703700,4.28170361328125,0.19949673642814159,-1.6720833176374434,-0.008740355816483497
1667825352255711500,4.29171142578125,0.2984931172311306,-1.6212199763625859,-0.0756640205323696
1667825352265718800,4.30171875,0.4485211816132068,-1.4771452674269676,-0.14042086260318756
1667825352275726600,4.3117265625,0.6251701264172792,-1.252625733423233,-0.2545923084452748
1667825352285733600,4.321733642578125,0.7944640322834253,-1.0753706394195557,-0.3844365397155285
1667825352295741400,4.331741455078125,0.896868175703287,-1.0108066895723342,-0.4598895478457212
1667825352305748700,4.341748779296875,0.9994190341174601,-1.0082403462156653,-0.5083811915531754
1667825352315756500,4.351756591796875,1.1007260299503803,-1.0085375755965709,-0.5587000506877898
1667825352325764600,4.3617646484375,1.253821080687642,-0.9994675494343042,-0.6211231891140342
1667825352335771600,4.371771728515625,1.3973404938280582,-0.887194630689919,-0.7592123938992619
1667825352345779700,4.38177978515625,1.4718676192849873,-0.5753977952495217,-0.9256710763394832
1667825352355786500,4.391786376953125,1.6037176374197006,-0.2523611883923411,-1.0673647353574633
1667825352365794600,4.401794677734375,1.726530947139859,-0.048773967780172824,-1.197199906538427
1667825352375801600,4.411801513671875,1.6961866622805595,0.09950929876118898,-1.2755328540191053
1667825352385809700,4.4218095703125,1.6772440614014863,0.30683775172829625,-1.3269406774342059
1667825352395816400,4.43181640625,1.6918997787415981,0.5468900781676173,-1.3246534432798622
1667825352405824800,4.44182470703125,1.8122329620838165,0.6360992244496941,-1.2712056384697556
1667825352415831600,4.45183154296875,2.001873490408063,0.5269102431952953,-1.1317463143751025
1667825352425839600,4.461839599609375,2.192238241353631,0.45392274839580055,-1.1003954828217626
1667825352435846700,4.4718466796875,2.380098316001892,0.5856386187568307,-1.154125319443643
1667825352445854700,4.481854736328125,2.5069191077977417,0.8365344107717275,-1.1351146217644215
1667825352455861500,4.491861572265625,2.590401693126559,0.9563236964955926,-1.14691348836869
1667825352465869600,4.50186962890625,2.5352076291710137,1.0595277581214904,-1.2321008317887783
1667825352475878000,4.5118779296875,2.455700377213955,1.2896253845185042,-1.3288739835843444
1667825352485884700,4.521884765625,2.3338842618376017,1.6975947755128145,-1.4670774623990057
1667825352495892700,4.531892822265625,2.2159458646774293,2.1495725273206827,-1.5297458077579735
1667825352505899800,4.541899658203125,2.0940110913574697,2.5747671938821672,-1.5443635311752557
1667825352515907800,4.551907958984375,1.9223615622758865,2.9506714675739407,-1.4819956300675867
1667825352525914600,4.56191455078125,1.770347292512655,3.0779671834051605,-1.3416472481787205
1667825352535922700,4.571922607421875,1.639562273260951,2.8824489952191708,-1.112410622525215
1667825352545929700,4.5819296875,1.4386533319473265,2.5308120245605705,-0.8714473187208175
1667825352555937500,4.5919375,1.232181495809555,2.2824150636240836,-0.5800730935841798
1667825352565944600,4.601944580078125,1.1271715538054703,2.155426806306839,-0.3497890047043562
1667825352575952600,4.61195263671875,1.0470417860358954,2.060648919981718,-0.18385259257256983
1667825352585959700,4.621959716796875,0.9615501989722252,1.9214219433382151,0.06207388659715652
1667825352595967500,4.631967529296875,0.868809371432662,1.7146125458091497,0.3777075237214565
1667825352605974800,4.641974853515625,0.6726268741190433,1.057381978264451,0.8633996213436126
1667825352615982600,4.651982666015625,0.48951603982448577,0.8474196696624159,1.0076005870074034
1667825352625989600,4.66198974609375,0.3423322589576244,0.7916179952025413,1.1189268725514412
1667825352635997400,4.67199755859375,0.2667944951534271,0.7946341281533241,1.1310013412266968
1667825352646004700,4.682004638671875,0.16213760437071323,0.741074971923232,1.1478174514710902
1667825352656012500,4.692012451171875,0.08067395764887332,0.5420514059647917,1.2734119163423776
1667825352666019600,4.70201953125,-0.06669219404757022,0.19102058450579643,1.427839092466235
1667825352676027600,4.712027587890625,-0.26331308277845383,-0.13635668190419672,1.5505501108556985
1667825352686035700,4.72203564453125,-0.3569289395868778,-0.3053755702212453,1.5947060634464025
1667825352696042500,4.73204248046875,-0.5224935957968234,-0.27561843760013577,1.5808429577887058
1667825352706050600,4.742050537109375,-0.6855956612855195,-0.14468728787600993,1.5211533359795808
1667825352716057600,4.7520576171875,-0.7942290544837712,-0.06207067172676325,1.4676543855041264
1667825352726065700,4.762065673828125,-0.8415174598813057,-0.043023441429436204,1.3751234013229607
1667825352736072400,4.772072509765625,-0.9063520433634519,0.026499299868941305,1.2899468715578317
1667825352746080500,4.78208056640625,-0.8909592439204453,0.079402622538805,1.3573404918730259
1667825352756087600,4.792087646484375,-0.8139701122641563,-0.021252631387114522,1.5445815578401088
1667825352766095600,4.802095703125,-0.7052455336511134,-0.14454554131776093,1.6899129888385533
1667825352776102700,4.8121025390625,-0.5517933400392532,-0.22348726834654806,1.8920792367368935
1667825352786110700,4.82211083984375,-0.3008136691331863,-0.32657530237734317,2.1314339363008736
1667825352796117500,4.832117431640625,-0.13245207568109035,-0.4500298326104879,2.291072125071287
1667825352806125600,4.84212548828125,-0.03925999724268913,-0.5286120786771178,2.3322873480349777
1667825352816132600,4.852132568359375,-0.02621931388378143,-0.5164639602437615,2.3728829777956006
1667825352826140700,4.862140625,-0.05437105713486671,-0.47378187959790224,2.3594857360839843
1667825352836148700,4.872148681640625,-0.194158298009634,-0.45442777530848977,2.3299112665534016
1667825352846155500,4.882155517578125,-0.3561673075646162,-0.44166649341285225,2.349189382997155
1667825352856163800,4.892163818359375,-0.5471674338042736,-0.4539671720594167,2.3149732251405712
1667825352866170600,4.902170654296875,-0.8531646430552006,-0.3628691432908177,2.1396160737127063
1667825352876178700,4.9121787109375,-1.2426987981706856,0.0010065466940402984,1.8318384107857941
1667825352886185700,4.922185791015625,-1.6242460461854933,0.6469038193196058,1.5031477236896753
1667825352896193800,4.93219384765625,-1.932325322407484,1.2709186382219195,1.2754372846901416
1667825352906200600,4.94220068359375,-2.1782284207016227,1.647240260542929,1.2434943324625491
1667825352916208600,4.952208740234375,-2.3803151736229657,1.5692933897703885,1.439012812909484
1667825352926215700,4.962215576171875,-2.571706929528713,1.220802900443971,1.6526830361187457
1667825352936223700,4.9722236328125,-2.650113526767492,0.9613122985631227,1.8332488621056078
1667825352946230500,4.98223046875,-2.669709623119235,0.9887895035535097,1.9439859495848417
1667825352956238800,4.99223876953125,-2.7394354857742784,1.3633961386501787,1.815236235553026
1667825352966245600,5.00224560546875,-2.7808757496654986,1.8832161313235758,1.323451081752777
1667825352976253700,5.012253662109375,-2.8746465047746894,2.3751307567223905,0.7570727515220642
1667825352986261500,5.022261474609375,-2.937516510185599,2.5699007568895817,0.3691594756066799
1667825352996268800,5.032268798828125,-3.0420903988599775,2.4650407447502016,0.028283845198154446
1667825353006276600,5.042276611328125,-3.1706828765034674,2.1960767966032027,-0.24416589923799037
1667825353016283600,5.05228369140625,-3.1379595875531434,1.8437047896683214,-0.4289893826693296
1667825353026291700,5.062291748046875,-2.8947482125610113,1.482431683397293,-0.5888993741184473
1667825353036298800,5.072298828125,-2.4779689076453444,1.0481804346770047,-0.7444236978292464
1667825353046306600,5.082306640625,-1.9398633166968822,0.5693886179625988,-0.8701368206441402
1667825353056313900,5.09231396484375,-1.3860212274342774,0.07333528532385826,-0.8724620487213134
1667825353066321700,5.10232177734375,-0.9746879129648208,-0.37791444447040556,-0.9370172307401895
1667825353076328700,5.11232861328125,-0.709517219620943,-0.6826414876550435,-1.2189245393514632
1667825353086336500,5.12233642578125,-0.46897710966467854,-0.8370552197754383,-1.5037199706196784
1667825353096343800,5.13234375,-0.3402279801547527,-0.945132732656598,-1.8476053042382001
1667825353106351600,5.1423515625,-0.26964637745320796,-1.0741156709223985,-2.0198381861656904
1667825353116358700,5.152358642578125,-0.2518763274848461,-1.269209203955531,-1.9044459663569926
1667825353126366700,5.16236669921875,-0.2912719338059425,-1.5780249777585267,-1.6767250059634446
1667825353136374800,5.172374755859375,-0.2621136438608169,-1.914299836373329,-1.450595698675513
1667825353146381600,5.182381591796875,-0.16097499033212662,-2.279155477306247,-1.1426730743199587
1667825353156389600,5.1923896484375,-0.08820084602236747,-2.664947523283958,-0.830354845353961
1667825353166396700,5.202396728515625,-0.06871113265454769,-2.9095535675048825,-0.5015338098764419
1667825353176404700,5.21240478515625,-0.09249006764888763,-2.9450282009899613,-0.243480255061388
1667825353186411500,5.22241162109375,-0.04303717769384384,-2.8570260924100874,-0.09065057726204395
1667825353196419800,5.232419921875,-0.05750467898547649,-2.6463866151988507,0.04403495655953884
1667825353206426600,5.242426513671875,-0.10936112295091152,-2.4587539195656776,0.1800730740338564
1667825353216434700,5.2524345703125,-0.17124211732447148,-2.3434429482996464,0.31758301762640473
1667825353226441700,5.262441650390625,-0.20806407376527786,-2.35033679946661,0.4414858761489391
1667825353236449800,5.27244970703125,-0.215913618221879,-2.4045070733323692,0.5453863956063986
1667825353246456600,5.28245654296875,-0.16958265967965125,-2.40315302837491,0.6224860018998384
1667825353256464600,5.292464599609375,-0.033358664244413375,-2.3518644474253056,0.775986126306653
1667825353266471700,5.3024716796875,0.12117197225391864,-2.2829975396871567,0.8427227440178394
1667825353276479700,5.312479736328125,0.28605449141860007,-2.135452232031524,0.7986246590942144
1667825353286487600,5.322487548828125,0.49544426082968707,-1.8713032829508185,0.7377122174918651
1667825353296494800,5.332494873046875,0.696887455150485,-1.5405962875962256,0.5941191545933485
1667825353306502700,5.342502685546875,0.795699127036333,-1.1608607651785015,0.3739209909200668
1667825353316509700,5.352509765625,0.8379606441825628,-0.8575853821069002,0.20686697293519973
1667825353326517500,5.362517578125,0.7601087582170963,-0.6528706187695265,0.032094343397021295
1667825353336524800,5.37252490234375,0.6400356871157884,-0.40352790141552686,-0.18919687620997427
1667825353346532600,5.38253271484375,0.6181517720878124,-0.05141045376360416,-0.49785658266842364
1667825353356539600,5.39253955078125,0.6560498333275318,0.3760799225196242,-0.8246054880470037
1667825353366547700,5.402547607421875,0.7343558928012848,0.7034180259630084,-1.062286701440811
1667825353376554800,5.4125546875,0.925645357376337,0.8964955429986119,-1.2379904743492602
1667825353386562600,5.4225625,1.2195225052446126,1.0323059891968964,-1.3297411218076944
1667825353396569900,5.43256982421875,1.5338158336758612,1.1478989922747016,-1.3360206404685973
1667825353406577700,5.44257763671875,1.7425585373550652,1.2825941707074642,-1.3367021929919718
1667825353416584700,5.452584716796875,1.8195020763039589,1.6080571279287337,-1.4737293215036391
1667825353426592500,5.462592529296875,1.7899053949415682,2.108417217850685,-1.6360200706094503
1667825353436600600,5.4726005859375,1.8431874877959489,2.4796593449503184,-1.5743804837763309
1667825353446607600,5.482607666015625,2.0461229665011165,2.5393168180555103,-1.3988999982297419
1667825353456615700,5.49261572265625,2.3644179317891596,2.2668857783198355,-1.2372685898154974
1667825353466622500,5.50262255859375,2.630145674493909,1.83603323212713,-1.10229313313663
1667825353476630800,5.512630859375,2.7321412371128795,1.5797361655905842,-0.986138696783781
1667825353486637600,5.522637451171875,2.745653045114875,1.7231664391428232,-1.043653312641382
1667825353496645600,5.532645751953125,2.6815444378197193,2.2565993621051312,-1.3544091145962476
1667825353506652700,5.542652587890625,2.6654244931459425,2.83235663831681,-1.6309540193915366
1667825353516660700,5.55266064453125,2.6544062555253505,3.1425846170052885,-1.6937100430339573
1667825353526667500,5.56266748046875,2.4780846429795025,3.2303950024053454,-1.647646795517206
1667825353536675600,5.572675537109375,2.3133283805429934,3.223748111736774,-1.4847493126899003
1667825353546682600,5.5826826171875,2.161291898947954,3.152348470650613,-1.2136346162497997
1667825353556690700,5.592690673828125,2.042438725030422,2.997580810526013,-0.9306745837152004
1667825353566697500,5.602697509765625,1.949147862392664,2.815802686139941,-0.7282926472395658
1667825353576705800,5.612705810546875,1.7814789273798464,2.5994220349282027,-0.4967354696840047
1667825353586712600,5.622712646484375,1.6473767464041709,2.3224685493320227,-0.17904080837666989
1667825353596719600,5.6327197265625,1.5429150859326124,2.0578768249198793,0.14483108026087282
1667825353606727700,5.642727783203125,1.4298995321273802,1.7345754296466707,0.466184264075756
1667825353616734700,5.652734619140625,1.3343477388203144,1.35353730019778,0.7150777763575316
1667825353626742500,5.662742431640625,1.2399445310264825,0.9985980731233954,0.9110182816088199
1667825353636749800,5.672749755859375,1.111952357363701,0.7762140898436307,1.0962696350634098
1667825353646757600,5.682757568359375,0.9780828161001205,0.650286447495222,1.2638836250185965
1667825353656764700,5.6927646484375,0.8002648275166749,0.4748030393391847,1.4902847349852322
1667825353666772500,5.7027724609375,0.6250842016994953,0.23671090705692766,1.6594383555978536
1667825353676779800,5.71277978515625,0.4849152680307626,-0.022848083885014057,1.8139491183519363
1667825353686787600,5.72278759765625,0.3018038492143154,-0.24596681118011474,1.9728227524906397
1667825353696794600,5.732794677734375,0.17997312079071998,-0.4198164806544781,1.982350459292531
1667825353706802700,5.742802734375,-0.030813655936717987,-0.5177043156936765,1.9416537072449922
1667825353716809700,5.752809814453125,-0.30572248396277424,-0.5749214099094271,1.9320657946884632
1667825353726817500,5.762817626953125,-0.5361708234935999,-0.6081710608214139,1.861730860224366
1667825353736824800,5.772824951171875,-0.8217547747910022,-0.6169844818741083,1.6785510523468254
1667825353746832600,5.78283251953125,-1.137707560867071,-0.5844695749774574,1.5342168156921863
1667825353756840700,5.7928408203125,-1.4044284062623977,-0.5531611212611198,1.5662497842907905
1667825353766847500,5.802847412109375,-1.5572978315502404,-0.6113035136282443,1.595154391735792
1667825353776855800,5.812855712890625,-1.6370505827009676,-0.7932230923116207,1.58926474917531
1667825353786862600,5.822862548828125,-1.7348983779907226,-0.9456658166199922,1.7029624400258063
1667825353796870700,5.83287060546875,-1.7349837181866168,-1.0997826116204261,1.8037895433872937
1667825353806877700,5.842877685546875,-1.5986498326361178,-1.2642173870176077,1.8520827419131993
1667825353816885800,5.8528857421875,-1.5510650746405124,-1.2869243088662623,1.832006753090024
1667825353826892500,5.862892578125,-1.6202373950660227,-1.0737643732666968,1.6596785940945147
1667825353836900600,5.872900634765625,-1.7900398349761961,-0.7617465885519981,1.4187825103074312
1667825353846907600,5.88290771484375,-2.0937977408677337,-0.5282850386798381,1.1860200486153363
1667825353856915700,5.892915771484375,-2.431696985813975,-0.4167249443799257,0.970095908999443
1667825353866922500,5.902922607421875,-2.7557056525737047,-0.3585089022547006,0.7860445789843797
1667825353876930800,5.912930908203125,-3.066837886625528,-0.1942547441214323,0.6216869604766369
1667825353886937600,5.9229375,-3.2415029641360045,0.1647708754837513,0.517697593691945
1667825353896945700,5.932945556640625,-3.3045454035043713,0.5671697728693484,0.3316834391713142
1667825353906952700,5.94295263671875,-3.310456673374772,0.927415289658308,0.19655834488868712
1667825353916960800,5.952960693359375,-3.2416981944471597,1.124549973130226,0.2515957569777965
1667825353926968600,5.962968505859375,-3.0458313389539717,1.1430641194641589,0.3907008608072996
1667825353936975600,5.9729755859375,-2.792109091341495,1.1178092666983603,0.5870207207649946
1667825353946983700,5.982983642578125,-2.5431430983453986,1.0286486357331275,0.788988815742731
1667825353956990700,5.99299072265625,-2.2474778980165717,0.8484756084561348,0.9522978019803762
1667825353966998500,6.00299853515625,-2.0034873553454875,0.7620692446351051,0.9080436497122049
1667825353977005800,6.013005859375,-1.8566759149223564,1.0597288336515427,0.5128600905328988
1667825353987013600,6.023013671875,-1.7267063037067651,1.5682476801097391,0.0020738836646080018
1667825353997020700,6.033020751953125,-1.706493536761403,1.967210173305869,-0.4634276588439941
1667825354007028500,6.043028564453125,-1.7980945466160774,2.0556734696567056,-0.7227350131124257
1667825354017035800,6.053035888671875,-1.8298007674783467,1.8628829528689383,-0.8884300177037715
1667825354027043600,6.063043701171875,-1.7341484364062547,1.609822968557477,-0.927609350925684
1667825354037050600,6.073050537109375,-1.5238643485039471,1.3685323324948548,-0.8508072662740945
1667825354047058700,6.08305859375,-1.1666957549422978,1.0625170030653477,-0.7236170566439628
1667825354057065700,6.093065673828125,-0.7937830642819405,0.6453127507358789,-0.540575780454278
1667825354067073500,6.103073486328125,-0.41819852406382557,0.19804770666360855,-0.29126608858704567
1667825354077081600,6.11308154296875,-0.06902794351875782,-0.21281623672842978,-0.06137947459220886
1667825354087088600,6.123088623046875,0.23628946677446364,-0.4813911855578422,-0.012047580668330192
1667825354097096700,6.1330966796875,0.4746101471155882,-0.6884902136832475,-0.10350713622570037
1667825354107103500,6.143103515625,0.6490121897757053,-0.9201707253575324,-0.12638999916315077
1667825354117111800,6.15311181640625,0.669789020344615,-1.149766831973195,-0.2085539031088352
1667825354127118600,6.16311865234375,0.5607879628777503,-1.324625970751047,-0.2893950340181589
1667825354137126700,6.173126708984375,0.47183425266146656,-1.49890526381433,-0.3679857556521892
1667825354147133700,6.1831337890625,0.38888007512092587,-1.6178969694197176,-0.42655543352067465
1667825354157141800,6.193141845703125,0.3601403028488159,-1.6531459774553774,-0.44706981376111504
1667825354167148500,6.2031484375,0.37015550090670585,-1.6140531534731388,-0.422809817251563
1667825354177156600,6.213156494140625,0.35057635568976403,-1.541149537564814,-0.3809457749903202
1667825354187163600,6.22316357421875,0.2920703907072544,-1.5097013831168413,-0.27219547741413114
1667825354197171700,6.233171630859375,0.20068623847365377,-1.4756892233997583,-0.20971593262553215
1667825354207178500,6.243178466796875,0.13507599444389343,-1.5058558136045932,-0.16820084993243217
1667825354217186800,6.253186767578125,0.12313304319381713,-1.5048317312538624,-0.12676584673821925
1667825354227194600,6.263194580078125,0.0830669902652502,-1.371368724964559,-0.06768705030381679
1667825354237201700,6.27320166015625,0.11803367422819137,-1.1999141339331865,-0.07344166830778122
1667825354247209500,6.28320947265625,0.1130652381658554,-1.0522165583252907,-0.1257838499635458
1667825354257216800,6.293216796875,0.0684492668479681,-0.9284346958339214,-0.1504144333511591
1667825354267224600,6.303224609375,0.06288754106760025,-0.8517538994744419,-0.11787936044931412
1667825354277231600,6.313231689453125,0.09030746291279793,-0.846438549670577,-0.0676473028153181
1667825354287239400,6.323239501953125,0.15325813234448432,-0.8524366210415959,-0.05437281070053577
1667825354297246700,6.333246826171875,0.2811766562491655,-0.8601222071081399,-0.0038461540341377257
1667825354307254500,6.343254638671875,0.5022884276360273,-0.9166519035816192,0.06548281825780868
1667825354317261600,6.353261474609375,0.7706108630090951,-0.9696461194053292,0.10275427203178406
1667825354327269600,6.36326953125,0.9850216754525899,-0.9646014032363891,0.0926525647342205
1667825354337276700,6.373276611328125,1.2409995930373667,-0.9442188326820731,0.11830839951634406
1667825354347284500,6.383284423828125,1.51462714908123,-0.9987047483682632,0.19384090262353418
1667825354357291800,6.393291748046875,1.7287398553609847,-1.0990148421183228,0.1672270364642143
1667825354367299600,6.403299560546875,1.8950357484549283,-1.1467264413639902,0.07463292391896248
1667825354377306600,6.413306640625,2.04736624456048,-1.0762161503329872,-0.07733867574632167
1667825354387314400,6.423314453125,2.1008722092986107,-0.8522665251716971,-0.3642717035651207
1667825354397322800,6.43332275390625,2.0654694720059634,-0.4842439446404576,-0.7367249600201845
1667825354407329500,6.44332958984375,1.8909084393918514,-0.06648468877673148,-1.0183154577672482
1667825354417337600,6.453337646484375,1.7468372375875711,0.2780292981341481,-1.1976111176878212
1667825354427344600,6.4633447265625,1.6033499731510876,0.4900874099716544,-1.3597820398062466
1667825354437352700,6.473352783203125,1.6265081458985804,0.6411597227096557,-1.3798159430533647
1667825354447359500,6.483359375,1.7808944054901599,0.6447305669337511,-1.2516741317868232
1667825354457367600,6.493367431640625,1.8823183057010173,0.5417869098097086,-1.1355471679627895
1667825354467374600,6.50337451171875,1.9944430481463669,0.4390314687341451,-0.9371791433036327
1667825354477382700,6.513382568359375,2.204981987592578,0.45528643796443935,-0.8129162192970514
1667825354487389400,6.523389404296875,2.388704816305637,0.6657336074739694,-0.8066670957744121
1667825354497397800,6.533397705078125,2.390068505874276,0.9965566304236649,-0.8889210160911083
1667825354507404500,6.543404541015625,2.3549328950852155,1.2899328430324792,-0.9923404740333557
1667825354517412600,6.55341259765625,2.1942846524894235,1.6263687374278901,-1.19007896861732
1667825354527419600,6.563419677734375,1.8860288506567477,2.1347665878549216,-1.357051153537631
1667825354537427700,6.573427734375,1.5994295848369597,2.6017086845606565,-1.4718442384094
1667825354547435800,6.583435791015625,1.3271528588801622,2.9449793934121726,-1.5379840592712164
1667825354557442600,6.593442626953125,1.1176374172627925,3.1183401103258133,-1.4848106874883173
1667825354567451000,6.603450927734375,0.9056886110186576,3.0873335621654987,-1.250479369044304
1667825354577457700,6.613457763671875,0.6599164456278085,2.846775039769709,-1.017104912933707
1667825354587465700,6.6234658203125,0.4094833026885986,2.57830588940233,-0.7597685664772987
1667825354597473800,6.633473876953125,0.21425182248950003,2.4013602997392414,-0.6171703598350287
1667825354607481600,6.643481689453125,0.16426351048350332,2.2760750469475983,-0.4081868331372738
1667825354617489000,6.653489013671875,0.1413034906566143,2.170811130182445,-0.19607026911079883
1667825354627496700,6.66349658203125,0.0513040707796812,2.014547678542137,-0.011301146215200423
1667825354637503700,6.673503662109375,-0.018998714980483052,1.7739295349135993,0.22417817322015762
1667825354647511800,6.68351171875,-0.03052665568888187,1.4469076578125357,0.4754547812461853
1667825354657518800,6.693518798828125,-0.017275544449687003,1.1728566156595945,0.6823416279256344
1667825354667526700,6.703526611328125,0.04161269784867763,0.9724149995967746,0.9084715197354555
1667825354677534000,6.713533935546875,0.12423603599965571,0.7600964832574129,1.0977893919765949
1667825354687541800,6.723541748046875,0.21391630692481994,0.5463663465544581,1.2501362546950578
1667825354697548800,6.733548828125,0.18417407961189747,0.39443390985578297,1.3290607383280992
1667825354707556600,6.743556640625,0.17072013927698135,0.23838643905371426,1.4422650927037
1667825354717565000,6.75356494140625,0.1478600726932287,0.06504647266715764,1.5121861856698988
1667825354727571700,6.76357177734375,0.044964930886030194,-0.08027063754498959,1.55852941917181
1667825354737579800,6.773579833984375,-0.008069909209012984,-0.25125702654272314,1.6313783822834491
1667825354747586800,6.7835869140625,-0.0645405689716339,-0.40353316211253404,1.655951682525873
1667825354757595000,6.793594970703125,-0.1188163490384817,-0.4604731929525733,1.5908043798327445
1667825354767601700,6.8036015625,-0.17938158463835716,-0.41325872957408427,1.5341770682036875
1667825354777609700,6.813609619140625,-0.20718729093074797,-0.35428690064549445,1.494371712037921
1667825354787616800,6.82361669921875,-0.2500274847477674,-0.3096045860931277,1.433156488096714
1667825354797624800,6.833624755859375,-0.29380758976340293,-0.31292583947032687,1.4844219804316758
1667825354807631600,6.843631591796875,-0.28502105671763417,-0.42950726906359193,1.6054554209977387
1667825354817640000,6.853639892578125,-0.30014497609138485,-0.5720426396027207,1.6792951487123966
1667825354827646700,6.863646728515625,-0.25568741020560265,-0.62145724337399,1.7314719106733798
1667825354837654800,6.87365478515625,-0.22850889590084553,-0.6219909118592739,1.7765221817553043
1667825354847661800,6.883661865234375,-0.3216325852781534,-0.5635965905576944,1.759519609028101
1667825354857670000,6.893669921875,-0.4602729942053556,-0.45470980712026354,1.7068395737200974
1667825354867677700,6.903677734375,-0.6357832903683185,-0.3008756284534931,1.567099094596505
1667825354877684700,6.913684814453125,-0.8810054206609725,-0.05290449171364307,1.3307143507540224
1667825354887692800,6.92369287109375,-1.1071779825687407,0.22399697143435476,1.1173673681497573
1667825354897699800,6.933699951171875,-1.4332172783732413,0.4669102402627468,0.8928273758798837
1667825354907707600,6.943707763671875,-1.7773966265022754,0.7817971506729722,0.6987661085039377
1667825354917715000,6.95371484375,-2.046011907342076,1.2591472441464662,0.4644891505956649
1667825354927722800,6.96372265625,-2.1580051323622462,1.7041975347787142,0.35121290002763267
1667825354937729800,6.973729736328125,-2.1894635159432885,1.8225743233561515,0.36132337515354157
1667825354947737600,6.983737548828125,-2.2090052517592906,1.6629855266854165,0.5040577753961086
1667825354957745000,6.993744873046875,-2.145208194631338,1.4513544080883263,0.6779366709649562
1667825354967752700,7.003752685546875,-2.0419155779391525,1.2593266923666,0.9465794243335723
1667825354977759700,7.013759765625,-1.7953765198290348,1.0166995470032096,1.1797890452712774
1667825354987767800,7.023767822265625,-1.5361071594834326,0.7681459342002869,1.3016612747490406
1667825354997774800,7.03377490234375,-1.4192097958087921,0.6488736580878496,1.3652315373837947
1667825355007782700,7.04378271484375,-1.3857242903143168,0.7639648491233587,1.1981658289611339
1667825355017790000,7.0537900390625,-1.4223714747101068,1.1024772575318813,0.7213783378064632
1667825355027797800,7.0637978515625,-1.3944663996964692,1.4115207026109098,0.19827800828814504
1667825355037805800,7.073805908203125,-1.4981974078059195,1.4165423301652074,-0.11424129620790481
1667825355047812600,7.0838125,-1.6619225736290215,1.1148968863829969,-0.4011193789690733
1667825355057820700,7.093820556640625,-1.6451701762706041,0.7643196539103985,-0.7219815643966198
1667825355067827700,7.10382763671875,-1.5301900443941354,0.4546028396144509,-1.0186889672547579
1667825355077835800,7.113835693359375,-1.376594642919302,0.11330430761873721,-1.2565864537477494
1667825355087842800,7.1238427734375,-1.1474568014651536,-0.3268208015710115,-1.3777367986917495
1667825355097851000,7.133850830078125,-0.8689420579016208,-0.8053115895122289,-1.4399895489871501
1667825355107857700,7.143857666015625,-0.6370768373101949,-1.1914876663714646,-1.5435668278396129
1667825355117865700,7.15386572265625,-0.4944517426609993,-1.4736545027017594,-1.6060042870521545
1667825355127872800,7.163872802734375,-0.41420916216671466,-1.7926216681629419,-1.7078244931042192
1667825355137880800,7.173880859375,-0.34987551394402977,-2.0865753883987663,-1.6886568512976168
1667825355147887600,7.1838876953125,-0.2672802328437567,-2.3205431342273948,-1.648074081018567
1667825355157895700,7.193895751953125,-0.26495032859146594,-2.425455461075902,-1.4771066889822482
1667825355167902700,7.20390283203125,-0.29446868402063847,-2.4631138683408498,-1.1758645653039217
1667825355177910800,7.213910888671875,-0.35321430297791956,-2.48590320777595,-0.936691652047634
1667825355187918600,7.223918701171875,-0.4535737888276577,-2.466747840929031,-0.7594160997778177
1667825355197926000,7.23392578125,-0.5428466479957104,-2.398935118418932,-0.5430529842227697
1667825355207933700,7.24393359375,-0.6161398477435112,-2.3698954864174127,-0.3314057912737131
1667825355217940700,7.253940673828125,-0.7293588151663541,-2.374478722554445,-0.2363829902768135
1667825355227948500,7.263948486328125,-0.8286234915167093,-2.324513206902146,-0.08088730813860892
1667825355237955800,7.273955810546875,-0.9723241064429282,-2.2070435962975026,0.10786123978197575
1667825355247963600,7.283963623046875,-1.0873369715452195,-2.047923878443241,0.20546236683428287
1667825355257970700,7.293970703125,-1.1601724906533957,-1.8291636386185883,0.2341255667388439
1667825355267978800,7.303978759765625,-1.1792933707088231,-1.5559902560830114,0.2921405333340168
1667825355277985800,7.31398583984375,-1.1888608249992132,-1.3739528962388634,0.294816474545002
1667825355287993600,7.32399365234375,-1.1987316461503505,-1.268739248356223,0.30184651931226253
1667825355298001000,7.3340009765625,-1.1295084723204374,-1.1491852326929568,0.32295594283640383
1667825355308008700,7.3440087890625,-0.9856056128203868,-0.9886834128305315,0.29701895302534104
1667825355318015700,7.354015625,-0.7980775466054677,-0.8109919732362032,0.252695242652297
1667825355328023600,7.3640234375,-0.6069447338968516,-0.678524699985981,0.20571663385629652
1667825355338031900,7.374031982421875,-0.41808512681722637,-0.6002142565980553,0.1569844593912363
1667825355348038700,7.38403857421875,-0.1809258914709091,-0.5501315443068743,0.20859014346599578
1667825355358046700,7.394046630859375,0.05760755483806133,-0.5851259930595756,0.3039993134319782
1667825355368053800,7.4040537109375,0.30326690750420093,-0.676829294244945,0.36137948925495145
1667825355378061800,7.414061767578125,0.5728858124285936,-0.7383978616684674,0.3819517371624708
1667825355388068600,7.424068603515625,0.8223357895493507,-0.7241086395531893,0.38289983166754243
1667825355398076700,7.43407666015625,1.0836416241586209,-0.5945592995762825,0.2893751602739095
1667825355408083700,7.444083740234375,1.297846100375056,-0.39114948135763405,0.20943711568415163
1667825355418091800,7.454091796875,1.485326235795021,-0.2133826384395361,0.12805062585175037
1667825355428098600,7.4640986328125,1.6346598881721495,-0.008381167115271091,0.036254385685920716
1667825355438107000,7.47410693359375,1.7337988923162222,0.23602847775071858,-0.07025017879009246
1667825355448113700,7.48411376953125,1.8673510381937026,0.535090627041459,-0.2151250981926918
1667825355458121700,7.494121826171875,2.001416978812218,0.8442641282409429,-0.2538110949397087
1667825355468128800,7.504128662109375,2.1369436396330594,1.063801197656989,-0.2021025350123644
1667825355478136800,7.51413671875,2.354726558858156,1.145344923877716,-0.12211539058387279
1667825355488145000,7.524144775390625,2.5619746400654315,1.1835583346769214,-0.058924482655525204
1667825355498151700,7.534151611328125,2.7610324005544182,1.3219061903983353,0.036490532529354094
1667825355508160000,7.544159912109375,2.927578469017148,1.5904221025168894,0.06828034002184867
1667825355518166800,7.554166748046875,3.140662416771054,1.9253040454685686,-0.06440262180566787
1667825355528174800,7.5641748046875,3.3238755423963067,2.219732397478819,-0.29044308176636696
1667825355538182000,7.574181884765625,3.3276340181469917,2.3372622138381005,-0.38274727145433424
1667825355548190000,7.58418994140625,3.204738290840387,2.3866399927303195,-0.46432840707600115
1667825355558196700,7.59419677734375,3.036037674692273,2.5340128664284944,-0.6452332557588816
1667825355568204800,7.604204833984375,2.8466140039891004,2.832183327576518,-0.9574147066026926
1667825355578211800,7.6142119140625,2.5474866805076597,3.2280189209237693,-1.3252718674391508
1667825355588220000,7.624219970703125,2.067221868631244,3.651278820030391,-1.6718869182825087
1667825355598226400,7.634226318359375,1.6160463731169699,3.9774858736172316,-1.9086463406562804
1667825355608234200,7.644234130859375,1.1947101355493068,4.026587758177518,-1.9803449646890163
1667825355618241300,7.6542412109375,0.7684522236704826,3.687581428772211,-1.9656097523719072
1667825355628249000,7.6642490234375,0.3683750472307205,3.1440655032128095,-1.9194383683055638
1667825355638256400,7.67425634765625,0.033739772516489026,2.700651873871684,-1.7987860360115766
1667825355648264200,7.68426416015625,-0.11814414886534214,2.4316128146618605,-1.5606424658030271
1667825355658272300,7.694272216796875,-0.14122282663583755,2.169527812373638,-1.3513567412883043
1667825355668279300,7.704279296875,-0.17518413294851778,1.8024354984298347,-0.9511527235984801
1667825355678287400,7.714287353515625,-0.16462825214266777,1.302229430025816,-0.4991062904685735
1667825355688294100,7.724294189453125,-0.16136369738876818,0.7628127564787864,-0.051914311632514
1667825355698302200,7.73430224609375,-0.1336696347773075,0.3504655887916684,0.20941782646179197
1667825355708309200,7.744309326171875,-0.0769493841677904,0.15207681360542774,0.37837972389459607
1667825355718317300,7.7543173828125,-0.049911155116558074,0.08057108179628848,0.5074538475751876
1667825355728324000,7.764323974609375,-0.0333271000623703,-0.06889438026696443,0.6581441752582788
1667825355738332200,7.774332275390625,-0.10296236182451247,-0.30616409025043245,0.7661796025633811
1667825355748339200,7.784339111328125,-0.25311025319397445,-0.5761971289336681,0.8401905951917171
1667825355758347300,7.79434716796875,-0.3589081307053566,-0.8564917416512966,0.9079711689978838
1667825355768354300,7.804354248046875,-0.4017775506168604,-1.101642268012464,0.9509352814555168
1667825355778362400,7.8143623046875,-0.50116439204216,-1.2617261547237635,1.043267528194189
1667825355788369200,7.824369140625,-0.5539747757315635,-1.366006613409519,1.1493886463105678
1667825355798377200,7.834377197265625,-0.5236643931418657,-1.458527952979505,1.28664899905622
1667825355808384300,7.84438427734375,-0.45432723754346366,-1.5925328110605477,1.4540274266898632
1667825355818392300,7.854392333984375,-0.33804654446244237,-1.6741668459132313,1.5800813257664441
1667825355828400400,7.864400390625,-0.32147710245549677,-1.7049334478378295,1.7894389464735985
1667825355838407200,7.8744072265625,-0.31778935385346413,-1.7663851108834145,1.8927222108155488
1667825355848415500,7.88441552734375,-0.2937865469753742,-1.7988304596751927,1.9746663345307112
1667825355858422300,7.89442236328125,-0.3939426192075014,-1.807709054918587,2.0529139418154956
1667825355868430300,7.904430419921875,-0.5080354468554258,-1.8936065924346446,2.077927971562743
1667825355878437400,7.914437255859375,-0.7581424265801906,-1.9240403091430662,2.0819395452916623
1667825355888445400,7.924445556640625,-1.1309849746137857,-1.9039619822323322,1.9243828389704227
1667825355898452200,7.9344521484375,-1.613427715051174,-1.7494532653048633,1.7156833899110555
1667825355908460300,7.944460205078125,-2.192075744268298,-1.228867256695032,1.4480249714046716
1667825355918468400,7.95446826171875,-2.2633365614056586,-1.2782961812525986,1.4812322444796562
1667825355928475400,7.964475341796875,-2.6985171999305484,-0.5303673979118466,1.1070271759212016
1667825355938483200,7.974483154296875,-3.0591882486552,0.1174094048500061,0.8120347602874041
1667825355948490500,7.984490478515625,-3.5840158403575417,0.574642008446157,0.6390314785093069
1667825355958498300,7.994498291015625,-4.007821682909131,0.9866840557068586,0.4200520429760217
1667825355968505300,8.00450537109375,-4.228391017982363,1.461030875711143,0.1363233641564846
1667825355978513200,8.01451318359375,-4.3606168836921455,1.9981094616994262,-0.060976154488325114
1667825355988520400,8.0245205078125,-4.308208651062846,2.4009625325933097,-0.017625673061609268
1667825355998528300,8.0345283203125,-4.129530246257782,2.482911917005479,0.02478197455704212
1667825356008535300,8.044535400390625,-3.9750580619484186,2.3476155578091737,0.15756664319336414
1667825356018543400,8.05454345703125,-3.74886679534018,2.2190856240078807,0.37973347659111023
1667825356028550400,8.06455029296875,-3.477905828157067,2.0455857908844948,0.49959728885591026
1667825356038558200,8.07455810546875,-3.124748223802447,1.9444097279548644,0.502633880072832
1667825356048565500,8.0845654296875,-2.7530665362417697,2.0245947330430147,0.3336059316664934
1667825356058573300,8.0945732421875,-2.5008400801450015,2.2545152493074534,0.009990063616633415
1667825356068581400,8.104581298828125,-2.2843740887373682,2.3972686465114355,-0.26440438514649867
1667825356078588200,8.114588134765626,-1.942148212763667,2.2413968245372176,-0.38231940143108367
1667825356088596200,8.12459619140625,-1.6396692407667637,1.9416917011678219,-0.39581484282016755
1667825356098603300,8.134603271484375,-1.2808324217319487,1.663508966037631,-0.31316227857470513
1667825356108611300,8.144611328125,-0.8355828091353178,1.352025142069161,-0.2683721197336912
1667825356118618400,8.154618408203126,-0.41920682432353495,1.1175894864678382,-0.3393921138525009
1667825356128626400,8.16462646484375,0.028709377133846282,0.9750380415767431,-0.43521454079449173
1667825356138633200,8.17463330078125,0.41910219490528106,0.8729758434623479,-0.6236772575110197
1667825356148641300,8.184641357421874,0.7334586517006159,0.7078121692687273,-0.8180874844551086
1667825356158648300,8.1946484375,0.9556582183241844,0.4857344754591584,-0.9099673112511635
1667825356168656400,8.204656494140625,1.0779022037237882,0.19947160198688507,-0.9828840789020061
1667825356178663200,8.2146630859375,1.1299649839162826,-0.17078969738185404,-0.9463169740051031
1667825356188671200,8.224671142578124,1.1481897919148205,-0.5748822469428181,-0.9057482322514057
1667825356198678300,8.23467822265625,1.1794564523160458,-0.9394245841428637,-0.7952426154404878
1667825356208686300,8.244686279296875,1.2543828062236309,-1.2204527718320488,-0.6306015038162469
1667825356218693400,8.254693359375,1.3204513154149056,-1.3989607885062694,-0.4807739304423332
1667825356228701400,8.264701416015624,1.3931775289297104,-1.4764435488983987,-0.2818494409441948
1667825356238709200,8.274709228515626,1.446257961732149,-1.5545590542361138,-0.1076361988544464
1667825356248716300,8.28471630859375,1.437124807205796,-1.6751593640819191,0.03600128770768642
1667825356258724000,8.29472412109375,1.3828922817587852,-1.8572598522901533,0.22172259676158426
1667825356268731400,8.3047314453125,1.2604407910883426,-2.042897282452881,0.3054904287725687
1667825356278739200,8.3147392578125,1.1230419066548347,-2.115474150624871,0.30345453903079034
1667825356288746200,8.324746337890625,1.0008400068312884,-2.0554510590776798,0.2757125456243753
1667825356298754300,8.33475439453125,0.8458353230804204,-1.9189763037517666,0.22401567613482473
1667825356308761300,8.34476123046875,0.691646631887555,-1.7391136575981974,0.12601941228508948
1667825356318769200,8.35476904296875,0.5796878936588764,-1.5409364793360232,0.018470891714096067
1667825356328776400,8.3647763671875,0.4827122050285339,-1.3964961519584058,-0.040294016465544695
1667825356338784300,8.3747841796875,0.38781858336925507,-1.312915951474011,-0.10784896482229232
1667825356348791300,8.384791259765626,0.29737551137804985,-1.228197686870396,-0.15864976225495336
1667825356358799000,8.394799072265625,0.2686743175506592,-1.1352817950248717,-0.15295535000562666
1667825356368806400,8.404806396484375,0.27571429919004437,-1.042045877444744,-0.21713994514644144
1667825356378814200,8.414814208984374,0.2698836933404207,-0.9109405401974916,-0.3163824096649885
1667825356388822300,8.424822265625,0.30527883184850213,-0.7430924492254852,-0.34443186158537864
1667825356398829300,8.434829345703125,0.39255087258815763,-0.5844850648075341,-0.4045259725421667
1667825356408837400,8.44483740234375,0.5070090264171362,-0.5066910465091466,-0.4196323562592268
1667825356418844200,8.45484423828125,0.6478448995620012,-0.5150076239556074,-0.41181729859411714
1667825356428852200,8.464852294921876,0.785827721363306,-0.5975450373888015,-0.36113866623640056
1667825356438859300,8.474859375,0.9409200833976268,-0.7062979653134942,-0.3210784585267305
1667825356448867300,8.484867431640625,1.1705068376630543,-0.8056085266321897,-0.2503933954507112
1667825356458874000,8.4948740234375,1.4286591766774654,-0.8828153926923871,-0.23435294575393198
1667825356468882400,8.50488232421875,1.708095711261034,-0.9007891485393047,-0.32235446981191634
1667825356478889200,8.51488916015625,1.910896165409684,-0.796318427978456,-0.508743887385726
1667825356488897300,8.524897216796875,2.092203165152669,-0.6108548930779099,-0.665014645549655
1667825356498904300,8.534904296875,2.18287770781219,-0.45014556794464583,-0.8539683606535196
1667825356508912400,8.544912353515626,2.2046821278631685,-0.3031722149580717,-1.0731564705014227
1667825356518919200,8.554919189453125,2.0293957035839556,-0.12780688022375106,-1.2756634946614502
1667825356528927200,8.56492724609375,1.871913816064596,0.030569618047773837,-1.3896370798438786
1667825356538935300,8.574935302734374,1.811010142290592,0.11385901889204979,-1.4695803851306437
1667825356548942300,8.5849423828125,1.8827508518993854,0.16361293762028217,-1.5446563766419887
1667825356558950100,8.5949501953125,2.070835382953286,0.25380729554742576,-1.5497306111663578
1667825356568957400,8.60495751953125,2.306833173304796,0.2778463427826762,-1.3511118266165256
1667825356578965200,8.61496533203125,2.5822844376444816,0.14777034858316182,-1.0976835935145617
1667825356588972300,8.62497216796875,2.849734766358137,0.03901449804902077,-0.9754144736737013
1667825356598980000,8.63497998046875,3.0618168435931206,0.19732816021740435,-0.9099556208133697
1667825356608990700,8.64499072265625,3.0448037494719027,0.5442059536501765,-0.9937351432621478
1667825356618998800,8.654998779296875,2.9055589449107644,0.907534238885343,-1.222688275799155
1667825356629005600,8.665005615234374,2.7479496316194534,1.2154928113371133,-1.4465969844281672
1667825356639014000,8.675013916015626,2.4976965214222666,1.5300854149758816,-1.5568664543956516
1667825356649020700,8.685020751953125,2.1012568247020242,1.8384101903915404,-1.6248597941696643
1667825356659028700,8.69502880859375,1.7638421484023332,2.0614985225483773,-1.6598177103042602
1667825356669035800,8.705035888671874,1.5643600250214338,2.1804314837038516,-1.6754624386817216
1667825356679043800,8.7150439453125,1.3477210151344536,2.259684760899842,-1.6436685395359991
1667825356689052000,8.725052001953125,1.126497015544772,2.287098253004253,-1.4585615629881619
1667825356699058700,8.73505859375,0.9579647417008876,2.1989769019588827,-1.2097241648077963
1667825356709066800,8.745066650390624,0.7871323742210865,2.0339538052797317,-0.9946353069722652
1667825356719073800,8.75507373046875,0.6083867493987083,1.9393857623130082,-0.7882067254543303
1667825356729081900,8.765081787109375,0.37358781344294545,1.9786837534785269,-0.5862900684028863
1667825356739089000,8.7750888671875,0.014826982253789901,2.061066560871899,-0.45879006217122076
1667825356749097000,8.785096923828124,-0.3156710465252399,2.121998291696608,-0.3948667483150959
1667825356759103700,8.795103759765626,-0.5802016883999109,2.1201415579140184,-0.3222556856125593
1667825356769111800,8.80511181640625,-0.8210024951189756,1.9876845137968657,-0.13844634765982627
1667825356779118800,8.815118896484375,-0.9970569811612368,1.6773299861192703,0.10886018769145012
1667825356789127000,8.825126953125,-1.1013806944668292,1.2522206597536802,0.40616204931139943
1667825356799133700,8.8351337890625,-1.1233183855086564,0.8280500755429268,0.7361538821339607
1667825356809141800,8.845141845703125,-1.1486550713390111,0.574336011236906,1.0513602337568997
1667825356819148800,8.855148681640625,-1.201651332989335,0.5270411760985851,1.2205004103660584
1667825356829156900,8.865156982421874,-1.282771280840039,0.5877484505176543,1.3392168061614036
1667825356839164700,8.87516455078125,-1.3794254824310541,0.5676619403004646,1.5268062471747397
1667825356849172000,8.885171875,-1.4789789125949144,0.38435324534624815,1.687653227213025
1667825356859179800,8.8951796875,-1.5875895094394683,0.09828034148812294,1.7938889116197823
1667825356869186800,8.905186767578124,-1.6802672086149453,-0.16844225747287273,1.843214960324764
1667825356879194600,8.915194580078126,-1.7572510795742273,-0.3106777682825923,1.8855483736634253
1667825356889202000,8.925201904296875,-1.7671482042104005,-0.3148331343963742,1.876020666861534
1667825356899209700,8.935209716796875,-1.7272037318348883,-0.25927111391127106,1.8456904105275869
1667825356909216800,8.945216796875,-1.6300515175938606,-0.24404373416304587,1.7824240992754696
1667825356919224800,8.955224853515626,-1.525666429489851,-0.2554217450067401,1.8387544737845658
1667825356929232000,8.96523193359375,-1.379160694015026,-0.35266894405484195,2.0507313370794056
1667825356939239700,8.97523974609375,-1.159696105313301,-0.5610264478087424,2.2634441134333607
1667825356949247000,8.9852470703125,-0.8697457754999399,-0.7429054022207856,2.438974283340573
1667825356959254800,8.9952548828125,-0.5670990457206965,-0.8398404665797948,2.5632389609128237
1667825356969261800,9.00526171875,-0.33002690413594243,-0.8803063324809074,2.733649303588271
1667825356979269600,9.01526953125,-0.15007482613325118,-0.9521960951715707,2.8633704930007458
1667825356989278000,9.02527783203125,-0.09121580992937088,-1.0014560929030178,2.892146505630016
1667825356999284700,9.03528466796875,-0.13408464531898498,-0.9758671858772635,2.7931998091876507
1667825357009292800,9.045292724609375,-0.2586380767047405,-0.8577411571905016,2.635861129531264
1667825357019299800,9.0552998046875,-0.415814259275794,-0.731710931250453,2.47564601765573
1667825357029308000,9.065307861328124,-0.6056850892245769,-0.7189855974510312,2.295633733898401
1667825357039314700,9.075314697265625,-0.8843494703918695,-0.7434475462734699,2.099479878157377
1667825357049322800,9.08532275390625,-1.3163199146986007,-0.5470744948238134,1.8552204554170368
1667825357059329800,9.095329833984374,-1.808397329443693,-0.012904489758610724,1.5272726956427096
1667825357069337900,9.105337890625,-2.198287458389997,0.6888336202934384,1.116302953788638
1667825357079344600,9.1153447265625,-2.4339924032747744,1.3977914524659514,0.8044885826915502
1667825357089353000,9.12535302734375,-2.5706372544705864,1.9057687393933533,0.6549924332290887
1667825357099359700,9.13535986328125,-2.67339269554615,1.9693869328230618,0.8058014188557863
1667825357109367800,9.145367919921876,-2.763316127577424,1.7789701594293117,1.0028934322297574
1667825357119374800,9.155374755859375,-2.7227093919008967,1.6884502228096125,1.1784084045678376
1667825357129383000,9.1653828125,-2.6081951239705083,1.8183344938293098,1.318548112142086
1667825357139390700,9.175390625,-2.491287238901853,2.0261445928335187,1.056561309531331
1667825357149397800,9.185397705078126,-2.397142389783263,2.42561766590029,0.5597831697493791
1667825357159405800,9.19540576171875,-2.306764199721813,2.9338962738618255,0.08805939172506332
1667825357169412900,9.205412841796875,-2.161008990353346,3.0934955919265743,-0.2100397577524185
1667825357179420700,9.215420654296874,-2.0267583408176897,2.7891695307582616,-0.38220892679393287
1667825357189428000,9.225427978515626,-1.9087772735595703,2.3405887279123068,-0.42812545931637286
1667825357199435800,9.235435791015625,-1.6370961754083633,1.9556866165116429,-0.574392125338316
1667825357209442800,9.24544287109375,-1.1711632557451723,1.7150795787990092,-0.6444353833794594
1667825357219450600,9.25545068359375,-0.5970142915129661,1.4633908828407525,-0.7120446922719478
1667825357229458000,9.2654580078125,-0.018550386691093445,1.1582795165136457,-0.9205535871952771
1667825357239465700,9.2754658203125,0.4289736005783081,0.8548656017541885,-1.2188351075023411
1667825357249472800,9.28547265625,0.727123018938303,0.6239145733982324,-1.606100148642063
1667825357259480800,9.295480712890624,0.9462287111997604,0.4347007460534572,-2.1069079823315144
1667825357269489000,9.305489013671876,1.0932546711564064,0.26321955927610396,-2.4675147336483
1667825357279495700,9.31549560546875,1.1903729831278322,0.00864127935618162,-2.6508862647056577
1667825357289503700,9.325503662109375,1.2508891188889741,-0.3501613451480865,-2.8073487460494038
1667825357299510800,9.3355107421875,1.3353957865685224,-0.7655734533637761,-2.899370027142763
1667825357309518800,9.345518798828126,1.4360259060531855,-1.148310203424096,-2.6931010201007126
1667825357319525600,9.355525634765625,1.4996581280082464,-1.483212896902859,-2.375909632140398
1667825357329533700,9.36553369140625,1.4487141227126121,-1.8081375094637273,-2.188701883921027
1667825357339540700,9.375540771484374,1.3309049048900603,-2.0126357074409724,-1.9515783044099806
1667825357349548800,9.385548828125,1.1863666700959206,-2.0576284031167624,-1.6645026532500982
1667825357359555800,9.395555908203125,1.042454458245635,-2.0453522743895647,-1.3960644825428723
1667825357369564000,9.40556396484375,0.9658294837266206,-2.0858663633465766,-1.1127958224505186
1667825357379570700,9.41557080078125,0.8275117308825254,-2.1256544761165976,-0.8604717511981725
1667825357389578800,9.425578857421876,0.6205068107813596,-2.1297350234284997,-0.6951806512326002
1667825357399585800,9.435585693359375,0.4924509242326021,-2.072310716202855,-0.5372217938512563
1667825357409593900,9.44559375,0.3950555488854646,-1.9840879506096243,-0.42887423185706136
1667825357419601700,9.4556015625,0.3671031275987625,-1.8860683058843015,-0.4081780653089285
1667825357429608700,9.465608642578125,0.37495559466481204,-1.781231674620509,-0.3246908038049936
1667825357439616800,9.47561669921875,0.4041811046272516,-1.776720334675908,-0.16294249101281166
1667825357449623800,9.485623779296875,0.4834270752996206,-1.897459176209569,-0.04365267924368381
1667825357459631600,9.495631591796876,0.6391770244598388,-2.052228589899838,0.06150280871093273
1667825357469639000,9.505638916015625,0.8579039465367794,-2.213291843037307,0.18258534911572932
1667825357479646700,9.515646728515625,1.1300000552296638,-2.4128470316544175,0.2539852824628353
1667825357489653800,9.52565380859375,1.3766384820610285,-2.5526196594819424,0.1935661773353815
1667825357499661600,9.53566162109375,1.5788643511921165,-2.3614017988383766,0.16819734280109405
1667825357509668900,9.5456689453125,1.7111907546669243,-2.1785069453820585,0.008681319105625153
1667825357519676700,9.5556767578125,1.830139790174365,-2.0426482761278746,-0.12075462362468242
1667825357529683700,9.56568359375,1.8066677291721105,-1.9352865103006363,-0.3233832283377647
1667825357539691800,9.57569189453125,1.6941384975790976,-1.8253253756299614,-0.5320160419017076
1667825357549698800,9.58569873046875,1.6695932543873786,-1.625705012822151,-0.6820856073379516
1667825357559706600,9.59570654296875,1.6076602375656366,-1.3545683968111872,-0.8447329147964715
1667825357569714700,9.605714599609374,1.575969214272499,-1.0081436078429222,-0.9911743528634309
1667825357579721700,9.6157216796875,1.571041694742441,-0.5894207676440477,-1.1415542994230985
1667825357589729800,9.625729736328125,1.604462902829051,-0.17711656231582162,-1.2710592157363891
1667825357599736600,9.635736572265625,1.7407722384601831,0.2179395710915327,-1.2573521774232386
1667825357609741300,9.6457412109375,1.8467331975787877,0.5707157749131322,-1.1770125662952662
1667825357619748400,9.655748291015625,1.9312755210936068,0.920593042422831,-1.1933347555428742
1667825357629756200,9.665756103515625,2.0439222415864466,1.3350474115222692,-1.2219728210061789
1667825357639763500,9.675763427734376,2.070792128333449,1.7514263189435004,-1.2371867567509411
1667825357649771300,9.685771240234375,1.926650199380517,2.115951705008745,-1.3509808937132357
1667825357659778300,9.6957783203125,1.6111071631491183,2.589715464428067,-1.6112158842206001
1667825357669786000,9.7057861328125,1.2319991249799727,3.108269382688403,-1.8707646460294722
1667825357679793400,9.71579345703125,0.9287117592096328,3.5186554794356226,-2.1078332804828883
1667825357689801200,9.72580126953125,0.6702285808056593,3.8145924824431536,-2.287044184729457
1667825357699808300,9.735808349609375,0.4816799393713474,3.964994933095574,-2.411909166282415
1667825357709816300,9.74581640625,0.3233481570243835,3.932919294399023,-2.421666590186953
1667825357719824400,9.755824462890626,0.1475029298186302,3.727742466507852,-2.2606956915080545
1667825357729831200,9.7658310546875,-0.012483049476146698,3.4429473275005815,-2.0052876827657222
1667825357739839200,9.775839111328125,-0.020624854877591133,3.1518270771250125,-1.7241238859981298
1667825357749846300,9.78584619140625,-0.04835340428054333,2.890485294419527,-1.4143401439458132
1667825357759854300,9.795854248046876,-0.11184592550396918,2.678564252965152,-0.9841805484533309
1667825357769861000,9.805861083984375,-0.1504874985873699,2.395209083633125,-0.5617500859081744
1667825357779869400,9.815869384765625,-0.04276128336191177,2.0700395564004777,-0.2268675584346056
1667825357789876200,9.825876220703124,0.07719079170823097,1.7644649564757942,0.10173778846561908
1667825357799884300,9.83588427734375,0.1900631376504898,1.4982511838197707,0.49620297024250026
1667825357809891300,9.845891357421875,0.2761848393112421,1.2091104168236255,0.9443822065502404
1667825357819899400,9.8558994140625,0.3543804241478443,0.8611974351242184,1.3062059324413537
1667825357829906200,9.86590625,0.458317768484354,0.5500619862020015,1.615522056981921
1667825357839914200,9.875914306640626,0.49922436389029023,0.3396396588727832,1.87205585488379
1667825357849922300,9.88592236328125,0.5380477232813835,0.15962795963734389,2.122141207298636
1667825357859929300,9.895929443359375,0.65338616707623,-0.011956395253539085,2.3151515043169257
1667825357869937200,9.905937255859374,0.7811866175591945,-0.15391513494849204,2.446207157203555
1667825357879944400,9.9159443359375,0.9146662827223538,-0.2461865914106369,2.5758915217369793
1667825357889952300,9.9259521484375,1.0196563509821892,-0.30035628075450654,2.665462487068772
1667825357899959300,9.935959228515625,1.0745482171207665,-0.3059706135049462,2.715008316004276
1667825357909967000,9.945967041015624,1.1557090815037487,-0.31031419566720725,2.809081268930435
1667825357919974400,9.955974365234376,1.1483651484817265,-0.32663404682725666,2.8909932439416646
1667825357929982200,9.965982177734375,1.1981722587019203,-0.34908757843673227,2.9504531486481427
1667825357939989200,9.9759892578125,1.2012836687207222,-0.3617760873571038,3.0254473070949315
1667825357949997300,9.985997314453124,1.1743746190071105,-0.3994371249705553,3.1245816350638864
1667825357960004400,9.99600439453125,1.1794424237906933,-0.4587438849419355,3.247747411483526
1667825357970012200,10.00601220703125,1.0803262160003184,-0.5313976177424192,3.361510568785667
1667825357980020200,10.016020263671875,0.8764303678303956,-0.5230965301260352,3.3686341370552775
1667825357990027300,10.02602734375,0.5237053096741437,-0.4027466879099607,3.2599124810516833
1667825358000035300,10.036035400390626,-0.027260347369313237,-0.0849120336100459,3.0128806709885594
1667825358010042000,10.0460419921875,-0.769833448895812,0.4524976840287447,2.5256407594025134
1667825358020050200,10.05605029296875,-1.4804975004643202,1.1536439656674862,1.9530536376595495
1667825358030057200,10.06605712890625,-2.0763912635147572,1.849852790904045,1.436367851358652
1667825358040065300,10.076065185546875,-2.5317805773317814,2.34149649040699,1.0368173291414975
1667825358050072300,10.086072265625,-2.9298697948247194,2.4348700628921387,1.0625281089812517
1667825358060080400,10.096080322265625,-3.2096313235789538,2.122759046936035,1.550315717577934
1667825358070087200,10.106087158203126,-3.274377644255757,1.8040660222411156,1.7155460272669791
1667825358080095200,10.11609521484375,-3.2004835560053584,1.8581787207007407,1.7413386401712894
1667825358090102300,10.126102294921875,-3.1526012763679025,2.0438868780121204,1.9351064775586126
1667825358100110300,10.1361103515625,-3.207711169171333,2.1536238485381007,1.9416133752346039
1667825358110117000,10.1461171875,-3.3924019661337135,2.2500986019089817,1.691810346892476
1667825358120125200,10.156125244140625,-3.5241701512038706,2.463029697188735,1.2497078001499176
1667825358130133500,10.166133544921875,-3.6224615986078974,2.563437990616262,0.9439730412274598
1667825358140140300,10.176140380859374,-3.7855791539266703,2.289272674433887,0.5291518846422434
1667825358150148000,10.186148193359376,-3.8734500373423097,1.7951883037805556,-0.102068043333292
1667825358160155400,10.1961552734375,-3.769650640171766,1.327386083114147,-0.8799351610809564
1667825358170163200,10.2061630859375,-3.487680787718296,1.0467582929193973,-1.6311334676116704
1667825358180170200,10.216170166015624,-3.1828485305935144,0.8974258095860481,-2.163210884311795
1667825358190178000,10.226177978515626,-2.992855535569787,0.7031675583332777,-2.6318302665799855
1667825358200185300,10.236185302734375,-2.80357039655447,0.481540823161602,-3.0981302659898993
1667825358210193200,10.246193115234375,-2.633325473573804,0.30008827746808525,-3.4536972695738073
1667825358220200200,10.2562001953125,-2.6509926476895807,0.16603753441870212,-3.646847267323732
1667825358230208300,10.266208251953126,-2.7581974693894384,0.10168108984231948,-3.554772794738412
1667825358240215300,10.27621533203125,-2.702156433215737,0.07882043873667717,-3.187580527551472
1667825358250223000,10.28622314453125,-2.541836691921949,-0.10006137968599796,-2.8087779020696875
1667825358260230400,10.29623046875,-2.346647297298908,-0.43034138180017467,-2.3807784072205425
1667825358270238200,10.30623828125,-2.016423993808031,-0.8707745340257883,-1.973096016474068
1667825358280246300,10.316246337890625,-1.6531296108424662,-1.251228726106882,-1.4765113534376024
1667825358290253000,10.326253173828125,-1.2741074973911046,-1.5140747758954762,-1.2092583008617162
1667825358300261400,10.336261474609374,-0.796275465619564,-1.7070874110013246,-1.0806462417349219
1667825358310268200,10.34626806640625,-0.5172036726951599,-1.8631646924197673,-0.9784066412270068
1667825358320276200,10.356276123046875,-0.32971769205629825,-2.001416978812218,-0.7681245991513133
1667825358330283300,10.366283203125,-0.14898177019953726,-2.1171037976533174,-0.6380529888659715
1667825358340291300,10.376291259765624,0.07558043390214443,-2.1969150009930134,-0.7595011477127671
1667825358350298000,10.386298095703125,0.35593817498385905,-2.2753151684910056,-0.8702195304915309
1667825358360306200,10.39630615234375,0.6678700349807739,-2.1408581827282904,-0.6969704572588205
1667825358370313200,10.406313232421875,1.015641270121932,-2.168067092171311,-0.7859411186099052
1667825358380321300,10.4163212890625,1.366795717960596,-2.425242695108056,-1.0779366905152796
1667825358390329300,10.426329345703126,1.696373709285259,-2.509264209619164,-1.0567688148021697
1667825358400336400,10.43633642578125,1.9498919587582348,-2.3936913725465536,-0.8809420000359416
1667825358410344400,10.446344482421875,2.2206144410103557,-2.348290972852707,-0.869808903864026
1667825358420351200,10.456351318359374,2.5739421412348746,-2.3701006536006926,-0.9550532381683587
1667825358430359300,10.466359375,2.879070750957727,-2.292362749403715,-0.9879261647224425
1667825358440366300,10.476366455078125,2.9760861870765685,-2.060960470148921,-0.9981725411877036
1667825358450374400,10.48637451171875,2.9847002861648795,-1.7763199371814726,-1.0747653670027852
1667825358460381200,10.496381103515626,2.9795009639561174,-1.4369488661170005,-1.1887211242675781
1667825358470389200,10.50638916015625,2.9153461794316766,-1.0607932480126618,-1.3655202911973
1667825358480396300,10.516396240234375,2.7209400441408156,-0.6368079572409391,-1.5317428267940878
1667825358490404400,10.526404296875,2.5402134746342897,-0.2783288656026125,-1.7413628978297113
1667825358500411400,10.536411376953126,2.5157933191269635,-0.009551379938423633,-1.8794778215780854
1667825358510419500,10.54641943359375,2.567621121519804,0.2411512275919318,-2.0114140566915273
1667825358520426200,10.55642626953125,2.624537186962366,0.5526245301663876,-2.075586376872659
1667825358530434300,10.566434326171875,2.7087954328387975,0.9261702580332756,-2.0451775023445484
1667825358540442000,10.576442138671876,2.8216180944204328,1.233727263946831,-2.00329621668756
1667825358550449400,10.586449462890625,2.9846184531003237,1.552153454399109,-2.104190832327306
1667825358560457200,10.596457275390625,3.104274760094285,1.9595903459519146,-2.1949580217063427
1667825358570464300,10.60646435546875,3.1326796013236042,2.2618796405956147,-2.1981994878455997
1667825358580472300,10.616472412109376,3.0294623879551885,2.427700317393243,-2.138037280088663
1667825358590479400,10.626479248046875,2.730860549652576,2.7316046460181473,-2.1841452435299753
1667825358600487200,10.636487060546875,2.2681880930900573,3.194802003237605,-2.3560183522343636
1667825358610494200,10.646494140625,1.7533529030919075,3.608362638367712,-2.554034494715929
1667825358620502300,10.656502197265626,1.274138477051258,3.9924738916516302,-2.7790485342383384
1667825358630509000,10.666509033203125,0.9122299954861401,4.392518627126515,-2.8117081103026864
1667825358640517000,10.67651708984375,0.56602937066257,4.607653369930386,-2.7065684044390914
1667825358650524200,10.686524169921874,0.20550795954167841,4.481890855015814,-2.465617960116267
1667825358660532200,10.6965322265625,-0.10577449663579463,4.116143818201125,-2.2378478998839855
1667825358670540000,10.7065400390625,-0.28866145904660223,3.7682103782355783,-1.9752397505044936
1667825358680547300,10.71654736328125,-0.44584699396789074,3.5162849509119987,-1.7110060457497833
1667825358690555100,10.72655517578125,-0.5129074368059635,3.3059137692481277,-1.3223726388663053
1667825358700562200,10.736562255859376,-0.5418839404433965,2.9815055817767977,-0.8267892618268727
1667825358710570000,10.746570068359375,-0.4369453101098537,2.418519524332881,-0.3880979848325252
1667825358720577300,10.756577392578125,-0.2614484579503536,1.8154665371775627,0.04582476258575916
1667825358730585000,10.766585205078124,0.011322773525118826,1.2836878111630678,0.4808908348202705
1667825358740592000,10.776592041015626,0.28021628678441046,0.8124421720445155,0.945354850974679
1667825358750600200,10.78660009765625,0.6165121881872415,0.39329087730050083,1.4012281489163636
1667825358760607200,10.796607177734375,0.8739981722474097,0.041293256635963914,1.7489906162291764
1667825358770615000,10.806614990234374,1.0971657071202994,-0.2405456629142165,2.0913538548469544
1667825358780622300,10.816622314453125,1.2993266943216324,-0.4536535760655999,2.3564655114799735
1667825358790630100,10.826630126953125,1.4203332468807697,-0.6740981157153845,2.5202269176602363
1667825358800637200,10.83663720703125,1.4726614000111817,-0.9004843203738331,2.66796540980041
1667825358810645000,10.84664501953125,1.4999287616431711,-1.1341206422910093,2.8189865768730638
1667825358820653300,10.8566533203125,1.5180787508398295,-1.369024207665026,2.922009728974104
1667825358830660000,10.86666015625,1.4456062198251485,-1.5598945700451732,2.884539537757635
1667825358840668200,10.876668212890625,1.2808335907757282,-1.636346818345785,2.8402070595562456
1667825358850675200,10.88667529296875,1.1327695199429988,-1.7072206819921731,2.8848224463522434
1667825358860683300,10.896683349609376,0.9391267702400684,-1.8076351128995418,2.8663842878639696
1667825358870690000,10.90668994140625,0.6863304053008557,-1.7608599177211521,2.667922739702463
1667825358880698000,10.916697998046875,0.35197803918123244,-1.5110998517379164,2.4858657983750105
1667825358890705200,10.926705078125,0.026686346873641013,-1.1825102869287132,2.3966414545238015
1667825358900713200,10.936713134765625,-0.38452538704276085,-0.9529492516264318,2.266540325883031
1667825358910720000,10.946719970703125,-0.8543108904808759,-0.8227367715656757,2.04070854023695
1667825358920728300,10.956728271484375,-1.3778133710592984,-0.5605515237733721,1.6445499985456467
1667825358930736000,10.966736083984374,-2.103169380325079,0.018064064478874205,1.0918681852340697
1667825358940743200,10.9767431640625,-2.840038717252016,0.8153054525211453,0.5315606993496418
1667825358950751000,10.9867509765625,-3.5176340274333953,1.5726853702962398,-0.03564297578930854
1667825358960758300,10.99675830078125,-4.1122494411110875,2.128131972146034,-0.4752887770295143
1667825358970766000,11.00676611328125,-4.539839478376508,2.5034224978536366,-0.8153519220113754
1667825358980773000,11.016773193359375,-4.697741637134552,2.8356770149111745,-1.0455787277460098
1667825358990781200,11.02678125,-4.643534246128797,3.1443624403327703,-1.122366199350357
1667825359000788200,11.036788330078124,-4.335848353138566,3.1715131898477673,-0.975153776910901
1667825359010796000,11.046796142578126,-3.930260888844728,2.9808734213531016,-0.7045347550332546
1667825359020803300,11.05680322265625,-3.5807840188294646,2.8366446908995506,-0.39110476543307304
1667825359030811100,11.06681103515625,-3.247029618602991,2.771627152065933,-0.3882517140895128
1667825359040818200,11.076818115234374,-2.9341403117507694,2.923762417860329,-0.6353747095674276
1667825359050826000,11.086825927734376,-2.7246868294537068,3.163868520313501,-0.9081044399887322
1667825359060833300,11.096833251953125,-2.6315748305141926,3.296168620303273,-1.1927408813029527
1667825359070841000,11.106841064453125,-2.708203312164545,3.1848718531146645,-1.520953429493308
1667825359080849200,11.11684912109375,-2.92863762268126,2.9608579305455085,-1.973127872917056
1667825359090856200,11.126856201171876,-2.9413918903142213,2.787975352537632,-2.608330148527026
1667825359100864300,11.1368642578125,-2.659322669139504,2.762043915684521,-3.15721256955564
1667825359110871000,11.14687109375,-2.375543136915564,2.661615163990855,-3.5368449238598343
1667825359120879000,11.156879150390624,-2.0784552103072405,2.259766301703453,-3.7220863404422997
1667825359130886100,11.16688623046875,-1.7745780619502067,1.590031349633634,-3.831367383894324
1667825359140894200,11.176894287109375,-1.46085931853652,0.7954840229809284,-3.8153883089959617
1667825359150901000,11.18690087890625,-1.0671195284247397,-0.010504442879557608,-3.66496043164134
1667825359160909000,11.196908935546874,-0.6800228295892476,-0.7393503400877117,-3.3963632709801197
1667825359170916000,11.206916015625,-0.27759002993404863,-1.4202183883294461,-3.193143130114674
1667825359180924200,11.216924072265625,0.16114450168013572,-2.0494652626663443,-3.0852304524064063
1667825359190932000,11.226931884765625,0.5624807382702827,-2.555397307501733,-3.0478719048708673
1667825359200939300,11.236939208984374,0.871940655195713,-2.8687665068253874,-3.0468799712240693
1667825359210947000,11.246947021484376,1.2158435244709254,-3.0066309629440306,-2.993786386679113
1667825359220954000,11.2569541015625,1.5027823975086212,-2.9974609835386277,-2.895180758759379
1667825359230962000,11.2669619140625,1.6331430538684129,-2.871673041921854,-2.8073291645660996
1667825359240969200,11.27696923828125,1.6431839708894491,-2.795377445487678,-2.6870085484445094
1667825359250977000,11.28697705078125,1.5711971775650977,-2.7719997847706077,-2.469144672937691
1667825359260984000,11.296984130859375,1.4469324999928475,-2.7796342251718045,-2.3436457773953676
1667825359270992100,11.3069921875,1.340930039820075,-2.741100496377051,-2.334513499651849
1667825359280999200,11.316999267578124,1.2481699230581522,-2.6357056467086073,-2.2980215058177706
1667825359291007000,11.327007080078126,0.9848176773130893,-2.508378658956289,-2.344967089127004
1667825359301014300,11.33701416015625,0.7131009233266115,-2.3471979169189927,-2.4667569010183215
1667825359311022000,11.34702197265625,0.47596214624643324,-2.0215125491186976,-2.605299694789946
1667825359321030100,11.357030029296874,0.15096154583990573,-1.5521085923440754,-2.811709279346466
1667825359331037000,11.367036865234375,-0.15884616160988807,-1.0431785347364841,-3.0679861798778174
1667825359341045200,11.377045166015625,-0.4282452863037586,-0.542174886213988,-3.3123487707316874
1667825359351052000,11.387052001953125,-0.8243985672980546,0.0006647475190460681,-3.4301994896084067
1667825359361060000,11.39706005859375,-1.227294892811775,0.4879537589438259,-3.4764088675975797
1667825359371067100,11.407067138671875,-1.3086100709736346,0.8042762551151216,-3.428371981920302
1667825359381075200,11.4170751953125,-1.1085399185717104,0.9152331228248775,-3.3000358171254396
1667825359391082000,11.42708203125,-0.8742822498857975,1.1470203097440301,-3.2570097453474998
1667825359401090000,11.437090087890626,-0.7713836009472608,1.4504538059867917,-3.4362022371545433
1667825359411097000,11.44709716796875,-0.9075228407084941,0.9610446606028824,-3.6329853307098148
1667825359421105200,11.457105224609375,-1.3965905522435902,0.4486409355353564,-3.5338273296043274
1667825359431112000,11.46711181640625,-1.505669935643673,0.5788520638892427,-3.0653748283356426
1667825359441120300,11.477120361328126,-1.3401333364844321,1.334791244804114,-2.7638626555442807
1667825359451128300,11.48712841796875,-1.2272545608013867,2.3111431454584,-2.5677687132969496
1667825359461135000,11.497135009765625,-0.8526689684927463,2.9084733710527417,-2.5962328834980726
1667825359471143200,11.50714306640625,-0.13580956941545008,2.6953786096438765,-2.760128437452018
1667825359481150200,11.517150146484376,0.2416203064084053,2.1954243240438402,-2.614013454860449
1667825359491158300,11.527158203125,-0.17416648033857343,2.1341170379050074,-2.2483315922364593
1667825359501165000,11.5371650390625,-0.08971534223854541,2.47495569730401,-2.0526132053032518
1667825359511173400,11.54717333984375,1.14358434394598,2.760873995122313,-2.115903481952846
1667825359521180200,11.55718017578125,2.482115505930781,2.9038042101979253,-2.1577418052509425
1667825359531188200,11.567188232421875,2.866840214937925,3.1571576244980095,-2.0905583205550906
1667825359541195300,11.5771953125,3.458627711713314,3.4616192947447297,-1.3809646746970712
1667825359551203300,11.587203369140624,2.6808628852963445,2.8704794482231137,-0.4534607569072395
1667825359561210000,11.597210205078126,1.2158686589121819,1.5750792796954511,-0.023178174355905502
1667825359571218200,11.60721826171875,0.27906828579306603,0.8579879715584218,-0.45689931652117516
1667825359581226000,11.61722607421875,-0.02435410453379154,1.0091130373969674,-1.059518259640783
1667825359591233300,11.6272333984375,0.6040507660210133,0.8744494231462479,-1.1460219463564454
1667825359601241000,11.637240966796876,1.1315279954493045,0.8596776782110332,-0.72022799872756
1667825359611248000,11.647248046875,0.6710539257138967,1.7081854353711008,-0.6715599755398929
1667825359621256400,11.65725634765625,0.7125678393632173,2.524763392046094,-1.1354938303403557
1667825359631263200,11.66726318359375,1.437540986791253,2.8338015764281153,-1.469727100124955
1667825359641271300,11.677271240234376,1.5256336962640284,2.6226065111607313,-1.4673182854175566
1667825359651278300,11.6872783203125,0.5909820256114006,2.147084217636287,-1.4517990831159053
1667825359661286400,11.697286376953125,-0.08359072187840938,2.068231922456622,-1.522244053825736
1667825359671293200,11.707293212890624,-0.2468792498499155,2.3532395351707933,-1.35880165046677
1667825359681301200,11.71730126953125,-0.06342354764044285,2.429776831406355,-1.1471962508328257
1667825359691309300,11.727309326171875,0.10816460664272308,2.24791950430423,-1.1960342237599193
1667825359701316400,11.73731640625,0.16110709227919578,2.0823452034831047,-1.4653759191781282
1667825359711324200,11.74732421875,0.24356442621350288,1.992859578347206,-1.4669374694064259
1667825359721331500,11.75733154296875,0.6816495540082455,1.9793471858233211,-1.2732501499094069
1667825359731339300,11.76733935546875,1.4303490294605492,1.871819123518467,-1.0822042117666453
1667825359741346300,11.77734619140625,2.175682243350148,1.7007433026716112,-1.0842959233488887
1667825359751354000,11.78735400390625,3.5542502321690317,1.1593059369519352,-1.810408084744215
1667825359761361400,11.797361328125,3.0319618035554883,0.7571899481609463,-2.143731838468462
1667825359771369200,11.807369140625,0.268210207170248,0.7225254620149731,-1.6195830228105186
1667825359781376300,11.817376220703125,-0.6240040052473544,0.6319786373883486,-1.215648732551187
1667825359791384300,11.82738427734375,0.7924141140162945,0.7368795660600066,-1.0669536703385412
1667825359801392400,11.837392333984376,1.8297768020808696,1.1725307447060942,-1.0503758988946676
1667825359811399200,11.847399169921875,1.6026503004491328,1.7206515337124466,-1.0912345635056495
1667825359821407200,11.8574072265625,0.5797375780194998,1.98588652446419,-1.217468203063309
1667825359831414300,11.867414306640624,-0.0878027866154909,1.7968480536863207,-1.366457133655995
1667825359841422300,11.87742236328125,-0.16759586977660654,1.3337918585032225,-1.3903034347981214
1667825359851429000,11.88742919921875,-0.07846446490585804,0.9883975816264748,-1.2407974945940077
1667825359861437400,11.8974375,-0.12260112827420235,0.9626312722072005,-0.898321004860103
1667825359871444200,11.9074443359375,-0.2510837158024311,1.0816764615654946,-0.5863827151224017
1667825359881452300,11.917452392578125,-0.24667934336364267,1.1579030844166873,-0.4394530551470816
1667825359891459300,11.927459228515625,-0.25884908910691734,1.0872992698833346,-0.40926629893705246
1667825359901467400,11.93746728515625,-0.30566636986136436,0.9560209141567348,-0.4352741620272398
1667825359911474200,11.94747412109375,-0.367812737172842,0.8533543204084039,-0.3857571207948029
1667825359921482200,11.957482177734375,-0.26862580223381516,0.8196630632087588,-0.3362630220465362
1667825359931490300,11.967490234375,-0.16337036103606223,0.8434539809018373,-0.2887693033352494
1667825359941497300,11.977497314453124,-0.02503331896960735,0.9161696730226278,-0.11916413956284522
1667825359951505400,11.98750537109375,0.1890168434679508,0.9220946791574358,0.1057844335079193
1667825359961512400,11.997512451171875,0.41497196323275565,0.760321816445887,0.3169758455134928
1667825359971520500,12.0075205078125,0.2462345222055912,0.5029246797129512,0.4547062999889254
1667825359981527300,12.01752734375,-0.004914075526595115,0.24404928712099788,0.4774566225878894
1667825359991535400,12.027535400390626,-0.10548632734417915,0.0722574269592762,0.5673354848250747
1667825360001542400,12.03754248046875,-0.33714287362098694,-0.03946516442596912,0.6959845149613917
1667825360011550500,12.047550537109375,-0.7325491356402635,-0.0896267871722579,0.6998316919088363
1667825360021557200,12.05755712890625,-1.0516893195807933,-0.11577391260266304,0.676807813065499
1667825360031565300,12.0675654296875,-1.1462199531465769,-0.16417992385327815,0.4990601132392883
1667825360041572400,12.077572265625,-0.9731810155332088,-0.11904781970679759,0.1042883497312665
1667825360051580400,12.087580322265625,-0.759003427323699,0.19167378771752117,-0.21019597122743724
1667825360061588200,12.097588134765624,-0.5994125848263502,0.5269651882529258,-0.3907243878133595
1667825360071595500,12.107595458984376,-0.39680268481373787,0.7787263649255037,-0.6174195122905075
1667825360081603300,12.117603271484375,-0.15977029071748255,1.0049600093707443,-0.7742905744351446
1667825360091610400,12.1276103515625,0.04656418277621269,1.0753834989011286,-0.8957296731926501
1667825360101618200,12.1376181640625,0.12739186968207358,1.0552046342253685,-0.9910799525782465
1667825360111625200,12.147625244140626,0.07141571543812751,1.0348261553242801,-1.0577378059647977
1667825360121633300,12.15763330078125,-0.10969254686236381,0.9108701053097844,-0.9897843598097562
1667825360131640300,12.167640380859375,-0.14049918853640556,0.7274561964154242,-0.9383910033114254
1667825360141648400,12.1776484375,0.03491349247097969,0.628794162133336,-0.9815129366792738
1667825360151655200,12.1876552734375,0.2673117970257997,0.6183376500487328,-1.104333406792581
1667825360161663200,12.197663330078125,0.4079366577684879,0.5852805990993977,-1.1569131965965032
1667825360171670300,12.207670166015625,1.2902958311259747,0.6178212249591947,-0.8788467813223599
1667825360181678300,12.21767822265625,1.0546166052043437,0.5645499457597732,-0.3795196511773392
1667825360191686400,12.227686279296876,0.4703688562840223,0.21854162863790988,-0.1418982416793704
1667825360201693200,12.237693115234375,0.5076870718091726,0.043669045856595035,-0.10254676676094532
1667825360211701500,12.247701416015625,0.5647223797172307,0.10276859281808137,-0.06251900001615286
1667825360221708300,12.257708251953124,0.696331574833393,0.274827287222445,-0.1527854002662003
1667825360231716400,12.26771630859375,0.6658417440235614,0.46052521540075536,-0.2568516316793859
1667825360241723400,12.277723388671875,0.7151426582872867,0.6571753302261233,-0.22155250089168546
