time,seconds_elapsed,z,y,x
1667825347974991400,0.010991455078125,-1.773584008216858,-0.44371992349624634,0.4625159800052643
1667825347984998400,0.020998291015625,-1.7412093877792358,-0.4255236089229584,0.44958925247192383
1667825347995006200,0.031006103515625,-1.7170568704605103,-0.4747731685638428,0.41373059153556824
1667825348005014500,0.0410146484375,-1.7012795209884644,-0.577196478843689,0.3440346121788025
1667825348015021300,0.051021240234375,-1.6945598125457764,-0.6953654885292053,0.2528724670410156
1667825348025029400,0.061029296875,-1.6888360977172852,-0.8343782424926758,0.16206000745296478
1667825348035036400,0.071036376953125,-1.6897644996643066,-0.9792893528938293,0.09148065000772476
1667825348045044500,0.08104443359375,-1.7210489511489868,-1.022896409034729,0.061647918075323105
1667825348055051300,0.09105126953125,-1.745157241821289,-0.9855847954750061,0.05462409555912018
1667825348065059300,0.101059326171875,-1.7525293827056885,-0.9565211534500122,0.0751461461186409
1667825348075066400,0.11106640625,-1.765354037284851,-0.9818246364593506,0.11898630857467651
1667825348085074400,0.121074462890625,-1.787747859954834,-1.0927925109863281,0.11555828899145126
1667825348095081200,0.131081298828125,-1.809057354927063,-1.2447465658187866,0.06265272945165634
1667825348105089500,0.141089599609375,-1.8353387117385864,-1.3536791801452637,-0.02285578101873398
1667825348115096300,0.151096435546875,-1.8356636762619019,-1.0932276248931885,-0.1543637365102768
1667825348125104400,0.1611044921875,-1.7915619611740112,-0.7738648056983948,-0.260161817073822
1667825348135111400,0.171111328125,-1.708865761756897,-0.500531792640686,-0.36602964997291565
1667825348145119500,0.181119384765625,-1.6147185564041138,-0.4055480360984802,-0.49068716168403625
1667825348155126300,0.191126220703125,-1.5185736417770386,-0.4743603765964508,-0.5970284938812256
1667825348165134300,0.20113427734375,-1.466546654701233,-0.5655204057693481,-0.6076822280883789
1667825348175141400,0.211141357421875,-1.478365421295166,-0.5698983669281006,-0.49510136246681213
1667825348185149400,0.2211494140625,-1.5141184329986572,-0.5026940107345581,-0.35651737451553345
1667825348195156200,0.23115625,-1.526691198348999,-0.49751392006874084,-0.26448971033096313
1667825348205164500,0.24116455078125,-1.4872896671295166,-0.5246767997741699,-0.23218423128128052
1667825348215171300,0.25117138671875,-1.4212619066238403,-0.5838195085525513,-0.2638827860355377
1667825348225179400,0.261179443359375,-1.3533926010131836,-0.7599894404411316,-0.3609786927700043
1667825348235187200,0.271187255859375,-1.3191859722137451,-1.0170172452926636,-0.5129740834236145
1667825348245194500,0.281194580078125,-1.3226946592330933,-1.269822359085083,-0.6852723360061646
1667825348255202300,0.291202392578125,-1.330049753189087,-1.4795095920562744,-0.8567413091659546
1667825348265209300,0.301209228515625,-1.3437471389770508,-1.5354816913604736,-1.1018309593200684
1667825348275217400,0.311217529296875,-1.3315541744232178,-1.5320366621017456,-1.3616117238998413
1667825348285224400,0.321224365234375,-1.2805250883102417,-1.5602341890335083,-1.5933351516723633
1667825348295232300,0.331232177734375,-1.2112722396850586,-1.6271858215332031,-1.8722264766693115
1667825348305239600,0.341239501953125,-1.1542896032333374,-1.7591110467910767,-2.1934127807617188
1667825348315247400,0.351247314453125,-1.0816543102264404,-1.894452691078186,-2.511478900909424
1667825348325254400,0.36125439453125,-0.9690348505973816,-2.0111758708953857,-2.816220998764038
1667825348335262200,0.37126220703125,-0.8157925605773926,-2.14797043800354,-3.1130177974700928
1667825348345269500,0.38126953125,-0.6133033633232117,-2.338061571121216,-3.400017023086548
1667825348355277300,0.39127734375,-0.35693949460983276,-2.588442325592041,-3.6676387786865234
1667825348365284400,0.401284423828125,-0.0507635772228241,-2.9412989616394043,-3.9322056770324707
1667825348375292400,0.41129248046875,0.2838756740093231,-3.336425304412842,-4.18103551864624
1667825348385299500,0.421299560546875,0.6023745536804199,-3.7262990474700928,-4.421042442321777
1667825348395307300,0.431307373046875,0.8775318264961243,-4.097691535949707,-4.630274772644043
1667825348405314600,0.441314453125,1.0516234636306763,-4.375857830047607,-4.797156810760498
1667825348415322400,0.451322265625,1.0802390575408936,-4.406787872314453,-4.899778366088867
1667825348425329400,0.461329345703125,0.9274802207946777,-3.9328982830047607,-4.942373275756836
1667825348435337200,0.471337158203125,0.5701087713241577,-2.8253228664398193,-4.984320640563965
1667825348445344500,0.481344482421875,0.11258939653635025,-0.9292882084846497,-4.9379448890686035
1667825348455352300,0.491352294921875,-0.4352808892726898,0.9578170776367188,-4.891673564910889
1667825348465359400,0.501359375,-0.9892394542694092,2.181924819946289,-4.863594055175781
1667825348475367400,0.511367431640625,-1.38346266746521,2.772439956665039,-4.774965763092041
1667825348485375500,0.52137548828125,-1.5268720388412476,2.978076934814453,-4.575305461883545
1667825348495382300,0.53138232421875,-1.4448503255844116,2.858814239501953,-4.273749828338623
1667825348505390300,0.541390380859375,-1.238811731338501,2.475597381591797,-3.8625218868255615
1667825348515397400,0.5513974609375,-1.016391634941101,1.9461734294891357,-3.319819688796997
1667825348525405400,0.561405517578125,-0.8219124674797058,1.3694133758544922,-2.6510677337646484
1667825348535412200,0.571412109375,-0.6773499846458435,0.8456311225891113,-1.8643152713775635
1667825348545420300,0.581420166015625,-0.5850027203559875,0.4425811469554901,-1.0137830972671509
1667825348555427300,0.59142724609375,-0.519951581954956,0.1455763727426529,-0.16922684013843536
1667825348565435400,0.601435302734375,-0.44597774744033813,-0.08541316539049149,0.564423143863678
1667825348575442400,0.6114423828125,-0.35248854756355286,-0.2874048948287964,1.1177444458007812
1667825348585450500,0.621450439453125,-0.2418626993894577,-0.45658379793167114,1.4805289506912231
1667825348595457800,0.631457763671875,-0.1254175752401352,-0.5860387086868286,1.684206247329712
1667825348605465600,0.641465576171875,-0.02263207547366619,-0.6880391240119934,1.7668873071670532
1667825348615473000,0.651472900390625,0.062191735953092575,-0.7792832851409912,1.742426872253418
1667825348625480700,0.661480712890625,0.15893904864788055,-0.870227575302124,1.6127467155456543
1667825348635487700,0.67148779296875,0.27467283606529236,-0.9413794875144958,1.3788505792617798
1667825348645495600,0.68149560546875,0.4279380142688751,-0.9689978361129761,1.0658771991729736
1667825348655502800,0.6915029296875,0.5935956835746765,-0.9448184370994568,0.7046433687210083
1667825348665510700,0.7015107421875,0.7358657717704773,-0.8482317328453064,0.326178640127182
1667825348675517700,0.711517578125,0.827864408493042,-0.6738913655281067,-0.03377687186002731
1667825348685525800,0.72152587890625,0.8385175466537476,-0.4255225360393524,-0.36043834686279297
1667825348695533800,0.731533935546875,0.7726964950561523,-0.12841416895389557,-0.6232489347457886
1667825348705540600,0.74154052734375,0.6532331705093384,0.17884404957294464,-0.8110582232475281
1667825348715548700,0.751548583984375,0.5079415440559387,0.46948519349098206,-0.8976194858551025
1667825348725555700,0.7615556640625,0.37688255310058594,0.6695764660835266,-0.8897780776023865
1667825348735563800,0.771563720703125,0.26701945066452026,0.7604911923408508,-0.7739585638046265
1667825348745570600,0.781570556640625,0.16790618002414703,0.7560890316963196,-0.58219975233078
1667825348755579000,0.791578857421875,0.0957651436328888,0.6707245707511902,-0.3582204580307007
1667825348765585700,0.801585693359375,0.06302610039710999,0.4816470742225647,-0.13508698344230652
1667825348775593700,0.81159375,0.05610108748078346,0.22115235030651093,0.06903233379125595
1667825348785600800,0.821600830078125,0.06462879478931427,-0.04387291520833969,0.2358037382364273
1667825348795608800,0.83160888671875,0.06732684373855591,-0.24570083618164062,0.3598090410232544
1667825348805615600,0.84161572265625,0.059420984238386154,-0.3494133949279785,0.4242689907550812
1667825348815623700,0.851623779296875,0.0469784289598465,-0.36023807525634766,0.4270123243331909
1667825348825630700,0.861630615234375,0.03412334993481636,-0.29917818307876587,0.37178340554237366
1667825348835638800,0.871638671875,0.01768658496439457,-0.17977802455425262,0.2809901237487793
1667825348845645600,0.8816455078125,0.0013699301052838564,-0.009073389694094658,0.16636580228805542
1667825348855654000,0.89165380859375,-0.02299399860203266,0.1725163757801056,0.04736138880252838
1667825348865660700,0.90166064453125,-0.04777710884809494,0.3310975134372711,-0.05764518678188324
1667825348875668700,0.911668701171875,-0.08689787983894348,0.4449510872364044,-0.13799408078193665
1667825348885675800,0.92167578125,-0.12837502360343933,0.512332558631897,-0.1759909987449646
1667825348895683800,0.931683837890625,-0.16064587235450745,0.5211793184280396,-0.19582675397396088
1667825348905690600,0.941690673828125,-0.16587792336940765,0.4733680784702301,-0.2030401974916458
1667825348915698700,0.95169873046875,-0.15707510709762573,0.38101446628570557,-0.203511044383049
1667825348925705700,0.961705810546875,-0.14559315145015717,0.27119821310043335,-0.2069513201713562
1667825348935713800,0.9717138671875,-0.13044482469558716,0.17686185240745544,-0.2110680341720581
1667825348945721600,0.9817216796875,-0.12220767140388489,0.11349460482597351,-0.21593283116817474
1667825348955729000,0.99172900390625,-0.1270277202129364,0.070328488945961,-0.2219182848930359
1667825348965736700,1.00173681640625,-0.13990969955921173,0.025730930268764496,-0.2348194271326065
1667825348975743700,1.01174365234375,-0.1563033163547516,-0.027106719091534615,-0.2701156437397003
1667825348985751600,1.02175146484375,-0.17284154891967773,-0.08066155761480331,-0.33352071046829224
1667825348995758800,1.0317587890625,-0.18859414756298065,-0.13776612281799316,-0.43352586030960083
1667825349005766700,1.0417666015625,-0.2033965289592743,-0.18587452173233032,-0.5555122494697571
1667825349015773700,1.051773681640625,-0.21273863315582275,-0.22048337757587433,-0.6843306422233582
1667825349025781500,1.061781494140625,-0.23028673231601715,-0.21087868511676788,-0.7951783537864685
1667825349035788800,1.071788818359375,-0.2620247006416321,-0.1523197591304779,-0.8752833008766174
1667825349045796600,1.081796630859375,-0.29790040850639343,-0.043901145458221436,-0.9157353639602661
1667825349055803600,1.0918037109375,-0.3310279846191406,0.09755691885948181,-0.9056345820426941
1667825349065811700,1.101811767578125,-0.3542289137840271,0.241319939494133,-0.8449232578277588
1667825349075818800,1.11181884765625,-0.36627280712127686,0.3572915494441986,-0.7305266261100769
1667825349085826600,1.12182666015625,-0.36136218905448914,0.42443251609802246,-0.5699257850646973
1667825349095833900,1.131833740234375,-0.3488434851169586,0.4452240765094757,-0.38099074363708496
1667825349105841700,1.141841552734375,-0.33370205760002136,0.4324457049369812,-0.16929981112480164
1667825349115848700,1.1518486328125,-0.30139845609664917,0.39503148198127747,0.04241616651415825
1667825349125856500,1.1618564453125,-0.2656916081905365,0.3426186144351959,0.2272920161485672
1667825349135863800,1.17186376953125,-0.24289600551128387,0.3023318946361542,0.3741869032382965
1667825349145871600,1.18187158203125,-0.25291961431503296,0.2769639492034912,0.48024782538414
1667825349155878700,1.191878662109375,-0.2861233651638031,0.2812125086784363,0.5497832298278809
1667825349165886700,1.20188671875,-0.3344016969203949,0.317322313785553,0.5932856798171997
1667825349175894800,1.211894775390625,-0.3990352749824524,0.3683844208717346,0.6206206679344177
1667825349185901600,1.221901611328125,-0.47671061754226685,0.3896055519580841,0.6320338845252991
1667825349195909600,1.23190966796875,-0.557019829750061,0.3858339786529541,0.6178531050682068
1667825349205916700,1.241916748046875,-0.6466645002365112,0.372878760099411,0.5760052800178528
1667825349215924700,1.2519248046875,-0.7391249537467957,0.3495635986328125,0.5138710141181946
1667825349225931500,1.261931640625,-0.8330705761909485,0.30755674839019775,0.4207637310028076
1667825349235939800,1.27193994140625,-0.9265661835670471,0.2571002244949341,0.3028554618358612
1667825349245946600,1.281946533203125,-1.0271599292755127,0.19642676413059235,0.16480626165866852
1667825349255954700,1.29195458984375,-1.1248880624771118,0.15465828776359558,0.010732272639870644
1667825349265961700,1.301961669921875,-1.2027897834777832,0.14760063588619232,-0.15122094750404358
1667825349275969800,1.3119697265625,-1.2682899236679077,0.17255792021751404,-0.3063777685165405
1667825349285976600,1.3219765625,-1.3198826313018799,0.21302172541618347,-0.4368090033531189
1667825349295984600,1.331984619140625,-1.3607280254364014,0.25053662061691284,-0.5437354445457458
1667825349305991700,1.34199169921875,-1.4031391143798828,0.2786060571670532,-0.6237373352050781
1667825349315999700,1.351999755859375,-1.4408957958221436,0.29446038603782654,-0.6786147356033325
1667825349326006500,1.362006591796875,-1.467684030532837,0.2841382324695587,-0.7090258598327637
1667825349336014800,1.372014892578125,-1.4850404262542725,0.23271553218364716,-0.7304592728614807
1667825349346021600,1.382021728515625,-1.492770791053772,0.15837286412715912,-0.7605695128440857
1667825349356029700,1.39202978515625,-1.4902855157852173,0.08625446259975433,-0.7915351390838623
1667825349366036700,1.40203662109375,-1.4670965671539307,0.016234897077083588,-0.8116412162780762
1667825349376044800,1.412044921875,-1.417165756225586,-0.05151166021823883,-0.807257354259491
1667825349386051600,1.422051513671875,-1.3491393327713013,-0.11150522530078888,-0.7743154168128967
1667825349396059600,1.4320595703125,-1.256140947341919,-0.17637716233730316,-0.7135021090507507
1667825349406067700,1.442067626953125,-1.1314938068389893,-0.24433304369449615,-0.641897439956665
1667825349416074800,1.45207470703125,-0.9803948402404785,-0.314261257648468,-0.5742846131324768
1667825349426082600,1.46208251953125,-0.8131805062294006,-0.3834744095802307,-0.5199488997459412
1667825349436089900,1.47208984375,-0.6280620694160461,-0.4269164502620697,-0.49224725365638733
1667825349446097700,1.48209765625,-0.4314001500606537,-0.45717981457710266,-0.4979240298271179
1667825349456104700,1.492104736328125,-0.22469596564769745,-0.47757428884506226,-0.5241881012916565
1667825349466112500,1.502112548828125,-0.012063054367899895,-0.4636012017726898,-0.5680115222930908
1667825349476119800,1.512119873046875,0.1988063007593155,-0.412923127412796,-0.6104474067687988
1667825349486127600,1.522127685546875,0.4003380835056305,-0.34577417373657227,-0.634279727935791
1667825349496134700,1.532134765625,0.5848528146743774,-0.22151242196559906,-0.620903730392456
1667825349506142700,1.542142822265625,0.7278386950492859,-0.05047649145126343,-0.5574318170547485
1667825349516149800,1.552149658203125,0.8433019518852234,0.1407342106103897,-0.45492756366729736
1667825349526157600,1.562157470703125,0.9203740954399109,0.3245008587837219,-0.30626964569091797
1667825349536164900,1.572164794921875,0.9656347632408142,0.44185197353363037,-0.1216481402516365
1667825349546172700,1.582172607421875,0.9829921722412109,0.4399464726448059,0.08709069341421127
1667825349556179700,1.5921796875,0.9942837357521057,0.33956554532051086,0.2921445071697235
1667825349566187500,1.6021875,1.0222362279891968,0.13731098175048828,0.47368526458740234
1667825349576194800,1.61219482421875,1.0740469694137573,-0.13132713735103607,0.5994954109191895
1667825349586202600,1.62220263671875,1.1336584091186523,-0.41022640466690063,0.6678539514541626
1667825349596209400,1.63220947265625,1.195942759513855,-0.6504491567611694,0.6765843033790588
1667825349606217500,1.642217529296875,1.2346558570861816,-0.8142801523208618,0.6304312348365784
1667825349616224300,1.652224365234375,1.2523794174194336,-0.8616164922714233,0.5628721117973328
1667825349626232300,1.662232421875,1.2562223672866821,-0.7815741300582886,0.5015369057655334
1667825349636240100,1.672240234375,1.2740517854690552,-0.6035205125808716,0.48002225160598755
1667825349646247400,1.682247314453125,1.308679461479187,-0.3840656578540802,0.5211585164070129
1667825349656255200,1.692255126953125,1.3572347164154053,-0.1969096064567566,0.6198680400848389
1667825349666262300,1.70226220703125,1.420527458190918,-0.09081432223320007,0.7752536535263062
1667825349676270300,1.712270263671875,1.4944472312927246,-0.06862326711416245,0.9597872495651245
1667825349686277400,1.72227734375,1.5463162660598755,-0.12498641014099121,1.133752465248108
1667825349696285200,1.73228515625,1.5593961477279663,-0.2396959513425827,1.267935037612915
1667825349706292200,1.742292236328125,1.5223180055618286,-0.3809095323085785,1.3276283740997314
1667825349716300300,1.75230029296875,1.4226150512695312,-0.5287003517150879,1.3169254064559937
1667825349726307000,1.76230712890625,1.2403733730316162,-0.6513146758079529,1.237844705581665
1667825349736315100,1.772315185546875,0.9783420562744141,-0.7169559597969055,1.0945805311203003
1667825349746322200,1.782322265625,0.6523277163505554,-0.7165290713310242,0.9089110493659973
1667825349756330200,1.792330322265625,0.29856619238853455,-0.6535935401916504,0.6890929341316223
1667825349766337300,1.802337158203125,-0.03412734344601631,-0.5246927738189697,0.45279356837272644
1667825349776345300,1.812345458984375,-0.3114162087440491,-0.36656254529953003,0.20872178673744202
1667825349786352000,1.82235205078125,-0.505092978477478,-0.2100325971841812,-0.012010856531560421
1667825349796360200,1.832360107421875,-0.6174895763397217,-0.04290752112865448,-0.17710047960281372
1667825349806367200,1.8423671875,-0.6606423854827881,0.09702374786138535,-0.2612595558166504
1667825349816375300,1.852375244140625,-0.6750122904777527,0.21353624761104584,-0.27138277888298035
1667825349826383400,1.86238330078125,-0.6732212901115417,0.3136921525001526,-0.21536797285079956
1667825349836390100,1.87239013671875,-0.6506725549697876,0.3727586567401886,-0.12016928195953369
1667825349846398500,1.8823984375,-0.5953376889228821,0.38989317417144775,-0.00848563015460968
1667825349856405200,1.8924052734375,-0.5110810995101929,0.40189337730407715,0.10412880033254623
1667825349866413300,1.902413330078125,-0.3899807929992676,0.39406394958496094,0.21154819428920746
1667825349876420400,1.91242041015625,-0.23697100579738617,0.36386555433273315,0.31784453988075256
1667825349886428400,1.922428466796875,-0.06111768260598183,0.3275352418422699,0.41860923171043396
1667825349896435200,1.932435302734375,0.12080498039722443,0.28877881169319153,0.49261927604675293
1667825349906443300,1.942443359375,0.28628796339035034,0.28173714876174927,0.5346937775611877
1667825349916450300,1.9524501953125,0.39942702651023865,0.30934879183769226,0.5439109802246094
1667825349926458400,1.962458251953125,0.46708887815475464,0.3662157952785492,0.5427346229553223
1667825349936465200,1.972465087890625,0.5038319826126099,0.412108451128006,0.5224693417549133
1667825349946473500,1.982473388671875,0.5070208311080933,0.43733659386634827,0.5091990828514099
1667825349956480300,1.992480224609375,0.4555014669895172,0.4594762325286865,0.5159826874732971
1667825349966488300,2.00248828125,0.373285710811615,0.4577542543411255,0.5478526949882507
1667825349976495400,2.012495361328125,0.2953874468803406,0.4039812982082367,0.5807925462722778
1667825349986503400,2.02250341796875,0.23143482208251953,0.2845422625541687,0.5899924635887146
1667825349996510200,2.03251025390625,0.17567995190620422,0.11080560833215714,0.5800465941429138
1667825350006518300,2.042518310546875,0.1335812360048294,-0.12654834985733032,0.5287533402442932
1667825350016526300,2.0525263671875,0.09145641326904297,-0.38318493962287903,0.4124125838279724
1667825350026533400,2.062533447265625,0.056523729115724564,-0.5817550420761108,0.25320643186569214
1667825350036541200,2.072541259765625,0.018602445721626282,-0.6506187915802002,0.05619189888238907
1667825350046548500,2.082548583984375,-0.019291406497359276,-0.5785437822341919,-0.12726767361164093
1667825350056556300,2.092556396484375,-0.05278252065181732,-0.39107775688171387,-0.26318955421447754
1667825350066563300,2.102563232421875,-0.06453371793031693,-0.12383618950843811,-0.326068639755249
1667825350076571100,2.112571044921875,-0.044126447290182114,0.1349647492170334,-0.29183319211006165
1667825350086578400,2.122578369140625,0.0057585532777011395,0.35638368129730225,-0.17661578953266144
1667825350096586200,2.132586181640625,0.07281242311000824,0.5166079998016357,0.01636379398405552
1667825350106593300,2.14259326171875,0.1362350732088089,0.5846810340881348,0.25086525082588196
1667825350116601300,2.152601318359375,0.20541973412036896,0.5541079640388489,0.48277199268341064
1667825350126608400,2.1626083984375,0.29585933685302734,0.3445264995098114,0.6591182351112366
1667825350136616200,2.1726162109375,0.38535913825035095,-0.02467205747961998,0.7411119341850281
1667825350146623500,2.18262353515625,0.4224441945552826,-0.41666245460510254,0.7181424498558044
1667825350156631300,2.19263134765625,0.3874278962612152,-0.7271699905395508,0.5947675108909607
1667825350166638300,2.202638427734375,0.26923760771751404,-0.9032264947891235,0.3802163004875183
1667825350176646100,2.212646240234375,0.07633897662162781,-0.9230180978775024,0.10197164118289948
1667825350186653400,2.2226533203125,-0.16463901102542877,-0.7888320088386536,-0.19989687204360962
1667825350196661200,2.2326611328125,-0.4459788203239441,-0.5007041096687317,-0.47513535618782043
1667825350206669300,2.24266943359375,-0.7159122824668884,-0.10173914581537247,-0.6721661686897278
1667825350216676400,2.25267626953125,-0.9359085559844971,0.272234171628952,-0.7827557921409607
1667825350226684400,2.262684326171875,-1.0704586505889893,0.5426387786865234,-0.817341685295105
1667825350236691200,2.272691162109375,-1.119953989982605,0.6793438792228699,-0.7906720042228699
1667825350246699300,2.28269921875,-1.0955493450164795,0.6701295971870422,-0.7247247099876404
1667825350256706300,2.292706298828125,-1.0153725147247314,0.5646919012069702,-0.6453481316566467
1667825350266714400,2.30271435546875,-0.891670823097229,0.3997948169708252,-0.5554658770561218
1667825350276721200,2.31272119140625,-0.7330601215362549,0.1898660808801651,-0.455175518989563
1667825350286729200,2.322729248046875,-0.5763046145439148,-0.006833937484771013,-0.3604777455329895
1667825350296736300,2.332736328125,-0.43741941452026367,-0.1530422866344452,-0.26555711030960083
1667825350306744300,2.342744384765625,-0.3297092020511627,-0.214120551943779,-0.1949055790901184
1667825350316751400,2.35275146484375,-0.2354082614183426,-0.20992819964885712,-0.161372110247612
1667825350326759400,2.362759521484375,-0.15074902772903442,-0.15154212713241577,-0.1699749231338501
1667825350336766200,2.37276611328125,-0.08056967705488205,-0.08821401745080948,-0.2032007873058319
1667825350346774300,2.382774169921875,-0.03743951767683029,-0.0303800106048584,-0.2604078948497772
1667825350356781300,2.39278125,-0.00743341539055109,0.010632137767970562,-0.3283352553844452
1667825350366789400,2.402789306640625,0.00932292826473713,0.02799168787896633,-0.3941233456134796
1667825350376797200,2.412797119140625,-0.0018793927738443017,0.030491862446069717,-0.4620171785354614
1667825350386804200,2.42280419921875,-0.04795873537659645,0.06144179031252861,-0.521528422832489
1667825350396812300,2.432812255859375,-0.11302695423364639,0.12501651048660278,-0.5697454810142517
1667825350406819300,2.4428193359375,-0.19693782925605774,0.20134110748767853,-0.6174155473709106
1667825350416827100,2.4528271484375,-0.27949368953704834,0.25222453474998474,-0.6483103632926941
1667825350426834400,2.46283447265625,-0.3597959876060486,0.25607118010520935,-0.6725656390190125
1667825350436842200,2.47284228515625,-0.4287255108356476,0.23095571994781494,-0.6713621616363525
1667825350446849300,2.482849365234375,-0.5031707286834717,0.19800709187984467,-0.6484325528144836
1667825350456857000,2.492857177734375,-0.5902094841003418,0.1424221247434616,-0.6091586947441101
1667825350466864400,2.502864501953125,-0.6853695511817932,0.07726975530385971,-0.56740802526474
1667825350476872200,2.5128720703125,-0.7919295430183411,0.001178182428702712,-0.5279003381729126
1667825350486879200,2.522879150390625,-0.9069501757621765,-0.07384226471185684,-0.5125969648361206
1667825350496887300,2.53288720703125,-1.0171304941177368,-0.12793345749378204,-0.5237758755683899
1667825350506894300,2.542894287109375,-1.1117472648620605,-0.1744178682565689,-0.560150146484375
1667825350516902100,2.552902099609375,-1.1732630729675293,-0.2005259096622467,-0.6243528127670288
1667825350526909400,2.562909423828125,-1.1995165348052979,-0.19490957260131836,-0.6996656656265259
1667825350536917200,2.572917236328125,-1.1991958618164062,-0.16388480365276337,-0.7812777161598206
1667825350546925300,2.58292529296875,-1.1760036945343018,-0.09877664595842361,-0.8515457510948181
1667825350556932000,2.59293212890625,-1.1471999883651733,-0.017119064927101135,-0.9049791693687439
1667825350566940400,2.6029404296875,-1.1139153242111206,0.06525596976280212,-0.9279206991195679
1667825350576947200,2.612947265625,-1.0885475873947144,0.1666100174188614,-0.9237160682678223
1667825350586955300,2.622955322265625,-1.0577950477600098,0.2770465016365051,-0.8851162195205688
1667825350596962000,2.632962158203125,-1.0275455713272095,0.3576875627040863,-0.8189630508422852
1667825350606969900,2.642969970703125,-0.9890357255935669,0.403138667345047,-0.735967755317688
1667825350616977000,2.652976806640625,-0.9525458812713623,0.40476346015930176,-0.6556572318077087
1667825350626985000,2.66298486328125,-0.9088564515113831,0.37718909978866577,-0.591158390045166
1667825350636992000,2.672991943359375,-0.8648738265037537,0.3165401220321655,-0.5425338745117188
1667825350646999800,2.682999755859375,-0.8199374675750732,0.21779917180538177,-0.5205398797988892
1667825350657007000,2.693007080078125,-0.7696791291236877,0.0875341072678566,-0.5175986886024475
1667825350667015000,2.703014892578125,-0.6978486180305481,-0.05211193859577179,-0.5312737226486206
1667825350677022000,2.71302197265625,-0.6088960766792297,-0.1607300192117691,-0.5732702016830444
1667825350687029800,2.72302978515625,-0.5074352622032166,-0.22488558292388916,-0.6354424953460693
1667825350697037000,2.733037109375,-0.4066380560398102,-0.24500416219234467,-0.7063438296318054
1667825350707044900,2.743044921875,-0.28735506534576416,-0.21039478480815887,-0.7712836861610413
1667825350717052000,2.753052001953125,-0.16296760737895966,-0.12944214046001434,-0.8020668625831604
1667825350727060000,2.76306005859375,-0.043714456260204315,-0.04062945023179054,-0.7883292436599731
1667825350737068000,2.773068115234375,0.06939078867435455,0.0041369544342160225,-0.7123593688011169
1667825350747074800,2.78307470703125,0.1822022944688797,-0.05170926824212074,-0.574276864528656
1667825350757083000,2.793082763671875,0.28952449560165405,-0.2087116688489914,-0.3954083025455475
1667825350767090000,2.80308984375,0.40192002058029175,-0.46044671535491943,-0.20405858755111694
1667825350777098000,2.813097900390625,0.5220405459403992,-0.7353126406669617,-0.016658073291182518
1667825350787104800,2.823104736328125,0.6483124494552612,-0.9962307810783386,0.15375441312789917
1667825350797112800,2.83311279296875,0.7923886775970459,-1.2149028778076172,0.3104929029941559
1667825350807120000,2.843119873046875,0.9317481517791748,-1.3337877988815308,0.4490092098712921
1667825350817128000,2.8531279296875,1.071159839630127,-1.349981427192688,0.5925493240356445
1667825350827134700,2.863134765625,1.224699854850769,-1.2700668573379517,0.773404061794281
1667825350837143000,2.87314306640625,1.3875406980514526,-1.1328456401824951,0.9880620241165161
1667825350847149800,2.88314990234375,1.5507358312606812,-0.9821280241012573,1.2339788675308228
1667825350857158000,2.893157958984375,1.713702917098999,-0.8595656156539917,1.4736740589141846
1667825350867165000,2.9031650390625,1.859209418296814,-0.8031201362609863,1.6799036264419556
1667825350877173000,2.913173095703125,1.967536211013794,-0.8134678602218628,1.8208386898040771
1667825350887179800,2.9231796875,2.0304574966430664,-0.8733509182929993,1.8856064081192017
1667825350897187800,2.933187744140625,2.032866954803467,-0.9548527002334595,1.8717169761657715
1667825350907196000,2.94319580078125,1.96282160282135,-1.0290478467941284,1.7888388633728027
1667825350917203000,2.953202880859375,1.8288308382034302,-1.0568329095840454,1.6529955863952637
1667825350927210800,2.963210693359375,1.6392488479614258,-1.0116102695465088,1.4796576499938965
1667825350937218000,2.973218017578125,1.4015897512435913,-0.8903778195381165,1.293428659439087
1667825350947225900,2.983225830078125,1.1163520812988281,-0.7092256546020508,1.1104577779769897
1667825350957233000,2.99323291015625,0.7983760237693787,-0.49046239256858826,0.925599217414856
1667825350967240700,3.00324072265625,0.49141979217529297,-0.2508530020713806,0.7497762441635132
1667825350977248000,3.013248046875,0.23194268345832825,-0.058824434876441956,0.5754989981651306
1667825350987255800,3.023255859375,0.04493524879217148,0.06889411062002182,0.4124930202960968
1667825350997262800,3.033262939453125,-0.07946659624576569,0.11085301637649536,0.2673723101615906
1667825351007271000,3.04327099609375,-0.16682706773281097,0.07267926633358002,0.14339764416217804
1667825351017278000,3.05327783203125,-0.218606635928154,-0.017648234963417053,0.054600927978754044
1667825351027285800,3.06328564453125,-0.2549862265586853,-0.09792496263980865,0.0024588967207819223
1667825351037293000,3.07329296875,-0.25942251086235046,-0.13839435577392578,-0.015473498031497002
1667825351047300900,3.08330078125,-0.22745738923549652,-0.1190829798579216,-0.009020659141242504
1667825351057309000,3.093308837890625,-0.16072043776512146,-0.04601090028882027,0.037279196083545685
1667825351067315700,3.103315673828125,-0.06224286928772926,0.038901060819625854,0.11384055018424988
1667825351077324000,3.113323974609375,0.06154219061136246,0.12768685817718506,0.22478677332401276
1667825351087330800,3.123330810546875,0.19532768428325653,0.20697501301765442,0.3398430645465851
1667825351097339000,3.1333388671875,0.34760668873786926,0.22921694815158844,0.4598352313041687
1667825351107346000,3.143345947265625,0.5002889037132263,0.18573737144470215,0.5656370520591736
1667825351117354000,3.15335400390625,0.6397110223770142,0.09481626003980637,0.6523000001907349
1667825351127360800,3.16336083984375,0.7609016299247742,-0.01902402564883232,0.7094660997390747
1667825351137368800,3.173368896484375,0.8606857061386108,-0.11894609779119492,0.760469913482666
1667825351147375900,3.1833759765625,0.9462773203849792,-0.1620946228504181,0.8278851509094238
1667825351157384000,3.193384033203125,1.0180684328079224,-0.14152038097381592,0.9528180360794067
1667825351167390700,3.203390625,1.0688631534576416,-0.09864215552806854,1.161710500717163
1667825351177399000,3.21339892578125,1.1128153800964355,-0.09667541086673737,1.467083215713501
1667825351187405800,3.22340576171875,1.1635569334030151,-0.15979339182376862,1.890067219734192
1667825351197414000,3.233413818359375,1.2174608707427979,-0.3092057704925537,2.394674777984619
1667825351207421700,3.243421630859375,1.2400431632995605,-0.6039245128631592,2.9462006092071533
1667825351217429000,3.253428955078125,1.2045820951461792,-1.0320523977279663,3.5046193599700928
1667825351227436800,3.263436767578125,1.0949586629867554,-1.5703537464141846,4.0472941398620605
1667825351237443800,3.27344384765625,0.9396846890449524,-2.182135581970215,4.53721809387207
1667825351247452000,3.283451904296875,0.8372147679328918,-2.910823106765747,4.917860984802246
1667825351257459000,3.293458984375,0.8548675179481506,-3.7667651176452637,5.074909210205078
1667825351267466800,3.303466796875,0.9844233989715576,-4.624490737915039,4.965499401092529
1667825351277474000,3.31347412109375,1.228360891342163,-5.332788467407227,4.621453762054443
1667825351287481900,3.32348193359375,1.5906411409378052,-5.876616477966309,4.1056694984436035
1667825351297489000,3.333489013671875,2.0518136024475098,-6.170276641845703,3.5361294746398926
1667825351307496700,3.34349658203125,2.5707919597625732,-6.198829174041748,3.050668239593506
1667825351317504000,3.35350390625,3.024077892303467,-6.049224376678467,2.7068490982055664
1667825351327511800,3.36351171875,3.3234732151031494,-5.775112152099609,2.4823250770568848
1667825351337518800,3.373518798828125,3.501716136932373,-5.342853546142578,2.2512733936309814
1667825351347527000,3.38352685546875,3.5921037197113037,-4.679123878479004,1.9216829538345337
1667825351357534000,3.393533935546875,3.583270788192749,-3.872225761413574,1.426862359046936
1667825351367541800,3.403541748046875,3.4560306072235107,-2.9356415271759033,0.8280638456344604
1667825351377549800,3.4135498046875,3.185922384262085,-1.920772910118103,0.2137487679719925
1667825351387556900,3.423556884765625,2.791505813598633,-0.9611827731132507,-0.34560319781303406
1667825351397565000,3.43356494140625,2.34958815574646,-0.16574981808662415,-0.8262640833854675
1667825351407571700,3.44357177734375,1.977031946182251,0.39651086926460266,-1.2688119411468506
1667825351417579800,3.453579833984375,1.6640554666519165,0.7182945013046265,-1.755935549736023
1667825351427586800,3.4635869140625,1.3816165924072266,0.8856587409973145,-2.283961296081543
1667825351437595000,3.473594970703125,1.1144932508468628,0.9854921102523804,-2.814143657684326
1667825351447602000,3.483601806640625,0.8526256680488586,1.1062630414962769,-3.2883002758026123
1667825351457610000,3.49360986328125,0.5872645378112793,1.2838252782821655,-3.6717591285705566
1667825351467616800,3.50361669921875,0.31165775656700134,1.5238807201385498,-3.9282214641571045
1667825351477624800,3.513624755859375,-0.005605421494692564,1.8283612728118896,-4.032087802886963
1667825351487632000,3.5236318359375,-0.29920828342437744,2.1399497985839844,-3.980149269104004
1667825351497640000,3.533639892578125,-0.5192477107048035,2.4522860050201416,-3.7769834995269775
1667825351507648000,3.54364794921875,-0.6422442197799683,2.758756637573242,-3.4130239486694336
1667825351517654800,3.55365478515625,-0.6422988176345825,3.006687879562378,-2.9413578510284424
1667825351527663000,3.5636630859375,-0.5288097858428955,3.161128282546997,-2.448974847793579
1667825351537670000,3.573669921875,-0.3396505117416382,3.1488382816314697,-2.0270867347717285
1667825351547678000,3.583677978515625,-0.11359873414039612,2.998879909515381,-1.7243040800094604
1667825351557685000,3.59368505859375,0.1018560603260994,2.7809722423553467,-1.5289132595062256
1667825351567693000,3.603693115234375,0.2827747166156769,2.533860921859741,-1.4226313829421997
1667825351577699800,3.613699951171875,0.41004079580307007,2.2847583293914795,-1.3618979454040527
1667825351587708000,3.6237080078125,0.46782127022743225,2.0806078910827637,-1.3064136505126953
1667825351597715700,3.6337158203125,0.45626339316368103,1.91349458694458,-1.2109062671661377
1667825351607723800,3.643723876953125,0.36581501364707947,1.756757140159607,-1.0820995569229126
1667825351617730600,3.65373046875,0.22211802005767822,1.628483533859253,-0.9196110963821411
1667825351627738600,3.663738525390625,0.048281777650117874,1.538661241531372,-0.7413582801818848
1667825351637745700,3.67374560546875,-0.1407182365655899,1.4799362421035767,-0.5631474852561951
1667825351647753700,3.683753662109375,-0.317324697971344,1.4432082176208496,-0.38998186588287354
1667825351657761500,3.693761474609375,-0.4660255014896393,1.3935794830322266,-0.20840007066726685
1667825351667768800,3.703768798828125,-0.5829606056213379,1.3173712491989136,-0.02720285952091217
1667825351677776600,3.713776611328125,-0.6754745841026306,1.2126061916351318,0.14743579924106598
1667825351687783700,3.72378369140625,-0.7493522763252258,1.081671118736267,0.3120689392089844
1667825351697791500,3.73379150390625,-0.8135837316513062,0.9349396824836731,0.4547640383243561
1667825351707798800,3.743798828125,-0.8720177412033081,0.7823475003242493,0.5553241968154907
1667825351717806600,3.753806640625,-0.920599102973938,0.6615012288093567,0.6181569695472717
1667825351727813600,3.763813720703125,-0.9671370387077332,0.5491568446159363,0.6147111058235168
1667825351737821700,3.77382177734375,-0.9960483312606812,0.4267007112503052,0.5329645872116089
1667825351747828700,3.783828857421875,-1.011215329170227,0.26568999886512756,0.32899707555770874
1667825351757836500,3.79383642578125,-1.0365777015686035,0.06878732144832611,-0.025794578716158867
1667825351767843800,3.80384375,-1.0763826370239258,-0.08319741487503052,-0.517714262008667
1667825351777851600,3.8138515625,-1.128549337387085,-0.1333916187286377,-1.0933191776275635
1667825351787858700,3.823858642578125,-1.1834349632263184,-0.08890750259160995,-1.6928178071975708
1667825351797866500,3.833866455078125,-1.2326222658157349,0.0421740859746933,-2.2656280994415283
1667825351807873800,3.843873779296875,-1.2727878093719482,0.2201310396194458,-2.7553393840789795
1667825351817881600,3.853881591796875,-1.3158529996871948,0.4286823868751526,-3.1220929622650146
1667825351827889700,3.8638896484375,-1.3942841291427612,0.6796448230743408,-3.3487706184387207
1667825351837896700,3.873896728515625,-1.4927945137023926,0.9569249153137207,-3.4014041423797607
1667825351847904800,3.88390478515625,-1.5401872396469116,1.2674283981323242,-3.2556674480438232
1667825351857911600,3.89391162109375,-1.496069312095642,1.5336902141571045,-2.938203811645508
1667825351867919600,3.903919677734375,-1.4988843202590942,1.6764096021652222,-2.484661340713501
1667825351877926700,3.9139267578125,-1.367016077041626,1.7115635871887207,-1.9821628332138062
1667825351887934700,3.923934814453125,-1.1023385524749756,1.675630807876587,-1.4902021884918213
1667825351897941500,3.93394140625,-0.7320411801338196,1.5849379301071167,-1.0474239587783813
1667825351907949600,3.943949462890625,-0.3157278597354889,1.377646803855896,-0.6837413311004639
1667825351917957600,3.95395751953125,0.11709306389093399,1.0769908428192139,-0.4003053307533264
1667825351927964700,3.963964599609375,0.5293242931365967,0.7404008507728577,-0.1935146003961563
1667825351937972500,3.973972412109375,0.918278157711029,0.4242208003997803,-0.06742165237665176
1667825351947979800,3.983979736328125,1.2408591508865356,0.2034788280725479,-0.010776215232908726
1667825351957987600,3.993987548828125,1.479404330253601,0.0923973098397255,-0.0017566210590302944
1667825351967994600,4.00399462890625,1.6426361799240112,0.11003968119621277,0.021992916241288185
1667825351978002400,4.01400244140625,1.7491021156311035,0.21682658791542053,0.10335168987512589
1667825351988009700,4.024009765625,1.8090094327926636,0.3780311942100525,0.2838799059391022
1667825351998017500,4.034017578125,1.8569103479385376,0.5648447275161743,0.549326479434967
1667825352008024600,4.044024658203125,1.9125621318817139,0.7293716669082642,0.8727802038192749
1667825352018032600,4.05403271484375,1.9638162851333618,0.8322178721427917,1.2040185928344727
1667825352028039700,4.064039794921875,2.0002963542938232,0.8372405767440796,1.4723765850067139
1667825352038047500,4.074047607421875,2.0133821964263916,0.741648256778717,1.6447526216506958
1667825352048054800,4.0840546875,1.9883946180343628,0.5539795756340027,1.7307555675506592
1667825352058062600,4.0940625,1.8861849308013916,0.3089407980442047,1.7352933883666992
1667825352068070700,4.104070556640625,1.6736774444580078,0.05004825443029404,1.6841199398040771
1667825352078077400,4.114077392578125,1.3764725923538208,-0.1812073439359665,1.5832809209823608
1667825352088085800,4.124085693359375,1.0185844898223877,-0.3729112446308136,1.4556372165679932
1667825352098092500,4.134092529296875,0.6325559020042419,-0.4802568852901459,1.3119354248046875
1667825352108100600,4.1441005859375,0.26768815517425537,-0.5030655264854431,1.1772115230560303
1667825352118107600,4.154107666015625,-0.022785473614931107,-0.49625104665756226,1.060010313987732
1667825352128115700,4.16411572265625,-0.21453920006752014,-0.4820081889629364,0.9742043018341064
1667825352138122500,4.17412255859375,-0.29793474078178406,-0.45656514167785645,0.9227360486984253
1667825352148130600,4.184130615234375,-0.29333972930908203,-0.4194164574146271,0.9134829044342041
1667825352158137600,4.1941376953125,-0.23060257732868195,-0.37536323070526123,0.9389424324035645
1667825352168145700,4.204145751953125,-0.12422554194927216,-0.3331308364868164,0.9837551712989807
1667825352178152400,4.21415234375,0.02383529208600521,-0.3016226887702942,1.0188676118850708
1667825352188160800,4.224160888671875,0.1929233819246292,-0.25508129596710205,1.037380337715149
1667825352198168800,4.2341689453125,0.35580018162727356,-0.1479945182800293,1.0385643243789673
1667825352208175600,4.244175537109375,0.498368501663208,-0.011969311162829399,1.0290858745574951
1667825352218183700,4.25418359375,0.6008070111274719,0.1516273468732834,0.9993208050727844
1667825352228190700,4.264190673828125,0.6657164692878723,0.3270534873008728,0.9792302250862122
1667825352238198800,4.27419873046875,0.6989445090293884,0.46901756525039673,0.9712196588516235
1667825352248205600,4.28420556640625,0.6946104764938354,0.5399417877197266,0.9733161330223083
1667825352258213600,4.294213623046875,0.6603204011917114,0.5422182679176331,0.9942989349365234
1667825352268220700,4.304220703125,0.6104596257209778,0.5030479431152344,1.025124192237854
1667825352278228700,4.314228759765625,0.5608558654785156,0.42448869347572327,1.0516862869262695
1667825352288235800,4.32423583984375,0.5114278793334961,0.32168668508529663,1.081024169921875
1667825352298243800,4.334243896484375,0.4646555483341217,0.20957213640213013,1.1030192375183105
1667825352308250600,4.344250732421875,0.41573116183280945,0.11136513948440552,1.1190831661224365
1667825352318258700,4.3542587890625,0.37048378586769104,0.032516397535800934,1.1377284526824951
1667825352328265700,4.364265625,0.3172759711742401,-0.05383606627583504,1.1370337009429932
1667825352338273800,4.374273681640625,0.2483392357826233,-0.13043257594108582,1.0998796224594116
1667825352348280600,4.384280517578125,0.16727900505065918,-0.17651085555553436,1.03492271900177
1667825352358288600,4.39428857421875,0.07720077782869339,-0.20845653116703033,0.9482547044754028
1667825352368295700,4.404295654296875,-0.027578365057706833,-0.24474743008613586,0.8238539099693298
1667825352378303500,4.414303466796875,-0.14759398996829987,-0.23494407534599304,0.6757220029830933
1667825352388311600,4.4243115234375,-0.26693928241729736,-0.16398388147354126,0.5376434922218323
1667825352398318600,4.434318603515625,-0.36821770668029785,-0.06931595504283905,0.47163915634155273
1667825352408326700,4.44432666015625,-0.44522592425346375,0.007986820302903652,0.504717230796814
1667825352418333400,4.45433349609375,-0.48639413714408875,0.04959578067064285,0.6263896226882935
1667825352428341500,4.464341552734375,-0.5049853920936584,0.051845088601112366,0.7877036333084106
1667825352438348500,4.4743486328125,-0.5152271389961243,0.02322249859571457,0.9370742440223694
1667825352448356600,4.484356689453125,-0.5198282599449158,-0.015627428889274597,1.0275825262069702
1667825352458363600,4.49436376953125,-0.5267708897590637,-0.07746309787034988,1.0262863636016846
1667825352468371700,4.504371826171875,-0.5479688048362732,-0.14193317294120789,0.913572371006012
1667825352478378500,4.51437841796875,-0.6085165739059448,-0.21079985797405243,0.6949191093444824
1667825352488386600,4.524386474609375,-0.7142259478569031,-0.26922133564949036,0.3937787115573883
1667825352498393600,4.5343935546875,-0.852825939655304,-0.30721747875213623,0.03491297736763954
1667825352508401700,4.544401611328125,-1.012284517288208,-0.31048038601875305,-0.34994763135910034
1667825352518409700,4.55440966796875,-1.1614950895309448,-0.2758483588695526,-0.7123979926109314
1667825352528416500,4.56441650390625,-1.2838351726531982,-0.2107497900724411,-1.002100944519043
1667825352538424800,4.5744248046875,-1.3698872327804565,-0.15486814081668854,-1.2070447206497192
1667825352548431600,4.584431640625,-1.4279345273971558,-0.08431541174650192,-1.3380988836288452
1667825352558439700,4.594439697265625,-1.4421321153640747,0.0020485036075115204,-1.4073001146316528
1667825352568446700,4.60444677734375,-1.4020347595214844,0.10761567205190659,-1.4284734725952148
1667825352578454800,4.614454833984375,-1.33293879032135,0.2064969837665558,-1.4195356369018555
1667825352588461600,4.624461669921875,-1.235967993736267,0.2760736644268036,-1.3816391229629517
1667825352598469600,4.6344697265625,-1.0989502668380737,0.3069351613521576,-1.3293246030807495
1667825352608476700,4.6444765625,-0.9365509152412415,0.2757572829723358,-1.2589569091796875
1667825352618484700,4.654484619140625,-0.7794396281242371,0.18145181238651276,-1.1970582008361816
1667825352628491500,4.664491455078125,-0.658932089805603,0.07828255742788315,-1.1515198945999146
1667825352638499800,4.674499755859375,-0.5787767767906189,0.006937534548342228,-1.1176741123199463
1667825352648506600,4.684506591796875,-0.541767418384552,-0.015387478284537792,-1.0929263830184937
1667825352658514700,4.6945146484375,-0.5381148457527161,0.023131685331463814,-1.0687177181243896
1667825352668521700,4.704521728515625,-0.5426968336105347,0.07565028965473175,-1.037615180015564
1667825352678529800,4.71452978515625,-0.5479693412780762,0.1490294337272644,-1.0030138492584229
1667825352688537600,4.72453759765625,-0.5476119518280029,0.23027847707271576,-0.978265643119812
1667825352698544600,4.734544677734375,-0.5446891188621521,0.29556694626808167,-0.9701557755470276
1667825352708552700,4.744552734375,-0.5459226965904236,0.3548731505870819,-0.9778453707695007
1667825352718559700,4.754559814453125,-0.5460079312324524,0.42120102047920227,-0.9896730184555054
1667825352728567600,4.764567626953125,-0.5407218337059021,0.48984161019325256,-0.9815232157707214
1667825352738574800,4.774574951171875,-0.5478479266166687,0.5552554726600647,-0.951902449131012
1667825352748582700,4.784582763671875,-0.5815709829330444,0.6100199222564697,-0.880161702632904
1667825352758589700,4.794589599609375,-0.6365072131156921,0.6315121650695801,-0.7571185827255249
1667825352768597500,4.804597412109375,-0.6967521905899048,0.6005489230155945,-0.5853803753852844
1667825352778604800,4.814604736328125,-0.770416796207428,0.5288150906562805,-0.37273097038269043
1667825352788612600,4.824612548828125,-0.8497251868247986,0.42055439949035645,-0.14263784885406494
1667825352798619600,4.83461962890625,-0.90907883644104,0.27750271558761597,0.05642439424991608
1667825352808627700,4.844627685546875,-0.9431284070014954,0.1299244463443756,0.19009776413440704
1667825352818634800,4.854634765625,-0.961698591709137,0.008199074305593967,0.21761861443519592
1667825352828642600,4.864642578125,-0.9661162495613098,-0.08726513385772705,0.1424197256565094
1667825352838650600,4.874650634765625,-0.9638376832008362,-0.19246238470077515,-0.019233616068959236
1667825352848657700,4.88465771484375,-0.9689075350761414,-0.29619356989860535,-0.2525603473186493
1667825352858665700,4.894665771484375,-0.9725313186645508,-0.38935574889183044,-0.5395542979240417
1667825352868672500,4.904672607421875,-0.9784501791000366,-0.48509398102760315,-0.8708070516586304
1667825352878680800,4.914680908203125,-0.9939835667610168,-0.5726736187934875,-1.234849452972412
1667825352888687600,4.9246875,-1.034299373626709,-0.6135595440864563,-1.6048057079315186
1667825352898695700,4.93469580078125,-1.1060099601745605,-0.5786891579627991,-1.9364973306655884
1667825352908702700,4.94470263671875,-1.1816259622573853,-0.46799302101135254,-2.1667020320892334
1667825352918710800,4.954710693359375,-1.2177330255508423,-0.33071374893188477,-2.243004083633423
1667825352928717600,4.964717529296875,-1.1832350492477417,-0.23585620522499084,-2.1404173374176025
1667825352938725600,4.9747255859375,-1.0708568096160889,-0.22103677690029144,-1.8850703239440918
1667825352948732700,4.984732666015625,-0.8808099031448364,-0.31049075722694397,-1.545287013053894
1667825352958740700,4.99474072265625,-0.605965793132782,-0.4940001368522644,-1.1896052360534668
1667825352968747500,5.00474755859375,-0.24451227486133575,-0.7433034181594849,-0.8750433325767517
1667825352978755800,5.014755859375,0.1786925196647644,-0.9670092463493347,-0.6327841281890869
1667825352988763600,5.024763671875,0.6314250826835632,-1.112238883972168,-0.45584502816200256
1667825352998770700,5.034770751953125,1.0918693542480469,-1.168199062347412,-0.301710844039917
1667825353008778500,5.044778564453125,1.513095736503601,-1.1180014610290527,-0.1202947199344635
1667825353018785800,5.054785888671875,1.870758056640625,-0.9543312788009644,0.11976049095392227
1667825353028793600,5.064793701171875,2.1760928630828857,-0.6707421541213989,0.4317820370197296
1667825353038800600,5.074800537109375,2.43888783454895,-0.3220858871936798,0.8242228031158447
1667825353048808400,5.084808349609375,2.666752576828003,-0.006707970052957535,1.2662849426269531
1667825353058815700,5.094815673828125,2.86043381690979,0.21447314321994781,1.702812671661377
1667825353068823600,5.104823486328125,3.041379451751709,0.30163735151290894,2.0730795860290527
1667825353078830600,5.11483056640625,3.197211265563965,0.2750110626220703,2.336390733718872
1667825353088838700,5.124838623046875,3.2942304611206055,0.16128316521644592,2.488121509552002
1667825353098845700,5.134845703125,3.2924294471740723,-0.015420767478644848,2.523711681365967
1667825353108853500,5.144853515625,3.131218433380127,-0.20113897323608398,2.4390532970428467
1667825353118860800,5.15486083984375,2.8076133728027344,-0.3797060549259186,2.2614996433258057
1667825353128868600,5.16486865234375,2.333449125289917,-0.5260603427886963,2.00150465965271
1667825353138876700,5.174876708984375,1.7661654949188232,-0.6138008236885071,1.7233999967575073
1667825353148883500,5.184883544921875,1.1743162870407104,-0.6445997357368469,1.447505235671997
1667825353158891800,5.194891845703125,0.6193162202835083,-0.6280665993690491,1.2094367742538452
1667825353168898600,5.204898681640625,0.1690388172864914,-0.6110695004463196,1.0090693235397339
1667825353178906600,5.21490673828125,-0.1453673094511032,-0.6245088577270508,0.8607469797134399
1667825353188913700,5.22491357421875,-0.3342040777206421,-0.658408522605896,0.7644734382629395
1667825353198921700,5.234921630859375,-0.42147505283355713,-0.7137013077735901,0.7089923620223999
1667825353208928500,5.244928466796875,-0.4241566061973572,-0.7616004347801208,0.6977487206459045
1667825353218936600,5.2549365234375,-0.368464857339859,-0.7758933305740356,0.7265665531158447
1667825353228943600,5.264943603515625,-0.27964869141578674,-0.7427971959114075,0.7927407622337341
1667825353238951700,5.27495166015625,-0.16450026631355286,-0.6572442054748535,0.8959057331085205
1667825353248958500,5.28495849609375,-0.045760296285152435,-0.5171747207641602,1.0206588506698608
1667825353258966800,5.294966796875,0.07318393141031265,-0.34308144450187683,1.1633952856063843
1667825353268973600,5.3049736328125,0.19930458068847656,-0.18049094080924988,1.3041456937789917
1667825353278981600,5.314981689453125,0.33175185322761536,-0.05896025523543358,1.4223549365997314
1667825353288989400,5.324989501953125,0.45285215973854065,0.013799968175590038,1.500685691833496
1667825353298996700,5.334996826171875,0.5640015602111816,0.045456163585186005,1.5276981592178345
1667825353309004500,5.345004638671875,0.6545381546020508,0.02116999961435795,1.4889107942581177
1667825353319011600,5.355011474609375,0.7194290161132812,-0.05558203533291817,1.3894768953323364
1667825353329019600,5.36501953125,0.7497442960739136,-0.18191547691822052,1.2349953651428223
1667825353339026700,5.375026611328125,0.735748291015625,-0.3159414529800415,1.0517499446868896
1667825353349034500,5.385034423828125,0.6847650408744812,-0.4218122363090515,0.874121367931366
1667825353359041800,5.395041748046875,0.5990775227546692,-0.4680236577987671,0.7296954989433289
1667825353369049600,5.405049560546875,0.49317535758018494,-0.44689813256263733,0.6553218960762024
1667825353379056600,5.415056640625,0.3888329565525055,-0.36789414286613464,0.6592341065406799
1667825353389064400,5.425064453125,0.30490636825561523,-0.2643294036388397,0.7438640594482422
1667825353399071700,5.43507177734375,0.24072766304016113,-0.19311167299747467,0.8870313167572021
1667825353409079600,5.44507958984375,0.20105135440826416,-0.20151154696941376,1.0393617153167725
1667825353419086600,5.455086669921875,0.16633731126785278,-0.30391356348991394,1.1367652416229248
1667825353429094700,5.4650947265625,0.11645683646202087,-0.4483865797519684,1.1562588214874268
1667825353439102700,5.475102783203125,0.04602475091814995,-0.541033148765564,1.1301132440567017
1667825353449109500,5.485109619140625,-0.027773573994636536,-0.5202887058258057,1.0989995002746582
1667825353459117600,5.49511767578125,-0.07178950309753418,-0.3961811661720276,1.1023050546646118
1667825353469124600,5.50512451171875,-0.0829412192106247,-0.24431119859218597,1.1436569690704346
1667825353479132700,5.515132568359375,-0.08578600734472275,-0.1596088409423828,1.1806466579437256
1667825353489139500,5.525139404296875,-0.08297424763441086,-0.1527293622493744,1.1601355075836182
1667825353499147800,5.535147705078125,-0.08991604298353195,-0.1721946746110916,1.0446217060089111
1667825353509154600,5.545154541015625,-0.13612614572048187,-0.1517929881811142,0.8431211113929749
1667825353519162600,5.55516259765625,-0.22100216150283813,-0.08021601289510727,0.5604550838470459
1667825353529169700,5.565169677734375,-0.34737473726272583,0.01902402564883232,0.20409773290157318
1667825353539177700,5.575177734375,-0.5211779475212097,0.14871491491794586,-0.1959676444530487
1667825353549184500,5.5851845703125,-0.7232266664505005,0.30721160769462585,-0.6149957776069641
1667825353559192600,5.595192626953125,-0.9220060706138611,0.4982702434062958,-1.0166401863098145
1667825353569199600,5.60519970703125,-1.0776408910751343,0.6896988153457642,-1.3701475858688354
1667825353579207700,5.615207763671875,-1.1866809129714966,0.8497454524040222,-1.6576558351516724
1667825353589214500,5.62521435546875,-1.255699634552002,0.9628579020500183,-1.8720914125442505
1667825353599221800,5.6352216796875,-1.2826220989227295,1.0422898530960083,-2.029305934906006
1667825353609229600,5.6452294921875,-1.2574554681777954,1.0831667184829712,-2.128335952758789
1667825353619236600,5.655236572265625,-1.1916823387145996,1.086012601852417,-2.1889572143554688
1667825353629244700,5.66524462890625,-1.0940015316009521,1.067122459411621,-2.215951681137085
1667825353639251700,5.675251708984375,-0.9842066168785095,1.0196501016616821,-2.2151505947113037
1667825353649259500,5.685259521484375,-0.8816543817520142,0.9578684568405151,-2.205565929412842
1667825353659266800,5.695266845703125,-0.7924443483352661,0.880764365196228,-2.1825809478759766
1667825353669274600,5.705274658203125,-0.7131388783454895,0.7874906063079834,-2.1420412063598633
1667825353679281700,5.71528173828125,-0.6519735455513,0.6813830733299255,-2.077176332473755
1667825353689289500,5.72528955078125,-0.5995870232582092,0.5652689933776855,-1.9987913370132446
1667825353699296800,5.735296875,-0.5345001816749573,0.46156442165374756,-1.911346435546875
1667825353709304600,5.7453046875,-0.4762967824935913,0.34278637170791626,-1.8261897563934326
1667825353719311600,5.7553115234375,-0.428989440202713,0.23044438660144806,-1.7478991746902466
1667825353729319700,5.765319580078125,-0.38608992099761963,0.16443900763988495,-1.6866278648376465
1667825353739326700,5.77532666015625,-0.33674341440200806,0.13495434820652008,-1.6498404741287231
1667825353749334500,5.78533447265625,-0.2838258445262909,0.15433630347251892,-1.632061243057251
1667825353759342600,5.795342529296875,-0.27341049909591675,0.23437921702861786,-1.620106816291809
1667825353769349600,5.805349609375,-0.2659909427165985,0.35130956768989563,-1.572359323501587
1667825353779357700,5.815357666015625,-0.26520636677742004,0.45493581891059875,-1.4734196662902832
1667825353789364500,5.825364501953125,-0.2667139768600464,0.4853925406932831,-1.3101924657821655
1667825353799372800,5.835372802734375,-0.26253655552864075,0.4374180734157562,-1.0678449869155884
1667825353809379600,5.845379638671875,-0.25549301505088806,0.30736154317855835,-0.7724519968032837
1667825353819387600,5.8553876953125,-0.2561657428741455,0.08942894637584686,-0.48180338740348816
1667825353829394700,5.865394775390625,-0.26217836141586304,-0.15447638928890228,-0.2623187005519867
1667825353839402800,5.87540283203125,-0.28141382336616516,-0.36493828892707825,-0.16122403740882874
1667825353849409500,5.885409423828125,-0.3088534474372864,-0.5029779076576233,-0.20890182256698608
1667825353859417600,5.89541748046875,-0.3444942533969879,-0.5505979061126709,-0.3627411723136902
1667825353869424600,5.905424560546875,-0.4011106789112091,-0.5372661352157593,-0.563147783279419
1667825353879432700,5.9154326171875,-0.47548529505729675,-0.4755183160305023,-0.7680615186691284
1667825353889439500,5.925439453125,-0.5668309330940247,-0.32044512033462524,-0.9465777277946472
1667825353899447600,5.935447509765625,-0.6454617977142334,-0.10639834403991699,-1.0725164413452148
1667825353909454600,5.94545458984375,-0.7040758728981018,0.10358072072267532,-1.104475498199463
1667825353919462700,5.955462646484375,-0.7286997437477112,0.2531827390193939,-1.0243569612503052
1667825353929470500,5.965470458984375,-0.7056516408920288,0.3391205370426178,-0.8210104703903198
1667825353939477800,5.975477783203125,-0.6374193429946899,0.3383735120296478,-0.515474796295166
1667825353949485600,5.985485595703125,-0.5249553918838501,0.2556743919849396,-0.14525678753852844
1667825353959492600,5.99549267578125,-0.36226820945739746,0.10400043427944183,0.26139217615127563
1667825353969500400,6.00550048828125,-0.16158436238765717,-0.13728488981723785,0.6355125308036804
1667825353979507700,6.0155078125,0.06500723212957382,-0.4186987280845642,0.931643009185791
1667825353989515500,6.025515625,0.29887378215789795,-0.6651505827903748,1.0976340770721436
1667825353999522600,6.0355224609375,0.5093037486076355,-0.8217561841011047,1.1371735334396362
1667825354009530600,6.045530517578125,0.6811774969100952,-0.865000307559967,1.0593911409378052
1667825354019537700,6.05553759765625,0.8236235976219177,-0.7863233685493469,0.9425798058509827
1667825354029545500,6.06554541015625,0.91640704870224,-0.5971659421920776,0.8243985772132874
1667825354039552800,6.075552734375,0.9627766609191895,-0.3307015001773834,0.766143798828125
1667825354049560600,6.085560546875,0.9942123293876648,-0.0524166040122509,0.802531361579895
1667825354059567600,6.095567626953125,1.0451463460922241,0.1334560662508011,0.9348440766334534
1667825354069575400,6.105575439453125,1.1342743635177612,0.19716286659240723,1.1383109092712402
1667825354079583700,6.115583740234375,1.2465183734893799,0.14043115079402924,1.361877679824829
1667825354089590500,6.125590576171875,1.3723859786987305,-0.0029089709278196096,1.5723004341125488
1667825354099598600,6.1355986328125,1.488521695137024,-0.1839464008808136,1.740371823310852
1667825354109605600,6.145605712890625,1.5840998888015747,-0.36683711409568787,1.8452332019805908
1667825354119613700,6.15561376953125,1.6244486570358276,-0.5381596088409424,1.859642505645752
1667825354129620500,6.165620361328125,1.6040700674057007,-0.68290776014328,1.7876091003417969
1667825354139628500,6.175628662109375,1.516837477684021,-0.7756741642951965,1.6472742557525635
1667825354149635600,6.185635498046875,1.3481345176696777,-0.805600643157959,1.4557828903198242
1667825354159643600,6.1956435546875,1.1048057079315186,-0.765251874923706,1.2399091720581055
1667825354169650400,6.205650390625,0.8129626512527466,-0.6531397104263306,1.017556071281433
1667825354179658800,6.21565869140625,0.510997474193573,-0.4859302341938019,0.7882248163223267
1667825354189665500,6.22566552734375,0.2455434501171112,-0.30178940296173096,0.5719625949859619
1667825354199673600,6.235673583984375,0.06974712014198303,-0.16314658522605896,0.38640815019607544
1667825354209680600,6.2456806640625,-0.019046129658818245,-0.07172399014234543,0.260542094707489
1667825354219688700,6.255688720703125,-0.03410550579428673,-0.051485028117895126,0.1990230828523636
1667825354229696800,6.26569677734375,-0.00865980051457882,-0.08927075564861298,0.2024761438369751
1667825354239703600,6.27570361328125,0.04108298942446709,-0.1527770310640335,0.2622028589248657
1667825354249711900,6.2857119140625,0.1029072105884552,-0.21130292117595673,0.3508829176425934
1667825354259718700,6.29571875,0.16235294938087463,-0.24272902309894562,0.4565875232219696
1667825354269726700,6.305726806640625,0.20494621992111206,-0.23757341504096985,0.5738707184791565
1667825354279733800,6.315733642578125,0.2327703982591629,-0.19959193468093872,0.7027967572212219
1667825354289741800,6.325741943359375,0.2529217302799225,-0.1402665674686432,0.8328900337219238
1667825354299748600,6.33574853515625,0.2715793251991272,-0.08626937121152878,0.9753310680389404
1667825354309756700,6.345756591796875,0.2935011088848114,-0.05048607662320137,1.12114417552948
1667825354319763700,6.355763671875,0.32935285568237305,-0.05043334513902664,1.2659211158752441
1667825354329771800,6.365771728515625,0.3708915114402771,-0.08874957263469696,1.3996514081954956
1667825354339778600,6.375778564453125,0.4093933701515198,-0.1505144089460373,1.5209861993789673
1667825354349787000,6.385786865234375,0.4384865462779999,-0.21915152668952942,1.6226941347122192
1667825354359793700,6.395793701171875,0.47040852904319763,-0.2998490333557129,1.6937366724014282
1667825354369801700,6.4058017578125,0.4916573464870453,-0.37796035408973694,1.7221120595932007
1667825354379808800,6.415808837890625,0.5020173192024231,-0.45556938648223877,1.692140817642212
1667825354389816800,6.42581689453125,0.4990295171737671,-0.5317941308021545,1.5803208351135254
1667825354399824600,6.43582470703125,0.4721102714538574,-0.6251490712165833,1.3767986297607422
1667825354409831700,6.445831787109375,0.4079776406288147,-0.7051219344139099,1.0765846967697144
1667825354419839700,6.45583984375,0.3016056418418884,-0.7346830368041992,0.7142683267593384
1667825354429846800,6.4658466796875,0.17008385062217712,-0.6638813018798828,0.3318772614002228
1667825354439854600,6.4758544921875,-0.006613427773118019,-0.4395877718925476,0.0024293356109410524
1667825354449862000,6.48586181640625,-0.2010207176208496,-0.1187058761715889,-0.21804870665073395
1667825354459869700,6.49586962890625,-0.3738904893398285,0.19554953277111053,-0.2926177382469177
1667825354469876500,6.50587646484375,-0.5098304748535156,0.4096013605594635,-0.22304533421993256
1667825354479884500,6.515884521484375,-0.5796253085136414,0.49922817945480347,-0.05885373055934906
1667825354489891600,6.5258916015625,-0.6005880832672119,0.44293588399887085,0.13383369147777557
1667825354499899600,6.535899658203125,-0.5857771635055542,0.2635080814361572,0.2763088345527649
1667825354509906400,6.545906494140625,-0.5659925937652588,0.010717625729739666,0.34353259205818176
1667825354519914800,6.555914794921875,-0.5729562044143677,-0.2964223325252533,0.29538583755493164
1667825354529921500,6.565921630859375,-0.6366766095161438,-0.5604955554008484,0.1207173615694046
1667825354539929600,6.5759296875,-0.7534423470497131,-0.7114035487174988,-0.17859157919883728
1667825354549937700,6.585937744140625,-0.9005745649337769,-0.7062825560569763,-0.5492226481437683
1667825354559944700,6.59594482421875,-1.0642122030258179,-0.5563687086105347,-0.9349253177642822
1667825354569952800,6.605952880859375,-1.23544442653656,-0.35597488284111023,-1.2721763849258423
1667825354579959600,6.61595947265625,-1.3744007349014282,-0.14892476797103882,-1.5307146310806274
1667825354589967600,6.625967529296875,-1.4481185674667358,0.032704416662454605,-1.69697105884552
1667825354599976000,6.635975830078125,-1.4506072998046875,0.20428842306137085,-1.794054388999939
1667825354609983700,6.645983642578125,-1.388532280921936,0.3560534417629242,-1.8178598880767822
1667825354619990800,6.65599072265625,-1.2694779634475708,0.47855833172798157,-1.7991580963134766
1667825354629998600,6.66599853515625,-1.1100172996520996,0.5611911416053772,-1.743077039718628
1667825354640006000,6.676005859375,-0.9269289374351501,0.6008978486061096,-1.6579471826553345
1667825354650013700,6.686013671875,-0.7468270659446716,0.5992016792297363,-1.5307024717330933
1667825354660020700,6.696020751953125,-0.5995689034461975,0.5627179741859436,-1.3637349605560303
1667825354670028800,6.70602880859375,-0.49949875473976135,0.5021345019340515,-1.178739070892334
1667825354680035800,6.716035888671875,-0.45578935742378235,0.44658440351486206,-0.9981048107147217
1667825354690043600,6.726043701171875,-0.43892064690589905,0.3993404805660248,-0.8583698272705078
1667825354700051000,6.736051025390625,-0.43856990337371826,0.36027854681015015,-0.7876043319702148
1667825354710058800,6.746058837890625,-0.45487910509109497,0.328080952167511,-0.7780573964118958
1667825354720066800,6.75606689453125,-0.4729294776916504,0.301857590675354,-0.8064022660255432
1667825354730073600,6.766073486328125,-0.5008960962295532,0.28149932622909546,-0.8608899712562561
1667825354740081700,6.77608154296875,-0.5282933712005615,0.2739311456680298,-0.9141380190849304
1667825354750088700,6.786088623046875,-0.560820996761322,0.2820327579975128,-0.9521573185920715
1667825354760096800,6.7960966796875,-0.5898928642272949,0.29557305574417114,-0.9707749485969543
1667825354770103800,6.806103759765625,-0.6217876672744751,0.33027538657188416,-0.9722287654876709
1667825354780112000,6.81611181640625,-0.6570612192153931,0.3810272514820099,-0.9641508460044861
1667825354790118700,6.82611865234375,-0.6873213648796082,0.43252506852149963,-0.9483271837234497
1667825354800126700,6.836126708984375,-0.7161203026771545,0.48173654079437256,-0.9243637919425964
1667825354810133800,6.8461337890625,-0.7377454042434692,0.49872031807899475,-0.8887714147567749
1667825354820141800,6.856141845703125,-0.7612614035606384,0.47894129157066345,-0.8376458883285522
1667825354830148600,6.866148681640625,-0.7928339838981628,0.439192533493042,-0.7912882566452026
1667825354840156700,6.87615673828125,-0.830933153629303,0.376835435628891,-0.7630582451820374
1667825354850163700,6.886163818359375,-0.8820338845252991,0.2749492824077606,-0.7829970717430115
1667825354860171800,6.896171875,-0.9349815249443054,0.17760035395622253,-0.8422310948371887
1667825354870179600,6.9061796875,-0.9858636260032654,0.09992633014917374,-0.9548260569572449
1667825354880187000,6.916186767578125,-1.0291244983673096,0.065425343811512,-1.1152503490447998
1667825354890194700,6.926194580078125,-1.0682226419448853,0.07527931034564972,-1.310032844543457
1667825354900201700,6.93620166015625,-1.098365068435669,0.10786761343479156,-1.537165880203247
1667825354910209500,6.94620947265625,-1.1346945762634277,0.15123425424098969,-1.7719206809997559
1667825354920216800,6.956216796875,-1.1684569120407104,0.23563675582408905,-1.9845631122589111
1667825354930224600,6.966224609375,-1.1931276321411133,0.37173759937286377,-2.1167099475860596
1667825354940231700,6.976231689453125,-1.1903557777404785,0.4985339045524597,-2.131800889968872
1667825354950239700,6.98623974609375,-1.1339777708053589,0.5850315093994141,-2.0205161571502686
1667825354960246800,6.996246826171875,-1.0261929035186768,0.612376868724823,-1.788943886756897
1667825354970254600,7.006254638671875,-0.8689971566200256,0.56217360496521,-1.4676376581192017
1667825354980262000,7.016261962890625,-0.6627920866012573,0.45222553610801697,-1.0659416913986206
1667825354990269700,7.026269775390625,-0.4105483889579773,0.25425463914871216,-0.6346118450164795
1667825355000276700,7.03627685546875,-0.12406229227781296,-0.044384509325027466,-0.22282588481903076
1667825355010284500,7.046284423828125,0.19613967835903168,-0.4350518584251404,0.12421569228172302
1667825355020291800,7.056291748046875,0.5408443212509155,-0.8132420182228088,0.3841407299041748
1667825355030299600,7.066299560546875,0.8867151737213135,-1.0932505130767822,0.5563157200813293
1667825355040307700,7.0763076171875,1.199204683303833,-1.2719507217407227,0.648022472858429
1667825355050314800,7.086314697265625,1.4829665422439575,-1.3363311290740967,0.707123339176178
1667825355060322800,7.09632275390625,1.7353307008743286,-1.2785139083862305,0.7745670676231384
1667825355070329600,7.10632958984375,1.9490983486175537,-1.1553256511688232,0.8931781649589539
1667825355080337700,7.116337646484375,2.1188294887542725,-1.0034886598587036,1.0759599208831787
1667825355090344700,7.1263447265625,2.236978054046631,-0.8453965187072754,1.3027135133743286
1667825355100352800,7.136352783203125,2.3314201831817627,-0.6976174116134644,1.5314412117004395
1667825355110359600,7.146359619140625,2.409036636352539,-0.5871434211730957,1.7277699708938599
1667825355120367900,7.156367919921875,2.4548614025115967,-0.5293770432472229,1.843000888824463
1667825355130374700,7.166374755859375,2.4645063877105713,-0.5272459983825684,1.874884009361267
1667825355140382700,7.1763828125,2.3806004524230957,-0.5609610676765442,1.8310753107070923
1667825355150389800,7.1863896484375,2.2074568271636963,-0.6133409142494202,1.7085331678390503
1667825355160397800,7.196397705078125,1.9112393856048584,-0.665061891078949,1.523942470550537
1667825355170404600,7.206404541015625,1.516902208328247,-0.7248149514198303,1.295604944229126
1667825355180412700,7.21641259765625,1.072396159172058,-0.804484486579895,1.0492892265319824
1667825355190421000,7.2264208984375,0.6345942616462708,-0.8841167688369751,0.8053503036499023
1667825355200427800,7.236427734375,0.2418520450592041,-0.9283755421638489,0.5931464433670044
1667825355210435800,7.246435791015625,-0.042400721460580826,-0.9351551532745361,0.4250407814979553
1667825355220443000,7.25644287109375,-0.21969667077064514,-0.9287758469581604,0.3316176235675812
1667825355230451000,7.266450927734375,-0.32718053460121155,-0.9157599210739136,0.302791029214859
1667825355240457700,7.276457763671875,-0.37802720069885254,-0.8955073356628418,0.32650062441825867
1667825355250465800,7.2864658203125,-0.38222113251686096,-0.8621304631233215,0.3891996741294861
1667825355260472800,7.296472900390625,-0.34971752762794495,-0.7839528322219849,0.4727720618247986
1667825355270481000,7.30648095703125,-0.29900532960891724,-0.6609638333320618,0.5737455487251282
1667825355280487700,7.31648779296875,-0.22858603298664093,-0.5255956053733826,0.687245786190033
1667825355290496000,7.32649609375,-0.1455574631690979,-0.3705895245075226,0.7938973903656006
1667825355300502800,7.336502685546875,-0.05602039024233818,-0.20909570157527924,0.9034952521324158
1667825355310510800,7.3465107421875,0.041187383234500885,-0.04372750595211983,1.0155930519104004
1667825355320518000,7.356517822265625,0.1427270621061325,0.10997017472982407,1.1181700229644775
1667825355330526000,7.36652587890625,0.24325339496135712,0.23292405903339386,1.2051552534103394
1667825355340533800,7.37653369140625,0.3245280086994171,0.32673656940460205,1.2633111476898193
1667825355350540800,7.386540771484375,0.37713876366615295,0.41162458062171936,1.2901235818862915
1667825355360548600,7.396548583984375,0.3990691006183624,0.47439953684806824,1.3009814023971558
1667825355370556000,7.406555908203125,0.40539464354515076,0.4998050332069397,1.3131828308105469
1667825355380563700,7.416563720703125,0.3922567367553711,0.5033898949623108,1.3358311653137207
1667825355390570800,7.42657080078125,0.36086899042129517,0.46576955914497375,1.3641939163208008
1667825355400578800,7.436578857421875,0.31818196177482605,0.4141843914985657,1.3845512866973877
1667825355410585900,7.4465859375,0.26469185948371887,0.35637062788009644,1.378246784210205
1667825355420593700,7.45659375,0.2030295431613922,0.30214548110961914,1.3402405977249146
1667825355430601000,7.46660107421875,0.1294245719909668,0.24556715786457062,1.2731462717056274
1667825355440608800,7.47660888671875,0.050867706537246704,0.20038582384586334,1.1658568382263184
1667825355450615800,7.48661572265625,-0.037388384342193604,0.1949087679386139,1.0391985177993774
1667825355460623600,7.49662353515625,-0.12981446087360382,0.23180313408374786,0.8943973183631897
1667825355470631000,7.506630859375,-0.2159128487110138,0.3110590875148773,0.7662263512611389
1667825355480638700,7.516638671875,-0.2813358008861542,0.40310484170913696,0.6877994537353516
1667825355490646800,7.526646728515625,-0.318779855966568,0.4539267420768738,0.6795076727867126
1667825355500653800,7.53665380859375,-0.3547181487083435,0.44327276945114136,0.7272336483001709
1667825355510662000,7.546661865234375,-0.3857351839542389,0.3973393738269806,0.7994945645332336
1667825355520668700,7.556668701171875,-0.3890249729156494,0.33322057127952576,0.8839090466499329
1667825355530676700,7.5666767578125,-0.3690541982650757,0.2351004034280777,0.9574365019798279
1667825355540683800,7.576683837890625,-0.3312857747077942,0.08590478450059891,0.9836348295211792
1667825355550691800,7.58669189453125,-0.27439266443252563,-0.09868583083152771,0.9287886023521423
1667825355560698600,7.59669873046875,-0.20926640927791595,-0.30126503109931946,0.7737470865249634
1667825355570707000,7.60670703125,-0.15249232947826385,-0.5022018551826477,0.5288974046707153
1667825355580713700,7.616713623046875,-0.12454352527856827,-0.7130070328712463,0.19281180202960968
1667825355590721800,7.6267216796875,-0.13370266556739807,-0.897811233997345,-0.23944081366062164
1667825355600728800,7.636728759765625,-0.18291042745113373,-0.9871408343315125,-0.7317964434623718
1667825355610736400,7.646736328125,-0.26787298917770386,-0.9487758874893188,-1.2512869834899902
1667825355620743200,7.6567431640625,-0.3670416474342346,-0.7782973647117615,-1.730466365814209
1667825355630751500,7.66675146484375,-0.4647679328918457,-0.5075433850288391,-2.1104047298431396
1667825355640758300,7.67675830078125,-0.5753085613250732,-0.1253051906824112,-2.372211456298828
1667825355650766300,7.686766357421875,-0.6780202984809875,0.3188333809375763,-2.483828067779541
1667825355660774100,7.696774169921875,-0.7449508905410767,0.7226487398147583,-2.438082695007324
1667825355670781400,7.706781494140625,-0.7536335587501526,1.0140491724014282,-2.2686100006103516
1667825355680789200,7.716789306640625,-0.682164192199707,1.1363857984542847,-2.0168185234069824
1667825355690796300,7.72679638671875,-0.5580883026123047,1.084134578704834,-1.7132312059402466
1667825355700804400,7.736804443359375,-0.3909831941127777,0.8970354795455933,-1.4082894325256348
1667825355710811400,7.746811279296875,-0.2176138162612915,0.6516696810722351,-1.1353743076324463
1667825355720819200,7.756819091796875,-0.08528666943311691,0.4054263234138489,-0.9360981583595276
1667825355730826500,7.766826416015625,-0.01967463456094265,0.22388209402561188,-0.8231186270713806
1667825355740834300,7.776834228515625,-0.026737071573734283,0.07381723076105118,-0.7806801199913025
1667825355750841300,7.78684130859375,-0.09609350562095642,-0.024751152843236923,-0.8008695244789124
1667825355760849200,7.79684912109375,-0.20802749693393707,-0.05528908967971802,-0.855591356754303
1667825355770856400,7.8068564453125,-0.35259348154067993,-0.02888544462621212,-0.9198516011238098
1667825355780864300,7.8168642578125,-0.5130691528320312,0.017255686223506927,-0.9671980738639832
1667825355790871300,7.826871337890625,-0.666252851486206,0.06522347778081894,-0.9739289283752441
1667825355800879400,7.83687939453125,-0.7902988791465759,0.096078060567379,-0.9361833930015564
1667825355810886400,7.846886474609375,-0.8699913620948792,0.08291751891374588,-0.827265202999115
1667825355820894200,7.856894287109375,-0.9008429646492004,0.028971197083592415,-0.6869112849235535
1667825355830902300,7.86690234375,-0.9048811197280884,-0.057616956532001495,-0.5661667585372925
1667825355840909300,7.876909423828125,-0.8736830353736877,-0.15349288284778595,-0.47032037377357483
1667825355850917400,7.88691748046875,-0.8402816653251648,-0.24588006734848022,-0.4232255518436432
1667825355860924200,7.896924072265625,-0.8081474304199219,-0.30293935537338257,-0.43855977058410645
1667825355870932200,7.90693212890625,-0.7866349220275879,-0.3143371641635895,-0.5144532322883606
1667825355880939300,7.916939208984375,-0.7678620219230652,-0.3202461898326874,-0.6508962512016296
1667825355890947300,7.926947265625,-0.749858558177948,-0.25600433349609375,-0.883458137512207
1667825355900954400,7.936954345703125,-0.7480867505073547,-0.1183098629117012,-1.210580587387085
1667825355910962400,7.94696240234375,-0.7597306370735168,-0.01667245291173458,-1.579671859741211
1667825355920969200,7.95696923828125,-0.7805805206298828,-0.006518885493278503,-1.8889786005020142
1667825355930977300,7.966977294921875,-0.8511254787445068,-0.040588971227407455,-2.1201868057250977
1667825355940984300,7.976984375,-0.9459750652313232,-0.0491156131029129,-2.282134532928467
1667825355950992400,7.986992431640625,-1.04000723361969,-0.00808881875127554,-2.3352952003479004
1667825355961000200,7.997000244140625,-1.1015856266021729,0.050941210240125656,-2.277162790298462
1667825355971007200,8.00700732421875,-1.1487354040145874,0.12113414704799652,-2.1082615852355957
1667825355981015300,8.017015380859375,-1.1454777717590332,0.19803425669670105,-1.8400381803512573
1667825355991022300,8.027022216796874,-1.054862141609192,0.24842418730258942,-1.495028018951416
1667825356001030100,8.037030029296876,-0.8721069693565369,0.27536100149154663,-1.1081455945968628
1667825356011037400,8.047037353515625,-0.6160192489624023,0.2743271589279175,-0.7126728296279907
1667825356021045200,8.057045166015625,-0.30383631587028503,0.23368999361991882,-0.3145350217819214
1667825356031052300,8.06705224609375,0.04397331550717354,0.1494147926568985,0.07805351912975311
1667825356041060000,8.07706005859375,0.4080764353275299,0.03732233867049217,0.44128018617630005
1667825356051067400,8.0870673828125,0.7724442481994629,-0.10264675319194794,0.7425859570503235
1667825356061075200,8.0970751953125,1.0913996696472168,-0.21529020369052887,0.9960675239562988
1667825356071082200,8.107082275390624,1.3397060632705688,-0.27190500497817993,1.2107667922973633
1667825356081090300,8.11709033203125,1.5082190036773682,-0.3022157847881317,1.4004554748535156
1667825356091097300,8.127097412109375,1.6086808443069458,-0.2904696464538574,1.5870349407196045
1667825356101105200,8.137105224609375,1.6902897357940674,-0.2751932144165039,1.7647902965545654
1667825356111113200,8.14711328125,1.7776280641555786,-0.29127898812294006,1.9566164016723633
1667825356121120300,8.157120361328126,1.886454463005066,-0.3558254837989807,2.1526312828063965
1667825356131128300,8.16712841796875,2.0127928256988525,-0.47890132665634155,2.3403797149658203
1667825356141135000,8.177135009765625,2.127967357635498,-0.6386697292327881,2.501892566680908
1667825356151143400,8.187143310546874,2.231081247329712,-0.7911694645881653,2.605046272277832
1667825356161150200,8.197150146484375,2.307898998260498,-0.9131702184677124,2.6497464179992676
1667825356171158300,8.207158203125,2.3189244270324707,-0.9982569217681885,2.6247963905334473
1667825356181165300,8.217165283203125,2.262362003326416,-1.0542256832122803,2.556906223297119
1667825356191173400,8.22717333984375,2.1174352169036865,-1.0623996257781982,2.443565845489502
1667825356201180200,8.23718017578125,1.9076465368270874,-1.02475106716156,2.2943310737609863
1667825356211188200,8.247188232421875,1.6363071203231812,-0.9554047584533691,2.127488613128662
1667825356221195300,8.2571953125,1.337593913078308,-0.8662064671516418,1.9380568265914917
1667825356231203300,8.267203369140624,1.051635980606079,-0.7639956474304199,1.7383309602737427
1667825356241210000,8.277210205078125,0.8141909241676331,-0.6558894515037537,1.5160683393478394
1667825356251218400,8.287218505859375,0.6488350033760071,-0.567995011806488,1.2848135232925415
1667825356261225200,8.29722509765625,0.5675944685935974,-0.5109556913375854,1.043203353881836
1667825356271233300,8.3072333984375,0.5403196811676025,-0.4562751352787018,0.8057633638381958
1667825356281241000,8.317240966796875,0.5400770902633667,-0.39978814125061035,0.5868624448776245
1667825356291248400,8.327248291015625,0.5357457399368286,-0.3438042402267456,0.40198126435279846
1667825356301256200,8.337256103515625,0.5067816972732544,-0.25204822421073914,0.2562272548675537
1667825356311263200,8.34726318359375,0.44176968932151794,-0.11709652841091156,0.1493479460477829
1667825356321271300,8.357271240234375,0.36159947514533997,0.05512184277176857,0.08154173195362091
1667825356331278300,8.3672783203125,0.2816939949989319,0.2336239367723465,0.050033606588840485
1667825356341286100,8.3772861328125,0.20507538318634033,0.39233341813087463,0.05618923529982567
1667825356351293400,8.38729345703125,0.15199299156665802,0.5139653086662292,0.10166164487600327
1667825356361301200,8.39730126953125,0.13426193594932556,0.5986493229866028,0.1731712520122528
1667825356371308300,8.407308349609375,0.13790273666381836,0.6288037300109863,0.263380765914917
1667825356381316000,8.417316162109374,0.14886005222797394,0.630165696144104,0.36662086844444275
1667825356391323400,8.427323486328126,0.1648360937833786,0.6143100261688232,0.4770224690437317
1667825356401331200,8.437331298828125,0.17685386538505554,0.6060845851898193,0.5970253348350525
1667825356411338200,8.447338134765625,0.18551287055015564,0.6027321815490723,0.7218122482299805
1667825356421346300,8.45734619140625,0.18887005746364594,0.5972791314125061,0.8397601842880249
1667825356431354400,8.467354248046876,0.18815472722053528,0.5877141356468201,0.9536920785903931
1667825356441361200,8.477361083984375,0.18143130838871002,0.5661675333976746,1.055521011352539
1667825356451369200,8.487369140625,0.18510940670967102,0.5206426382064819,1.1495505571365356
1667825356461376300,8.497376220703124,0.19708643853664398,0.4415550231933594,1.2325495481491089
1667825356471384300,8.50738427734375,0.21436849236488342,0.34591585397720337,1.2840402126312256
1667825356481391000,8.51739111328125,0.21879519522190094,0.22995224595069885,1.2889233827590942
1667825356491399200,8.527399169921875,0.19581450521945953,0.1036856472492218,1.235009789466858
1667825356501406200,8.53740625,0.15354987978935242,-0.028185032308101654,1.107100248336792
1667825356511414300,8.547414306640626,0.07828468829393387,-0.1427912414073944,0.8863341212272644
1667825356521421300,8.55742138671875,-0.026741066947579384,-0.1987924575805664,0.6033271551132202
1667825356531429400,8.567429443359375,-0.15190723538398743,-0.15146036446094513,0.29377010464668274
1667825356541436200,8.577436279296874,-0.283892959356308,-0.01655128039419651,0.040099482983350754
1667825356551444200,8.5874443359375,-0.42975643277168274,0.1698755919933319,-0.11331723630428314
1667825356561452300,8.597452392578125,-0.5684091448783875,0.3360198140144348,-0.11914636194705963
1667825356571459300,8.607459228515625,-0.6627481579780579,0.4066636264324188,0.016743293032050133
1667825356581467400,8.61746728515625,-0.6997082829475403,0.37051868438720703,0.22694259881973267
1667825356591474200,8.62747412109375,-0.6889339089393616,0.23067262768745422,0.430781751871109
1667825356601484800,8.63748486328125,-0.6420338153839111,0.007113303057849407,0.5409979820251465
1667825356611492900,8.647492919921875,-0.5717558860778809,-0.25873035192489624,0.5340122580528259
1667825356621500700,8.657500732421875,-0.5170207619667053,-0.5171970725059509,0.4076732397079468
1667825356631508000,8.667508056640624,-0.5242152810096741,-0.7370932102203369,0.16638605296611786
1667825356641515800,8.677515869140626,-0.5919091105461121,-0.9056388139724731,-0.1691480129957199
1667825356651522800,8.687522705078125,-0.7102807760238647,-0.9649932384490967,-0.552685558795929
1667825356661530600,8.697530517578125,-0.8618809580802917,-0.895566999912262,-0.9361099004745483
1667825356671538000,8.707537841796874,-1.041174054145813,-0.7061576843261719,-1.289932131767273
1667825356681545700,8.717545654296876,-1.221238613128662,-0.45624423027038574,-1.5723137855529785
1667825356691552800,8.727552734375,-1.3548253774642944,-0.21130265295505524,-1.7624752521514893
1667825356701560800,8.737560791015625,-1.421198844909668,-0.010784204117953777,-1.8717700242996216
1667825356711568000,8.74756787109375,-1.4138034582138062,0.1082385927438736,-1.928523063659668
1667825356721575700,8.75757568359375,-1.3417357206344604,0.11245543509721756,-1.975681185722351
1667825356731583000,8.7675830078125,-1.2312184572219849,0.02793309837579727,-2.0188281536102295
1667825356741590800,8.7775908203125,-1.0993353128433228,-0.09267214685678482,-2.049877882003784
1667825356751597800,8.787597900390624,-0.9867696166038513,-0.18321003019809723,-2.0607712268829346
1667825356761605600,8.797605712890626,-0.915960967540741,-0.1900642067193985,-2.05674147605896
1667825356771614000,8.807614013671875,-0.8825348019599915,-0.09731776267290115,-2.0143673419952393
1667825356781620700,8.817620849609375,-0.870004415512085,0.05351116135716438,-1.924737572669983
1667825356791628800,8.82762890625,-0.8664584159851074,0.19945451617240906,-1.788719892501831
1667825356801635800,8.8376357421875,-0.8544531464576721,0.26806581020355225,-1.6134459972381592
1667825356811644000,8.847643798828125,-0.8209295272827148,0.2500942647457123,-1.4384382963180542
1667825356821650700,8.857650634765625,-0.7719960808753967,0.15420767664909363,-1.2776843309402466
1667825356831658800,8.86765869140625,-0.7159168124198914,0.04192667827010155,-1.1417059898376465
1667825356841665800,8.877665771484375,-0.6434194445610046,-0.05368506535887718,-1.0242208242416382
1667825356851673900,8.887673828125,-0.5665992498397827,-0.12207717448472977,-0.9175702929496765
1667825356861680600,8.8976806640625,-0.5025840401649475,-0.1422615349292755,-0.8175070881843567
1667825356871689000,8.90768896484375,-0.4749460220336914,-0.12297279387712479,-0.7222362160682678
1667825356881695700,8.91769580078125,-0.4751393496990204,-0.05311887711286545,-0.6236406564712524
1667825356891703800,8.927703857421875,-0.4852924048900604,0.06449643522500992,-0.5262129306793213
1667825356901710800,8.9377109375,-0.49473410844802856,0.2058437019586563,-0.42313289642333984
1667825356911719000,8.947718994140626,-0.5043044090270996,0.3426494896411896,-0.3034544289112091
1667825356921726700,8.957726806640625,-0.5094859004020691,0.4377371370792389,-0.1681637018918991
1667825356931733800,8.967733642578125,-0.5015989542007446,0.49269944429397583,-0.009679258801043034
1667825356941741800,8.977741943359375,-0.4791351556777954,0.5132774114608765,0.15440049767494202
1667825356951748900,8.987748779296876,-0.4582962095737457,0.482522189617157,0.31156694889068604
1667825356961756700,8.997756591796875,-0.44946223497390747,0.41426563262939453,0.44019177556037903
1667825356971764000,9.007763916015625,-0.4478105306625366,0.3082992434501648,0.5324255228042603
1667825356981771800,9.017771728515624,-0.44802093505859375,0.1763390749692917,0.5518525242805481
1667825356991778800,9.02777880859375,-0.4517296552658081,0.05004798620939255,0.4788440763950348
1667825357001786600,9.03778662109375,-0.46444252133369446,-0.04321404919028282,0.3020663857460022
1667825357011794000,9.0477939453125,-0.49334844946861267,-0.07447449862957001,0.04223240911960602
1667825357021801700,9.0578017578125,-0.5253775119781494,-0.05410824343562126,-0.28602802753448486
1667825357031808800,9.067808837890626,-0.5570898652076721,-0.02280624583363533,-0.6583467125892639
1667825357041816800,9.07781689453125,-0.6020898222923279,0.02262781374156475,-1.0714097023010254
1667825357051823900,9.087823974609375,-0.6590897440910339,0.08085569739341736,-1.4984971284866333
1667825357061831700,9.097831787109374,-0.7493504285812378,0.1767369508743286,-1.8709052801132202
1667825357071839700,9.10783984375,-0.8607658743858337,0.3308282494544983,-2.130580425262451
1667825357081846800,9.1178466796875,-0.9560431241989136,0.5423325300216675,-2.22917103767395
1667825357091854800,9.127854736328125,-0.9925311207771301,0.7252994179725647,-2.1295266151428223
1667825357101861600,9.137861572265624,-0.9365724921226501,0.8061244487762451,-1.8609846830368042
1667825357111869700,9.14786962890625,-0.7810132503509521,0.7684401869773865,-1.4729371070861816
1667825357121876700,9.157876708984375,-0.5317227244377136,0.5993992686271667,-1.0314582586288452
1667825357131884800,9.167884765625,-0.16780231893062592,0.34285402297973633,-0.6063231825828552
1667825357141891800,9.177891845703124,0.265507310628891,0.035655733197927475,-0.2358146607875824
1667825357151900000,9.18789990234375,0.7042473554611206,-0.22316916286945343,0.06831780821084976
1667825357161906700,9.19790673828125,1.1107083559036255,-0.3562808930873871,0.32537755370140076
1667825357171914800,9.207914794921875,1.45244300365448,-0.368133008480072,0.5465751886367798
1667825357181921800,9.217921875,1.7205981016159058,-0.2959190011024475,0.7612454295158386
1667825357191929900,9.227929931640626,1.9136649370193481,-0.17181091010570526,1.009226679801941
1667825357201937700,9.237937744140625,2.0377652645111084,-0.042689405381679535,1.2964630126953125
1667825357211944700,9.24794482421875,2.148911237716675,0.03425464406609535,1.6324266195297241
1667825357221952800,9.257952880859374,2.2780463695526123,0.021211545914411545,1.9885581731796265
1667825357231959800,9.267959716796875,2.440880060195923,-0.07930334657430649,2.308842897415161
1667825357241967600,9.277967529296875,2.6345407962799072,-0.2500718832015991,2.5343918800354004
1667825357251975000,9.287974853515625,2.817424774169922,-0.4307577908039093,2.653292179107666
1667825357261982700,9.297982666015624,2.9230384826660156,-0.601326048374176,2.653445243835449
1667825357271989800,9.30798974609375,2.91644287109375,-0.7244908809661865,2.5402274131774902
1667825357281997600,9.31799755859375,2.794485330581665,-0.7824679017066956,2.3324811458587646
1667825357292004900,9.3280048828125,2.546529769897461,-0.758904755115509,2.063981771469116
1667825357302012700,9.3380126953125,2.156562089920044,-0.6603784561157227,1.7588802576065063
1667825357312019700,9.348019775390625,1.6914724111557007,-0.5291141867637634,1.434507131576538
1667825357322027800,9.35802783203125,1.2219464778900146,-0.4038425385951996,1.1036146879196167
1667825357332034800,9.368034912109374,0.8012958765029907,-0.3011680841445923,0.7789415717124939
1667825357342042600,9.378042724609376,0.47973838448524475,-0.24504996836185455,0.4713962972164154
1667825357352050700,9.38805078125,0.2726837396621704,-0.19554632902145386,0.20383967459201813
1667825357362057700,9.3980576171875,0.16246454417705536,-0.18008854985237122,0.001961151836439967
1667825357372065800,9.408065673828125,0.12181485444307327,-0.20882724225521088,-0.12283670902252197
1667825357382072600,9.418072509765626,0.12549853324890137,-0.26534566283226013,-0.16680416464805603
1667825357392081000,9.428080810546875,0.14586293697357178,-0.31270676851272583,-0.1285952627658844
1667825357402087700,9.438087646484375,0.1666449010372162,-0.33996689319610596,-0.021388912573456764
1667825357412095700,9.448095703125,0.1932101994752884,-0.3154594302177429,0.1454368233680725
1667825357422102800,9.458102783203126,0.20294539630413055,-0.2525547444820404,0.34457576274871826
1667825357432110800,9.46811083984375,0.22527706623077393,-0.1561422049999237,0.5577349066734314
1667825357442117600,9.47811767578125,0.2683236002922058,-0.06363783031702042,0.7711175084114075
1667825357452125700,9.488125732421874,0.33431991934776306,0.01654462143778801,0.9730333089828491
1667825357462132700,9.4981328125,0.407250314950943,0.06503519415855408,1.152799367904663
1667825357472140800,9.508140869140625,0.5064871907234192,0.08467946946620941,1.2973487377166748
1667825357482148900,9.51814892578125,0.5785472393035889,0.07256874442100525,1.3978180885314941
1667825357492156000,9.528156005859374,0.6180490851402283,0.009870207868516445,1.4387562274932861
1667825357502164000,9.5381640625,0.6154142022132874,-0.06733110547065735,1.4242154359817505
1667825357512170800,9.548170654296875,0.5639904141426086,-0.158418670296669,1.3612947463989258
1667825357522178800,9.5581787109375,0.46786972880363464,-0.26451393961906433,1.2379661798477173
1667825357532185900,9.568185791015624,0.3319361209869385,-0.35760819911956787,1.0612316131591797
1667825357542194000,9.57819384765625,0.15401513874530792,-0.39911410212516785,0.846259355545044
1667825357552200700,9.58820068359375,-0.05071883648633957,-0.38038647174835205,0.6051918864250183
1667825357562208800,9.598208740234375,-0.2733724117279053,-0.3020764887332916,0.36630263924598694
1667825357572215800,9.6082158203125,-0.48682504892349243,-0.17635107040405273,0.15810760855674744
1667825357582223600,9.6182236328125,-0.6718172430992126,-0.01745648868381977,0.010595918633043766
1667825357592231000,9.62823095703125,-0.823378324508667,0.11724992841482162,-0.058214571326971054
1667825357602235400,9.6382353515625,-0.9372025728225708,0.20157332718372345,-0.05669150874018669
1667825357612242200,9.6482421875,-1.0168532133102417,0.2258477807044983,-0.012119779363274574
1667825357622250200,9.658250244140625,-1.0671374797821045,0.18408222496509552,0.05299397557973862
1667825357632258300,9.66825830078125,-1.0956354141235352,0.08191750198602676,0.0807419866323471
1667825357642265300,9.678265380859376,-1.0966918468475342,-0.07725883275270462,0.04511288180947304
1667825357652273200,9.688273193359375,-1.0842500925064087,-0.263308584690094,-0.08827686309814453
1667825357662280400,9.698280517578125,-1.0873435735702515,-0.4087938964366913,-0.320353239774704
1667825357672288300,9.708288330078124,-1.1326533555984497,-0.4711206555366516,-0.6214689016342163
1667825357682295300,9.71829541015625,-1.2112200260162354,-0.4088788330554962,-0.9558069109916687
1667825357692303000,9.72830322265625,-1.3218588829040527,-0.23529987037181854,-1.2760347127914429
1667825357702310400,9.738310302734375,-1.4513351917266846,0.01278423797339201,-1.545843243598938
1667825357712318200,9.748318115234374,-1.581552267074585,0.2809903919696808,-1.7634738683700562
1667825357722325200,9.7583251953125,-1.6904816627502441,0.5521422624588013,-1.9049066305160522
1667825357732333000,9.7683330078125,-1.7545770406723022,0.7924249172210693,-1.974123239517212
1667825357742340400,9.77834033203125,-1.77027428150177,0.941816508769989,-1.981887936592102
1667825357752348200,9.78834814453125,-1.7599776983261108,0.9873230457305908,-1.9560006856918335
1667825357762356200,9.798356201171876,-1.7248895168304443,0.9620016813278198,-1.8955334424972534
1667825357772363300,9.80836328125,-1.6656160354614258,0.9102162718772888,-1.7987325191497803
1667825357782371300,9.818371337890625,-1.5998096466064453,0.8466045260429382,-1.6643742322921753
1667825357792378000,9.828378173828124,-1.5522524118423462,0.7768012285232544,-1.5116804838180542
1667825357802386200,9.83838623046875,-1.5308449268341064,0.7036300301551819,-1.353048324584961
1667825357812393200,9.848393310546875,-1.5138366222381592,0.6375223994255066,-1.1880316734313965
1667825357822401300,9.8584013671875,-1.493537187576294,0.5735104084014893,-1.030632734298706
1667825357832408000,9.868407958984376,-1.4721506834030151,0.5043196082115173,-0.8864907026290894
1667825357842416400,9.87841650390625,-1.4599260091781616,0.44028738141059875,-0.7602701783180237
1667825357852423200,9.888423095703125,-1.4362316131591797,0.38086453080177307,-0.6472005844116211
1667825357862431200,9.89843115234375,-1.403692603111267,0.33793702721595764,-0.5441703796386719
1667825357872438300,9.908438232421876,-1.36590576171875,0.29717788100242615,-0.45420053601264954
1667825357882446300,9.9184462890625,-1.3196122646331787,0.24091008305549622,-0.38617539405822754
1667825357892453000,9.928453125,-1.2705270051956177,0.17532308399677277,-0.3434266149997711
1667825357902461200,9.938461181640625,-1.2359240055084229,0.10755416005849838,-0.33021971583366394
1667825357912469500,9.948469482421874,-1.2097246646881104,0.037932466715574265,-0.34505966305732727
1667825357922476300,9.958476318359375,-1.1924636363983154,-0.02304939366877079,-0.37866902351379395
1667825357932484400,9.968484375,-1.1914231777191162,-0.0824275016784668,-0.433809757232666
1667825357942491400,9.978491455078125,-1.1922229528427124,-0.12903840839862823,-0.5079758763313293
1667825357952499500,9.98849951171875,-1.1955204010009766,-0.1772666573524475,-0.5893096327781677
1667825357962506200,9.99850634765625,-1.183364987373352,-0.2553713023662567,-0.6874865293502808
1667825357972514000,10.00851416015625,-1.1468034982681274,-0.37692198157310486,-0.830855131149292
1667825357982521300,10.018521240234374,-1.0878986120224,-0.5451533198356628,-1.0405217409133911
1667825357992529200,10.028529052734376,-1.0127431154251099,-0.7665647864341736,-1.3454889059066772
1667825358002536200,10.0385361328125,-0.9318669438362122,-0.9993245601654053,-1.7539054155349731
1667825358012544300,10.048544189453125,-0.8552917838096619,-1.1631231307983398,-2.2323811054229736
1667825358022551300,10.05855126953125,-0.7937902808189392,-1.1798030138015747,-2.7038211822509766
1667825358032559000,10.06855908203125,-0.7546554207801819,-1.0447298288345337,-3.048898935317993
1667825358042566400,10.07856640625,-0.7806779742240906,-0.8239937424659729,-3.162614345550537
1667825358052574200,10.08857421875,-0.8183446526527405,-0.561794638633728,-3.0105321407318115
1667825358062582300,10.098582275390624,-0.7718501091003418,-0.3727077841758728,-2.5987348556518555
1667825358072589000,10.108589111328126,-0.6240950226783752,-0.3133363425731659,-2.0362792015075684
1667825358082597400,10.118597412109375,-0.34884241223335266,-0.3758617639541626,-1.4458063840866089
1667825358092604200,10.128604248046875,0.07173996418714523,-0.5748260021209717,-0.926202118396759
1667825358102612200,10.1386123046875,0.6119560599327087,-0.882939875125885,-0.5147911906242371
1667825358112619300,10.148619384765626,1.2322512865066528,-1.199815034866333,-0.2158377468585968
1667825358122627300,10.15862744140625,1.8624845743179321,-1.3967558145523071,-0.016530239954590797
1667825358132634000,10.168634033203125,2.5132088661193848,-1.4462597370147705,0.11850880086421967
1667825358142642200,10.17864208984375,3.15110182762146,-1.3253124952316284,0.23681840300559998
1667825358152649200,10.188649169921876,3.7428417205810547,-1.0102075338363647,0.37083107233047485
1667825358162657300,10.1986572265625,4.231545925140381,-0.5362615585327148,0.5122984647750854
1667825358172664000,10.2086640625,4.594589710235596,-0.017646905034780502,0.6337726712226868
1667825358182672400,10.21867236328125,4.834163665771484,0.4418032467365265,0.7161040306091309
1667825358192680400,10.228680419921876,4.957592487335205,0.7890427112579346,0.7388644814491272
1667825358202687200,10.238687255859375,4.949710845947266,0.9984137415885925,0.6974571347236633
1667825358212695300,10.2486953125,4.790102958679199,1.026627540588379,0.5931267142295837
1667825358222702300,10.258702392578124,4.414718151092529,0.9139878153800964,0.458125501871109
1667825358232710400,10.26871044921875,3.857450485229492,0.7053520679473877,0.36571699380874634
1667825358242717200,10.27871728515625,3.1725332736968994,0.4387302100658417,0.36665070056915283
1667825358252725200,10.288725341796875,2.470219135284424,0.13125015795230865,0.5003629326820374
1667825358262732300,10.298732177734376,1.8226500749588013,-0.2220969796180725,0.7933644652366638
1667825358272740400,10.308740234375,1.2874157428741455,-0.6120639443397522,1.1996842622756958
1667825358282747400,10.318747314453125,0.89787757396698,-0.986569344997406,1.6815097332000732
1667825358292755500,10.32875537109375,0.6652259230613708,-1.2852095365524292,2.1695761680603027
1667825358302762200,10.33876220703125,0.5602489113807678,-1.5191909074783325,2.591414451599121
1667825358312770300,10.348770263671875,0.5137477517127991,-1.6658631563186646,2.917965888977051
1667825358322777300,10.35877734375,0.5080757141113281,-1.7105387449264526,3.1383414268493652
1667825358332785400,10.368785400390625,0.5501289367675781,-1.6394752264022827,3.2644834518432617
1667825358342793200,10.378793212890624,0.5825214982032776,-1.4490275382995605,3.311981201171875
1667825358352800300,10.38880029296875,0.5630111694335938,-1.19527006149292,3.3030636310577393
1667825358362808300,10.398808349609375,0.5556784272193909,-0.9100889563560486,3.2670047283172607
1667825358372815400,10.4088154296875,0.5909085869789124,-0.6120407581329346,3.212339162826538
1667825358382823200,10.4188232421875,0.5995675921440125,-0.34540507197380066,3.1153929233551025
1667825358392830500,10.42883056640625,0.5651882886886597,-0.13707955181598663,2.9815244674682617
1667825358402838300,10.43883837890625,0.5205486416816711,0.048226919025182724,2.8399453163146973
1667825358412845300,10.44884521484375,0.47646960616111755,0.20881633460521698,2.6989283561706543
1667825358422853000,10.45885302734375,0.39997750520706177,0.3072616755962372,2.5501861572265625
1667825358432860400,10.4688603515625,0.28459417819976807,0.316390722990036,2.3856515884399414
1667825358442868200,10.4788681640625,0.13690432906150818,0.24101421236991882,2.1970698833465576
1667825358452875300,10.488875244140624,-0.03297179937362671,0.13668860495090485,1.9792338609695435
1667825358462883300,10.49888330078125,-0.2116243690252304,0.02569977007806301,1.726649522781372
1667825358472891400,10.508891357421875,-0.3983718752861023,-0.06741419434547424,1.4346853494644165
1667825358482898200,10.518898193359375,-0.5711228847503662,-0.08826008439064026,1.1201114654541016
1667825358492906200,10.52890625,-0.7419881224632263,-0.006247509736567736,0.8383734822273254
1667825358502913300,10.538913330078126,-0.911550760269165,0.14540965855121613,0.6172216534614563
1667825358512921300,10.54892138671875,-1.085261583328247,0.31644025444984436,0.4943056106567383
1667825358522928000,10.55892822265625,-1.2387195825576782,0.44589757919311523,0.46509072184562683
1667825358532936400,10.5689365234375,-1.3589352369308472,0.5119951367378235,0.5228685140609741
1667825358542943200,10.578943115234376,-1.4281246662139893,0.5109663605690002,0.6229394674301147
1667825358552951300,10.588951416015625,-1.4690563678741455,0.4686439037322998,0.704066812992096
1667825358562958300,10.598958251953125,-1.4955060482025146,0.3769153356552124,0.721621036529541
1667825358572966400,10.60896630859375,-1.5039488077163696,0.24184192717075348,0.6408100724220276
1667825358582973200,10.61897314453125,-1.5195517539978027,0.04261963069438934,0.43429553508758545
1667825358592981200,10.628981201171875,-1.5492700338363647,-0.18249337375164032,0.10830064117908478
1667825358602989300,10.6389892578125,-1.601861834526062,-0.37794941663742065,-0.31400108337402344
1667825358612996000,10.64899609375,-1.6952722072601318,-0.505387008190155,-0.7742546796798706
1667825358623004200,10.659004150390626,-1.847166657447815,-0.5330338478088379,-1.226782202720642
1667825358633011200,10.66901123046875,-2.0489211082458496,-0.4813717007637024,-1.602692723274231
1667825358643019300,10.679019287109375,-2.254823684692383,-0.3794269561767578,-1.8649730682373047
1667825358653026000,10.689026123046874,-2.4086225032806396,-0.25293344259262085,-2.0064241886138916
1667825358663034000,10.6990341796875,-2.4785454273223877,-0.11897565424442291,-2.053485631942749
1667825358673041200,10.709041259765625,-2.463491916656494,0.013340306468307972,-2.043379545211792
1667825358683049200,10.71904931640625,-2.379049777984619,0.1143484115600586,-1.9922431707382202
1667825358693056000,10.729055908203126,-2.229886770248413,0.20425726473331451,-1.9085311889648438
1667825358703064300,10.739064208984376,-2.015338182449341,0.285083144903183,-1.7753363847732544
1667825358713071000,10.749071044921875,-1.7698090076446533,0.3633049726486206,-1.5795762538909912
1667825358723079200,10.7590791015625,-1.518492579460144,0.43317487835884094,-1.3359532356262207
1667825358733086200,10.769086181640626,-1.2839411497116089,0.5014244914054871,-1.0729979276657104
1667825358743094300,10.77909423828125,-1.093041181564331,0.5370818376541138,-0.8089993596076965
1667825358753102000,10.78910205078125,-0.9488281011581421,0.5280590057373047,-0.5717734694480896
1667825358763109000,10.799109130859375,-0.8527111411094666,0.4757465720176697,-0.38279852271080017
1667825358773117200,10.8091171875,-0.7902222275733948,0.38022029399871826,-0.24369016289710999
1667825358783124200,10.819124267578125,-0.7588693499565125,0.2543196380138397,-0.15778429806232452
1667825358793132000,10.829132080078125,-0.7506782412528992,0.12695661187171936,-0.12927782535552979
1667825358803139300,10.839139404296875,-0.766147255897522,0.015075888484716415,-0.15406332910060883
1667825358813147100,10.849147216796876,-0.7889436483383179,-0.088839590549469,-0.2144411951303482
1667825358823154200,10.859154296875,-0.808072030544281,-0.1812712550163269,-0.3215023875236511
1667825358833162000,10.869161865234375,-0.8277719616889954,-0.24863910675048828,-0.4677285850048065
1667825358843169300,10.879169189453124,-0.8578845858573914,-0.2916733920574188,-0.6559911370277405
1667825358853177000,10.889177001953126,-0.8859953284263611,-0.33326584100723267,-0.8711021542549133
1667825358863184100,10.89918408203125,-0.9096325039863586,-0.36767709255218506,-1.1211146116256714
1667825358873192200,10.909192138671875,-0.9526963233947754,-0.3888731896877289,-1.401078701019287
1667825358883200300,10.9192001953125,-1.0221643447875977,-0.39176884293556213,-1.6673215627670288
1667825358893207000,10.92920703125,-1.1077450513839722,-0.41742944717407227,-1.8873023986816406
1667825358903215000,10.939215087890625,-1.1921595335006714,-0.4654987156391144,-2.0424675941467285
1667825358913222100,10.94922216796875,-1.2568175792694092,-0.531762957572937,-2.15914249420166
1667825358923230200,10.959230224609374,-1.3174428939819336,-0.6179937124252319,-2.283597707748413
1667825358933237000,10.969237060546876,-1.370485544204712,-0.6614469289779663,-2.427762508392334
1667825358943245000,10.9792451171875,-1.4258404970169067,-0.6178765296936035,-2.576190948486328
1667825358953252000,10.989252197265625,-1.4636695384979248,-0.4424794316291809,-2.6877007484436035
1667825358963260200,10.99926025390625,-1.4742953777313232,-0.14203223586082458,-2.733233690261841
1667825358973267200,11.00926708984375,-1.4565727710723877,0.23344017565250397,-2.65940260887146
1667825358983275300,11.019275146484375,-1.392871618270874,0.5814839005470276,-2.42875075340271
1667825358993282000,11.029281982421875,-1.2594187259674072,0.835268497467041,-2.0379176139831543
1667825359003290000,11.0392900390625,-1.054625391960144,0.936800479888916,-1.551655650138855
1667825359013298000,11.0492978515625,-0.7808353900909424,0.8741751909255981,-1.042917251586914
1667825359023305200,11.05930517578125,-0.4333668649196625,0.6966736316680908,-0.5595074892044067
1667825359033313000,11.06931298828125,-0.03958069905638695,0.41810643672943115,-0.14995168149471283
1667825359043320000,11.079320068359374,0.34708845615386963,0.10088533163070679,0.17106495797634125
1667825359053328100,11.089328125,0.712502121925354,-0.16538496315479279,0.38244137167930603
1667825359063335200,11.099335205078125,1.0322449207305908,-0.3566577136516571,0.4625825583934784
1667825359073343000,11.109343017578125,1.3149839639663696,-0.4547901451587677,0.45238423347473145
1667825359083350300,11.119350341796874,1.5465914011001587,-0.42586928606033325,0.42116880416870117
1667825359093358000,11.129358154296876,1.70206880569458,-0.2565753161907196,0.40120282769203186
1667825359103365000,11.139365234375,1.7853888273239136,0.02316151186823845,0.41590720415115356
1667825359113373000,11.149373046875,1.8438656330108643,0.35936084389686584,0.4563731253147125
1667825359123380200,11.159380126953126,1.918434739112854,0.6913126707077026,0.521013081073761
1667825359133388000,11.169387939453125,2.01820969581604,0.9845040440559387,0.6204084157943726
1667825359143396000,11.17939599609375,2.109339714050293,1.2205398082733154,0.7529832124710083
1667825359153403100,11.189403076171875,2.1759531497955322,1.3762038946151733,0.9199985861778259
1667825359163411200,11.1994111328125,2.2086894512176514,1.466025948524475,1.1140910387039185
1667825359173418000,11.20941796875,2.197543144226074,1.5007435083389282,1.334444522857666
1667825359183426000,11.219426025390625,2.1256017684936523,1.482768177986145,1.5604288578033447
1667825359193433000,11.22943310546875,1.9756112098693848,1.4180347919464111,1.7800419330596924
1667825359203441200,11.239441162109374,1.7426726818084717,1.3250662088394165,1.9725983142852783
1667825359213448000,11.249447998046875,1.4429028034210205,1.2120230197906494,2.1215884685516357
1667825359223456300,11.259456298828125,1.1036978960037231,1.0643155574798584,2.2020626068115234
1667825359233463000,11.269463134765624,0.728202223777771,0.8876992464065552,2.221313714981079
1667825359243471000,11.27947119140625,0.31515607237815857,0.7083196043968201,2.200357675552368
1667825359253479200,11.289479248046876,-0.09373794496059418,0.5641523003578186,2.148073434829712
1667825359263486200,11.299486328125,-0.4639261066913605,0.4738368093967438,2.075746536254883
1667825359273494300,11.309494384765625,-0.7759005427360535,0.43294957280158997,1.973500370979309
1667825359283501000,11.3195009765625,-1.0141689777374268,0.40586867928504944,1.8358615636825562
1667825359293509000,11.329509033203125,-1.1937683820724487,0.39542749524116516,1.6993175745010376
1667825359303516200,11.33951611328125,-1.3381057977676392,0.4101489186286926,1.5699573755264282
1667825359313524200,11.349524169921875,-1.4478319883346558,0.43923380970954895,1.4584990739822388
1667825359323531300,11.35953125,-1.5340687036514282,0.4946374297142029,1.3746603727340698
1667825359333539300,11.369539306640625,-1.6176655292510986,0.5816684365272522,1.309950351715088
1667825359343546000,11.379546142578125,-1.722220778465271,0.6914045214653015,1.250100016593933
1667825359353554200,11.38955419921875,-1.8366005420684814,0.8123623728752136,1.215787649154663
1667825359363561200,11.399561279296876,-1.9547330141067505,0.9680654406547546,1.237979531288147
1667825359373569300,11.4095693359375,-2.0272421836853027,1.1585315465927124,1.3117549419403076
1667825359383577000,11.4195771484375,-1.9182709455490112,1.564268946647644,1.3648301362991333
1667825359393584000,11.429584228515624,-1.6734901666641235,2.0700016021728516,1.359279751777649
1667825359403592200,11.43959228515625,-1.4872121810913086,2.4180068969726562,1.2868671417236328
1667825359413599200,11.44959912109375,-1.4745291471481323,2.3227415084838867,1.2004539966583252
1667825359423607000,11.45960693359375,-1.6136372089385986,1.9791628122329712,1.1379660367965698
1667825359433614300,11.4696142578125,-1.8702828884124756,1.617927074432373,1.0609184503555298
1667825359443622100,11.4796220703125,-2.1908726692199707,1.4621119499206543,0.9713848233222961
1667825359453629200,11.489629150390625,-2.4465367794036865,1.6001949310302734,0.8937235474586487
1667825359463637000,11.499636962890625,-2.570439338684082,1.961773157119751,0.8763784170150757
1667825359473644300,11.509644287109374,-2.617980480194092,2.275644063949585,0.9207445383071899
1667825359483652000,11.519652099609376,-2.69398832321167,2.3759214878082275,1.0180271863937378
1667825359493659100,11.5296591796875,-2.7753677368164062,2.401975631713867,1.2418538331985474
1667825359503667200,11.539667236328125,-2.8224759101867676,2.4879202842712402,1.640408992767334
1667825359513675300,11.54967529296875,-2.8317458629608154,2.622352361679077,2.0977118015289307
1667825359523682000,11.55968212890625,-2.8330249786376953,2.8190810680389404,2.4719619750976562
1667825359533690000,11.569690185546875,-2.8140199184417725,3.059534788131714,2.6929073333740234
1667825359543697200,11.579697265625,-2.7113821506500244,2.9003539085388184,2.680746555328369
1667825359553705200,11.589705322265624,-2.5475380420684814,2.498180866241455,2.462512731552124
1667825359563712000,11.5997119140625,-2.450124740600586,2.0169637203216553,2.2017812728881836
1667825359573720300,11.60972021484375,-2.4336109161376953,1.5808449983596802,2.014037847518921
1667825359583727000,11.61972705078125,-2.386838436126709,1.3728840351104736,1.892886996269226
1667825359593735200,11.629735107421874,-2.341254949569702,1.1501222848892212,1.7507364749908447
1667825359603742500,11.639742431640625,-2.3362810611724854,0.7498361468315125,1.5431196689605713
1667825359613750300,11.649750244140625,-2.4110300540924072,0.42468762397766113,1.3759831190109253
1667825359623758300,11.65975830078125,-2.553222894668579,0.2410605549812317,1.309110164642334
1667825359633765000,11.66976513671875,-2.667661190032959,-0.009192166849970818,1.249433994293213
1667825359643773400,11.6797734375,-2.701704740524292,-0.4320637881755829,1.1119765043258667
1667825359653780200,11.6897802734375,-2.7101690769195557,-0.8956005573272705,0.9267675280570984
1667825359663788300,11.699788330078125,-2.698951482772827,-1.2961293458938599,0.7317967414855957
1667825359673795300,11.70979541015625,-2.6345632076263428,-1.5950499773025513,0.57098788022995
1667825359683803400,11.719803466796876,-2.5078353881835938,-1.8483003377914429,0.45411157608032227
1667825359693810200,11.72981005859375,-2.364267349243164,-2.076179027557373,0.3809073865413666
1667825359703818200,11.739818359375,-2.2366862297058105,-2.274538993835449,0.3300255835056305
1667825359713825300,11.7498251953125,-2.1177358627319336,-2.3487677574157715,0.29873502254486084
1667825359723833300,11.759833251953125,-2.0057461261749268,-2.232574224472046,0.26024356484413147
1667825359733840100,11.769840087890625,-1.87758469581604,-1.8305776119232178,0.2620933949947357
1667825359743848400,11.779848388671875,-1.6912630796432495,-1.1015409231185913,0.31646716594696045
1667825359753856500,11.7898564453125,-1.5008516311645508,-0.8844754695892334,0.31946322321891785
1667825359763863300,11.79986328125,-1.3733795881271362,-1.22178316116333,0.2603367865085602
1667825359773871400,11.809871337890625,-1.3422507047653198,-1.4682481288909912,0.2907183766365051
1667825359783878400,11.81987841796875,-1.4112170934677124,-1.3629759550094604,0.4565369188785553
1667825359793886500,11.829886474609374,-1.5528786182403564,-1.1060667037963867,0.6621223092079163
1667825359803893200,11.839893310546875,-1.7170642614364624,-0.9682028889656067,0.8217950463294983
1667825359813901300,11.8499013671875,-1.8362865447998047,-1.0527970790863037,0.9102402329444885
1667825359823908400,11.859908447265624,-1.8653664588928223,-1.2127774953842163,0.9436277151107788
1667825359833916400,11.86991650390625,-1.8044335842132568,-1.3230522871017456,0.9367192387580872
1667825359843923500,11.87992333984375,-1.6968562602996826,-1.3897418975830078,0.8888214826583862
1667825359853931500,11.889931640625,-1.6013225317001343,-1.466110348701477,0.8084222674369812
1667825359863938300,11.899938232421874,-1.5488375425338745,-1.5166478157043457,0.6999186873435974
1667825359873946400,11.9099462890625,-1.5295103788375854,-1.5032061338424683,0.5625373721122742
1667825359883954200,11.9199541015625,-1.5178859233856201,-1.4365676641464233,0.4123004674911499
1667825359893961500,11.92996142578125,-1.506375789642334,-1.3419405221939087,0.25064101815223694
1667825359903969300,11.93996923828125,-1.5198777914047241,-1.2161202430725098,0.11590582877397537
1667825359913976300,11.949976318359376,-1.5504292249679565,-1.0508100986480713,0.03398672863841057
1667825359923984400,11.959984375,-1.6011230945587158,-0.8788183927536011,0.030064424499869347
1667825359933991400,11.969991455078125,-1.6561740636825562,-0.7098373770713806,0.11771012097597122
1667825359943999200,11.979999267578124,-1.693160891532898,-0.5406443476676941,0.28357258439064026
1667825359954006300,11.99000634765625,-1.689643383026123,-0.41189488768577576,0.4622136950492859
1667825359964014300,12.000014404296875,-1.655280590057373,-0.3742063641548157,0.5710443258285522
1667825359974021000,12.010021240234375,-1.605520248413086,-0.3849378228187561,0.5882337093353271
1667825359984029200,12.020029296875,-1.567925214767456,-0.44421687722206116,0.5305919647216797
1667825359994036200,12.0300361328125,-1.5545259714126587,-0.598787248134613,0.3864140212535858
1667825360004044300,12.040044189453125,-1.5537174940109253,-0.8519319295883179,0.16750884056091309
1667825360014052400,12.05005224609375,-1.556592345237732,-1.1310431957244873,-0.09247294068336487
1667825360024059400,12.060059326171874,-1.543129563331604,-1.3287343978881836,-0.358945369720459
1667825360034067500,12.0700673828125,-1.5255603790283203,-1.3963960409164429,-0.566881537437439
1667825360044074200,12.08007421875,-1.523566484451294,-1.3978372812271118,-0.6796647906303406
1667825360054082300,12.090082275390625,-1.5382812023162842,-1.3269141912460327,-0.6999785900115967
1667825360064089300,12.10008935546875,-1.5408400297164917,-1.208855390548706,-0.640619158744812
1667825360074097400,12.110097412109376,-1.514985203742981,-1.0620065927505493,-0.5370323061943054
1667825360084104200,12.120104248046875,-1.4588618278503418,-0.9091989398002625,-0.4361669421195984
1667825360094112500,12.130112548828125,-1.368242621421814,-0.7615242600440979,-0.36771249771118164
1667825360104119300,12.140119384765624,-1.2627886533737183,-0.6697890162467957,-0.3473781943321228
1667825360114127400,12.15012744140625,-1.16094970703125,-0.6129994988441467,-0.3435640335083008
1667825360124135200,12.16013525390625,-1.0563603639602661,-0.5398206114768982,-0.32536423206329346
1667825360134142500,12.170142578125,-0.9445145726203918,-0.41712719202041626,-0.2687166929244995
1667825360144150300,12.180150390625,-0.8404680490493774,-0.27718234062194824,-0.1890956163406372
1667825360154157300,12.1901572265625,-0.7768834829330444,-0.12201352417469025,-0.07169229537248611
1667825360164165400,12.200165283203125,-0.7980737090110779,0.020002469420433044,0.18709905445575714
1667825360174172400,12.21017236328125,-0.8790327906608582,-0.1707160770893097,0.37008538842201233
1667825360184180200,12.22018017578125,-0.9436708688735962,-0.41374924778938293,0.45910367369651794
1667825360194187500,12.2301875,-0.9932999610900879,-0.6925124526023865,0.4438248574733734
1667825360204195300,12.2401953125,-1.054273009300232,-0.8990924954414368,0.3867168128490448
1667825360214202400,12.250202392578124,-1.1237932443618774,-1.02346932888031,0.2909471392631531
1667825360224210200,12.260210205078126,-1.2027040719985962,-1.0697606801986694,0.16986626386642456
1667825360234217500,12.270217529296875,-1.2926349639892578,-1.0639411211013794,0.07726655900478363
